time,accel_x,accel_y,accel_z,gyro_x,gyro_y,gyro_z,mag_x,mag_y,mag_z
0.0,76.26969146728516,-7.240066051483154,-12.832921028137207,4.529861927032471,-1.9984685182571411,1.1990811824798584,-34.5,-19.650001525878906,-22.80000114440918
0.019,76.76768493652344,-4.63517427444458,-10.15141487121582,-2.9310872554779053,3.86370587348938,7.327718257904053,-34.20000076293945,-18.75,-23.25
0.023,77.61044311523438,-2.75812029838562,-9.998186111450195,-17.852985382080078,8.39356803894043,-2.6646246910095215,-34.05000305175781,-18.150001525878906,-24.600000381469727
0.03,76.5761489868164,-1.5322890281677246,-10.074800491333008,-20.517610549926758,7.860642910003662,-4.396630764007568,-34.05000305175781,-18.150001525878906,-24.600000381469727
0.04,76.76768493652344,0.1149216815829277,-10.879252433776855,-13.58958625793457,1.5987749099731445,5.595712184906006,-34.05000305175781,-18.450000762939453,-23.100000381469727
0.05,77.87859344482422,1.8770540952682495,-10.764330863952637,-14.388973236083984,-1.5987749099731445,4.929555892944336,-34.05000305175781,-18.450000762939453,-23.100000381469727
0.06,78.26166534423828,3.9456443786621094,-10.649409294128418,-19.31852912902832,8.660030364990234,1.1990811824798584,-34.80000305175781,-19.200000762939453,-22.350000381469727
0.07,78.60643005371094,3.9839515686035156,-10.994174003601074,-9.459418296813965,9.859111785888672,9.592649459838867,-34.80000305175781,-18.450000762939453,-23.55000114440918
0.086,78.03182220458984,4.865017890930176,-11.568782806396484,-10.92496109008789,11.990811347961426,0.7993874549865723,-34.650001525878906,-17.100000381469727,-22.950000762939453
0.09,77.95520782470703,3.754108190536499,-10.687716484069824,-7.9938740730285645,10.392036437988281,6.661561965942383,-34.650001525878906,-17.100000381469727,-22.950000762939453
0.1,76.99752807617188,2.5665841102600098,-10.611102104187012,4.130168437957764,4.130168437957764,23.315465927124023,-34.650001525878906,-17.100000381469727,-22.950000762939453
0.11,76.69107055664062,0.5363011956214905,-10.879252433776855,-2.531393527984619,8.926492691040039,16.25421142578125,-34.05000305175781,-19.200000762939453,-23.100000381469727
0.12,76.23138427734375,-0.6512228846549988,-10.572794914245605,-7.327718257904053,9.72588062286377,12.523736000061035,-34.650001525878906,-19.80000114440918,-23.25
0.139,76.92091369628906,-0.689530074596405,-10.457873344421387,-17.186830520629883,9.592649459838867,5.8621745109558105,-34.05000305175781,-18.900001525878906,-22.05000114440918
0.143,77.07414245605469,-1.4939818382263184,-10.381258964538574,-14.655436515808105,-0.9326186776161194,14.255742073059082,-33.75,-18.150001525878906,-23.850000381469727
0.15,78.07012939453125,-0.8427590131759644,-10.15141487121582,-13.58958625793457,0.5329249501228333,14.788667678833008,-33.75,-18.150001525878906,-23.850000381469727
0.16,78.91288757324219,0.19153612852096558,-9.155426979064941,-17.986217498779297,-2.9310872554779053,10.791729927062988,-34.95000076293945,-17.850000381469727,-22.950000762939453
0.17,79.5641098022461,1.072602391242981,-9.959878921508789,-24.381317138671875,4.929555892944336,4.130168437957764,-35.55000305175781,-19.200000762939453,-23.850000381469727
0.18,80.06210327148438,2.604891538619995,-10.266336441040039,-20.38437843322754,-0.6661561727523804,10.92496109008789,-34.20000076293945,-19.05000114440918,-22.5
0.199,78.52981567382812,2.719813108444214,-9.806650161743164,-14.255742073059082,-1.5987749099731445,14.255742073059082,-34.20000076293945,-19.05000114440918,-22.5
0.204,79.87056732177734,4.060565948486328,-10.496180534362793,-15.188361167907715,8.793261528015137,6.5283308029174805,-35.25,-20.100000381469727,-22.80000114440918
0.21,77.53382873535156,2.75812029838562,-11.377246856689453,-15.321592330932617,4.796324729919434,8.660030364990234,-33.0,-18.900001525878906,-23.850000381469727
0.22,78.26166534423828,2.451662540435791,-10.687716484069824,-4.663093090057373,1.9984685182571411,7.860642910003662,-35.25,-19.200000762939453,-23.850000381469727
0.23,78.29997253417969,3.064578056335449,-10.879252433776855,-5.329249382019043,9.992342948913574,12.25727367401123,-34.80000305175781,-19.650001525878906,-22.80000114440918
0.24,77.07414245605469,1.9153614044189453,-11.262324333190918,-7.594180583953857,10.125574111938477,7.06125545501709,-34.80000305175781,-19.650001525878906,-22.80000114440918
0.26,78.26166534423828,1.1492167711257935,-10.266336441040039,-2.398162364959717,6.661561965942383,17.719755172729492,-34.95000076293945,-17.850000381469727,-22.950000762939453
0.264,77.763671875,-1.1875240802764893,-10.228029251098633,-13.323123931884766,8.260336875915527,14.655436515808105,-33.900001525878906,-19.80000114440918,-24.450000762939453
0.27,77.64875030517578,-1.9153614044189453,-9.730035781860352,-17.32006072998047,2.398162364959717,12.25727367401123,-34.80000305175781,-20.100000381469727,-23.850000381469727
0.28,78.3382797241211,-2.2601263523101807,-8.96389102935791,-14.788667678833008,3.197549819946289,3.597243309020996,-34.80000305175781,-19.650001525878906,-23.55000114440918
0.29,78.4148941040039,-2.2218191623687744,-8.504204750061035,-11.724349021911621,-9.326186180114746,17.053598403930664,-34.80000305175781,-19.650001525878906,-23.55000114440918
0.3,77.763671875,-3.2561142444610596,-9.768342971801758,-23.182235717773438,8.526799201965332,9.459418296813965,-35.25,-18.450000762939453,-23.100000381469727
0.319,79.83226013183594,-0.8810662031173706,-10.649409294128418,-27.17917251586914,4.529861927032471,1.9984685182571411,-35.25,-18.150001525878906,-24.150001525878906
0.323,78.68304443359375,0.2298433631658554,-10.611102104187012,-23.04900360107422,3.197549819946289,6.794793128967285,-35.70000076293945,-18.30000114440918,-22.200000762939453
0.33,78.3382797241211,1.3024457693099976,-10.879252433776855,-19.45176124572754,-4.263399600982666,13.856048583984375,-34.20000076293945,-19.5,-22.5
0.34,78.26166534423828,0.9959878921508789,-11.109095573425293,-21.316997528076172,8.660030364990234,9.192955017089844,-34.20000076293945,-19.5,-22.5
0.35,77.7253646850586,2.3367409706115723,-10.304644584655762,-22.51607894897461,11.591117858886719,9.459418296813965,-34.80000305175781,-17.700000762939453,-23.850000381469727
0.36,77.64875030517578,2.1068975925445557,-10.764330863952637,-7.9938740730285645,1.7320060729980469,24.11485481262207,-34.5,-20.100000381469727,-23.55000114440918
0.379,78.18505096435547,0.727837324142456,-11.41555404663086,-13.456355094909668,2.2649309635162354,20.91730499267578,-34.650001525878906,-20.25,-22.5
0.383,77.03583526611328,-1.072602391242981,-10.994174003601074,-16.78713607788086,3.4640121459960938,22.116384506225586,-34.5,-19.650001525878906,-22.350000381469727
0.39,77.91690063476562,-2.6815059185028076,-11.30063247680664,-23.04900360107422,0.39969372749328613,17.053598403930664,-34.5,-19.650001525878906,-22.350000381469727
0.4,78.9511947631836,-3.44765043258667,-10.72602367401123,-27.84532928466797,6.395099639892578,17.053598403930664,-34.80000305175781,-20.850000381469727,-22.80000114440918
0.41,78.4148941040039,-2.4899697303771973,-10.342951774597168,-28.911178588867188,5.462480545043945,5.728943347930908,-35.400001525878906,-20.25,-23.700000762939453
0.42,79.10442352294922,-2.0685901641845703,-11.492168426513672,-26.779478073120117,-5.595712184906006,3.197549819946289,-34.95000076293945,-18.30000114440918,-23.25
0.439,79.14273071289062,-1.2641384601593018,-10.84094524383545,-26.113323211669922,4.263399600982666,15.188361167907715,-34.95000076293945,-18.30000114440918,-23.25
0.443,79.41088104248047,1.2641384601593018,-11.453861236572266,-30.776416778564453,3.4640121459960938,9.859111785888672,-34.95000076293945,-18.30000114440918,-23.25
0.45,78.4148941040039,1.9153614044189453,-11.070788383483887,-25.7136287689209,4.529861927032471,17.053598403930664,-35.400001525878906,-18.30000114440918,-22.950000762939453
0.46,78.72135162353516,1.9153614044189453,-11.109095573425293,-19.98468589782715,1.0658499002456665,27.445634841918945,-36.0,-20.400001525878906,-22.80000114440918
0.47,78.22335815429688,2.451662540435791,-11.60708999633789,-24.64777946472168,1.8652373552322388,30.509952545166016,-34.650001525878906,-18.30000114440918,-22.200000762939453
0.48,77.30398559570312,-0.4596867263317108,-11.875240325927734,-25.447166442871094,8.793261528015137,32.77488327026367,-34.650001525878906,-18.30000114440918,-22.200000762939453
0.499,79.29595947265625,-1.0342950820922852,-14.250288963317871,-19.052066802978516,10.125574111938477,31.44257164001465,-34.5,-19.200000762939453,-22.350000381469727
0.503,79.33426666259766,-5.4013190269470215,-14.518439292907715,-17.586523056030273,11.724349021911621,25.04747200012207,-34.5,-19.200000762939453,-22.350000381469727
0.51,79.37257385253906,-5.51624059677124,-14.403517723083496,-14.12251091003418,7.327718257904053,31.176109313964844,-36.75,-20.850000381469727,-22.80000114440918
0.52,80.21533203125,-5.746084213256836,-13.024456977844238,-33.57427215576172,11.591117858886719,27.71209716796875,-35.25,-18.900001525878906,-23.100000381469727
0.53,80.8665542602539,-4.405331134796143,-11.836933135986328,-28.77794647216797,3.3307809829711914,34.773353576660156,-35.25,-18.900001525878906,-23.100000381469727
0.549,82.24561309814453,-1.5705963373184204,-10.41956615447998,-26.113323211669922,5.062787055969238,39.03675079345703,-35.55000305175781,-19.650001525878906,-22.80000114440918
0.553,81.82423400878906,-0.689530074596405,-11.41555404663086,-30.643184661865234,2.531393527984619,39.70290756225586,-34.650001525878906,-19.5,-25.500001907348633
0.56,79.21934509277344,0.26815059781074524,-13.024456977844238,-26.513015747070312,0.6661561727523804,44.36600112915039,-36.900001525878906,-19.80000114440918,-24.0
0.57,78.07012939453125,1.072602391242981,-13.867216110229492,-15.055130004882812,3.7304747104644775,49.96171569824219,-34.20000076293945,-20.25,-23.700000762939453
0.58,77.41890716552734,-1.6089035272598267,-14.441824913024902,-6.5283308029174805,5.995405673980713,26.912710189819336,-34.20000076293945,-20.25,-23.700000762939453
0.59,76.80599212646484,-5.018246650695801,-14.326903343200684,-14.788667678833008,12.124042510986328,41.168453216552734,-33.75,-21.900001525878906,-23.850000381469727
0.61,76.61445617675781,-5.975927352905273,-12.90953540802002,-14.255742073059082,7.460949420928955,52.626338958740234,-35.25,-19.650001525878906,-22.80000114440918
0.613,77.34229278564453,-6.358999729156494,-11.875240325927734,-26.379785537719727,10.791729927062988,36.238895416259766,-33.30000305175781,-20.850000381469727,-22.350000381469727
0.62,76.537841796875,-4.941632270812988,-13.10107135772705,-23.715160369873047,4.529861927032471,35.03981399536133,-33.150001525878906,-20.25,-24.0
0.63,76.65276336669922,-3.6774938106536865,-12.48815631866455,-25.04747200012207,7.327718257904053,26.779478073120117,-33.150001525878906,-20.25,-24.0
0.64,76.00154113769531,-3.332728862762451,-12.832921028137207,-17.719755172729492,-1.9984685182571411,35.03981399536133,-34.20000076293945,-22.200000762939453,-22.950000762939453
0.65,75.12047576904297,-3.294421434402466,-13.905523300170898,-27.31240463256836,5.728943347930908,37.03828430175781,-35.25,-20.400001525878906,-24.150001525878906
0.669,75.31201171875,-2.145204782485962,-14.595053672790527,-16.520673751831055,8.127105712890625,36.238895416259766,-34.20000076293945,-21.0,-22.950000762939453
0.673,74.89063262939453,-2.4899697303771973,-14.09705924987793,-19.718223571777344,7.460949420928955,29.444103240966797,-33.45000076293945,-21.450000762939453,-22.200000762939453
0.68,76.76768493652344,-2.4133553504943848,-13.752294540405273,-13.456355094909668,-1.4655436277389526,40.23583221435547,-33.45000076293945,-21.450000762939453,-22.200000762939453
0.69,74.89063262939453,-3.064578056335449,-14.518439292907715,-12.124042510986328,7.594180583953857,35.306278228759766,-34.80000305175781,-20.400001525878906,-23.100000381469727
0.7,75.84831237792969,-3.026270866394043,-13.713987350463867,-12.523736000061035,11.857580184936523,40.502296447753906,-33.150001525878906,-21.0,-21.75
0.71,75.84831237792969,-4.481945514678955,-13.867216110229492,-4.796324729919434,3.597243309020996,42.101070404052734,-34.5,-21.600000381469727,-23.850000381469727
0.729,75.81000518798828,-3.600879430770874,-13.560758590698242,-1.3323123455047607,-3.3307809829711914,54.89126968383789,-33.75,-20.850000381469727,-23.55000114440918
0.733,75.46524047851562,-5.1331682205200195,-13.675680160522461,-8.127105712890625,10.525267601013184,42.500762939453125,-33.75,-20.850000381469727,-23.55000114440918
0.74,75.19709014892578,-6.665457725524902,-14.020444869995117,2.131699800491333,2.131699800491333,50.4946403503418,-33.75,-21.900001525878906,-22.05000114440918
0.75,75.19709014892578,-6.665457725524902,-14.09705924987793,-2.9310872554779053,2.9310872554779053,56.756507873535156,-33.900001525878906,-21.75,-24.0
0.76,75.23539733886719,-5.324704647064209,-14.058752059936523,-1.1990811824798584,17.053598403930664,46.63093185424805,-35.55000305175781,-23.55000114440918,-21.600000381469727
0.77,75.54185485839844,-3.6391866207122803,-13.905523300170898,2.797856092453003,17.986217498779297,49.29555892944336,-35.25,-22.350000381469727,-24.150001525878906
0.789,72.59219360351562,-2.604891538619995,-13.828908920288086,15.721285820007324,10.92496109008789,57.02296829223633,-35.25,-22.350000381469727,-24.150001525878906
0.793,71.51959228515625,-1.1109095811843872,-14.211980819702148,20.517610549926758,22.382848739624023,56.889739990234375,-34.5,-22.350000381469727,-22.05000114440918
0.8,70.5619125366211,1.9153614044189453,-13.062764167785645,26.513015747070312,23.848390579223633,52.75957107543945,-35.400001525878906,-22.950000762939453,-22.5
0.81,68.56993865966797,2.2218191623687744,-14.556746482849121,36.905052185058594,21.45022964477539,52.093414306640625,-34.05000305175781,-23.55000114440918,-23.850000381469727
0.82,65.62027740478516,4.252102375030518,-12.449849128723145,49.96171569824219,22.51607894897461,71.54517364501953,-34.20000076293945,-22.5,-22.200000762939453
0.83,65.00736236572266,4.290409564971924,-11.60708999633789,57.955589294433594,28.111791610717773,68.4808578491211,-34.20000076293945,-22.5,-22.200000762939453
0.849,61.329872131347656,4.175487995147705,-11.03248119354248,74.74272155761719,35.705970764160156,73.67687225341797,-36.150001525878906,-23.700000762939453,-21.75
0.853,60.1423454284668,3.4093432426452637,-8.044517517089844,80.20520782470703,26.513015747070312,79.13935852050781,-33.75,-23.700000762939453,-21.75
0.86,60.1423454284668,1.723825216293335,-7.163451671600342,89.93108367919922,27.045940399169922,84.86830139160156,-33.75,-23.850000381469727,-21.600000381469727
0.87,62.32585906982422,0.9576807022094727,-5.822698593139648,89.13169860839844,39.30321502685547,56.756507873535156,-34.05000305175781,-26.250001907348633,-20.850000381469727
0.88,65.62027740478516,-1.5705963373184204,-2.9879636764526367,92.06278228759766,36.63859176635742,53.159263610839844,-34.05000305175781,-26.250001907348633,-20.850000381469727
0.89,69.87238311767578,-4.405331134796143,-2.5282769203186035,95.39356231689453,30.37672233581543,45.831546783447266,-34.5,-25.80000114440918,-22.05000114440918
0.903,74.81401824951172,-5.324704647064209,-2.9879636764526367,104.5865249633789,23.848390579223633,22.782541275024414,-35.70000076293945,-26.850000381469727,-21.150001525878906
0.91,82.0540771484375,-6.473921298980713,-2.0685901641845703,81.40428924560547,28.77794647216797,9.592649459838867,-35.70000076293945,-26.850000381469727,-21.150001525878906
0.92,86.26787567138672,-7.814674377441406,-1.6855180263519287,84.20214080810547,20.650842666625977,-10.258805274963379,-34.20000076293945,-26.850000381469727,-21.450000762939453
0.933,88.91107177734375,-8.427590370178223,-5.2480902671813965,80.33843994140625,39.03675079345703,-39.83613967895508,-34.20000076293945,-26.850000381469727,-19.650001525878906
0.94,91.5159683227539,-7.240066051483154,-5.592854976654053,83.5359878540039,40.23583221435547,-45.03215789794922,-34.20000076293945,-26.850000381469727,-19.650001525878906
0.95,93.81439971923828,-5.094861030578613,-5.286397457122803,85.53445434570312,42.76722717285156,-49.69525146484375,-34.650001525878906,-27.150001525878906,-21.75
0.96,96.49590301513672,-3.3710360527038574,-5.975927352905273,94.32771301269531,48.362937927246094,-48.8958625793457,-33.150001525878906,-26.400001525878906,-19.950000762939453
0.97,98.87095642089844,-2.183511972427368,-7.2783732414245605,96.59264373779297,56.49004364013672,-49.42878723144531,-35.55000305175781,-28.200000762939453,-20.55000114440918
0.98,102.24198913574219,-0.9959878921508789,-9.768342971801758,100.18988800048828,56.889739990234375,-63.81776428222656,-35.55000305175781,-28.200000762939453,-20.55000114440918
0.993,102.58675384521484,-2.2601263523101807,-10.802638053894043,117.64318084716797,43.03369140625,-52.75957107543945,-33.75,-28.200000762939453,-18.30000114440918
1.0,100.17340087890625,-2.7964274883270264,-10.457873344421387,113.3797836303711,43.69984436035156,-79.67227935791016,-33.75,-28.200000762939453,-18.30000114440918
1.01,99.33064270019531,-3.7158010005950928,-10.074800491333008,115.91117858886719,34.64012145996094,-66.08269500732422,-35.400001525878906,-28.80000114440918,-18.900001525878906
1.02,95.42330169677734,-3.907337188720703,-9.002198219299316,103.12097930908203,25.980091094970703,-52.626338958740234,-33.75,-28.500001907348633,-18.75
1.03,90.02198028564453,-4.252102375030518,-8.580819129943848,102.58805084228516,7.9938740730285645,-40.9019889831543,-33.75,-28.500001907348633,-18.75
1.05,85.11865997314453,-3.4093432426452637,-7.7763671875,94.59417724609375,6.661561965942383,-33.70750427246094,-34.20000076293945,-26.850000381469727,-18.450000762939453
1.054,81.21131896972656,-3.026270866394043,-8.121131896972656,100.3231201171875,-12.923430442810059,-26.113323211669922,-35.55000305175781,-27.000001907348633,-18.0
1.06,76.42292022705078,-0.038307227194309235,-7.508216381072998,94.46094512939453,-17.053598403930664,-31.176109313964844,-35.55000305175781,-27.000001907348633,-18.0
1.07,75.12047576904297,1.0342950820922852,-5.975927352905273,102.05513000488281,-19.45176124572754,-23.315465927124023,-35.70000076293945,-28.350000381469727,-16.650001525878906
1.08,73.81802368164062,1.5705963373184204,-3.141192674636841,102.05513000488281,-22.649311065673828,-35.17304611206055,-35.70000076293945,-28.350000381469727,-16.650001525878906
1.09,74.2394027709961,2.7964274883270264,-2.2601263523101807,107.91730499267578,-35.439510345458984,-39.43644714355469,-34.5,-27.750001907348633,-18.0
1.111,74.16278839111328,1.8770540952682495,-0.4213795065879822,118.04287719726562,-42.500762939453125,-39.16998291015625,-36.150001525878906,-28.80000114440918,-17.25
1.114,73.97125244140625,0.26815059781074524,0.8427590131759644,117.77641296386719,-65.28330993652344,-59.55436325073242,-36.45000076293945,-27.150001525878906,-17.400001525878906
1.12,73.85633087158203,-3.7158010005950928,0.9576807022094727,114.97856140136719,-73.14395141601562,-76.87442779541016,-36.45000076293945,-27.150001525878906,-17.400001525878906
1.13,74.12448120117188,-4.405331134796143,1.4173674583435059,101.78866577148438,-81.67074584960938,-78.47319793701172,-36.45000076293945,-27.150001525878906,-17.400001525878906
1.14,74.2394027709961,-7.508216381072998,1.072602391242981,93.92802429199219,-94.46094512939453,-88.06584930419922,-35.70000076293945,-27.900001525878906,-17.400001525878906
1.15,74.50755310058594,-8.35097599029541,0.038307227194309235,72.0781021118164,-88.46553802490234,-107.91730499267578,-35.25,-28.200000762939453,-18.0
1.17,73.81802368164062,-6.856993675231934,0.19153612852096558,60.22052001953125,-95.79325866699219,-108.050537109375,-36.150001525878906,-27.900001525878906,-19.200000762939453
1.173,73.7031021118164,-6.052541732788086,-2.3750481605529785,47.163856506347656,-94.0612564086914,-118.70903015136719,-36.150001525878906,-27.900001525878906,-19.200000762939453
1.18,74.54586791992188,-3.7924153804779053,-2.604891538619995,43.16691970825195,-103.12097930908203,-123.9050521850586,-34.80000305175781,-28.500001907348633,-19.05000114440918
1.19,73.51156616210938,-1.3407529592514038,-3.7158010005950928,37.57120895385742,-101.78866577148438,-127.10260009765625,-35.400001525878906,-27.600000381469727,-19.200000762939453
1.2,74.6607894897461,-0.19153612852096558,-5.018246650695801,36.771820068359375,-110.58192443847656,-133.49769592285156,-35.70000076293945,-26.100000381469727,-19.650001525878906
1.21,75.8866195678711,2.183511972427368,-5.975927352905273,30.776416778564453,-112.84685516357422,-138.8269500732422,-36.75,-26.55000114440918,-20.100000381469727
1.229,76.65276336669922,4.520252704620361,-7.967903137207031,20.784072875976562,-105.11944580078125,-142.95712280273438,-36.75,-26.55000114440918,-20.100000381469727
1.233,79.79395294189453,5.70777702331543,-10.036493301391602,16.520673751831055,-101.12251281738281,-148.28636169433594,-35.400001525878906,-24.150001525878906,-20.400001525878906
1.24,78.45320129394531,6.282385349273682,-11.798625946044922,20.91730499267578,-103.52066802978516,-144.95558166503906,-34.05000305175781,-24.750001907348633,-19.5
1.25,76.99752807617188,7.316680431365967,-12.756306648254395,22.782541275024414,-103.38744354248047,-141.4915771484375,-34.650001525878906,-24.450000762939453,-22.200000762939453
1.26,76.4995346069336,6.435614109039307,-14.556746482849121,18.385910034179688,-96.32618713378906,-117.9096450805664,-35.25,-23.100000381469727,-22.80000114440918
1.27,76.72937774658203,8.734047889709473,-14.67166805267334,22.382848739624023,-99.52373504638672,-156.28024291992188,-35.25,-23.100000381469727,-22.80000114440918
1.29,76.65276336669922,8.925583839416504,-15.361198425292969,26.113323211669922,-97.12557220458984,-148.55282592773438,-35.70000076293945,-22.200000762939453,-21.450000762939453
1.293,77.26567840576172,12.373234748840332,-15.24627685546875,17.186830520629883,-101.2557373046875,-152.54977416992188,-35.25,-21.900001525878906,-22.80000114440918
1.3,77.49552154541016,13.675680160522461,-16.28057098388672,12.390504837036133,-88.865234375,-158.545166015625,-35.25,-19.650001525878906,-22.350000381469727
1.31,77.22737121582031,13.675680160522461,-17.659631729125977,7.460949420928955,-91.66309356689453,-144.2894287109375,-33.150001525878906,-21.0,-22.950000762939453
1.32,78.07012939453125,17.62132453918457,-17.391481399536133,9.459418296813965,-85.93415069580078,-129.2342987060547,-33.150001525878906,-21.0,-22.950000762939453
1.33,77.87859344482422,18.77054214477539,-17.1999454498291,1.8652373552322388,-75.00918579101562,-132.0321502685547,-33.900001525878906,-19.80000114440918,-24.0
1.349,77.38059997558594,21.605276107788086,-19.153614044189453,17.986217498779297,-77.67381286621094,-113.24655151367188,-34.05000305175781,-18.900001525878906,-26.400001525878906
1.352,73.97125244140625,22.48634147644043,-20.30282974243164,14.255742073059082,-76.60796356201172,-108.71669006347656,-34.05000305175781,-18.900001525878906,-26.400001525878906
1.36,75.12047576904297,21.45204734802246,-20.456058502197266,10.92496109008789,-64.88361358642578,-102.72128295898438,-33.45000076293945,-17.850000381469727,-24.0
1.37,73.664794921875,23.02264404296875,-18.808849334716797,21.716691970825195,-65.016845703125,-96.8591079711914,-33.45000076293945,-17.850000381469727,-24.0
1.38,72.97526550292969,25.39769172668457,-20.226215362548828,31.975496292114258,-63.28483963012695,-84.20214080810547,-33.150001525878906,-17.100000381469727,-25.200000762939453
1.39,71.51959228515625,24.66985511779785,-20.64759635925293,43.69984436035156,-64.75038146972656,-80.07197570800781,-33.45000076293945,-18.75,-25.500001907348633
1.403,70.52360534667969,24.401702880859375,-20.226215362548828,45.831546783447266,-49.82848358154297,-71.54517364501953,-33.150001525878906,-17.850000381469727,-25.80000114440918
1.41,70.40868377685547,24.095245361328125,-20.11129379272461,62.085758209228516,-51.82695007324219,-59.82082748413086,-33.150001525878906,-16.80000114440918,-26.250001907348633
1.42,71.02159881591797,22.946029663085938,-19.919757843017578,65.54976654052734,-47.0306282043457,-49.56201934814453,-33.150001525878906,-16.80000114440918,-26.250001907348633
1.43,71.28974914550781,21.720197677612305,-19.268535614013672,65.28330993652344,-22.249616622924805,-38.77029037475586,-33.30000305175781,-17.700000762939453,-26.400001525878906
1.44,74.85232543945312,22.409727096557617,-19.80483627319336,59.4211311340332,-18.78560447692871,-29.044410705566406,-31.950000762939453,-17.850000381469727,-25.80000114440918
1.459,81.4028549194336,21.6818904876709,-19.99637222290039,56.356815338134766,-15.854516983032227,-17.053598403930664,-33.30000305175781,-17.400001525878906,-26.100000381469727
1.463,90.8264389038086,21.835119247436523,-20.149600982666016,39.9693717956543,1.8652373552322388,-11.324655532836914,-32.55000305175781,-18.450000762939453,-26.400001525878906
1.47,95.99790954589844,19.153614044189453,-20.187908172607422,39.43644714355469,5.728943347930908,-0.5329249501228333,-32.55000305175781,-18.450000762939453,-26.400001525878906
1.48,92.97164154052734,20.609289169311523,-21.490354537963867,42.36753463745117,21.583459854125977,9.992342948913574,-33.45000076293945,-17.55000114440918,-28.05000114440918
1.49,88.79615020751953,21.030668258666992,-22.90772247314453,45.69831466674805,18.652372360229492,49.69525146484375,-32.70000076293945,-17.850000381469727,-27.30000114440918
1.5,83.6629867553711,22.869415283203125,-16.47210693359375,43.56661605834961,27.045940399169922,69.94640350341797,-32.70000076293945,-19.5,-27.30000114440918
1.52,82.39884948730469,21.528661727905273,-10.84094524383545,59.15467071533203,15.721285820007324,70.47932434082031,-33.45000076293945,-19.05000114440918,-26.55000114440918
1.523,85.04204559326172,16.35718536376953,-10.342951774597168,76.74119567871094,-3.0643184185028076,75.27565002441406,-33.45000076293945,-19.05000114440918,-26.55000114440918
1.53,88.10662078857422,2.4133553504943848,-11.1474027633667,74.60948944091797,0.6661561727523804,66.21592712402344,-34.5,-18.450000762939453,-26.100000381469727
1.54,88.0300064086914,-5.056553840637207,-13.522451400756836,52.093414306640625,6.395099639892578,58.754974365234375,-33.0,-20.400001525878906,-26.400001525878906
1.55,88.71953582763672,-15.016432762145996,-16.089035034179688,18.2526798248291,12.790199279785156,55.02450180053711,-34.5,-20.100000381469727,-26.850000381469727
1.56,87.4170913696289,-18.310853958129883,-17.238252639770508,1.7320060729980469,10.791729927062988,64.084228515625,-33.30000305175781,-21.150001525878906,-27.150001525878906
1.58,88.37477111816406,-19.68991470336914,-15.169661521911621,-37.83767318725586,15.721285820007324,55.95711898803711,-33.30000305175781,-21.150001525878906,-27.150001525878906
1.584,88.6429214477539,-17.161638259887695,-12.334927558898926,-62.618682861328125,20.517610549926758,63.950992584228516,-33.150001525878906,-19.5,-28.05000114440918
1.59,86.26787567138672,-13.407529830932617,-10.113107681274414,-84.20214080810547,17.586523056030273,46.497703552246094,-33.150001525878906,-21.75,-26.250001907348633
1.6,83.1266860961914,-12.105083465576172,-9.117119789123535,-89.26493072509766,8.793261528015137,77.14088439941406,-33.150001525878906,-21.450000762939453,-25.80000114440918
1.61,79.06611633300781,-13.024456977844238,-9.423578262329102,-100.72281646728516,12.390504837036133,75.94180297851562,-33.75,-21.900001525878906,-25.650001525878906
1.62,73.77971649169922,-15.514427185058594,-10.955866813659668,-113.91270446777344,21.316997528076172,72.34455871582031,-33.75,-21.900001525878906,-25.650001525878906
1.639,69.64253997802734,-17.50640296936035,-11.836933135986328,-112.98008728027344,17.586523056030273,85.4012222290039,-33.45000076293945,-20.55000114440918,-27.000001907348633
1.643,65.12228393554688,-19.80483627319336,-13.522451400756836,-126.03675079345703,28.911178588867188,99.25727081298828,-33.0,-19.200000762939453,-27.450000762939453
1.65,62.172630310058594,-20.76251792907715,-12.526463508605957,-138.8269500732422,36.10566711425781,87.9326171875,-34.20000076293945,-20.55000114440918,-25.80000114440918
1.66,61.06172180175781,-21.796812057495117,-12.526463508605957,-143.4900360107422,43.56661605834961,103.38744354248047,-34.20000076293945,-20.55000114440918,-25.80000114440918
1.67,64.20291137695312,-20.915746688842773,-12.105083465576172,-147.0872802734375,42.90045928955078,104.5865249633789,-34.20000076293945,-20.55000114440918,-25.80000114440918
1.68,69.83407592773438,-21.0689754486084,-9.500192642211914,-160.01071166992188,45.831546783447266,108.18376159667969,-32.70000076293945,-21.0,-25.500001907348633
1.699,72.74542236328125,-20.11129379272461,-7.967903137207031,-159.74424743652344,43.16691970825195,97.92495727539062,-33.900001525878906,-21.0,-26.250001907348633
1.703,75.46524047851562,-19.153614044189453,-9.117119789123535,-163.6079559326172,31.309341430664062,100.85604858398438,-33.0,-20.400001525878906,-26.400001525878906
1.71,75.81000518798828,-19.49837875366211,-11.683704376220703,-179.0627899169922,47.9632453918457,92.99540710449219,-33.0,-20.400001525878906,-26.400001525878906
1.72,76.80599212646484,-19.651607513427734,-11.951854705810547,-192.91883850097656,43.69984436035156,90.33078002929688,-33.0,-20.400001525878906,-26.400001525878906
1.73,76.11646270751953,-18.962078094482422,-13.79060173034668,-202.11178588867188,41.83460998535156,97.65850067138672,-33.150001525878906,-20.25,-25.80000114440918
1.74,76.95922088623047,-19.919757843017578,-13.445837020874023,-225.42726135253906,44.23276901245117,100.85604858398438,-33.30000305175781,-20.400001525878906,-27.900001525878906
1.759,76.42292022705078,-18.655620574951172,-13.062764167785645,-253.80551147460938,40.502296447753906,102.58805084228516,-34.05000305175781,-20.850000381469727,-26.100000381469727
1.763,75.69508361816406,-13.024456977844238,-13.062764167785645,-264.1975402832031,50.09494400024414,99.3905029296875,-34.05000305175781,-20.850000381469727,-26.100000381469727
1.77,76.07815551757812,-11.875240325927734,-13.752294540405273,-266.8621826171875,43.69984436035156,105.91883087158203,-32.400001525878906,-19.5,-25.80000114440918
1.78,75.38862609863281,-8.044517517089844,-13.330915451049805,-278.0535888671875,43.56661605834961,111.91423797607422,-33.75,-17.700000762939453,-26.100000381469727
1.79,76.19307708740234,-4.213795185089111,-13.867216110229492,-272.8575744628906,44.36600112915039,111.5145492553711,-34.650001525878906,-18.30000114440918,-27.000001907348633
1.809,73.6264877319336,-1.1109095811843872,-14.97812557220459,-268.0612487792969,37.4379768371582,125.50382232666016,-33.900001525878906,-18.30000114440918,-25.80000114440918
1.813,73.0135726928711,2.9496564865112305,-16.510414123535156,-251.67381286621094,36.63859176635742,122.03981018066406,-33.900001525878906,-18.30000114440918,-25.80000114440918
1.82,72.78372955322266,6.3973069190979,-16.510414123535156,-247.01071166992188,34.373661041259766,130.83306884765625,-34.80000305175781,-18.450000762939453,-27.900001525878906
1.83,70.29376220703125,6.473921298980713,-17.085023880004883,-233.0214385986328,37.17151641845703,140.42572021484375,-33.900001525878906,-16.80000114440918,-26.250001907348633
1.84,71.44297790527344,7.010222434997559,-17.468095779418945,-208.5068817138672,26.64624786376953,148.95252990722656,-34.05000305175781,-18.450000762939453,-26.400001525878906
1.85,71.2514419555664,8.121131896972656,-17.276559829711914,-195.983154296875,38.23736572265625,149.48544311523438,-34.80000305175781,-18.450000762939453,-26.100000381469727
1.868,69.87238311767578,7.201758861541748,-16.931795120239258,-185.72434997558594,35.439510345458984,157.4793243408203,-34.80000305175781,-18.450000762939453,-26.100000381469727
1.873,70.44699096679688,6.665457725524902,-17.774553298950195,-161.07656860351562,33.84073257446289,166.00611877441406,-33.900001525878906,-17.850000381469727,-25.200000762939453
1.88,69.52761840820312,2.298433542251587,-19.07699966430664,-160.14395141601562,36.63859176635742,160.54364013671875,-33.900001525878906,-17.850000381469727,-25.200000762939453
1.89,71.1748275756836,-0.038307227194309235,-18.655620574951172,-153.882080078125,43.43338394165039,152.1500701904297,-33.75,-18.150001525878906,-26.100000381469727
1.9,72.43896484375,-5.1331682205200195,-18.732234954833984,-150.151611328125,40.76875686645508,143.2235870361328,-34.20000076293945,-17.100000381469727,-26.250001907348633
1.91,73.7031021118164,-7.2783732414245605,-18.11931800842285,-155.48085021972656,37.03828430175781,145.75497436523438,-34.20000076293945,-17.100000381469727,-26.250001907348633
1.93,75.3503189086914,-9.078812599182129,-17.353174209594727,-160.01071166992188,44.89892578125,133.09800720214844,-33.150001525878906,-18.30000114440918,-25.80000114440918
1.933,74.46924591064453,-9.232041358947754,-16.81687355041504,-176.6646270751953,39.43644714355469,134.43031311035156,-33.900001525878906,-18.75,-24.750001907348633
1.94,74.6990966796875,-7.661445617675781,-17.353174209594727,-182.39356994628906,38.77029037475586,129.2342987060547,-33.900001525878906,-18.75,-24.750001907348633
1.95,72.28573608398438,-4.711789131164551,-16.66364288330078,-183.99234008789062,38.23736572265625,133.76416015625,-33.900001525878906,-18.75,-22.5
1.96,71.59620666503906,-4.750096321105957,-16.548721313476562,-185.72434997558594,42.76722717285156,119.5084228515625,-33.900001525878906,-18.75,-22.5
1.97,70.06391906738281,-1.5705963373184204,-17.468095779418945,-181.3277130126953,39.83613967895508,120.84072875976562,-33.75,-18.900001525878906,-24.600000381469727
1.99,70.83006286621094,-1.5705963373184204,-17.353174209594727,-172.80091857910156,33.17457962036133,129.90045166015625,-33.75,-19.650001525878906,-23.55000114440918
1.994,70.0256118774414,-2.183511972427368,-17.085023880004883,-175.7320098876953,33.84073257446289,124.57120513916016,-34.95000076293945,-19.80000114440918,-23.25
2.0,73.24341583251953,0.5746083855628967,-18.77054214477539,-155.747314453125,30.509952545166016,131.89892578125,-34.95000076293945,-19.80000114440918,-23.25
2.01,73.97125244140625,0.8810662031173706,-18.923770904541016,-146.68759155273438,29.84379768371582,131.63246154785156,-34.95000076293945,-19.80000114440918,-23.25
2.02,74.2777099609375,2.9879636764526367,-20.379444122314453,-126.96936798095703,36.372127532958984,132.83154296875,-34.20000076293945,-19.80000114440918,-24.0
2.03,73.89463806152344,3.8307228088378906,-20.532672882080078,-119.7748794555664,47.830013275146484,135.4961700439453,-35.25,-18.900001525878906,-24.150001525878906
2.05,76.23138427734375,4.022258758544922,-20.264522552490234,-101.9218978881836,42.76722717285156,128.83460998535156,-35.55000305175781,-19.650001525878906,-25.350000381469727
2.053,75.15878295898438,3.7924153804779053,-18.081010818481445,-72.0781021118164,26.779478073120117,128.56814575195312,-35.55000305175781,-19.650001525878906,-25.350000381469727
2.06,76.15476989746094,1.072602391242981,-16.89348793029785,-60.22052001953125,23.448698043823242,124.43797302246094,-35.55000305175781,-19.650001525878906,-25.350000381469727
2.07,76.65276336669922,-2.75812029838562,-16.05072784423828,-55.82388687133789,26.779478073120117,108.18376159667969,-36.45000076293945,-19.80000114440918,-24.750001907348633
2.08,77.1890640258789,-2.911349296569824,-16.855180740356445,-46.764163970947266,20.91730499267578,111.38131713867188,-35.55000305175781,-20.400001525878906,-24.900001525878906
2.09,76.03984832763672,-7.7763671875,-16.778566360473633,-55.4241943359375,21.45022964477539,95.52679443359375,-34.80000305175781,-20.100000381469727,-23.55000114440918
2.11,77.64875030517578,-9.53849983215332,-18.464082717895508,-54.35834503173828,30.24349021911621,91.13016510009766,-34.80000305175781,-20.100000381469727,-23.55000114440918
2.113,81.441162109375,-9.806650161743164,-17.544710159301758,-57.55589294433594,30.509952545166016,104.85298156738281,-35.25,-21.900001525878906,-24.600000381469727
2.12,82.0157699584961,-9.730035781860352,-17.8128604888916,-70.47932434082031,32.37519073486328,84.20214080810547,-36.75,-21.900001525878906,-25.650001525878906
2.13,83.43314361572266,-6.89530086517334,-17.31486701965332,-73.41041564941406,34.10719680786133,63.018375396728516,-36.150001525878906,-22.5,-23.25
2.14,86.45941162109375,-5.5545477867126465,-16.778566360473633,-72.74425506591797,38.23736572265625,53.42572784423828,-34.80000305175781,-21.900001525878906,-23.100000381469727
2.15,87.87677764892578,-4.903325080871582,-14.97812557220459,-71.54517364501953,28.111791610717773,53.29249572753906,-34.80000305175781,-21.900001525878906,-23.100000381469727
2.169,90.44336700439453,-2.6431987285614014,-17.12333106994629,-66.882080078125,25.846860885620117,50.36140823364258,-35.55000305175781,-21.150001525878906,-23.100000381469727
2.173,87.18724822998047,-3.600879430770874,-19.919757843017578,-59.15467071533203,26.513015747070312,43.96630859375,-36.45000076293945,-21.0,-24.0
2.18,86.57433319091797,-4.367023944854736,-20.379444122314453,-56.09035110473633,30.509952545166016,37.03828430175781,-37.20000076293945,-20.55000114440918,-24.0
2.19,87.03401947021484,-4.8267107009887695,-21.87342643737793,-43.16691970825195,17.852985382080078,42.633995056152344,-34.95000076293945,-21.0,-23.700000762939453
2.2,86.95740509033203,-6.244078159332275,-22.06496238708496,-40.102603912353516,22.382848739624023,16.78713607788086,-34.95000076293945,-21.0,-23.700000762939453
2.21,89.33245086669922,-4.8267107009887695,-20.149600982666016,-26.779478073120117,18.91883659362793,36.63859176635742,-34.5,-20.850000381469727,-24.150001525878906
2.226,93.85270690917969,-2.5282769203186035,-16.81687355041504,7.194486618041992,16.920366287231445,33.30780792236328,-35.400001525878906,-21.75,-23.25
2.23,100.36493682861328,-3.485957622528076,-12.181697845458984,21.716691970825195,12.656967163085938,35.03981399536133,-36.900001525878906,-20.25,-24.450000762939453
2.24,99.56048583984375,-4.941632270812988,-13.254301071166992,48.8958625793457,11.857580184936523,23.182235717773438,-36.75,-21.600000381469727,-23.55000114440918
2.25,98.18142700195312,-9.806650161743164,-16.70195198059082,71.41194152832031,22.915773391723633,15.321592330932617,-36.75,-21.600000381469727,-23.55000114440918
2.26,94.04424285888672,-17.046716690063477,-20.95405387878418,91.26339721679688,17.719755172729492,13.856048583984375,-36.45000076293945,-20.55000114440918,-22.5
2.27,89.56229400634766,-21.298818588256836,-22.524648666381836,91.79632568359375,11.058192253112793,15.854516983032227,-36.75,-21.900001525878906,-21.600000381469727
2.286,87.22555541992188,-24.286781311035156,-19.843143463134766,77.00765228271484,8.793261528015137,12.656967163085938,-36.0,-21.600000381469727,-22.350000381469727
2.29,78.56812286376953,-25.51261329650879,-13.407529830932617,73.0107192993164,7.860642910003662,1.9984685182571411,-35.55000305175781,-23.55000114440918,-24.150001525878906
2.3,79.06611633300781,-25.20615577697754,-11.377246856689453,71.01225280761719,-2.2649309635162354,1.4655436277389526,-35.55000305175781,-23.55000114440918,-24.150001525878906
2.31,74.35432434082031,-24.05693817138672,-8.274360656738281,71.01225280761719,-5.062787055969238,-5.595712184906006,-35.400001525878906,-21.75,-22.950000762939453
2.32,71.32805633544922,-24.478317260742188,-7.546523571014404,67.28177642822266,-12.523736000061035,-20.117916107177734,-36.150001525878906,-22.950000762939453,-22.950000762939453
2.339,71.1748275756836,-23.3291015625,-7.2783732414245605,88.73200225830078,-25.313934326171875,-31.176109313964844,-36.30000305175781,-21.900001525878906,-22.80000114440918
2.343,71.63451385498047,-19.19192123413086,-6.588842868804932,112.18070220947266,-30.37672233581543,-36.10566711425781,-35.25,-22.350000381469727,-23.55000114440918
2.35,70.10222625732422,-13.48414421081543,-4.941632270812988,118.44257354736328,-21.45022964477539,-57.02296829223633,-35.25,-22.350000381469727,-23.55000114440918
2.36,69.14454650878906,-12.679692268371582,-5.746084213256836,145.75497436523438,-31.842266082763672,-68.4808578491211,-35.400001525878906,-22.950000762939453,-22.950000762939453
2.37,68.1102523803711,-9.423578262329102,-4.788403511047363,177.73046875,-44.76569747924805,-70.61255645751953,-36.75,-23.100000381469727,-22.80000114440918
2.38,66.15657806396484,-9.155426979064941,-4.520252704620361,206.6416473388672,-35.306278228759766,-80.47166442871094,-34.650001525878906,-24.150001525878906,-23.25
2.4,65.46704864501953,-8.236053466796875,-3.2178070545196533,224.8943328857422,-34.773353576660156,-88.46553802490234,-35.400001525878906,-22.5,-23.700000762939453
2.404,64.0879898071289,-8.465897560119629,-2.4899697303771973,256.4701232910156,-44.09954071044922,-92.06278228759766,-35.400001525878906,-22.5,-23.700000762939453
2.41,62.785545349121094,-10.496180534362793,-0.727837324142456,258.7350769042969,-33.97396469116211,-100.3231201171875,-35.70000076293945,-22.950000762939453,-23.25
2.42,64.16460418701172,-10.879252433776855,0.9576807022094727,272.59112548828125,-41.967838287353516,-114.84532928466797,-37.20000076293945,-24.150001525878906,-21.150001525878906
2.43,65.73519897460938,-14.556746482849121,1.0342950820922852,284.71514892578125,-45.96477508544922,-116.9770278930664,-35.70000076293945,-23.700000762939453,-23.25
2.44,69.29777526855469,-16.740259170532227,4.175487995147705,300.16998291015625,-56.889739990234375,-123.50535583496094,-36.900001525878906,-23.700000762939453,-22.200000762939453
2.46,73.47325897216797,-18.923770904541016,7.1251444816589355,304.5666198730469,-61.68606185913086,-157.4793243408203,-36.900001525878906,-23.700000762939453,-22.200000762939453
2.463,76.72937774658203,-22.2948055267334,9.500192642211914,317.3568115234375,-72.34455871582031,-187.4563446044922,-35.400001525878906,-25.200000762939453,-22.200000762939453
2.47,80.71332550048828,-23.9420166015625,11.990161895751953,322.0198974609375,-83.00305938720703,-183.7258758544922,-34.650001525878906,-24.450000762939453,-24.450000762939453
2.48,82.32222747802734,-24.708162307739258,11.224017143249512,316.29095458984375,-97.65850067138672,-198.9142303466797,-35.25,-23.850000381469727,-23.55000114440918
2.49,82.74361419677734,-27.657817840576172,9.500192642211914,297.6385803222656,-97.65850067138672,-218.76568603515625,-36.45000076293945,-24.150001525878906,-22.200000762939453
2.5,83.01176452636719,-27.427974700927734,7.5848307609558105,296.3062744140625,-105.78560638427734,-213.16998291015625,-36.45000076293945,-24.150001525878906,-22.200000762939453
2.52,81.67100524902344,-27.657817840576172,6.167463779449463,282.84991455078125,-107.3843765258789,-211.1715087890625,-34.5,-24.30000114440918,-24.900001525878906
2.523,81.36454772949219,-26.508602142333984,4.060565948486328,257.9356689453125,-110.04900360107422,-221.5635528564453,-35.25,-25.500001907348633,-24.600000381469727
2.53,82.62869262695312,-23.980323791503906,2.298433542251587,240.48239135742188,-97.65850067138672,-229.29095458984375,-34.80000305175781,-25.05000114440918,-24.900001525878906
2.54,82.82022857666016,-23.52063751220703,1.9536685943603516,227.42572021484375,-102.98774719238281,-220.23123168945312,-34.650001525878906,-23.700000762939453,-24.750001907348633
2.55,82.82022857666016,-20.64759635925293,2.298433542251587,218.63246154785156,-112.04747009277344,-227.29249572753906,-34.650001525878906,-23.700000762939453,-24.750001907348633
2.56,82.93515014648438,-19.651607513427734,1.3407529592514038,191.9862060546875,-107.65084075927734,-224.8943328857422,-35.400001525878906,-21.75,-24.0
2.58,81.90084838867188,-18.693927764892578,-0.1149216815829277,181.3277130126953,-114.57886505126953,-220.76416015625,-34.05000305175781,-23.55000114440918,-24.900001525878906
2.583,79.37257385253906,-17.774553298950195,-0.6129156351089478,161.07656860351562,-117.50994873046875,-214.63552856445312,-32.70000076293945,-24.150001525878906,-24.450000762939453
2.59,76.537841796875,-16.012420654296875,-0.3447650372982025,160.14395141601562,-114.57886505126953,-221.96324157714844,-34.5,-23.55000114440918,-24.900001525878906
2.6,76.5761489868164,-15.24627685546875,-0.5746083855628967,160.54364013671875,-119.37519073486328,-209.83920288085938,-34.5,-23.55000114440918,-24.900001525878906
2.61,75.54185485839844,-14.556746482849121,0.26815059781074524,158.81163024902344,-120.17457580566406,-218.36599731445312,-33.45000076293945,-22.5,-26.55000114440918
2.62,75.9249267578125,-13.024456977844238,1.2258312702178955,155.6140899658203,-123.2388916015625,-218.76568603515625,-34.20000076293945,-23.25,-26.250001907348633
2.639,76.99752807617188,-11.72201156616211,3.2561142444610596,144.95558166503906,-140.42572021484375,-208.10719299316406,-34.80000305175781,-21.600000381469727,-27.150001525878906
2.642,73.51156616210938,-10.41956615447998,2.6815059185028076,132.43185424804688,-133.09800720214844,-209.57273864746094,-34.80000305175781,-21.600000381469727,-27.150001525878906
2.65,72.89865112304688,-9.730035781860352,3.4093432426452637,121.90658569335938,-133.76416015625,-204.37672424316406,-34.80000305175781,-21.600000381469727,-27.150001525878906
2.66,72.24742889404297,-8.542511940002441,0.8810662031173706,105.25267791748047,-132.83154296875,-199.18069458007812,-32.400001525878906,-21.0,-28.05000114440918
2.67,69.4126968383789,-9.806650161743164,-0.8427590131759644,80.60489654541016,-121.3736572265625,-201.17916870117188,-33.150001525878906,-19.80000114440918,-28.500001907348633
2.68,69.3360824584961,-10.113107681274414,-1.9919757843017578,76.07503509521484,-122.83920288085938,-194.117919921875,-31.80000114440918,-20.850000381469727,-27.450000762939453
2.699,68.1868667602539,-10.72602367401123,-4.137180328369141,51.4272575378418,-112.18070220947266,-215.96783447265625,-32.70000076293945,-20.55000114440918,-29.250001907348633
2.703,68.41670989990234,-11.760318756103516,-1.1109095811843872,41.568145751953125,-112.98008728027344,-221.29708862304688,-32.70000076293945,-20.55000114440918,-29.250001907348633
2.71,66.65457153320312,-11.760318756103516,-0.38307225704193115,33.04134750366211,-114.71209716796875,-216.10107421875,-31.650001525878906,-19.5,-29.250001907348633
2.72,66.4630355834961,-10.189722061157227,-2.604891538619995,19.85145378112793,-124.17151641845703,-201.0459442138672,-31.05000114440918,-18.450000762939453,-30.150001525878906
2.73,65.12228393554688,-6.742072105407715,-5.171475887298584,-0.5329249501228333,-114.44563293457031,-206.37518310546875,-32.25,-17.400001525878906,-31.950000762939453
2.749,64.58598327636719,-3.2178070545196533,-7.201758861541748,-26.779478073120117,-101.12251281738281,-199.84686279296875,-32.25,-17.400001525878906,-31.950000762939453
2.753,61.751251220703125,-0.9959878921508789,-10.994174003601074,-31.042879104614258,-95.9264907836914,-197.44869995117188,-32.25,-17.400001525878906,-31.950000762939453
2.761,58.38021469116211,0.38307225704193115,-12.641385078430176,-27.71209716796875,-91.13016510009766,-202.511474609375,-29.700000762939453,-15.600000381469727,-30.600000381469727
2.77,55.085792541503906,2.0685901641845703,-13.982137680053711,-33.4410400390625,-88.865234375,-192.65237426757812,-31.80000114440918,-15.000000953674316,-32.25
2.78,53.74504089355469,5.094861030578613,-13.599065780639648,-31.44257164001465,-69.94640350341797,-190.9203643798828,-29.400001525878906,-14.100000381469727,-31.05000114440918
2.79,51.44660568237305,7.8529815673828125,-14.173673629760742,-19.718223571777344,-75.00918579101562,-172.134765625,-29.400001525878906,-14.100000381469727,-31.05000114440918
2.81,49.79939651489258,10.649409294128418,-10.611102104187012,-27.84532928466797,-67.01531219482422,-178.5298614501953,-29.400001525878906,-14.100000381469727,-31.05000114440918
2.813,49.68447494506836,12.679692268371582,-10.113107681274414,-14.522205352783203,-83.93567657470703,-154.9479217529297,-30.30000114440918,-13.050000190734863,-31.200000762939453
2.82,49.531246185302734,15.897499084472656,-10.5344877243042,-17.586523056030273,-84.06890869140625,-149.08575439453125,-30.30000114440918,-13.050000190734863,-31.200000762939453
2.83,48.80340576171875,15.361198425292969,-11.185709953308105,-19.31852912902832,-81.8039779663086,-138.02755737304688,-29.55000114440918,-11.550000190734863,-34.20000076293945
2.84,46.54328155517578,15.131354331970215,-14.595053672790527,-30.110260009765625,-67.41500854492188,-159.21133422851562,-29.55000114440918,-11.550000190734863,-34.20000076293945
2.85,48.07556915283203,14.939818382263184,-17.353174209594727,-30.90964698791504,-62.35221862792969,-156.81317138671875,-28.80000114440918,-11.550000190734863,-33.45000076293945
2.87,47.34773254394531,14.97812557220459,-18.655620574951172,-33.04134750366211,-67.28177642822266,-144.02296447753906,-28.500001907348633,-10.350000381469727,-32.70000076293945
2.874,50.5655403137207,15.284584045410156,-18.081010818481445,-49.56201934814453,-66.21592712402344,-134.5635528564453,-28.80000114440918,-10.050000190734863,-34.95000076293945
2.88,52.55751419067383,19.958065032958984,-18.004396438598633,-69.94640350341797,-54.4915771484375,-133.76416015625,-28.80000114440918,-10.050000190734863,-34.95000076293945
2.89,53.74504089355469,22.409727096557617,-19.07699966430664,-72.61102294921875,-57.289432525634766,-114.71209716796875,-28.80000114440918,-10.050000190734863,-34.95000076293945
2.9,55.0474853515625,26.54690933227539,-17.889474868774414,-86.20060729980469,-41.701377868652344,-100.05665588378906,-27.750001907348633,-8.850000381469727,-35.55000305175781
2.91,54.51118469238281,31.10546875,-17.697938919067383,-85.00152587890625,-36.771820068359375,-93.52832794189453,-28.05000114440918,-7.200000286102295,-34.5
2.929,55.35394287109375,33.63374710083008,-19.919757843017578,-78.07350158691406,-23.04900360107422,-82.33690643310547,-28.200000762939453,-7.500000476837158,-33.60000228881836
2.933,55.85193634033203,36.2003288269043,-19.421764373779297,-61.68606185913086,-27.71209716796875,-59.15467071533203,-27.450000762939453,-6.300000190734863,-35.10000228881836
2.94,55.16240692138672,37.73262023925781,-21.26051139831543,-59.15467071533203,-24.781009674072266,-50.76110076904297,-27.450000762939453,-6.300000190734863,-35.10000228881836
2.95,57.76729965209961,35.204341888427734,-20.992361068725586,-54.35834503173828,-13.056661605834961,-51.027565002441406,-26.700000762939453,-6.750000476837158,-34.35000228881836
2.96,61.329872131347656,32.676063537597656,-23.060951232910156,-36.372127532958984,-16.25421142578125,-37.57120895385742,-27.30000114440918,-5.400000095367432,-33.45000076293945
2.97,68.68486022949219,31.60346221923828,-23.712173461914062,-32.64165496826172,-9.859111785888672,-29.044410705566406,-26.55000114440918,-5.400000095367432,-36.0
2.99,77.49552154541016,31.488540649414062,-26.163835525512695,-45.831546783447266,7.9938740730285645,-27.31240463256836,-27.000001907348633,-5.700000286102295,-36.0
2.993,84.3525161743164,33.51882553100586,-35.12772750854492,-66.882080078125,50.4946403503418,-6.794793128967285,-25.650001525878906,-5.550000190734863,-34.650001525878906
3.0,89.44737243652344,43.51700973510742,-41.79318618774414,-65.54976654052734,60.22052001953125,33.57427215576172,-25.650001525878906,-5.550000190734863,-34.650001525878906
3.01,92.16719055175781,47.730804443359375,-39.18829345703125,-61.552833557128906,68.88054656982422,65.41653442382812,-27.750001907348633,-4.5,-35.25
3.02,96.68743896484375,49.99093246459961,-37.00477981567383,-41.701377868652344,68.34762573242188,81.40428924560547,-26.250001907348633,-5.700000286102295,-36.30000305175781
3.03,96.03621673583984,41.333499908447266,-39.533058166503906,-10.658498764038086,57.955589294433594,96.45941925048828,-26.250001907348633,-5.700000286102295,-36.30000305175781
3.05,89.52398681640625,35.510799407958984,-41.639957427978516,-5.728943347930908,69.81317138671875,99.92343139648438,-27.000001907348633,-4.950000286102295,-34.5
3.053,87.57032012939453,26.278757095336914,-30.952239990234375,3.597243309020996,68.08116149902344,125.7702865600586,-29.400001525878906,-5.100000381469727,-34.35000228881836
3.06,90.09859466552734,25.780763626098633,-27.619510650634766,-4.529861927032471,72.47779083251953,132.16539001464844,-29.400001525878906,-5.100000381469727,-35.10000228881836
3.07,96.30436706542969,23.482330322265625,-22.869415283203125,-2.131699800491333,61.15313720703125,135.4961700439453,-29.250001907348633,-4.950000286102295,-33.75
3.08,106.34086608886719,15.361198425292969,-19.460071563720703,-5.196018218994141,61.01990509033203,137.49464416503906,-29.250001907348633,-4.950000286102295,-33.75
3.09,114.30876922607422,11.377246856689453,-20.95405387878418,-33.17457962036133,58.754974365234375,129.6339874267578,-29.700000762939453,-8.25,-33.60000228881836
3.103,111.66556549072266,7.201758861541748,-25.742456436157227,-49.56201934814453,61.9525260925293,143.4900360107422,-28.500001907348633,-8.100000381469727,-33.75
3.11,98.41127014160156,6.01423454284668,-34.9744987487793,-62.21898651123047,77.54058074951172,148.15313720703125,-29.250001907348633,-5.700000286102295,-34.5
3.12,94.61885070800781,5.439626216888428,-36.46847915649414,-75.27565002441406,87.39968872070312,148.55282592773438,-29.700000762939453,-9.0,-32.10000228881836
3.13,93.8910140991211,3.9456443786621094,-30.569168090820312,-81.67074584960938,96.99234008789062,167.2052001953125,-29.700000762939453,-9.0,-32.10000228881836
3.14,94.5039291381836,5.51624059677124,-23.060951232910156,-106.85145568847656,77.94027709960938,190.1209716796875,-30.750001907348633,-7.200000286102295,-31.950000762939453
3.15,95.00192260742188,4.6734819412231445,-21.528661727905273,-142.69065856933594,66.74884796142578,200.24655151367188,-31.200000762939453,-9.0,-31.80000114440918
3.162,97.26204681396484,4.213795185089111,-22.984336853027344,-201.71209716796875,76.07503509521484,209.1730499267578,-31.950000762939453,-10.200000762939453,-31.80000114440918
3.17,95.49991607666016,5.937620162963867,-22.17988395690918,-223.0290985107422,68.61408996582031,210.63858032226562,-32.55000305175781,-8.850000381469727,-30.900001525878906
3.18,96.15113830566406,8.772355079650879,-20.992361068725586,-228.0918731689453,66.08269500732422,230.3568115234375,-32.55000305175781,-8.850000381469727,-30.900001525878906
3.19,96.91728210449219,12.02846908569336,-18.54069709777832,-241.28176879882812,56.62327575683594,243.94639587402344,-33.150001525878906,-9.450000762939453,-31.350000381469727
3.2,96.45759582519531,18.004396438598633,-18.310853958129883,-222.76263427734375,50.36140823364258,261.6661376953125,-32.400001525878906,-11.700000762939453,-29.850000381469727
3.219,93.46963500976562,18.77054214477539,-17.391481399536133,-208.77334594726562,47.163856506347656,257.13629150390625,-31.950000762939453,-9.0,-29.250001907348633
3.223,88.83445739746094,18.617311477661133,-18.732234954833984,-187.72280883789062,48.362937927246094,277.92034912109375,-31.80000114440918,-9.600000381469727,-28.650001525878906
3.23,82.39884948730469,14.250288963317871,-19.07699966430664,-193.98468017578125,52.75957107543945,267.2618713378906,-31.80000114440918,-9.600000381469727,-28.650001525878906
3.24,79.29595947265625,10.994174003601074,-20.877439498901367,-175.33230590820312,64.88361358642578,266.1960144042969,-32.400001525878906,-10.200000762939453,-29.55000114440918
3.25,74.89063262939453,7.010222434997559,-19.07699966430664,-165.2067413330078,62.8851432800293,280.185302734375,-32.55000305175781,-8.850000381469727,-28.950000762939453
3.26,73.32003021240234,5.477933406829834,-16.1656494140625,-172.2679901123047,72.0781021118164,266.595703125,-34.20000076293945,-11.700000762939453,-29.55000114440918
3.279,74.04786682128906,5.018246650695801,-14.288596153259277,-172.134765625,71.81163787841797,273.6569519042969,-35.55000305175781,-11.100000381469727,-28.200000762939453
3.283,73.51156616210938,4.367023944854736,-13.445837020874023,-174.66615295410156,63.950992584228516,277.1209716796875,-35.55000305175781,-11.100000381469727,-28.200000762939453
3.29,72.24742889404297,5.286397457122803,-14.556746482849121,-171.06890869140625,61.552833557128906,284.04901123046875,-33.45000076293945,-12.15000057220459,-27.750001907348633
3.3,69.75746154785156,7.469909191131592,-15.093047142028809,-165.3399658203125,59.287899017333984,292.9754943847656,-33.75,-12.300000190734863,-28.650001525878906
3.31,68.64655303955078,7.2783732414245605,-14.480132102966309,-163.87442016601562,66.08269500732422,286.84686279296875,-34.650001525878906,-14.40000057220459,-27.000001907348633
3.32,66.65457153320312,11.41555404663086,-15.24627685546875,-157.612548828125,58.62174606323242,314.5589599609375,-34.5,-14.550000190734863,-26.400001525878906
3.34,65.46704864501953,10.5344877243042,-14.288596153259277,-153.0826873779297,65.81623077392578,287.9126892089844,-34.5,-14.550000190734863,-26.400001525878906
3.343,62.90046691894531,9.615114212036133,-16.70195198059082,-139.49310302734375,60.35375213623047,282.84991455078125,-36.900001525878906,-15.600000381469727,-26.55000114440918
3.35,57.99714279174805,4.63517427444458,-18.732234954833984,-122.3062744140625,52.75957107543945,278.18682861328125,-34.20000076293945,-16.80000114440918,-27.000001907348633
3.36,58.226985931396484,5.286397457122803,-18.464082717895508,-114.44563293457031,50.36140823364258,276.05511474609375,-35.55000305175781,-17.400001525878906,-26.850000381469727
3.37,58.839900970458984,4.865017890930176,-19.881450653076172,-111.91423797607422,63.684532165527344,268.4609375,-36.45000076293945,-16.80000114440918,-27.750001907348633
3.38,62.364166259765625,5.669469833374023,-19.07699966430664,-103.65390014648438,57.15620040893555,259.8009033203125,-36.45000076293945,-16.80000114440918,-27.750001907348633
3.4,64.35614013671875,10.074800491333008,-16.318878173828125,-87.13323211669922,40.76875686645508,268.7274169921875,-35.25,-18.900001525878906,-24.600000381469727
3.404,68.1868667602539,12.756306648254395,-13.10107135772705,-73.81010437011719,25.7136287689209,255.1378173828125,-34.20000076293945,-19.80000114440918,-26.55000114440918
3.41,67.84210205078125,11.109095573425293,-14.939818382263184,-68.21439361572266,15.854516983032227,260.6003112792969,-35.55000305175781,-20.400001525878906,-25.350000381469727
3.42,67.45903015136719,8.35097599029541,-15.322891235351562,-49.56201934814453,-0.5329249501228333,255.40428161621094,-34.650001525878906,-21.0,-26.55000114440918
3.43,65.16059112548828,3.869029998779297,-15.399505615234375,-27.445634841918945,-21.316997528076172,241.54823303222656,-34.650001525878906,-21.0,-26.55000114440918
3.44,60.257266998291016,0.3064578175544739,-15.744270324707031,-25.04747200012207,-9.859111785888672,213.9693603515625,-34.80000305175781,-21.600000381469727,-25.350000381469727
3.46,57.307613372802734,0.5746083855628967,-16.931795120239258,-15.721285820007324,-11.857580184936523,208.64012145996094,-35.55000305175781,-23.850000381469727,-26.100000381469727
3.463,55.85193634033203,0.2298433631658554,-13.599065780639648,-10.791729927062988,-26.113323211669922,206.24195861816406,-34.95000076293945,-24.900001525878906,-25.200000762939453
3.47,55.89024353027344,0.07661445438861847,-8.96389102935791,-11.857580184936523,-29.444103240966797,208.10719299316406,-34.650001525878906,-24.450000762939453,-27.000001907348633
3.48,55.23902130126953,-0.8810662031173706,-8.044517517089844,-3.597243309020996,-26.912710189819336,199.31393432617188,-34.650001525878906,-24.450000762939453,-27.000001907348633
3.49,55.16240692138672,-3.3710360527038574,-2.8347349166870117,17.32006072998047,-42.90045928955078,191.71975708007812,-33.30000305175781,-27.000001907348633,-26.100000381469727
3.5,53.553504943847656,-9.959878921508789,-4.175487995147705,15.721285820007324,-42.36753463745117,162.6753387451172,-34.5,-26.55000114440918,-27.150001525878906
3.519,55.58378601074219,-18.502389907836914,-7.8529815673828125,19.584991455078125,-31.842266082763672,137.22817993164062,-33.150001525878906,-27.600000381469727,-27.000001907348633
3.522,52.289363861083984,-25.5892276763916,-11.530475616455078,1.8652373552322388,-23.182235717773438,118.97549438476562,-33.150001525878906,-27.600000381469727,-27.000001907348633
3.53,52.595821380615234,-25.70414924621582,-12.48815631866455,-7.72741174697876,-29.577335357666016,117.50994873046875,-33.150001525878906,-27.600000381469727,-27.000001907348633
3.54,52.94058609008789,-23.482330322265625,-10.649409294128418,-34.373661041259766,-32.5084228515625,106.85145568847656,-34.05000305175781,-29.250001907348633,-24.600000381469727
3.55,52.09782791137695,-21.0689754486084,-8.542511940002441,-61.28636932373047,-26.379785537719727,106.58499145507812,-32.70000076293945,-29.55000114440918,-27.750001907348633
3.56,49.60786056518555,-13.943830490112305,-6.3973069190979,-54.35834503173828,-40.102603912353516,94.59417724609375,-34.05000305175781,-28.950000762939453,-27.900001525878906
3.579,49.37801742553711,-10.955866813659668,-7.163451671600342,-19.45176124572754,-36.771820068359375,79.67227935791016,-32.70000076293945,-31.05000114440918,-28.80000114440918
3.582,56.96284866333008,-17.12333106994629,-8.389283180236816,-16.25421142578125,-27.84532928466797,61.81929397583008,-32.70000076293945,-31.05000114440918,-28.80000114440918
3.59,58.3419075012207,-19.766529083251953,-7.814674377441406,3.197549819946289,-29.444103240966797,39.30321502685547,-33.45000076293945,-30.30000114440918,-28.500001907348633
3.6,64.89244079589844,-23.63555908203125,-5.70777702331543,22.782541275024414,-29.044410705566406,6.261868000030518,-34.05000305175781,-30.450000762939453,-28.200000762939453
3.61,74.6607894897461,-28.998571395874023,-4.213795185089111,53.82542037963867,-38.10413360595703,-7.06125545501709,-32.70000076293945,-32.25,-28.80000114440918
3.629,80.56009674072266,-36.27694320678711,-5.70777702331543,40.36906433105469,-24.914241790771484,-46.497703552246094,-33.150001525878906,-30.600000381469727,-28.05000114440918
3.633,83.47145080566406,-41.41011428833008,-11.568782806396484,41.568145751953125,-14.655436515808105,-77.00765228271484,-33.150001525878906,-30.600000381469727,-28.05000114440918
3.64,88.14492797851562,-44.24484634399414,-13.675680160522461,20.38437843322754,-5.995405673980713,-86.60030364990234,-32.400001525878906,-28.80000114440918,-28.80000114440918
3.65,88.79615020751953,-44.704532623291016,-11.951854705810547,6.661561965942383,2.131699800491333,-112.71363067626953,-33.45000076293945,-31.05000114440918,-28.500001907348633
3.66,88.41307830810547,-41.37180709838867,-11.875240325927734,-1.5987749099731445,14.788667678833008,-121.24042510986328,-31.950000762939453,-30.600000381469727,-28.500001907348633
3.67,87.91508483886719,-35.16603469848633,-14.250288963317871,-2.398162364959717,14.522205352783203,-121.3736572265625,-32.400001525878906,-31.500001907348633,-28.80000114440918
3.688,88.18323516845703,-25.39769172668457,-16.931795120239258,24.64777946472168,19.98468589782715,-129.36753845214844,-32.400001525878906,-31.500001907348633,-28.80000114440918
3.693,90.74982452392578,-16.28057098388672,-18.847156524658203,73.41041564941406,33.17457962036133,-123.2388916015625,-32.25,-29.250001907348633,-28.80000114440918
3.7,96.03621673583984,-8.197746276855469,-16.127342224121094,125.90351867675781,31.975496292114258,-123.2388916015625,-32.25,-29.250001907348633,-28.200000762939453
3.71,102.47183227539062,-8.542511940002441,-10.189722061157227,184.25880432128906,17.186830520629883,-118.30934143066406,-32.70000076293945,-29.100000381469727,-26.55000114440918
3.72,110.094970703125,-12.258312225341797,1.37906014919281,217.83306884765625,5.062787055969238,-123.77182006835938,-33.900001525878906,-28.80000114440918,-28.80000114440918
3.73,117.2201156616211,-22.256498336791992,10.304644584655762,243.01377868652344,-33.70750427246094,-147.75344848632812,-33.900001525878906,-28.80000114440918,-28.80000114440918
3.75,118.67578887939453,-37.387855529785156,13.024456977844238,247.94332885742188,-62.35221862792969,-161.6094970703125,-34.80000305175781,-29.700000762939453,-27.450000762939453
3.754,119.93992614746094,-53.59181213378906,7.4316020011901855,201.71209716796875,-74.74272155761719,-189.45481872558594,-34.20000076293945,-29.850000381469727,-27.30000114440918
3.76,112.89139556884766,-69.3743896484375,-6.89530086517334,169.33689880371094,-68.61408996582031,-215.56814575195312,-34.20000076293945,-29.850000381469727,-27.30000114440918
3.77,106.53240203857422,-73.39664459228516,-12.641385078430176,123.63858795166016,-50.22817611694336,-239.41653442382812,-33.45000076293945,-28.350000381469727,-27.000001907348633
3.78,102.47183227539062,-69.14454650878906,-15.85919189453125,78.47319793701172,-31.575803756713867,-259.4012145996094,-33.45000076293945,-28.350000381469727,-27.000001907348633
3.79,100.4798583984375,-56.77130889892578,-14.326903343200684,41.168453216552734,-9.592649459838867,-291.1102600097656,-35.25,-27.750001907348633,-27.150001525878906
3.81,102.20368194580078,-40.452430725097656,-10.955866813659668,42.36753463745117,-15.321592330932617,-302.7013854980469,-34.95000076293945,-28.80000114440918,-26.55000114440918
3.813,105.68963623046875,-23.788787841796875,-5.056553840637207,54.62480926513672,-49.29555892944336,-296.039794921875,-34.650001525878906,-25.650001525878906,-26.250001907348633
3.82,103.73596954345703,-7.086836814880371,-2.3750481605529785,57.422664642333984,-51.29402542114258,-290.31085205078125,-34.650001525878906,-25.650001525878906,-26.250001907348633
3.83,99.75202178955078,-1.455674648284912,-6.282385349273682,70.61255645751953,-55.29096221923828,-281.117919921875,-34.650001525878906,-25.650001525878906,-26.250001907348633
3.84,92.62687683105469,5.094861030578613,-11.03248119354248,102.18836212158203,-60.88667678833008,-253.93873596191406,-33.900001525878906,-24.900001525878906,-26.250001907348633
3.85,84.23759460449219,7.163451671600342,-15.591041564941406,128.16845703125,-51.4272575378418,-233.68759155273438,-36.45000076293945,-24.150001525878906,-26.55000114440918
3.87,76.99752807617188,10.457873344421387,-17.583017349243164,150.41806030273438,-37.03828430175781,-220.09800720214844,-35.55000305175781,-23.55000114440918,-27.900001525878906
3.873,72.43896484375,8.96389102935791,-15.131354331970215,192.7855987548828,-34.773353576660156,-208.5068817138672,-35.55000305175781,-22.80000114440918,-27.150001525878906
3.88,70.17884063720703,6.665457725524902,-13.139378547668457,209.57273864746094,-38.50382614135742,-194.2511444091797,-35.55000305175781,-22.80000114440918,-27.150001525878906
3.89,67.45903015136719,3.179499864578247,-10.72602367401123,225.16079711914062,-50.4946403503418,-198.6477813720703,-33.30000305175781,-21.600000381469727,-26.850000381469727
3.9,63.475074768066406,1.2258312702178955,-7.316680431365967,234.4869842529297,-68.4808578491211,-186.79019165039062,-34.20000076293945,-23.700000762939453,-26.250001907348633
3.91,58.99312973022461,-3.7924153804779053,-5.592854976654053,233.28790283203125,-72.74425506591797,-197.0489959716797,-34.650001525878906,-20.55000114440918,-27.30000114440918
3.929,54.74102783203125,-7.010222434997559,-0.9193734526634216,232.62173461914062,-92.19601440429688,-198.38131713867188,-34.650001525878906,-20.55000114440918,-27.30000114440918
3.933,51.369991302490234,-11.185709953308105,4.711789131164551,198.9142303466797,-98.32465362548828,-211.9709014892578,-35.400001525878906,-23.700000762939453,-26.55000114440918
3.94,49.87601089477539,-11.760318756103516,5.286397457122803,185.4578857421875,-103.38744354248047,-202.64471435546875,-34.650001525878906,-21.75,-27.750001907348633
3.95,49.87601089477539,-13.177685737609863,7.814674377441406,168.40428161621094,-124.57120513916016,-207.4410400390625,-35.25,-21.600000381469727,-27.900001525878906
3.96,50.757076263427734,-14.250288963317871,9.040505409240723,142.5574188232422,-136.56201171875,-212.1041259765625,-35.25,-20.400001525878906,-28.200000762939453
3.97,49.03324890136719,-14.824896812438965,9.615114212036133,103.92036437988281,-145.0888214111328,-214.23582458496094,-35.25,-20.400001525878906,-28.200000762939453
3.989,48.152183532714844,-15.24627685546875,7.393294811248779,68.88054656982422,-147.75344848632812,-227.82540893554688,-34.5,-20.100000381469727,-28.650001525878906
3.993,46.198516845703125,-14.709975242614746,-0.3447650372982025,39.03675079345703,-155.6140899658203,-234.35374450683594,-34.5,-20.850000381469727,-29.700000762939453
4.0,45.50898742675781,-16.318878173828125,-1.7621324062347412,11.058192253112793,-147.22052001953125,-257.4027404785156,-33.900001525878906,-19.80000114440918,-30.30000114440918
4.01,46.58158874511719,-16.05072784423828,0.038307227194309235,-12.656967163085938,-156.41346740722656,-267.5283203125,-33.45000076293945,-19.05000114440918,-30.30000114440918
4.02,46.42835998535156,-13.560758590698242,-1.2641384601593018,-46.897396087646484,-168.9372100830078,-261.6661376953125,-33.45000076293945,-19.05000114440918,-30.30000114440918
4.03,45.62390899658203,-9.193734169006348,-6.703764915466309,-84.86830139160156,-155.21438598632812,-263.2649230957031,-32.70000076293945,-17.55000114440918,-30.600000381469727
4.043,42.7508659362793,-4.6734819412231445,-9.500192642211914,-128.56814575195312,-133.6309356689453,-268.1944885253906,-32.400001525878906,-15.15000057220459,-31.80000114440918
4.05,42.48271560668945,4.290409564971924,-10.189722061157227,-148.15313720703125,-126.5696792602539,-257.0030517578125,-33.45000076293945,-13.200000762939453,-32.55000305175781
4.06,42.90409469604492,12.411541938781738,-10.764330863952637,-157.612548828125,-130.30015563964844,-232.75497436523438,-31.650001525878906,-12.15000057220459,-33.30000305175781
4.07,44.47468948364258,20.149600982666016,-11.91354751586914,-158.9448699951172,-105.25267791748047,-223.0290985107422,-31.650001525878906,-12.15000057220459,-33.30000305175781
4.08,45.700523376464844,25.70414924621582,-12.066776275634766,-150.95098876953125,-103.38744354248047,-224.76109313964844,-31.200000762939453,-10.5,-32.55000305175781
4.09,50.10585403442383,30.37763023376465,-14.786589622497559,-132.0321502685547,-101.52220153808594,-210.90504455566406,-31.950000762939453,-8.700000762939453,-33.30000305175781
4.104,56.80961608886719,31.29700469970703,-18.77054214477539,-103.38744354248047,-71.41194152832031,-207.5742645263672,-31.200000762939453,-9.75,-33.30000305175781
4.11,71.59620666503906,32.44622039794922,-29.688100814819336,-97.12557220458984,-52.093414306640625,-213.56967163085938,-31.200000762939453,-9.75,-33.30000305175781
4.12,79.67903137207031,30.530860900878906,-32.52283477783203,-84.73506927490234,-33.97396469116211,-216.6339874267578,-31.200000762939453,-9.75,-33.30000305175781
4.13,89.29414367675781,34.284969329833984,-33.71036148071289,-61.41960144042969,-21.45022964477539,-199.5803985595703,-27.900001525878906,-5.100000381469727,-34.650001525878906
4.14,93.39302062988281,37.656005859375,-39.4947509765625,-46.897396087646484,2.131699800491333,-187.58958435058594,-28.650001525878906,-4.800000190734863,-34.650001525878906
4.159,93.9293212890625,39.80120849609375,-47.309425354003906,-33.97396469116211,21.45022964477539,-153.7488555908203,-27.900001525878906,-3.1500000953674316,-34.650001525878906
4.163,91.05628204345703,45.50898742675781,-52.05952072143555,5.329249382019043,44.36600112915039,-103.12097930908203,-27.900001525878906,-3.1500000953674316,-34.650001525878906
4.17,88.22154235839844,51.59983444213867,-47.46265411376953,28.111791610717773,50.09494400024414,-72.61102294921875,-28.80000114440918,-3.0,-33.0
4.18,87.14894104003906,51.676448822021484,-40.52904510498047,90.19754791259766,40.502296447753906,-40.9019889831543,-29.250001907348633,-3.0,-33.75
4.19,86.95740509033203,46.23682403564453,-32.982521057128906,151.88360595703125,23.581928253173828,-26.379785537719727,-28.950000762939453,-4.350000381469727,-34.35000228881836
4.2,88.33646392822266,36.77493667602539,-28.347347259521484,183.5926513671875,6.261868000030518,-15.854516983032227,-29.250001907348633,-3.0,-34.20000076293945
4.219,92.58856964111328,26.2021427154541,-24.66985511779785,177.5972442626953,-7.860642910003662,4.263399600982666,-29.250001907348633,-3.0,-34.20000076293945
4.223,95.42330169677734,14.748282432556152,-24.018630981445312,140.6921844482422,-27.31240463256836,18.385910034179688,-27.450000762939453,-3.1500000953674316,-35.400001525878906
4.23,99.17741394042969,0.3064578175544739,-28.998571395874023,115.11178588867188,-26.779478073120117,26.779478073120117,-28.80000114440918,-6.150000095367432,-34.20000076293945
4.24,100.36493682861328,-5.784391403198242,-34.3615837097168,62.485450744628906,-22.782541275024414,31.042879104614258,-27.750001907348633,-5.700000286102295,-35.25
4.25,104.27227020263672,-6.627150535583496,-38.537071228027344,7.860642910003662,7.06125545501709,32.37519073486328,-29.400001525878906,-4.800000190734863,-33.60000228881836
4.26,100.05847930908203,-0.5363011956214905,-44.47468948364258,-18.519142150878906,28.911178588867188,53.69218826293945,-29.400001525878906,-4.800000190734863,-33.60000228881836
4.28,93.81439971923828,8.312667846679688,-44.35976791381836,-33.04134750366211,36.238895416259766,71.2787094116211,-27.750001907348633,-7.200000286102295,-36.0
4.284,92.16719055175781,13.637372970581055,-39.80120849609375,-62.618682861328125,58.754974365234375,95.66002655029297,-28.950000762939453,-6.300000190734863,-34.650001525878906
4.29,95.84468078613281,18.502389907836914,-30.875625610351562,-80.8713607788086,64.084228515625,107.65084075927734,-28.650001525878906,-6.750000476837158,-35.85000228881836
4.3,97.0322036743164,17.62132453918457,-28.653806686401367,-120.84072875976562,62.8851432800293,108.71669006347656,-28.950000762939453,-7.050000190734863,-36.150001525878906
4.31,97.14712524414062,14.441824913024902,-29.53487205505371,-145.0888214111328,69.01377868652344,131.63246154785156,-28.950000762939453,-7.050000190734863,-36.150001525878906
4.32,94.65715789794922,13.637372970581055,-29.84132957458496,-181.46095275878906,79.40581512451172,126.43644714355469,-30.450000762939453,-4.800000190734863,-34.35000228881836
4.34,92.97164154052734,15.552734375,-29.419950485229492,-196.64930725097656,102.05513000488281,144.42266845703125,-29.55000114440918,-6.450000286102295,-34.95000076293945
4.343,93.00994873046875,19.268535614013672,-29.266721725463867,-204.50994873046875,114.57886505126953,163.34149169921875,-29.700000762939453,-5.550000190734863,-32.55000305175781
4.35,90.51998138427734,25.20615577697754,-27.121517181396484,-191.71975708007812,109.78253936767578,184.39202880859375,-30.750001907348633,-6.900000095367432,-33.45000076293945
4.36,89.60060119628906,28.653806686401367,-26.700138092041016,-189.45481872558594,118.04287719726562,188.52220153808594,-30.750001907348633,-6.900000095367432,-33.45000076293945
4.37,84.77389526367188,28.232425689697266,-27.849353790283203,-170.0030517578125,111.91423797607422,205.7090301513672,-31.500001907348633,-8.100000381469727,-32.70000076293945
4.38,81.4028549194336,26.623523712158203,-25.20615577697754,-154.9479217529297,114.17916870117188,215.3016815185547,-32.25,-4.950000286102295,-31.500001907348633
4.399,78.60643005371094,22.48634147644043,-22.792800903320312,-154.814697265625,110.848388671875,212.37059020996094,-32.400001525878906,-7.500000476837158,-31.05000114440918
4.404,78.29997253417969,19.268535614013672,-21.107282638549805,-152.41653442382812,88.99846649169922,241.41500854492188,-31.200000762939453,-7.500000476837158,-30.600000381469727
4.41,77.1890640258789,17.161638259887695,-17.1999454498291,-146.42112731933594,86.73353576660156,234.75343322753906,-31.200000762939453,-7.500000476837158,-30.600000381469727
4.42,76.95922088623047,15.284584045410156,-17.62132453918457,-150.2848358154297,73.0107192993164,246.61102294921875,-32.55000305175781,-7.200000286102295,-30.450000762939453
4.43,74.12448120117188,15.514427185058594,-16.778566360473633,-150.55130004882812,78.60643005371094,251.14088439941406,-32.70000076293945,-7.500000476837158,-29.55000114440918
4.44,72.32404327392578,16.242263793945312,-18.77054214477539,-141.35833740234375,63.151607513427734,268.0612487792969,-33.900001525878906,-9.450000762939453,-27.750001907348633
4.459,68.95301055908203,14.67166805267334,-20.379444122314453,-134.5635528564453,88.865234375,269.6600341796875,-33.45000076293945,-9.0,-28.05000114440918
4.462,63.55168914794922,11.875240325927734,-21.298818588256836,-128.96783447265625,82.20367431640625,274.5895690917969,-33.45000076293945,-9.0,-28.05000114440918
4.47,62.32585906982422,11.645397186279297,-21.56696891784668,-125.63705444335938,100.85604858398438,281.5176086425781,-34.20000076293945,-10.200000762939453,-28.500001907348633
4.48,59.06974411010742,9.155426979064941,-20.41775131225586,-126.83613586425781,106.31852722167969,293.241943359375,-34.80000305175781,-10.800000190734863,-27.450000762939453
4.49,58.18867874145508,6.052541732788086,-19.99637222290039,-127.23583221435547,112.58039855957031,301.76873779296875,-34.80000305175781,-12.300000190734863,-26.850000381469727
4.509,56.847923278808594,2.6431987285614014,-16.58702850341797,-130.96630859375,113.11331939697266,299.37060546875,-36.0,-13.050000190734863,-26.850000381469727
4.513,54.74102783203125,3.294421434402466,-14.135366439819336,-139.09341430664062,103.25421142578125,312.0275573730469,-36.0,-13.050000190734863,-26.850000381469727
4.52,54.472877502441406,3.44765043258667,-11.338939666748047,-136.29556274414062,93.39509582519531,304.83306884765625,-35.55000305175781,-12.750000953674316,-26.400001525878906
4.53,56.04347229003906,4.405331134796143,-11.492168426513672,-136.82847595214844,84.73506927490234,305.2327575683594,-35.25,-13.800000190734863,-26.100000381469727
4.54,57.6906852722168,6.89530086517334,-8.619126319885254,-126.96936798095703,69.14701080322266,301.10260009765625,-37.20000076293945,-14.850000381469727,-25.200000762939453
4.55,60.29557418823242,7.929595947265625,-7.967903137207031,-114.57886505126953,36.5053596496582,297.37213134765625,-36.900001525878906,-15.600000381469727,-25.500001907348633
4.569,62.40247344970703,8.887276649475098,-6.550535678863525,-89.93108367919922,15.987748146057129,292.9754943847656,-36.900001525878906,-15.600000381469727,-25.500001907348633
4.573,60.7552604675293,9.730035781860352,-6.588842868804932,-60.35375213623047,6.261868000030518,282.983154296875,-36.900001525878906,-17.850000381469727,-24.0
4.58,56.235008239746094,9.078812599182129,-12.756306648254395,-35.57273864746094,1.9984685182571411,284.1822204589844,-37.650001525878906,-19.5,-23.25
4.59,54.66441345214844,6.205770969390869,-17.42978858947754,-23.04900360107422,4.263399600982666,277.7871398925781,-35.70000076293945,-18.75,-24.450000762939453
4.6,52.289363861083984,3.600879430770874,-18.004396438598633,-5.995405673980713,11.191424369812012,267.9280090332031,-36.75,-21.600000381469727,-24.900001525878906
4.61,52.82566452026367,3.4093432426452637,-16.318878173828125,4.263399600982666,12.523736000061035,252.60643005371094,-36.75,-21.600000381469727,-24.900001525878906
4.63,53.32366180419922,-0.19153612852096558,-17.276559829711914,11.990811347961426,9.72588062286377,254.73812866210938,-36.0,-21.600000381469727,-24.900001525878906
4.634,56.311622619628906,-1.2258312702178955,-15.629348754882812,23.315465927124023,5.329249382019043,239.41653442382812,-36.75,-22.80000114440918,-24.150001525878906
4.64,58.49513626098633,-1.37906014919281,-14.480132102966309,16.387441635131836,16.12097930908203,240.48239135742188,-36.75,-22.80000114440918,-24.150001525878906
4.65,58.03544998168945,-3.179499864578247,-15.361198425292969,33.70750427246094,5.462480545043945,221.43031311035156,-37.95000076293945,-24.150001525878906,-24.750001907348633
4.66,59.68265914916992,-2.604891538619995,-15.093047142028809,29.31087303161621,8.39356803894043,218.36599731445312,-37.95000076293945,-24.150001525878906,-24.750001907348633
4.67,58.87820816040039,-3.600879430770874,-14.824896812438965,18.2526798248291,15.321592330932617,197.58192443847656,-35.25,-25.500001907348633,-24.150001525878906
4.69,59.5677375793457,-2.4899697303771973,-12.143390655517578,26.779478073120117,10.125574111938477,192.11944580078125,-36.0,-26.55000114440918,-24.600000381469727
4.693,58.99312973022461,0.8810662031173706,-8.274360656738281,45.03215789794922,7.72741174697876,169.33689880371094,-35.55000305175781,-27.000001907348633,-23.850000381469727
4.7,61.5980224609375,2.5282769203186035,-3.4093432426452637,58.754974365234375,-7.72741174697876,171.3353729248047,-35.55000305175781,-27.000001907348633,-23.850000381469727
4.71,62.44078063964844,3.179499864578247,1.3407529592514038,75.14241790771484,-8.793261528015137,148.4196014404297,-35.55000305175781,-27.000001907348633,-23.850000381469727
4.72,67.38241577148438,-2.5282769203186035,3.9839515686035156,103.38744354248047,-11.191424369812012,113.24655151367188,-35.400001525878906,-29.100000381469727,-22.950000762939453
4.73,74.20109558105469,-10.764330863952637,5.2480902671813965,137.3614044189453,-21.716691970825195,90.86370086669922,-34.650001525878906,-29.55000114440918,-24.450000762939453
4.749,81.32624053955078,-24.24847412109375,3.8307228088378906,130.83306884765625,-9.326186180114746,60.75344467163086,-34.05000305175781,-28.950000762939453,-24.150001525878906
4.753,85.73157501220703,-40.95042419433594,1.4173674583435059,115.77794647216797,-15.188361167907715,-12.25727367401123,-34.95000076293945,-31.500001907348633,-25.200000762939453
4.76,89.14091491699219,-57.88222122192383,1.2258312702178955,96.99234008789062,-7.72741174697876,-40.9019889831543,-34.95000076293945,-31.500001907348633,-25.200000762939453
4.77,90.40505981445312,-57.57576370239258,1.1875240802764893,75.14241790771484,0.0,-79.40581512451172,-34.5,-31.200000762939453,-23.100000381469727
4.78,88.94937896728516,-48.11387634277344,0.07661445438861847,60.62021255493164,11.324655532836914,-105.78560638427734,-33.75,-31.200000762939453,-23.850000381469727
4.79,90.02198028564453,-34.85957717895508,-2.6431987285614014,72.34455871582031,15.588054656982422,-102.8545150756836,-33.900001525878906,-31.05000114440918,-24.0
4.81,91.4393539428711,-24.018630981445312,-3.869029998779297,83.93567657470703,16.25421142578125,-103.65390014648438,-34.95000076293945,-31.80000114440918,-21.75
4.813,91.78411865234375,-12.641385078430176,-7.316680431365967,126.7029037475586,13.056661605834961,-93.12863159179688,-33.30000305175781,-31.950000762939453,-22.80000114440918
4.82,93.04825592041016,-13.254301071166992,-7.661445617675781,155.6140899658203,10.258805274963379,-91.66309356689453,-33.30000305175781,-31.950000762939453,-22.80000114440918
4.83,94.04424285888672,-12.7946138381958,-7.393294811248779,206.6416473388672,-8.793261528015137,-93.2618637084961,-35.70000076293945,-30.600000381469727,-22.200000762939453
4.84,97.6068115234375,-16.66364288330078,-1.3024457693099976,251.0076446533203,-18.119447708129883,-101.78866577148438,-34.5,-31.05000114440918,-20.700000762939453
4.85,102.43352508544922,-24.210166931152344,5.631162166595459,260.2005920410156,-29.31087303161621,-120.4410400390625,-34.5,-31.200000762939453,-22.350000381469727
4.87,107.94976806640625,-33.978511810302734,14.173673629760742,261.2664489746094,-46.897396087646484,-146.42112731933594,-34.95000076293945,-31.500001907348633,-22.950000762939453
4.873,117.94795227050781,-51.982906341552734,20.494365692138672,241.68145751953125,-87.0,-195.84991455078125,-34.05000305175781,-30.150001525878906,-22.05000114440918
4.88,120.05484771728516,-53.170433044433594,21.490354537963867,209.97242736816406,-95.39356231689453,-233.28790283203125,-33.900001525878906,-30.600000381469727,-21.150001525878906
4.89,121.77867889404297,-53.13212585449219,19.38345718383789,155.08116149902344,-115.2450180053711,-262.865234375,-35.400001525878906,-30.30000114440918,-21.150001525878906
4.9,122.96620178222656,-50.5272331237793,15.131354331970215,101.9218978881836,-131.23277282714844,-294.4410400390625,-35.400001525878906,-30.30000114440918,-21.150001525878906
4.918,120.01654052734375,-43.287166595458984,12.334927558898926,59.82082748413086,-142.15773010253906,-280.4517517089844,-33.45000076293945,-29.55000114440918,-22.200000762939453
4.923,115.15152740478516,-35.43418502807617,7.738059997558594,17.986217498779297,-137.49464416503906,-291.6431884765625,-34.95000076293945,-27.150001525878906,-21.450000762939453
4.93,109.71189880371094,-22.141576766967773,-0.8044517636299133,-3.86370587348938,-117.24349212646484,-294.7074890136719,-34.80000305175781,-27.450000762939453,-21.600000381469727
4.94,105.91948699951172,-15.016432762145996,-4.520252704620361,1.3323123455047607,-112.4471664428711,-269.9264831542969,-33.75,-25.500001907348633,-24.600000381469727
4.95,101.59076690673828,-8.772355079650879,-7.6997528076171875,6.261868000030518,-90.06431579589844,-277.5206604003906,-33.75,-25.500001907348633,-24.600000381469727
4.96,98.21973419189453,-3.179499864578247,-8.312667846679688,30.509952545166016,-87.53292083740234,-271.7917175292969,-34.95000076293945,-24.900001525878906,-24.0
4.978,92.55026245117188,-0.26815059781074524,-8.044517517089844,61.9525260925293,-89.66461944580078,-273.6569519042969,-35.25,-24.750001907348633,-23.850000381469727
4.983,87.53201293945312,0.727837324142456,-7.2783732414245605,93.79479217529297,-109.64930725097656,-260.2005920410156,-35.25,-22.350000381469727,-23.850000381469727
4.99,81.32624053955078,0.38307225704193115,-5.4013190269470215,99.92343139648438,-104.5865249633789,-261.0,-33.900001525878906,-22.5,-22.950000762939453
5.0,78.60643005371094,0.3447650372982025,-5.822698593139648,119.7748794555664,-120.57427215576172,-247.8101043701172,-33.900001525878906,-22.5,-22.950000762939453
5.01,72.74542236328125,1.2258312702178955,-3.9456443786621094,129.50076293945312,-129.36753845214844,-234.35374450683594,-34.20000076293945,-21.450000762939453,-24.450000762939453
5.02,66.9227294921875,0.727837324142456,-3.485957622528076,128.16845703125,-124.30474090576172,-225.16079711914062,-34.20000076293945,-20.55000114440918,-25.500001907348633
5.04,64.24121856689453,1.072602391242981,-1.647210717201233,133.36447143554688,-121.3736572265625,-219.0321502685547,-33.900001525878906,-19.05000114440918,-25.80000114440918
5.043,59.337894439697266,-0.3447650372982025,0.6512228846549988,139.09341430664062,-131.36599731445312,-219.9647674560547,-34.5,-18.900001525878906,-26.100000381469727
5.05,54.62610626220703,-2.911349296569824,1.1875240802764893,141.0918731689453,-128.03521728515625,-220.76416015625,-34.5,-18.900001525878906,-26.100000381469727
5.06,51.33168411254883,-5.631162166595459,1.4939818382263184,127.90198516845703,-130.56661987304688,-214.63552856445312,-33.45000076293945,-20.25,-25.80000114440918
5.07,47.922340393066406,-8.810662269592285,2.5665841102600098,116.0444107055664,-142.29095458984375,-224.62786865234375,-33.900001525878906,-18.30000114440918,-27.30000114440918
5.08,44.704532623291016,-12.02846908569336,2.3750481605529785,110.18223571777344,-153.61561584472656,-225.69371032714844,-33.45000076293945,-17.100000381469727,-27.30000114440918
5.099,42.71255874633789,-13.48414421081543,1.5705963373184204,79.80551147460938,-158.81163024902344,-226.09341430664062,-33.0,-17.700000762939453,-28.200000762939453
5.104,42.1762580871582,-16.625335693359375,0.3447650372982025,35.839202880859375,-160.6768798828125,-238.2174530029297,-33.0,-17.700000762939453,-28.200000762939453
5.11,41.639957427978516,-18.157625198364258,1.9536685943603516,27.578866958618164,-168.80397033691406,-244.21286010742188,-33.150001525878906,-15.600000381469727,-29.850000381469727
5.12,39.60967254638672,-18.34916114807129,1.455674648284912,-18.385910034179688,-173.46707153320312,-252.3399658203125,-31.200000762939453,-16.350000381469727,-29.850000381469727
5.13,40.7205810546875,-16.127342224121094,1.2641384601593018,-72.21133422851562,-169.0704345703125,-255.27105712890625,-31.05000114440918,-15.000000953674316,-30.900001525878906
5.14,40.452430725097656,-11.41555404663086,1.1109095811843872,-116.31086730957031,-169.0704345703125,-258.7350769042969,-32.400001525878906,-15.15000057220459,-31.05000114440918
5.159,39.341522216796875,-7.4316020011901855,-2.6815059185028076,-148.95252990722656,-166.1393585205078,-249.80856323242188,-32.400001525878906,-15.15000057220459,-31.05000114440918
5.163,39.60967254638672,-0.15322890877723694,-4.9799394607543945,-183.45941162109375,-155.6140899658203,-242.8805389404297,-28.950000762939453,-12.450000762939453,-30.30000114440918
5.17,39.954437255859375,9.346963882446289,-9.117119789123535,-200.24655151367188,-141.75804138183594,-246.74424743652344,-30.150001525878906,-12.450000762939453,-33.30000305175781
5.18,41.448421478271484,14.36521053314209,-9.921571731567383,-200.37977600097656,-145.48851013183594,-224.22817993164062,-28.05000114440918,-8.850000381469727,-33.75
5.19,42.061336517333984,20.76251792907715,-11.683704376220703,-202.511474609375,-133.6309356689453,-211.83766174316406,-27.900001525878906,-8.25,-32.10000228881836
5.2,44.5896110534668,27.198131561279297,-13.445837020874023,-187.72280883789062,-131.49923706054688,-201.4456329345703,-27.900001525878906,-8.25,-32.10000228881836
5.22,46.619895935058594,32.13976287841797,-14.97812557220459,-170.66921997070312,-122.70597076416016,-186.25726318359375,-26.400001525878906,-5.100000381469727,-32.55000305175781
5.224,56.426544189453125,42.09964370727539,-22.524648666381836,-124.03828430175781,-106.71822357177734,-170.4027557373047,-25.950000762939453,-5.550000190734863,-32.85000228881836
5.23,57.6906852722168,43.785160064697266,-25.933992385864258,-94.86064147949219,-99.65696716308594,-159.8774871826172,-26.700000762939453,-4.050000190734863,-33.60000228881836
5.24,62.93877410888672,46.006980895996094,-28.692113876342773,-43.30015182495117,-78.3399658203125,-143.2235870361328,-25.650001525878906,-3.1500000953674316,-33.30000305175781
5.25,69.52761840820312,47.884033203125,-32.82929229736328,5.329249382019043,-60.48698043823242,-110.71515655517578,-25.650001525878906,-3.1500000953674316,-33.30000305175781
5.26,75.9632339477539,48.535255432128906,-32.10145568847656,40.102603912353516,-55.4241943359375,-85.00152587890625,-24.750001907348633,-2.25,-33.75
5.279,77.64875030517578,48.99494171142578,-31.7183837890625,73.54364013671875,-33.70750427246094,-59.02143859863281,-24.900001525878906,-2.8500001430511475,-34.35000228881836
5.283,89.33245086669922,42.32948684692383,-35.47249221801758,101.52220153808594,-32.24195861816406,-16.920366287231445,-22.950000762939453,-3.1500000953674316,-33.900001525878906
5.29,93.2780990600586,39.035064697265625,-36.58340072631836,108.18376159667969,-20.38437843322754,1.5987749099731445,-22.950000762939453,-3.1500000953674316,-33.900001525878906
5.3,97.95157623291016,34.82126998901367,-41.41011428833008,94.32771301269531,-1.5987749099731445,-3.597243309020996,-22.950000762939453,-3.1500000953674316,-33.900001525878906
5.31,99.10079956054688,26.85336685180664,-45.81544494628906,75.40888214111328,17.453292846679688,13.722817420959473,-22.650001525878906,-3.1500000953674316,-34.650001525878906
5.32,94.46562194824219,20.992361068725586,-49.9526252746582,63.81776428222656,24.781009674072266,34.64012145996094,-22.80000114440918,-2.700000047683716,-35.55000305175781
5.339,86.91909790039062,14.403517723083496,-52.289363861083984,11.457886695861816,52.89280319213867,53.95865249633789,-22.80000114440918,-2.25,-35.25
5.342,84.3525161743164,9.959878921508789,-46.696510314941406,-5.462480545043945,50.89433288574219,60.75344467163086,-22.80000114440918,-2.25,-35.25
5.35,85.00373840332031,9.002198219299316,-44.89606857299805,-29.577335357666016,52.493106842041016,64.3506851196289,-23.55000114440918,-3.750000238418579,-34.95000076293945
5.36,86.91909790039062,10.496180534362793,-41.333499908447266,-57.822357177734375,44.36600112915039,82.47013854980469,-23.55000114440918,-3.0,-33.75
5.37,90.94136047363281,11.338939666748047,-35.16603469848633,-82.47013854980469,42.633995056152344,95.79325866699219,-24.900001525878906,-3.6000001430511475,-35.10000228881836
5.38,93.73778533935547,13.905523300170898,-34.74465560913086,-106.71822357177734,52.75957107543945,103.38744354248047,-24.150001525878906,-3.6000001430511475,-34.650001525878906
5.398,95.88298797607422,17.391481399536133,-35.28095626831055,-120.04134368896484,67.14854431152344,129.10107421875,-24.900001525878906,-5.550000190734863,-33.60000228881836
5.403,103.27628326416016,22.984336853027344,-37.73262023925781,-119.90811157226562,68.61408996582031,136.82847595214844,-24.900001525878906,-5.550000190734863,-33.60000228881836
5.41,103.65935516357422,25.51261329650879,-37.88584899902344,-120.97396087646484,74.60948944091797,153.0826873779297,-25.05000114440918,-3.0,-33.0
5.42,102.62506103515625,24.59324073791504,-39.60967254638672,-117.50994873046875,93.66156005859375,165.73965454101562,-24.150001525878906,-4.050000190734863,-31.350000381469727
5.43,99.59879302978516,24.9763126373291,-42.63594436645508,-106.18529510498047,104.05359649658203,184.1255645751953,-25.500001907348633,-6.450000286102295,-31.200000762939453
5.449,95.46160888671875,23.82709503173828,-44.05331039428711,-104.85298156738281,117.64318084716797,202.3782501220703,-25.500001907348633,-6.450000286102295,-31.200000762939453
5.453,95.1168441772461,20.877439498901367,-38.07738494873047,-118.8422622680664,120.70750427246094,203.44410705566406,-25.80000114440918,-4.5,-31.950000762939453
5.46,91.59258270263672,15.169661521911621,-31.60346221923828,-131.63246154785156,117.64318084716797,214.23582458496094,-26.250001907348633,-4.950000286102295,-31.950000762939453
5.47,90.2901382446289,13.369222640991211,-31.29700469970703,-141.75804138183594,103.12097930908203,226.62632751464844,-27.150001525878906,-5.550000190734863,-30.30000114440918
5.48,86.95740509033203,11.798625946044922,-28.462270736694336,-165.3399658203125,112.71363067626953,221.83001708984375,-27.150001525878906,-5.850000381469727,-31.05000114440918
5.49,86.34449005126953,10.304644584655762,-27.46628189086914,-197.71514892578125,110.44869232177734,239.949462890625,-27.150001525878906,-5.850000381469727,-31.05000114440918
5.51,85.76988220214844,9.346963882446289,-24.516624450683594,-211.70443725585938,99.79019927978516,258.7350769042969,-28.200000762939453,-4.350000381469727,-29.55000114440918
5.514,84.9271240234375,11.41555404663086,-22.639572143554688,-212.63705444335938,92.86217498779297,255.53750610351562,-30.000001907348633,-6.450000286102295,-28.950000762939453
5.52,83.58637237548828,14.901511192321777,-21.87342643737793,-214.63552856445312,88.73200225830078,259.93414306640625,-30.000001907348633,-6.450000286102295,-28.950000762939453
5.53,80.75163269042969,15.629348754882812,-22.17988395690918,-200.11331176757812,80.8713607788086,269.1271057128906,-28.200000762939453,-6.750000476837158,-26.250001907348633
5.54,76.88260650634766,17.468095779418945,-23.482330322265625,-174.79937744140625,74.74272155761719,267.66156005859375,-28.200000762939453,-6.750000476837158,-26.250001907348633
5.55,73.32003021240234,17.00840950012207,-23.02264404296875,-160.94332885742188,83.00305938720703,272.8575744628906,-30.750001907348633,-6.450000286102295,-26.850000381469727
5.57,70.5619125366211,15.476119995117188,-22.218191146850586,-140.1592559814453,86.3338394165039,284.4486999511719,-30.000001907348633,-7.650000095367432,-26.100000381469727
5.574,67.95702362060547,12.105083465576172,-21.413740158081055,-108.58345794677734,79.67227935791016,292.0428771972656,-31.80000114440918,-8.100000381469727,-26.100000381469727
5.58,64.81582641601562,8.96389102935791,-20.609289169311523,-98.19142150878906,86.73353576660156,297.5053405761719,-31.80000114440918,-8.100000381469727,-26.100000381469727
5.59,63.13031005859375,7.1251444816589355,-19.345149993896484,-84.33537292480469,91.13016510009766,283.6492919921875,-31.650001525878906,-8.700000762939453,-25.200000762939453
5.6,60.33388137817383,5.363011837005615,-18.77054214477539,-68.74732208251953,81.93721008300781,311.7611083984375,-31.650001525878906,-8.700000762939453,-25.200000762939453
5.61,58.18867874145508,4.520252704620361,-19.766529083251953,-64.61714935302734,78.3399658203125,294.9739685058594,-33.30000305175781,-10.800000190734863,-26.850000381469727
5.629,55.392250061035156,4.481945514678955,-18.808849334716797,-61.9525260925293,78.47319793701172,289.2450256347656,-32.70000076293945,-11.40000057220459,-24.450000762939453
5.633,51.33168411254883,4.903325080871582,-17.889474868774414,-51.960182189941406,70.07962799072266,297.2388916015625,-31.950000762939453,-12.450000762939453,-22.5
5.641,46.54328155517578,2.9879636764526367,-19.038692474365234,-40.9019889831543,62.618682861328125,303.10107421875,-31.950000762939453,-12.450000762939453,-22.5
5.65,46.0452880859375,4.137180328369141,-19.000385284423828,-32.108726501464844,62.085758209228516,307.0979919433594,-31.950000762939453,-12.450000762939453,-22.5
5.66,42.90409469604492,5.70777702331543,-16.318878173828125,-11.457886695861816,60.22052001953125,306.4318542480469,-33.150001525878906,-13.200000762939453,-24.0
5.67,41.639957427978516,3.5242648124694824,-15.782577514648438,6.661561965942383,59.82082748413086,298.5711975097656,-32.70000076293945,-17.100000381469727,-24.750001907348633
5.689,41.5250358581543,1.9536685943603516,-13.675680160522461,31.842266082763672,52.493106842041016,307.89739990234375,-32.55000305175781,-15.750000953674316,-23.100000381469727
5.693,42.09964370727539,-2.4133553504943848,-11.951854705810547,34.64012145996094,56.09035110473633,289.511474609375,-32.70000076293945,-17.850000381469727,-23.700000762939453
5.7,43.4020881652832,-10.496180534362793,-10.802638053894043,24.781009674072266,52.093414306640625,276.7212829589844,-32.70000076293945,-17.850000381469727,-23.700000762939453
5.71,45.62390899658203,-14.901511192321777,-10.342951774597168,14.655436515808105,44.23276901245117,264.86370849609375,-33.0,-19.650001525878906,-22.05000114440918
5.72,47.50096130371094,-14.441824913024902,-6.052541732788086,-11.724349021911621,40.23583221435547,245.81163024902344,-33.75,-21.600000381469727,-24.600000381469727
5.73,49.9143180847168,-17.391481399536133,-7.929595947265625,-56.356815338134766,49.16232681274414,212.1041259765625,-33.900001525878906,-21.450000762939453,-22.950000762939453
5.75,54.396263122558594,-17.92778205871582,-8.465897560119629,-135.0964813232422,44.49923324584961,203.17764282226562,-33.900001525878906,-21.75,-21.450000762939453
5.753,60.372188568115234,-7.5848307609558105,-10.41956615447998,-139.09341430664062,40.635528564453125,198.24807739257812,-33.900001525878906,-24.450000762939453,-22.200000762939453
5.76,61.444793701171875,-3.5242648124694824,-11.338939666748047,-148.55282592773438,43.30015182495117,198.24807739257812,-33.900001525878906,-24.450000762939453,-22.200000762939453
5.77,61.90447998046875,0.9193734526634216,-12.02846908569336,-140.82542419433594,38.63705825805664,185.19142150878906,-32.25,-24.30000114440918,-22.05000114440918
5.78,61.5980224609375,11.990161895751953,-10.036493301391602,-94.19448852539062,21.716691970825195,191.9862060546875,-34.650001525878906,-24.900001525878906,-22.200000762939453
5.79,62.785545349121094,17.583017349243164,-10.266336441040039,-35.705970764160156,14.12251091003418,175.19908142089844,-34.650001525878906,-24.900001525878906,-22.200000762939453
5.803,62.8238525390625,17.50640296936035,-9.691728591918945,42.76722717285156,7.594180583953857,156.5467071533203,-32.70000076293945,-25.200000762939453,-20.700000762939453
5.81,66.42472839355469,9.730035781860352,-3.7924153804779053,73.41041564941406,4.796324729919434,98.4578857421875,-33.900001525878906,-25.200000762939453,-19.950000762939453
5.82,70.67683410644531,2.451662540435791,-2.145204782485962,112.31393432617188,-2.398162364959717,108.18376159667969,-30.750001907348633,-27.000001907348633,-21.30000114440918
5.83,75.12047576904297,-9.959878921508789,-0.5746083855628967,126.5696792602539,2.797856092453003,82.6033706665039,-30.750001907348633,-27.450000762939453,-20.850000381469727
5.84,81.82423400878906,-20.11129379272461,2.873042106628418,131.0995330810547,0.9326186776161194,52.75957107543945,-30.750001907348633,-27.450000762939453,-20.850000381469727
5.85,87.91508483886719,-31.641769409179688,5.746084213256836,117.77641296386719,-5.8621745109558105,26.64624786376953,-31.950000762939453,-28.350000381469727,-21.450000762939453
5.863,92.81841278076172,-44.66622543334961,6.627150535583496,102.45481872558594,-14.255742073059082,-12.523736000061035,-30.900001525878906,-29.100000381469727,-21.75
5.87,96.11283111572266,-45.66221618652344,5.861005783081055,90.59724426269531,-15.588054656982422,-42.633995056152344,-33.0,-27.750001907348633,-20.55000114440918
5.88,95.76806640625,-46.16020965576172,0.9193734526634216,86.60030364990234,-17.32006072998047,-65.15007781982422,-32.400001525878906,-29.55000114440918,-20.700000762939453
5.89,95.1551513671875,-45.892059326171875,-4.865017890930176,83.40275573730469,-25.447166442871094,-87.66615295410156,-32.400001525878906,-29.55000114440918,-20.700000762939453
5.9,96.68743896484375,-44.43638229370117,-6.588842868804932,76.74119567871094,-21.050535202026367,-98.85757446289062,-31.950000762939453,-29.850000381469727,-20.700000762939453
5.919,97.07051086425781,-40.107666015625,-5.937620162963867,80.8713607788086,-22.649311065673828,-104.45329284667969,-31.950000762939453,-26.400001525878906,-21.150001525878906
5.923,99.75202178955078,-37.234622955322266,-2.6815059185028076,90.33078002929688,-25.7136287689209,-107.3843765258789,-32.400001525878906,-27.600000381469727,-21.450000762939453
5.93,103.19966888427734,-35.12772750854492,-0.19153612852096558,108.71669006347656,-40.76875686645508,-105.91883087158203,-31.200000762939453,-27.900001525878906,-19.950000762939453
5.94,104.31057739257812,-35.43418502807617,-0.15322890877723694,120.84072875976562,-41.168453216552734,-130.30015563964844,-31.200000762939453,-27.900001525878906,-19.950000762939453
5.95,110.55465698242188,-38.422149658203125,1.647210717201233,141.75804138183594,-47.56355285644531,-150.2848358154297,-31.80000114440918,-27.750001907348633,-20.100000381469727
5.96,114.19384765625,-39.954437255859375,2.0685901641845703,171.46859741210938,-61.68606185913086,-180.66156005859375,-31.80000114440918,-28.200000762939453,-19.80000114440918
5.979,115.68782806396484,-41.60165023803711,1.8770540952682495,176.26492309570312,-65.15007781982422,-208.90658569335938,-31.05000114440918,-27.750001907348633,-20.55000114440918
5.983,117.14350128173828,-40.60565948486328,0.8810662031173706,179.19601440429688,-74.8759536743164,-231.02296447753906,-31.500001907348633,-26.250001907348633,-20.100000381469727
5.99,117.18180847167969,-38.230613708496094,-1.1492167711257935,171.06890869140625,-72.0781021118164,-260.3338317871094,-31.500001907348633,-26.250001907348633,-20.100000381469727
6.0,117.10519409179688,-35.24264907836914,-0.8810662031173706,153.7488555908203,-64.61714935302734,-271.39202880859375,-32.70000076293945,-26.850000381469727,-19.200000762939453
6.01,117.56488037109375,-31.52684783935547,-1.723825216293335,141.89126586914062,-66.21592712402344,-267.66156005859375,-30.900001525878906,-25.200000762939453,-19.200000762939453
6.02,114.19384765625,-28.07919692993164,-2.1068975925445557,130.56661987304688,-73.81010437011719,-273.25726318359375,-33.0,-25.500001907348633,-20.850000381469727
6.04,110.47804260253906,-23.9420166015625,-3.4093432426452637,131.36599731445312,-79.40581512451172,-257.8024597167969,-30.900001525878906,-24.900001525878906,-21.150001525878906
6.043,107.37516021728516,-21.413740158081055,-3.754108190536499,121.10719299316406,-75.14241790771484,-265.6630859375,-30.900001525878906,-24.900001525878906,-21.150001525878906
6.05,101.89722442626953,-18.962078094482422,-4.903325080871582,115.11178588867188,-78.60643005371094,-272.32464599609375,-33.75,-24.750001907348633,-20.55000114440918
6.06,100.67139434814453,-17.73624610900879,-6.244078159332275,129.36753845214844,-97.7917251586914,-264.3307800292969,-34.05000305175781,-22.80000114440918,-20.55000114440918
6.07,96.11283111572266,-13.828908920288086,-6.090848922729492,126.5696792602539,-106.05206298828125,-271.9249572753906,-32.70000076293945,-23.25,-20.400001525878906
6.08,89.67721557617188,-11.568782806396484,-5.70777702331543,122.3062744140625,-101.65543365478516,-274.7228088378906,-33.900001525878906,-21.0,-21.450000762939453
6.1,80.8665542602539,-7.929595947265625,-7.4316020011901855,129.36753845214844,-102.72128295898438,-278.4532775878906,-33.900001525878906,-21.0,-21.450000762939453
6.104,74.3160171508789,-4.941632270812988,-8.236053466796875,143.09034729003906,-99.92343139648438,-255.80397033691406,-33.150001525878906,-20.55000114440918,-20.700000762939453
6.11,65.2755126953125,-5.746084213256836,-7.354987621307373,157.21286010742188,-105.78560638427734,-251.4073486328125,-33.150001525878906,-19.05000114440918,-21.450000762939453
6.12,63.13031005859375,-4.903325080871582,-3.5242648124694824,151.75038146972656,-98.85757446289062,-251.94027709960938,-31.950000762939453,-20.55000114440918,-19.950000762939453
6.13,58.64836502075195,-5.937620162963867,-1.9153614044189453,157.0796356201172,-114.44563293457031,-244.34608459472656,-32.55000305175781,-18.450000762939453,-22.80000114440918
6.14,53.668426513671875,-6.129156112670898,1.0342950820922852,145.6217498779297,-123.37212371826172,-234.8866729736328,-32.55000305175781,-18.450000762939453,-22.80000114440918
6.159,52.82566452026367,-9.500192642211914,3.332728862762451,117.50994873046875,-124.70443725585938,-238.35067749023438,-31.950000762939453,-17.850000381469727,-21.450000762939453
6.163,50.37400436401367,-8.65743350982666,3.8307228088378906,86.73353576660156,-141.0918731689453,-229.15773010253906,-33.150001525878906,-15.15000057220459,-24.0
6.17,49.224788665771484,-10.687716484069824,3.3710360527038574,69.67993927001953,-148.55282592773438,-237.81776428222656,-31.950000762939453,-16.80000114440918,-23.25
6.18,48.57356262207031,-10.72602367401123,4.060565948486328,36.372127532958984,-153.34915161132812,-244.07962036132812,-31.650001525878906,-15.15000057220459,-22.950000762939453
6.19,50.98691940307617,-9.308655738830566,2.6815059185028076,13.989279747009277,-157.612548828125,-259.00152587890625,-31.650001525878906,-15.15000057220459,-22.950000762939453
6.2,51.33168411254883,-10.113107681274414,1.6089035272598267,-10.92496109008789,-162.40887451171875,-255.9372100830078,-30.30000114440918,-15.450000762939453,-26.100000381469727
6.219,52.32767105102539,-8.810662269592285,-1.37906014919281,-29.177640914916992,-158.81163024902344,-275.38897705078125,-30.450000762939453,-12.450000762939453,-26.55000114440918
6.223,52.25105667114258,-7.2783732414245605,-2.183511972427368,-57.422664642333984,-160.01071166992188,-290.31085205078125,-30.450000762939453,-12.450000762939453,-26.55000114440918
6.23,53.09381866455078,-5.477933406829834,-1.8387469053268433,-81.40428924560547,-153.7488555908203,-292.0428771972656,-28.200000762939453,-11.40000057220459,-26.55000114440918
6.24,51.561527252197266,-3.485957622528076,-2.8347349166870117,-96.59264373779297,-148.15313720703125,-281.6508483886719,-28.200000762939453,-11.40000057220459,-26.55000114440918
6.25,49.26309585571289,-0.4213795065879822,-5.631162166595459,-117.24349212646484,-145.35528564453125,-280.185302734375,-28.80000114440918,-11.100000381469727,-26.850000381469727
6.26,48.535255432128906,5.286397457122803,-6.129156112670898,-137.49464416503906,-130.83306884765625,-281.6508483886719,-27.150001525878906,-9.75,-27.000001907348633
6.279,51.02522659301758,10.266336441040039,-9.423578262329102,-147.0872802734375,-105.25267791748047,-262.4655456542969,-27.750001907348633,-7.200000286102295,-28.200000762939453
6.283,52.71074295043945,23.903709411621094,-15.782577514648438,-142.69065856933594,-101.78866577148438,-260.4670715332031,-27.750001907348633,-7.200000286102295,-28.200000762939453
6.29,52.51920700073242,24.13355255126953,-16.089035034179688,-141.0918731689453,-93.2618637084961,-242.34762573242188,-27.750001907348633,-7.200000286102295,-28.200000762939453
6.3,54.51118469238281,30.415939331054688,-16.931795120239258,-116.9770278930664,-81.40428924560547,-234.62020874023438,-27.30000114440918,-4.950000286102295,-28.200000762939453
6.31,53.247047424316406,33.978511810302734,-18.081010818481445,-89.26493072509766,-77.27411651611328,-217.5666046142578,-26.700000762939453,-3.1500000953674316,-28.500001907348633
6.329,54.74102783203125,37.15800857543945,-18.617311477661133,-60.88667678833008,-72.61102294921875,-194.117919921875,-25.650001525878906,-4.050000190734863,-27.750001907348633
6.333,52.74905014038086,40.22258758544922,-18.732234954833984,-33.97396469116211,-60.08728790283203,-170.4027557373047,-24.0,-1.5,-28.650001525878906
6.34,49.14817428588867,39.87782287597656,-19.881450653076172,-4.796324729919434,-55.15773391723633,-161.07656860351562,-24.0,-1.5,-28.650001525878906
6.35,49.56955337524414,39.647979736328125,-21.0689754486084,27.84532928466797,-55.69065856933594,-133.36447143554688,-24.0,-1.5,-29.400001525878906
6.36,52.55751419067383,38.38384246826172,-21.720197677612305,37.70444107055664,-45.298622131347656,-114.3124008178711,-24.0,-0.75,-28.650001525878906
6.37,56.19670104980469,34.55311965942383,-23.252487182617188,46.897396087646484,-45.16539001464844,-113.24655151367188,-22.650001525878906,-0.9000000357627869,-29.250001907348633
6.389,63.01538848876953,31.90991973876953,-24.325088500976562,49.96171569824219,-45.56508255004883,-96.45941925048828,-23.55000114440918,0.30000001192092896,-29.400001525878906
6.393,68.41670989990234,30.79901123046875,-25.435998916625977,34.24042892456055,-45.43185043334961,-83.5359878540039,-23.55000114440918,0.30000001192092896,-29.400001525878906
6.4,72.17081451416016,29.95625114440918,-26.623523712158203,35.439510345458984,-48.49617004394531,-69.54670715332031,-23.400001525878906,-0.45000001788139343,-30.30000114440918
6.41,71.90266418457031,31.373619079589844,-27.198131561279297,23.715160369873047,-53.42572784423828,-51.027565002441406,-22.5,1.0500000715255737,-29.400001525878906
6.42,70.6002197265625,32.790985107421875,-32.02484130859375,8.793261528015137,-42.76722717285156,-29.84379768371582,-22.5,0.75,-30.150001525878906
6.43,68.7997817993164,33.863590240478516,-34.85957717895508,-4.663093090057373,-21.050535202026367,-5.462480545043945,-22.650001525878906,-0.45000001788139343,-31.05000114440918
6.45,67.26749420166016,35.93217849731445,-37.311241149902344,0.39969372749328613,-3.597243309020996,0.6661561727523804,-22.650001525878906,-0.45000001788139343,-31.05000114440918
6.453,67.42072296142578,35.395877838134766,-37.73262023925781,4.663093090057373,6.9280242919921875,13.722817420959473,-22.5,-0.75,-30.450000762939453
6.46,70.83006286621094,34.74465560913086,-34.170047760009766,3.197549819946289,3.3307809829711914,33.70750427246094,-22.5,-0.75,-30.450000762939453
6.47,72.4772720336914,35.12772750854492,-33.71036148071289,-9.859111785888672,13.056661605834961,41.035221099853516,-21.450000762939453,1.350000023841858,-29.250001907348633
6.48,73.43495178222656,33.7869758605957,-34.20835494995117,-18.385910034179688,17.053598403930664,50.76110076904297,-21.150001525878906,0.45000001788139343,-29.850000381469727
6.49,72.36235046386719,32.56114196777344,-35.97048568725586,-6.395099639892578,13.989279747009277,67.94792938232422,-21.150001525878906,0.45000001788139343,-29.850000381469727
6.51,71.8643569946289,30.760704040527344,-34.85957717895508,-20.38437843322754,21.983154296875,78.47319793701172,-24.150001525878906,0.45000001788139343,-28.500001907348633
6.513,77.64875030517578,29.419950485229492,-34.170047760009766,-22.249616622924805,32.90811538696289,91.13016510009766,-22.950000762939453,-0.9000000357627869,-28.500001907348633
6.52,95.46160888671875,30.760704040527344,-36.27694320678711,-30.110260009765625,39.9693717956543,95.39356231689453,-22.950000762939453,-0.9000000357627869,-28.500001907348633
6.53,103.04644012451172,31.641769409179688,-38.115692138671875,-50.22817611694336,54.62480926513672,116.0444107055664,-21.900001525878906,0.15000000596046448,-29.250001907348633
6.54,106.87716674804688,31.641769409179688,-39.99274444580078,-59.02143859863281,73.41041564941406,129.90045166015625,-21.900001525878906,0.15000000596046448,-29.250001907348633
6.55,102.51013946533203,31.488540649414062,-45.73883056640625,-55.4241943359375,93.12863159179688,141.35833740234375,-22.200000762939453,-1.6500000953674316,-29.250001907348633
6.569,98.71772766113281,30.4925537109375,-44.74283981323242,-35.705970764160156,96.19295501708984,159.3445587158203,-24.30000114440918,-3.450000047683716,-28.650001525878906
6.573,99.8286361694336,33.288978576660156,-38.38384246826172,-49.29555892944336,113.3797836303711,171.60183715820312,-23.700000762939453,-2.4000000953674316,-27.000001907348633
6.58,98.87095642089844,32.292991638183594,-37.00477981567383,-64.21745300292969,113.64624786376953,184.39202880859375,-23.700000762939453,-2.4000000953674316,-27.000001907348633
6.59,96.993896484375,27.88766098022461,-35.05111312866211,-78.47319793701172,116.71056365966797,209.97242736816406,-23.700000762939453,-2.4000000953674316,-27.000001907348633
6.6,91.55427551269531,20.570980072021484,-35.74064254760742,-113.11331939697266,124.8376693725586,212.9035186767578,-25.650001525878906,-2.4000000953674316,-26.55000114440918
6.61,86.26787567138672,13.48414421081543,-31.83330535888672,-140.5589599609375,128.16845703125,221.16384887695312,-25.950000762939453,-3.1500000953674316,-25.500001907348633
6.629,84.62066650390625,11.530475616455078,-27.15982437133789,-183.85910034179688,123.50535583496094,251.67381286621094,-25.05000114440918,-3.450000047683716,-26.850000381469727
6.632,83.58637237548828,14.786589622497559,-22.984336853027344,-182.7932586669922,126.30321502685547,260.0673828125,-25.05000114440918,-3.450000047683716,-26.850000381469727
6.64,83.35652923583984,14.211980819702148,-20.915746688842773,-205.7090301513672,122.83920288085938,263.1316833496094,-25.05000114440918,-3.450000047683716,-26.850000381469727
6.65,83.96944427490234,16.05072784423828,-19.460071563720703,-206.5084228515625,121.3736572265625,275.12249755859375,-27.150001525878906,-4.050000190734863,-24.0
6.66,83.24160766601562,15.897499084472656,-18.88546371459961,-201.17916870117188,109.24961853027344,267.2618713378906,-27.450000762939453,-4.350000381469727,-23.700000762939453
6.67,81.4794692993164,14.595053672790527,-18.693927764892578,-186.79019165039062,100.3231201171875,279.7856140136719,-28.950000762939453,-4.350000381469727,-22.200000762939453
6.689,80.29194641113281,14.595053672790527,-18.272546768188477,-156.81317138671875,88.19908142089844,282.983154296875,-28.200000762939453,-4.350000381469727,-24.0
6.693,75.42693328857422,14.020444869995117,-18.387468338012695,-149.48544311523438,83.13629150390625,288.3124084472656,-29.250001907348633,-4.5,-22.350000381469727
6.7,75.08216857910156,14.173673629760742,-17.583017349243164,-135.76263427734375,81.40428924560547,299.1041259765625,-29.250001907348633,-4.5,-22.350000381469727
6.71,71.13652038574219,14.441824913024902,-15.552734375,-126.03675079345703,77.00765228271484,288.0459289550781,-30.30000114440918,-5.700000286102295,-21.30000114440918
6.72,67.19087982177734,13.943830490112305,-16.318878173828125,-113.11331939697266,92.19601440429688,295.50689697265625,-30.450000762939453,-7.500000476837158,-21.75
6.739,62.555702209472656,11.492168426513672,-15.207969665527344,-94.32771301269531,87.39968872070312,302.03521728515625,-30.450000762939453,-7.500000476837158,-21.75
6.743,60.41049575805664,7.6997528076171875,-12.679692268371582,-84.4686050415039,86.3338394165039,303.6340026855469,-31.200000762939453,-8.700000762939453,-21.75
6.75,59.41450881958008,2.5665841102600098,-10.304644584655762,-86.86676788330078,94.59417724609375,305.3659973144531,-30.450000762939453,-9.75,-19.650001525878906
6.76,59.759273529052734,1.647210717201233,-9.84495735168457,-101.65543365478516,94.19448852539062,292.7090148925781,-30.900001525878906,-8.700000762939453,-19.200000762939453
6.77,60.90849304199219,-2.719813108444214,-10.41956615447998,-104.18682861328125,79.0061264038086,302.8345947265625,-30.450000762939453,-11.40000057220459,-19.950000762939453
6.78,61.40648651123047,-3.064578056335449,-8.65743350982666,-105.38591003417969,75.27565002441406,305.89892578125,-30.450000762939453,-11.40000057220459,-19.950000762939453
6.799,60.52541732788086,-3.2561142444610596,-8.465897560119629,-118.97549438476562,80.73812866210938,287.9126892089844,-31.650001525878906,-12.450000762939453,-18.900001525878906
6.804,60.41049575805664,-1.4173674583435059,-8.236053466796875,-107.11791229248047,60.75344467163086,293.1087341308594,-31.650001525878906,-13.65000057220459,-19.950000762939453
6.81,59.87419509887695,0.9193734526634216,-8.197746276855469,-110.71515655517578,55.02450180053711,279.3858947753906,-31.950000762939453,-13.200000762939453,-18.450000762939453
6.82,60.065731048583984,-2.2218191623687744,-8.580819129943848,-116.84379577636719,57.422664642333984,274.056640625,-32.25,-15.000000953674316,-18.30000114440918
6.83,61.253257751464844,-1.0342950820922852,-9.84495735168457,-106.98468017578125,48.22970962524414,272.4578857421875,-32.25,-15.000000953674316,-18.30000114440918
6.84,61.90447998046875,-2.911349296569824,-9.27034854888916,-104.45329284667969,37.17151641845703,269.7932434082031,-33.30000305175781,-15.450000762939453,-18.0
6.86,61.942787170410156,-4.596867084503174,-10.342951774597168,-98.85757446289062,31.44257164001465,255.80397033691406,-31.500001907348633,-17.700000762939453,-18.30000114440918
6.863,61.36817932128906,-1.647210717201233,-9.53849983215332,-87.13323211669922,45.43185043334961,246.07809448242188,-31.80000114440918,-16.5,-18.75
6.87,58.07375717163086,-1.2258312702178955,-10.228029251098633,-69.01377868652344,40.635528564453125,230.75650024414062,-33.30000305175781,-18.150001525878906,-16.80000114440918
6.88,59.146358489990234,-0.19153612852096558,-9.653421401977539,-61.41960144042969,41.434913635253906,233.42112731933594,-33.30000305175781,-18.150001525878906,-16.80000114440918
6.89,61.21495056152344,-1.800439715385437,-4.367023944854736,-58.222049713134766,47.9632453918457,207.70750427246094,-33.75,-17.700000762939453,-18.0
6.9,62.40247344970703,-3.7158010005950928,-2.873042106628418,-64.88361358642578,28.77794647216797,203.3108673095703,-31.650001525878906,-20.25,-16.650001525878906
6.919,60.48711013793945,-9.078812599182129,-3.179499864578247,-71.14547729492188,33.84073257446289,201.31239318847656,-33.45000076293945,-19.05000114440918,-17.400001525878906
6.923,58.45682907104492,-10.764330863952637,-3.600879430770874,-98.19142150878906,48.62940216064453,181.99386596679688,-30.900001525878906,-20.25,-16.650001525878906
6.93,56.96284866333008,-14.326903343200684,-5.592854976654053,-110.98162078857422,52.093414306640625,175.865234375,-30.900001525878906,-20.25,-16.650001525878906
6.94,56.120086669921875,-11.683704376220703,-7.661445617675781,-107.65084075927734,55.82388687133789,170.0030517578125,-31.500001907348633,-21.600000381469727,-15.750000953674316
6.95,58.57175064086914,-10.228029251098633,-7.623138427734375,-115.2450180053711,53.95865249633789,154.814697265625,-32.25,-21.150001525878906,-17.25
6.96,60.1806526184082,-5.171475887298584,-9.155426979064941,-111.781005859375,59.95405578613281,134.5635528564453,-32.70000076293945,-21.450000762939453,-17.100000381469727
6.98,61.98109436035156,-0.9576807022094727,-9.615114212036133,-90.59724426269531,66.34915924072266,114.97856140136719,-31.950000762939453,-21.450000762939453,-17.400001525878906
6.983,66.69288635253906,-0.49799394607543945,-3.869029998779297,-45.298622131347656,44.49923324584961,90.4640121459961,-31.950000762939453,-21.450000762939453,-17.400001525878906
6.99,75.69508361816406,-7.201758861541748,2.6431987285614014,-39.70290756225586,41.83460998535156,72.87748718261719,-31.200000762939453,-22.200000762939453,-15.600000381469727
7.0,82.20730590820312,-16.242263793945312,6.01423454284668,-17.053598403930664,24.781009674072266,-31.176109313964844,-31.950000762939453,-22.5,-16.350000381469727
