time,accel_x,accel_y,accel_z,gyro_x,gyro_y,gyro_z,mag_x,mag_y,mag_z
0.0,-28.807035446166992,-92.43534088134766,56.34992980957031,-7.06125545501709,7.860642910003662,0.39969372749328613,-37.650001525878906,-2.8500001430511475,-3.0
0.004,76.537841796875,-16.28057098388672,10.381258964538574,-5.062787055969238,2.2649309635162354,-4.130168437957764,-37.650001525878906,-2.8500001430511475,-3.0
0.011,76.92091369628906,-16.47210693359375,8.427590370178223,-1.8652373552322388,-7.72741174697876,10.791729927062988,-37.5,-2.25,-3.6000001430511475
0.021,76.69107055664062,-16.510414123535156,11.185709953308105,-0.1332312375307083,-0.7993874549865723,3.9969370365142822,-38.25,-3.450000047683716,-3.3000001907348633
0.031,76.537841796875,-16.089035034179688,10.649409294128418,-2.9310872554779053,5.728943347930908,-0.1332312375307083,-39.45000076293945,-2.1000001430511475,-2.700000047683716
0.041,76.42292022705078,-16.203956604003906,10.917559623718262,0.39969372749328613,-3.0643184185028076,7.860642910003662,-36.900001525878906,-4.050000190734863,-3.750000238418579
0.051,76.19307708740234,-16.740259170532227,11.224017143249512,6.128636837005615,-2.797856092453003,6.261868000030518,-36.900001525878906,-4.050000190734863,-3.750000238418579
0.07,74.6607894897461,-16.1656494140625,11.568782806396484,-3.197549819946289,5.062787055969238,0.0,-39.45000076293945,-2.8500001430511475,-3.0
0.074,75.73339080810547,-17.391481399536133,9.615114212036133,-2.2649309635162354,3.197549819946289,4.396630764007568,-37.80000305175781,-2.25,-3.6000001430511475
0.081,75.77169799804688,-16.012420654296875,10.84094524383545,1.1990811824798584,-4.663093090057373,7.194486618041992,-37.20000076293945,-2.4000000953674316,-3.450000047683716
0.091,77.38059997558594,-16.05072784423828,10.189722061157227,-4.663093090057373,5.995405673980713,5.196018218994141,-37.650001525878906,-4.050000190734863,-3.0
0.101,76.88260650634766,-16.89348793029785,11.760318756103516,-5.728943347930908,3.4640121459960938,1.7320060729980469,-37.650001525878906,-4.050000190734863,-3.0
0.111,77.30398559570312,-16.81687355041504,10.457873344421387,0.6661561727523804,-5.595712184906006,2.6646246910095215,-36.75,-3.750000238418579,-2.8500001430511475
0.127,76.23138427734375,-15.169661521911621,12.02846908569336,-9.592649459838867,3.86370587348938,4.929555892944336,-36.0,-4.200000286102295,-3.9000000953674316
0.131,75.9632339477539,-15.897499084472656,11.453861236572266,-9.992342948913574,5.595712184906006,3.197549819946289,-37.95000076293945,-2.4000000953674316,-2.25
0.141,76.26969146728516,-17.00840950012207,11.03248119354248,-3.86370587348938,7.194486618041992,5.462480545043945,-38.55000305175781,-3.750000238418579,-1.8000000715255737
0.151,74.85232543945312,-18.081010818481445,10.764330863952637,-1.9984685182571411,-2.398162364959717,11.324655532836914,-38.55000305175781,-3.750000238418579,-1.8000000715255737
0.161,75.2737045288086,-18.502389907836914,9.423578262329102,-3.597243309020996,5.062787055969238,-1.3323123455047607,-37.650001525878906,-3.6000001430511475,-3.450000047683716
0.171,75.9249267578125,-17.697938919067383,9.385271072387695,0.1332312375307083,0.2664624750614166,2.531393527984619,-39.45000076293945,-3.1500000953674316,-3.0
0.19,75.23539733886719,-16.89348793029785,10.15141487121582,-6.9280242919921875,1.1990811824798584,1.4655436277389526,-39.150001525878906,-4.350000381469727,-3.450000047683716
0.194,75.65677642822266,-15.744270324707031,9.883264541625977,8.39356803894043,-0.9326186776161194,27.578866958618164,-39.150001525878906,-4.350000381469727,-3.450000047683716
0.201,76.61445617675781,-14.824896812438965,10.611102104187012,-5.196018218994141,7.594180583953857,-2.531393527984619,-39.150001525878906,-4.350000381469727,-3.450000047683716
0.211,76.88260650634766,-14.403517723083496,12.60307788848877,-1.0658499002456665,9.459418296813965,10.125574111938477,-37.20000076293945,-4.800000190734863,-1.9500000476837158
0.221,77.1507568359375,-15.820884704589844,11.836933135986328,4.929555892944336,-3.4640121459960938,11.724349021911621,-38.400001525878906,-4.050000190734863,-4.5
0.24,75.61846923828125,-19.919757843017578,9.883264541625977,-6.9280242919921875,0.0,2.131699800491333,-38.55000305175781,-3.750000238418579,-2.8500001430511475
0.244,75.9249267578125,-20.30282974243164,9.998186111450195,-2.531393527984619,3.0643184185028076,12.923430442810059,-37.80000305175781,-4.5,-4.350000381469727
0.251,76.23138427734375,-14.595053672790527,11.262324333190918,3.597243309020996,-3.0643184185028076,18.91883659362793,-37.80000305175781,-4.5,-4.350000381469727
0.261,75.8866195678711,-15.591041564941406,11.760318756103516,14.522205352783203,-2.131699800491333,17.586523056030273,-37.20000076293945,-4.050000190734863,-3.750000238418579
0.271,77.45721435546875,-16.242263793945312,8.542511940002441,0.9326186776161194,-0.39969372749328613,11.457886695861816,-38.70000076293945,-2.4000000953674316,-3.450000047683716
0.281,74.58417510986328,-17.92778205871582,9.040505409240723,14.388973236083984,1.1990811824798584,6.9280242919921875,-37.20000076293945,-4.800000190734863,-4.200000286102295
0.301,76.42292022705078,-15.935806274414062,12.717999458312988,30.24349021911621,-0.7993874549865723,11.857580184936523,-38.55000305175781,-4.950000286102295,-3.3000001907348633
0.304,79.25765228271484,-16.970102310180664,11.645397186279297,59.287899017333984,-2.531393527984619,-2.2649309635162354,-38.55000305175781,-4.950000286102295,-3.3000001907348633
0.311,76.46122741699219,-14.595053672790527,4.711789131164551,54.62480926513672,-1.8652373552322388,3.7304747104644775,-37.80000305175781,-4.5,-3.6000001430511475
0.321,71.67282104492188,-15.744270324707031,3.7158010005950928,59.02143859863281,-12.390504837036133,22.116384506225586,-37.80000305175781,-5.700000286102295,-4.350000381469727
0.331,71.28974914550781,-20.83913230895996,7.929595947265625,51.29402542114258,-10.658498764038086,23.848390579223633,-38.55000305175781,-5.400000095367432,-2.8500001430511475
0.341,75.8866195678711,-18.693927764892578,8.274360656738281,63.551300048828125,1.7320060729980469,36.372127532958984,-37.650001525878906,-5.550000190734863,-4.5
0.361,77.07414245605469,-21.796812057495117,9.500192642211914,55.55742645263672,-2.2649309635162354,27.445634841918945,-37.650001525878906,-5.550000190734863,-4.5
0.364,78.18505096435547,-26.278757095336914,3.9839515686035156,47.9632453918457,-4.529861927032471,39.9693717956543,-39.150001525878906,-4.800000190734863,-3.750000238418579
0.371,73.93294525146484,-26.240449905395508,8.848969459533691,34.906585693359375,5.329249382019043,32.24195861816406,-38.25,-4.5,-3.9000000953674316
0.381,73.0518798828125,-20.64759635925293,10.994174003601074,25.18070411682129,8.526799201965332,30.776416778564453,-37.80000305175781,-4.200000286102295,-5.100000381469727
0.391,74.16278839111328,-11.224017143249512,15.935806274414062,38.37059783935547,0.6661561727523804,42.23430252075195,-37.650001525878906,-4.350000381469727,-5.25
0.401,75.58016204833984,-12.717999458312988,14.058752059936523,34.24042892456055,3.7304747104644775,44.89892578125,-37.650001525878906,-4.350000381469727,-5.25
0.421,75.9249267578125,-19.651607513427734,12.48815631866455,20.251148223876953,13.323123931884766,28.644716262817383,-38.55000305175781,-5.400000095367432,-5.400000095367432
0.424,75.04386138916016,-19.07699966430664,14.67166805267334,15.588054656982422,8.526799201965332,28.77794647216797,-40.20000076293945,-5.850000381469727,-5.25
0.431,75.69508361816406,-16.318878173828125,12.29662036895752,22.649311065673828,14.522205352783203,33.70750427246094,-39.0,-5.700000286102295,-6.600000381469727
0.441,75.61846923828125,-16.35718536376953,13.445837020874023,15.588054656982422,5.995405673980713,33.30780792236328,-40.05000305175781,-8.40000057220459,-5.850000381469727
0.451,76.46122741699219,-16.855180740356445,13.407529830932617,4.796324729919434,13.722817420959473,38.77029037475586,-40.05000305175781,-8.40000057220459,-5.850000381469727
0.461,76.65276336669922,-14.939818382263184,15.705963134765625,12.25727367401123,7.194486618041992,42.23430252075195,-39.900001525878906,-6.300000190734863,-4.5
0.481,77.34229278564453,-14.135366439819336,17.73624610900879,0.2664624750614166,1.8652373552322388,56.22358322143555,-37.650001525878906,-7.500000476837158,-4.200000286102295
0.485,75.31201171875,-16.855180740356445,18.464082717895508,-2.9310872554779053,2.398162364959717,35.306278228759766,-37.650001525878906,-7.050000190734863,-5.400000095367432
0.491,75.9249267578125,-19.99637222290039,15.85919189453125,7.327718257904053,-8.926492691040039,45.96477508544922,-37.650001525878906,-7.050000190734863,-4.950000286102295
0.501,75.54185485839844,-21.413740158081055,14.67166805267334,1.8652373552322388,-3.597243309020996,45.69831466674805,-37.650001525878906,-7.050000190734863,-4.950000286102295
0.511,75.04386138916016,-21.183897018432617,13.407529830932617,-0.5329249501228333,-11.058192253112793,44.09954071044922,-39.900001525878906,-7.050000190734863,-4.5
0.521,74.62248229980469,-19.843143463134766,10.266336441040039,-5.728943347930908,-0.6661561727523804,31.176109313964844,-39.0,-8.850000381469727,-5.400000095367432
0.54,75.38862609863281,-18.23423957824707,12.641385078430176,-9.592649459838867,-1.0658499002456665,33.70750427246094,-38.70000076293945,-6.300000190734863,-6.300000190734863
0.544,74.35432434082031,-21.030668258666992,12.258312225341797,-2.131699800491333,-9.326186180114746,44.76569747924805,-38.70000076293945,-6.300000190734863,-6.300000190734863
0.551,75.46524047851562,-20.341136932373047,13.637372970581055,-8.127105712890625,-1.5987749099731445,48.22970962524414,-38.70000076293945,-6.300000190734863,-6.300000190734863
0.561,74.85232543945312,-18.387468338012695,14.67166805267334,-6.794793128967285,-3.3307809829711914,47.56355285644531,-39.0,-7.650000095367432,-6.600000381469727
0.571,75.50354766845703,-18.272546768188477,13.139378547668457,-10.258805274963379,-10.125574111938477,51.027565002441406,-39.45000076293945,-9.450000762939453,-7.050000190734863
0.581,75.50354766845703,-11.875240325927734,18.310853958129883,-3.197549819946289,-12.25727367401123,62.618682861328125,-40.05000305175781,-8.100000381469727,-5.400000095367432
0.594,75.61846923828125,-10.802638053894043,14.403517723083496,-8.793261528015137,-10.392036437988281,67.94792938232422,-39.900001525878906,-9.0,-6.300000190734863
0.601,72.93695831298828,-16.35718536376953,15.399505615234375,1.1990811824798584,-14.522205352783203,74.07656860351562,-39.900001525878906,-9.0,-6.300000190734863
0.611,71.94097137451172,-16.740259170532227,16.089035034179688,5.462480545043945,-22.382848739624023,88.46553802490234,-39.75,-8.40000057220459,-5.400000095367432
0.621,74.92893981933594,-24.746469497680664,14.211980819702148,-18.119447708129883,-7.860642910003662,63.018375396728516,-38.70000076293945,-9.450000762939453,-4.950000286102295
0.631,74.2394027709961,-25.627534866333008,14.288596153259277,-15.45482349395752,-10.525267601013184,84.4686050415039,-38.70000076293945,-10.200000762939453,-6.0
0.641,72.24742889404297,-21.45204734802246,11.645397186279297,-6.794793128967285,-15.987748146057129,97.12557220458984,-40.05000305175781,-10.800000190734863,-5.400000095367432
0.653,73.43495178222656,-25.359384536743164,6.933608055114746,0.39969372749328613,-21.183767318725586,98.32465362548828,-40.05000305175781,-10.800000190734863,-5.400000095367432
0.661,72.78372955322266,-23.82709503173828,8.65743350982666,-3.7304747104644775,-7.860642910003662,100.45635223388672,-40.650001525878906,-11.700000762939453,-6.0
0.671,73.81802368164062,-22.984336853027344,8.504204750061035,-1.3323123455047607,-14.255742073059082,104.18682861328125,-38.70000076293945,-12.450000762939453,-3.450000047683716
0.681,73.81802368164062,-20.379444122314453,9.500192642211914,11.724349021911621,-12.523736000061035,111.24808502197266,-40.05000305175781,-11.550000190734863,-6.150000095367432
0.691,70.71514129638672,-23.865402221679688,10.036493301391602,9.592649459838867,-4.663093090057373,121.3736572265625,-38.70000076293945,-11.700000762939453,-6.0
0.71,71.40467071533203,-32.75267791748047,9.84495735168457,-7.594180583953857,-4.796324729919434,109.915771484375,-38.70000076293945,-11.700000762939453,-6.0
0.714,71.09821319580078,-36.315250396728516,9.921571731567383,-12.790199279785156,-5.329249382019043,106.85145568847656,-40.20000076293945,-13.65000057220459,-4.950000286102295
0.721,72.24742889404297,-28.309040069580078,9.500192642211914,-9.592649459838867,-2.797856092453003,109.915771484375,-40.20000076293945,-13.65000057220459,-4.950000286102295
0.731,72.20912170410156,-23.44402313232422,10.611102104187012,-4.663093090057373,0.0,123.2388916015625,-41.25,-13.050000190734863,-5.850000381469727
0.741,70.52360534667969,-24.708162307739258,17.353174209594727,4.663093090057373,-16.920366287231445,121.77335357666016,-40.20000076293945,-13.65000057220459,-6.0
0.751,71.13652038574219,-36.928165435791016,15.437812805175781,-0.6661561727523804,-21.84992218017578,116.17764282226562,-40.20000076293945,-13.65000057220459,-6.0
0.771,70.83006286621094,-35.93217849731445,11.875240325927734,-16.65390396118164,-13.989279747009277,104.32006072998047,-40.95000076293945,-16.80000114440918,-6.0
0.774,73.43495178222656,-36.69832229614258,16.203956604003906,-4.396630764007568,-32.108726501464844,107.3843765258789,-39.0,-16.200000762939453,-5.850000381469727
0.781,71.55789947509766,-45.010990142822266,13.21599292755127,-7.06125545501709,-28.24502182006836,103.7871322631836,-39.0,-16.200000762939453,-5.850000381469727
0.791,70.44699096679688,-48.57356262207031,11.185709953308105,-22.51607894897461,-30.37672233581543,79.9387435913086,-39.150001525878906,-18.30000114440918,-6.750000476837158
0.801,73.0135726928711,-46.619895935058594,5.286397457122803,-25.447166442871094,-30.643184661865234,79.67227935791016,-39.150001525878906,-18.30000114440918,-6.750000476837158
0.811,78.22335815429688,-46.35174560546875,5.592854976654053,-25.846860885620117,-47.297088623046875,89.93108367919922,-40.20000076293945,-18.75,-7.500000476837158
0.83,84.23759460449219,-51.71475601196289,3.600879430770874,-37.03828430175781,-54.4915771484375,81.67074584960938,-40.650001525878906,-18.30000114440918,-5.25
0.834,86.95740509033203,-46.006980895996094,1.9919757843017578,-45.831546783447266,-49.42878723144531,76.4747314453125,-39.900001525878906,-18.30000114440918,-7.500000476837158
0.841,88.0300064086914,-41.065345764160156,7.814674377441406,-40.76875686645508,-52.226646423339844,78.3399658203125,-39.900001525878906,-18.30000114440918,-7.500000476837158
0.851,90.36675262451172,-46.46666717529297,13.713987350463867,11.058192253112793,-75.5421142578125,121.24042510986328,-39.900001525878906,-18.30000114440918,-7.500000476837158
0.861,98.64111328125,-87.30216979980469,2.0685901641845703,-131.49923706054688,-70.3460922241211,61.15313720703125,-39.150001525878906,-19.5,-7.050000190734863
0.871,90.06028747558594,-15.782577514648438,20.341136932373047,-74.8759536743164,-54.22511291503906,97.65850067138672,-39.150001525878906,-20.55000114440918,-5.700000286102295
0.89,111.78048706054688,-17.085023880004883,21.490354537963867,-86.0673828125,-62.618682861328125,105.78560638427734,-39.30000305175781,-19.650001525878906,-8.40000057220459
0.894,127.90782928466797,-48.650177001953125,19.843143463134766,-148.68606567382812,-75.00918579101562,107.65084075927734,-39.30000305175781,-19.650001525878906,-8.40000057220459
0.901,108.33283996582031,-48.19049072265625,5.2480902671813965,-164.4073486328125,-74.8759536743164,108.050537109375,-40.20000076293945,-20.25,-6.300000190734863
0.911,108.71591186523438,-35.74064254760742,-2.030282974243164,-174.39968872070312,-85.93415069580078,120.17457580566406,-39.150001525878906,-22.200000762939453,-7.050000190734863
0.921,114.34707641601562,-24.36339569091797,-9.576807022094727,-132.83154296875,-100.85604858398438,133.36447143554688,-38.55000305175781,-23.850000381469727,-9.90000057220459
0.931,117.2967300415039,-14.939818382263184,-10.84094524383545,-88.73200225830078,-109.915771484375,156.81317138671875,-37.5,-22.350000381469727,-6.900000095367432
0.95,117.79472351074219,-17.276559829711914,-12.258312225341797,-86.3338394165039,-126.03675079345703,136.82847595214844,-37.5,-22.350000381469727,-6.900000095367432
0.954,107.71992492675781,-21.030668258666992,-11.91354751586914,-86.73353576660156,-127.23583221435547,131.89892578125,-36.75,-22.80000114440918,-7.950000286102295
0.961,108.67760467529297,-20.570980072021484,-11.224017143249512,-105.5191421508789,-122.43950653076172,140.82542419433594,-39.0,-22.350000381469727,-6.600000381469727
0.971,105.4214859008789,-15.85919189453125,-12.143390655517578,-135.76263427734375,-127.76875305175781,148.28636169433594,-37.05000305175781,-23.850000381469727,-8.40000057220459
0.981,101.24600219726562,-7.1251444816589355,-7.891288757324219,-144.02296447753906,-124.03828430175781,155.08116149902344,-36.150001525878906,-23.700000762939453,-8.550000190734863
1.0,99.10079956054688,3.141192674636841,-1.072602391242981,-165.73965454101562,-134.29708862304688,147.75344848632812,-36.150001525878906,-23.700000762939453,-8.550000190734863
1.004,98.6794204711914,13.330915451049805,3.179499864578247,-179.72894287109375,-136.4287872314453,160.41041564941406,-37.650001525878906,-25.200000762939453,-8.550000190734863
1.011,92.43534088134766,25.742456436157227,13.560758590698242,-182.12710571289062,-137.09494018554688,169.4701385498047,-36.900001525878906,-24.450000762939453,-9.300000190734863
1.021,86.1912612915039,31.335311889648438,19.68991470336914,-178.92955017089844,-145.88819885253906,188.92189025878906,-35.70000076293945,-25.650001525878906,-9.300000190734863
1.031,79.75564575195312,26.776752471923828,16.70195198059082,-150.41806030273438,-164.67381286621094,236.7519073486328,-36.150001525878906,-26.400001525878906,-10.800000190734863
1.041,73.664794921875,11.30063247680664,12.373234748840332,-65.81623077392578,-170.93568420410156,258.7350769042969,-36.150001525878906,-26.400001525878906,-10.800000190734863
1.059,74.3160171508789,6.818686485290527,17.1999454498291,73.14395141601562,-176.39816284179688,325.88360595703125,-36.150001525878906,-26.850000381469727,-10.800000190734863
1.064,93.9293212890625,13.599065780639648,40.33750915527344,226.62632751464844,-195.050537109375,373.3139343261719,-35.55000305175781,-29.250001907348633,-9.90000057220459
1.071,118.82901763916016,13.445837020874023,65.65858459472656,307.89739990234375,-196.915771484375,394.63092041015625,-33.900001525878906,-30.30000114440918,-10.350000381469727
1.081,116.33905029296875,4.481945514678955,72.74542236328125,371.848388671875,-189.5880584716797,438.0643005371094,-33.0,-33.60000228881836,-10.65000057220459
1.091,100.86293029785156,-13.062764167785645,74.6990966796875,363.1883544921875,-180.9280242919922,479.89892578125,-33.0,-33.60000228881836,-10.65000057220459
1.101,82.20730590820312,-49.722782135009766,83.47145080566406,231.02296447753906,-156.679931640625,431.9356689453125,-32.400001525878906,-37.20000076293945,-10.350000381469727
1.12,83.01176452636719,-77.95520782470703,81.63269805908203,48.49617004394531,-87.9326171875,332.9448547363281,-34.20000076293945,-38.400001525878906,-9.300000190734863
1.124,96.993896484375,-65.12228393554688,47.65419006347656,-96.45941925048828,-64.48391723632812,260.3338317871094,-31.200000762939453,-42.60000228881836,-10.050000190734863
1.131,129.01873779296875,8.159439086914062,45.93036651611328,-102.98774719238281,-49.56201934814453,233.1546630859375,-31.500001907348633,-40.5,-9.90000057220459
1.141,122.5448226928711,42.559329986572266,45.12591552734375,-84.20214080810547,-35.705970764160156,195.983154296875,-31.500001907348633,-40.5,-9.90000057220459
1.151,104.96179962158203,73.28172302246094,43.67023849487305,-26.513015747070312,-19.31852912902832,159.3445587158203,-30.900001525878906,-44.55000305175781,-7.800000190734863
1.161,89.06430053710938,65.888427734375,34.62973403930664,41.035221099853516,-5.062787055969238,100.05665588378906,-30.900001525878906,-46.20000076293945,-9.300000190734863
1.181,79.90887451171875,39.30321502685547,26.355371475219727,98.99080657958984,10.392036437988281,32.90811538696289,-32.25,-43.95000076293945,-8.700000762939453
1.184,76.19307708740234,10.457873344421387,22.06496238708496,159.61102294921875,44.76569747924805,-69.67993927001953,-32.70000076293945,-46.5,-7.500000476837158
1.191,68.7997817993164,-11.645397186279297,16.433799743652344,180.26187133789062,60.22052001953125,-127.76875305175781,-32.70000076293945,-46.5,-7.500000476837158
1.201,68.03363800048828,-12.449849128723145,18.54069709777832,203.97702026367188,72.87748718261719,-201.31239318847656,-35.400001525878906,-46.20000076293945,-6.0
1.211,69.9873046875,13.637372970581055,17.851167678833008,260.3338317871094,87.39968872070312,-259.8009033203125,-35.70000076293945,-43.5,-3.750000238418579
1.221,71.28974914550781,26.01060676574707,13.024456977844238,359.32464599609375,114.04593658447266,-304.1669006347656,-38.25,-44.400001525878906,-3.3000001907348633
1.24,68.68486022949219,-0.6129156351089478,26.929981231689453,396.62939453125,115.91117858886719,-381.9739685058594,-37.80000305175781,-44.400001525878906,-0.30000001192092896
1.244,68.60824584960938,-27.88766098022461,40.758888244628906,361.45635986328125,108.84992218017578,-458.1822204589844,-37.80000305175781,-44.400001525878906,-0.30000001192092896
1.251,75.58016204833984,-52.51920700073242,36.46847915649414,302.96783447265625,127.76875305175781,-507.7442321777344,-42.30000305175781,-39.30000305175781,1.350000023841858
1.261,75.38862609863281,-67.61225891113281,39.68628692626953,230.3568115234375,130.83306884765625,-560.6370239257812,-42.900001525878906,-35.70000076293945,3.450000047683716
1.271,69.91069030761719,-74.50755310058594,39.11167907714844,159.21133422851562,133.76416015625,-592.7457885742188,-43.05000305175781,-33.60000228881836,5.100000381469727
1.281,65.50535583496094,-66.99934387207031,32.44622039794922,100.18988800048828,141.0918731689453,-629.517578125,-44.55000305175781,-30.150001525878906,7.650000095367432
1.301,67.38241577148438,-70.17884063720703,24.708162307739258,30.24349021911621,154.6814727783203,-662.1592407226562,-44.400001525878906,-24.900001525878906,9.0
1.304,65.19889831542969,-57.88222122192383,10.84094524383545,-43.03369140625,172.6676788330078,-717.050537109375,-44.400001525878906,-24.900001525878906,9.0
1.311,64.43275451660156,-50.68046188354492,7.163451671600342,-36.10566711425781,174.39968872070312,-719.3154296875,-43.5,-20.400001525878906,9.450000762939453
1.321,65.58197021484375,-38.07738494873047,1.4173674583435059,0.1332312375307083,191.71975708007812,-737.7013549804688,-43.5,-17.400001525878906,10.65000057220459
1.331,63.93476104736328,-32.292991638183594,-2.2218191623687744,44.76569747924805,201.17916870117188,-750.7579956054688,-44.25,-13.500000953674316,11.40000057220459
1.341,73.74140930175781,-27.619510650634766,1.455674648284912,100.3231201171875,195.5834503173828,-748.0933837890625,-44.25,-13.500000953674316,11.40000057220459
1.361,79.14273071289062,-26.776752471923828,1.455674648284912,141.75804138183594,198.38131713867188,-745.961669921875,-38.70000076293945,-4.350000381469727,13.65000057220459
1.364,86.99571228027344,-53.43858337402344,7.469909191131592,158.545166015625,184.92495727539062,-742.4976806640625,-38.70000076293945,-4.350000381469727,13.65000057220459
1.371,87.72354888916016,-58.839900970458984,5.439626216888428,153.48239135742188,179.595703125,-742.76416015625,-36.30000305175781,-3.0,16.05000114440918
1.381,96.91728210449219,-71.63451385498047,8.044517517089844,118.57579803466797,163.34149169921875,-708.9234008789062,-34.650001525878906,-0.15000000596046448,15.600000381469727
1.391,116.87535095214844,-101.32261657714844,1.3024457693099976,58.222049713134766,160.8101043701172,-667.488525390625,-34.650001525878906,-0.15000000596046448,15.600000381469727
1.409,125.22632598876953,-139.85968017578125,-14.633360862731934,-9.192955017089844,146.82083129882812,-625.6538696289062,-30.900001525878906,2.4000000953674316,18.900001525878906
1.414,121.74037170410156,-169.81593322753906,-15.093047142028809,-113.77947998046875,117.24349212646484,-548.5130004882812,-29.55000114440918,5.700000286102295,19.05000114440918
1.421,114.92168426513672,-197.3971405029297,-13.292608261108398,-172.80091857910156,86.73353576660156,-486.9601745605469,-27.900001525878906,6.750000476837158,19.950000762939453
1.431,110.32481384277344,-192.11074829101562,-14.939818382263184,-249.5421142578125,67.01531219482422,-413.6829833984375,-27.900001525878906,6.750000476837158,19.950000762939453
1.441,115.4579849243164,-138.17416381835938,-23.060951232910156,-248.47625732421875,29.577335357666016,-281.91729736328125,-27.900001525878906,6.750000476837158,19.950000762939453
1.451,125.37955474853516,-130.0147247314453,-41.48672866821289,-164.94027709960938,7.72741174697876,-131.7657012939453,-24.750001907348633,6.900000095367432,22.80000114440918
1.469,92.24380493164062,-150.04940795898438,-56.311622619628906,-136.69525146484375,-23.581928253173828,-11.324655532836914,-24.150001525878906,7.800000190734863,22.5
1.474,73.81802368164062,-144.7630157470703,-70.79175567626953,-60.62021255493164,-65.54976654052734,146.9540557861328,-26.250001907348633,7.650000095367432,22.350000381469727
1.481,57.88222122192383,-107.91146087646484,-76.95922088623047,59.55436325073242,-83.93567657470703,255.40428161621094,-24.450000762939453,7.500000476837158,22.950000762939453
1.491,53.32366180419922,-90.2901382446289,-64.66259765625,189.9877471923828,-104.98621368408203,344.13629150390625,-24.450000762939453,7.500000476837158,22.950000762939453
1.501,48.535255432128906,-84.81220245361328,-43.287166595458984,273.9234313964844,-118.97549438476562,391.83306884765625,-26.400001525878906,5.100000381469727,22.5
1.511,32.676063537597656,-97.5685043334961,-21.796812057495117,292.5758056640625,-134.96324157714844,438.1975402832031,-25.05000114440918,3.750000238418579,20.55000114440918
1.53,17.92778205871582,-91.20951080322266,-15.207969665527344,518.5359497070312,-6.661561965942383,521.6002807617188,-27.30000114440918,3.750000238418579,19.80000114440918
1.534,-7.508216381072998,-103.27628326416016,75.65677642822266,204.6431884765625,-208.90658569335938,796.4563598632812,-27.150001525878906,2.1000001430511475,20.400001525878906
1.541,445.3215026855469,-146.4485321044922,223.98236083984375,-199.44715881347656,-111.781005859375,531.326171875,-27.150001525878906,2.1000001430511475,20.400001525878906
1.551,482.134765625,-217.69996643066406,-169.01148986816406,-245.545166015625,139.89280700683594,330.679931640625,-28.650001525878906,-1.6500000953674316,18.450000762939453
1.561,-56.08177947998047,170.3905487060547,82.20730590820312,121.77335357666016,-41.967838287353516,581.5543823242188,-28.500001907348633,-3.450000047683716,18.30000114440918
1.571,-183.5682373046875,67.4973373413086,-102.62506103515625,348.79937744140625,25.04747200012207,563.16845703125,-28.650001525878906,-5.550000190734863,18.900001525878906
1.591,-17.391481399536133,-91.97565460205078,-22.2948055267334,318.8223571777344,-24.64777946472168,496.6860656738281,-29.700000762939453,-5.850000381469727,19.950000762939453
1.595,117.60318756103516,-160.3157501220703,-34.62973403930664,-43.03369140625,17.453292846679688,426.6064147949219,-29.700000762939453,-9.0,18.900001525878906
1.601,115.76444244384766,-106.53240203857422,53.32366180419922,-97.65850067138672,24.381317138671875,363.8545227050781,-29.700000762939453,-9.0,18.900001525878906
1.611,92.97164154052734,-34.3998908996582,9.346963882446289,-52.89280319213867,37.70444107055664,387.9693603515625,-30.000001907348633,-10.050000190734863,19.05000114440918
1.621,41.02703857421875,-0.5746083855628967,25.167848587036133,38.90352249145508,7.194486618041992,393.4318542480469,-29.55000114440918,-11.550000190734863,19.05000114440918
1.631,49.416324615478516,-47.50096130371094,14.786589622497559,10.791729927062988,5.462480545043945,356.1271057128906,-29.400001525878906,-13.65000057220459,19.650001525878906
1.65,79.83226013183594,-116.53058624267578,-2.75812029838562,-135.4961700439453,11.857580184936523,311.8943176269531,-29.400001525878906,-13.65000057220459,19.650001525878906
1.654,71.7877426147461,-100.4415512084961,13.905523300170898,-133.09800720214844,-4.396630764007568,263.5314025878906,-29.250001907348633,-16.5,18.75
1.661,73.97125244140625,-29.22841453552246,21.0689754486084,-92.59571075439453,-35.03981399536133,279.11944580078125,-29.250001907348633,-16.5,18.75
1.671,80.13871765136719,-25.550920486450195,45.777137756347656,-67.14854431152344,-43.03369140625,245.545166015625,-29.250001907348633,-18.900001525878906,19.5
1.681,80.10041046142578,-60.1423454284668,49.14817428588867,-84.20214080810547,-61.9525260925293,207.30780029296875,-28.500001907348633,-18.900001525878906,19.05000114440918
1.691,68.26348114013672,-86.45941162109375,32.178070068359375,-96.8591079711914,-89.93108367919922,165.87289428710938,-28.500001907348633,-18.900001525878906,19.05000114440918
1.71,66.38642120361328,-80.36856079101562,25.09123420715332,-91.26339721679688,-90.33078002929688,133.89739990234375,-29.55000114440918,-21.600000381469727,16.80000114440918
1.714,73.85633087158203,-75.73339080810547,24.36339569091797,-96.45941925048828,-92.3292465209961,76.60796356201172,-28.650001525878906,-20.55000114440918,16.650001525878906
1.721,76.23138427734375,-80.63671112060547,20.187908172607422,-106.85145568847656,-87.79938507080078,54.89126968383789,-28.650001525878906,-20.55000114440918,16.650001525878906
1.731,81.82423400878906,-80.48348236083984,12.717999458312988,-94.32771301269531,-104.7197494506836,36.372127532958984,-30.150001525878906,-21.450000762939453,18.150001525878906
1.741,107.26023864746094,-80.13871765136719,6.167463779449463,-100.3231201171875,-124.17151641845703,28.511484146118164,-30.150001525878906,-21.450000762939453,18.150001525878906
1.751,142.27304077148438,-60.71695327758789,-7.354987621307373,-96.45941925048828,-129.2342987060547,31.975496292114258,-29.700000762939453,-22.5,17.400001525878906
1.77,168.16873168945312,-38.07738494873047,0.38307225704193115,-58.888206481933594,-150.81776428222656,90.59724426269531,-28.200000762939453,-23.25,15.90000057220459
1.774,194.0644073486328,-29.573179244995117,13.062764167785645,-62.085758209228516,-147.35374450683594,83.5359878540039,-30.30000114440918,-23.850000381469727,15.750000953674316
1.781,189.54415893554688,-28.155811309814453,10.572794914245605,-95.9264907836914,-144.1562042236328,92.06278228759766,-30.30000114440918,-23.850000381469727,15.750000953674316
1.791,177.2858428955078,-20.226215362548828,11.03248119354248,-138.6937255859375,-143.3568115234375,101.9218978881836,-28.950000762939453,-24.450000762939453,14.850000381469727
1.801,163.07386779785156,-12.679692268371582,8.044517517089844,-192.91883850097656,-129.50076293945312,116.44409942626953,-29.700000762939453,-26.100000381469727,14.850000381469727
1.819,150.24095153808594,-3.6391866207122803,2.3367409706115723,-258.06890869140625,-106.98468017578125,117.77641296386719,-31.05000114440918,-25.500001907348633,13.950000762939453
1.824,136.9100341796875,4.63517427444458,-5.669469833374023,-346.4012145996094,-52.89280319213867,82.07044219970703,-30.000001907348633,-27.450000762939453,13.950000762939453
1.831,106.68563079833984,35.0128059387207,-11.185709953308105,-406.7549743652344,-45.16539001464844,94.72740936279297,-30.000001907348633,-27.450000762939453,13.950000762939453
1.841,77.1124496459961,34.05512619018555,-3.9839515686035156,-437.5313720703125,-27.84532928466797,67.5482406616211,-32.55000305175781,-28.500001907348633,12.450000762939453
1.851,51.94459915161133,33.978511810302734,-11.41555404663086,-439.79632568359375,-10.92496109008789,35.17304611206055,-31.05000114440918,-29.700000762939453,12.0
1.861,41.98472213745117,31.29700469970703,-19.99637222290039,-314.6921691894531,-38.37059783935547,54.091880798339844,-31.500001907348633,-29.250001907348633,11.700000762939453
1.88,55.23902130126953,18.77054214477539,-24.938005447387695,-116.44409942626953,-97.5252685546875,98.4578857421875,-31.500001907348633,-29.250001907348633,9.90000057220459
1.884,87.03401947021484,0.5363011956214905,10.074800491333008,41.967838287353516,-181.59417724609375,155.21438598632812,-31.500001907348633,-29.250001907348633,9.90000057220459
1.891,108.2945327758789,27.734432220458984,25.321077346801758,179.72894287109375,-190.1209716796875,230.88973999023438,-30.900001525878906,-32.25,11.100000381469727
1.901,93.62286376953125,42.7891731262207,39.26490783691406,360.25726318359375,-200.77947998046875,397.56201171875,-31.200000762939453,-32.55000305175781,10.350000381469727
1.911,79.52580261230469,-0.15322890877723694,74.46924591064453,269.52679443359375,-152.81622314453125,405.95556640625,-30.750001907348633,-33.150001525878906,11.40000057220459
1.921,70.90667724609375,-36.123714447021484,80.48348236083984,59.82082748413086,-93.66156005859375,369.1837463378906,-31.05000114440918,-36.60000228881836,10.200000762939453
1.94,74.35432434082031,-11.109095573425293,55.54547882080078,-122.43950653076172,-98.05818939208984,401.29248046875,-31.05000114440918,-36.60000228881836,10.200000762939453
1.944,80.71332550048828,15.169661521911621,54.54949188232422,-246.61102294921875,-101.78866577148438,369.050537109375,-30.750001907348633,-39.30000305175781,11.700000762939453
1.951,83.58637237548828,41.98472213745117,44.43638229370117,-266.3292541503906,-117.9096450805664,318.02294921875,-28.950000762939453,-40.35000228881836,9.75
1.961,93.66117095947266,58.76328659057617,38.8818359375,-221.69677734375,-134.69677734375,325.2174377441406,-27.450000762939453,-41.55000305175781,9.300000190734863
1.971,112.5083236694336,81.21131896972656,28.692113876342773,-124.03828430175781,-156.5467071533203,331.8789978027344,-28.200000762939453,-43.80000305175781,9.300000190734863
1.982,127.17999267578125,86.65094757080078,27.083209991455078,-12.124042510986328,-154.54823303222656,339.8728942871094,-28.200000762939453,-43.80000305175781,9.300000190734863
2.001,131.8534698486328,75.65677642822266,30.26270866394043,97.25880432128906,-126.03675079345703,318.9555969238281,-26.55000114440918,-45.900001525878906,7.650000095367432
2.004,122.50651550292969,53.668426513671875,29.075185775756836,193.18528747558594,-75.8085708618164,241.68145751953125,-25.650001525878906,-47.70000076293945,7.500000476837158
2.011,95.07853698730469,11.836933135986328,38.537071228027344,208.24041748046875,-62.21898651123047,212.9035186767578,-25.80000114440918,-48.30000305175781,8.700000762939453
2.021,86.42110443115234,-0.8427590131759644,39.4947509765625,205.84225463867188,-34.906585693359375,137.8943328857422,-24.750001907348633,-50.250003814697266,8.40000057220459
2.031,83.27991485595703,-4.098873138427734,32.369606018066406,216.76722717285156,12.124042510986328,82.07044219970703,-24.750001907348633,-50.250003814697266,8.40000057220459
2.041,82.4371566772461,-5.592854976654053,31.794998168945312,251.0076446533203,35.57273864746094,21.183767318725586,-25.500001907348633,-51.000003814697266,11.700000762939453
2.061,77.8019790649414,-17.161638259887695,34.05512619018555,273.1240234375,53.558956146240234,-79.0061264038086,-24.750001907348633,-51.30000305175781,12.450000762939453
2.064,74.7374038696289,-23.82709503173828,29.879636764526367,293.5084228515625,76.87442779541016,-198.9142303466797,-24.750001907348633,-51.30000305175781,13.500000953674316
2.071,62.13432312011719,-49.64616775512695,27.46628189086914,257.13629150390625,86.86676788330078,-281.91729736328125,-25.650001525878906,-51.60000228881836,14.850000381469727
2.081,60.90849304199219,-54.81764221191406,29.03687858581543,191.18682861328125,89.26493072509766,-375.3124084472656,-25.650001525878906,-51.60000228881836,14.850000381469727
2.091,58.87820816040039,-57.84391403198242,24.13355255126953,142.4241943359375,116.31086730957031,-465.9096374511719,-27.750001907348633,-48.60000228881836,19.5
2.101,49.56955337524414,-69.06793212890625,20.95405387878418,94.72740936279297,138.56048583984375,-548.9127197265625,-28.80000114440918,-45.150001525878906,20.55000114440918
2.12,43.86177444458008,-66.76950073242188,28.883649826049805,43.69984436035156,154.9479217529297,-685.6079711914062,-30.900001525878906,-43.5,23.25
2.124,53.09381866455078,-54.85594940185547,21.490354537963867,47.0306282043457,152.016845703125,-702.7947998046875,-30.900001525878906,-43.5,23.25
2.131,55.009178161621094,-58.15037155151367,21.75850486755371,27.71209716796875,164.27410888671875,-741.6983032226562,-30.900001525878906,-43.5,23.25
2.141,57.42253494262695,-63.85814666748047,21.14558982849121,2.2649309635162354,175.46554565429688,-785.7978515625,-32.55000305175781,-37.05000305175781,27.450000762939453
2.151,61.5980224609375,-62.44078063964844,13.024456977844238,2.531393527984619,172.53445434570312,-802.3185424804688,-34.05000305175781,-32.85000228881836,29.700000762939453
2.161,65.69689178466797,-47.922340393066406,8.619126319885254,22.649311065673828,179.86216735839844,-823.1026000976562,-33.150001525878906,-31.500001907348633,32.10000228881836
2.18,74.54586791992188,-30.952239990234375,7.623138427734375,91.92955017089844,191.9862060546875,-831.62939453125,-34.650001525878906,-29.850000381469727,33.30000305175781
2.183,86.99571228027344,-35.5874137878418,12.334927558898926,105.38591003417969,190.9203643798828,-834.826904296875,-34.650001525878906,-29.850000381469727,33.30000305175781
2.191,88.41307830810547,-40.069358825683594,12.258312225341797,101.52220153808594,180.3950958251953,-842.9540405273438,-33.0,-22.80000114440918,38.25
2.201,92.89502716064453,-43.24885940551758,14.020444869995117,82.47013854980469,187.05665588378906,-869.7335205078125,-33.150001525878906,-20.25,40.650001525878906
2.211,100.5181655883789,-39.647979736328125,13.752294540405273,65.68299865722656,182.92648315429688,-886.6538696289062,-31.950000762939453,-18.75,41.70000076293945
2.23,113.77246856689453,-34.3998908996582,15.85919189453125,41.701377868652344,162.6753387451172,-880.5252685546875,-31.05000114440918,-15.450000762939453,44.10000228881836
2.234,134.34344482421875,-42.674251556396484,16.318878173828125,-41.83460998535156,177.86370849609375,-873.0642700195312,-31.05000114440918,-15.450000762939453,44.10000228881836
2.241,155.1825714111328,-81.74761962890625,6.282385349273682,-101.52220153808594,176.39816284179688,-866.0030517578125,-29.55000114440918,-10.350000381469727,48.150001525878906
2.251,158.6685333251953,-98.90926361083984,-1.5705963373184204,-174.0,190.25421142578125,-827.2327270507812,-29.55000114440918,-11.100000381469727,48.150001525878906
2.261,154.14828491210938,-119.63346862792969,-13.292608261108398,-203.3108673095703,183.32618713378906,-717.7166748046875,-26.700000762939453,-10.5,49.80000305175781
2.271,159.97097778320312,-166.7130584716797,-16.89348793029785,-276.7212829589844,178.79632568359375,-680.6784057617188,-26.250001907348633,-8.850000381469727,52.20000076293945
2.29,148.93849182128906,-206.78240966796875,-22.026655197143555,-384.5053405761719,132.56507873535156,-601.938720703125,-26.250001907348633,-8.850000381469727,52.20000076293945
2.295,137.13987731933594,-211.22604370117188,-23.903709411621094,-428.07196044921875,91.13016510009766,-408.0872802734375,-27.30000114440918,-7.200000286102295,53.70000076293945
2.301,74.08617401123047,-126.8352279663086,-54.472877502441406,-314.29248046875,70.74578857421875,-276.1883544921875,-25.80000114440918,-8.100000381469727,55.80000305175781
2.311,60.372188568115234,-102.9698257446289,-62.555702209472656,-126.83613586425781,34.373661041259766,-66.21592712402344,-27.750001907348633,-6.900000095367432,55.80000305175781
2.321,57.99714279174805,-149.55142211914062,-71.67282104492188,-63.018375396728516,7.06125545501709,108.983154296875,-25.950000762939453,-9.0,54.900001525878906
2.331,45.93036651611328,-235.0531463623047,-73.89463806152344,-76.60796356201172,-32.77488327026367,249.6753387451172,-25.950000762939453,-9.0,54.900001525878906
2.351,42.29117965698242,-249.9929656982422,-53.74504089355469,-46.364471435546875,-62.618682861328125,334.9433288574219,-27.900001525878906,-9.75,55.35000228881836
2.354,55.622093200683594,-165.0658416748047,-54.74102783203125,177.19754028320312,-58.888206481933594,504.1470031738281,-28.500001907348633,-10.050000190734863,54.750003814697266
2.361,28.309040069580078,-123.31096649169922,-37.96246337890625,409.6860656738281,-72.34455871582031,634.3139038085938,-28.500001907348633,-11.550000190734863,54.45000076293945
2.371,67.91871643066406,-177.97537231445312,42.7508659362793,388.9019775390625,-148.8192901611328,736.1026000976562,-29.400001525878906,-14.40000057220459,53.85000228881836
2.381,157.97900390625,-195.36685180664062,25.129541397094727,98.85757446289062,-187.72280883789062,653.0995483398438,-29.400001525878906,-14.40000057220459,53.85000228881836
2.391,236.62374877929688,-49.03324890136719,13.330915451049805,-94.86064147949219,-107.65084075927734,541.5849609375,-31.200000762939453,-13.65000057220459,55.650001525878906
2.41,245.31948852539062,176.63462829589844,0.038307227194309235,-18.519142150878906,-85.13475799560547,709.8560180664062,-30.30000114440918,-16.5,54.750003814697266
2.414,165.4872283935547,182.07424926757812,-5.1331682205200195,420.8774719238281,29.177640914916992,716.6508178710938,-33.0,-20.400001525878906,53.70000076293945
2.421,-41.639957427978516,-29.305028915405273,-63.13031005859375,523.1990966796875,33.57427215576172,663.8912353515625,-33.0,-20.400001525878906,53.70000076293945
2.431,-74.62248229980469,-88.87276458740234,-25.550920486450195,442.59417724609375,-2.797856092453003,612.5972290039062,-33.0,-20.400001525878906,53.70000076293945
2.441,-41.41011428833008,-210.4982147216797,44.819454193115234,-8.127105712890625,9.059723854064941,535.589599609375,-33.75,-20.400001525878906,54.750003814697266
2.451,64.16460418701172,-214.3289337158203,-9.53849983215332,-352.52984619140625,20.650842666625977,435.9326171875,-31.200000762939453,-20.25,53.400001525878906
2.471,117.67980194091797,-90.40505981445312,55.35394287109375,-235.0198974609375,14.388973236083984,384.10565185546875,-30.900001525878906,-22.5,56.10000228881836
2.474,113.46600341796875,20.95405387878418,1.6855180263519287,74.07656860351562,-34.64012145996094,431.13629150390625,-31.500001907348633,-24.750001907348633,54.750003814697266
2.481,48.841712951660156,-42.32948684692383,-6.627150535583496,96.99234008789062,-46.897396087646484,394.76416015625,-31.500001907348633,-24.750001907348633,54.750003814697266
2.491,45.54729461669922,-114.8450698852539,-19.153614044189453,-75.00918579101562,-36.63859176635742,356.1271057128906,-31.500001907348633,-28.200000762939453,54.45000076293945
2.501,78.83627319335938,-127.83121490478516,11.91354751586914,-146.0214385986328,-46.764163970947266,270.326171875,-29.55000114440918,-29.700000762939453,54.45000076293945
2.511,88.68122863769531,-58.64836502075195,28.500577926635742,-85.80091857910156,-65.15007781982422,256.3369140625,-30.900001525878906,-30.600000381469727,54.150001525878906
2.53,61.52140808105469,-25.359384536743164,31.488540649414062,-36.10566711425781,-95.26033782958984,202.511474609375,-29.250001907348633,-32.400001525878906,54.000003814697266
2.534,75.77169799804688,-86.26787567138672,25.857378005981445,-47.163856506347656,-95.12710571289062,176.39816284179688,-31.500001907348633,-34.80000305175781,54.000003814697266
2.541,83.31822204589844,-88.98768615722656,24.66985511779785,-45.16539001464844,-120.4410400390625,145.6217498779297,-31.500001907348633,-34.80000305175781,54.000003814697266
2.551,89.29414367675781,-80.90486145019531,20.072986602783203,-37.83767318725586,-121.50688934326172,124.03828430175781,-30.900001525878906,-34.5,52.05000305175781
2.561,84.8888168334961,-69.75746154785156,16.931795120239258,-38.50382614135742,-118.97549438476562,93.12863159179688,-30.450000762939453,-34.95000076293945,53.10000228881836
2.571,86.65094757080078,-71.28974914550781,23.980323791503906,-45.03215789794922,-130.83306884765625,93.12863159179688,-30.450000762939453,-36.150001525878906,52.05000305175781
2.59,107.79653930664062,-81.82423400878906,28.53888511657715,-127.5022964477539,-117.64318084716797,39.43644714355469,-32.400001525878906,-35.70000076293945,50.55000305175781
2.594,165.52552795410156,-57.03946304321289,16.433799743652344,-136.29556274414062,-122.83920288085938,26.779478073120117,-31.200000762939453,-37.95000076293945,51.60000228881836
2.601,167.9388885498047,-49.49293899536133,15.476119995117188,-144.1562042236328,-118.44257354736328,35.306278228759766,-31.200000762939453,-37.95000076293945,51.60000228881836
2.611,168.8199462890625,-38.728607177734375,20.149600982666016,-139.6263427734375,-130.30015563964844,74.07656860351562,-32.400001525878906,-37.20000076293945,49.05000305175781
2.621,173.18698120117188,-28.002582550048828,14.211980819702148,-164.27410888671875,-119.64165496826172,76.87442779541016,-32.400001525878906,-37.20000076293945,48.750003814697266
2.64,176.3281707763672,-19.766529083251953,8.65743350982666,-195.31700134277344,-117.24349212646484,92.59571075439453,-32.400001525878906,-37.20000076293945,48.750003814697266
2.644,171.1566925048828,-10.879252433776855,2.604891538619995,-243.94639587402344,-105.78560638427734,116.9770278930664,-33.150001525878906,-37.95000076293945,46.05000305175781
2.651,155.56564331054688,1.0342950820922852,2.183511972427368,-307.76416015625,-90.06431579589844,110.71515655517578,-33.150001525878906,-37.95000076293945,46.05000305175781
2.661,144.49485778808594,3.179499864578247,-3.869029998779297,-378.1102600097656,-67.28177642822266,101.38896942138672,-34.5,-1.8000000715255737,43.95000076293945
2.671,138.97862243652344,13.828908920288086,-4.520252704620361,-506.9448547363281,-34.50688934326172,52.493106842041016,-34.5,-40.20000076293945,41.85000228881836
2.681,118.06287384033203,50.06754684448242,-13.48414421081543,-575.29248046875,-41.83460998535156,76.60796356201172,-34.5,-40.20000076293945,41.85000228881836
2.701,88.6429214477539,60.87018585205078,-14.288596153259277,-577.690673828125,-57.955589294433594,-1.3323123455047607,-35.55000305175781,-45.60000228881836,76.20000457763672
2.704,74.08617401123047,82.24561309814453,-21.45204734802246,-302.4349060058594,-120.30780792236328,69.67993927001953,-34.650001525878906,-44.25,35.10000228881836
2.711,85.31019592285156,82.59038543701172,-16.625335693359375,-58.222049713134766,-165.60643005371094,144.02296447753906,-36.75,-44.85000228881836,34.20000076293945
2.721,98.6028060913086,72.66880798339844,26.31706428527832,210.50535583496094,-214.10260009765625,241.28176879882812,-36.75,-44.85000228881836,34.20000076293945
2.731,112.39340209960938,67.45903015136719,91.5159683227539,364.3874206542969,-252.3399658203125,341.2052001953125,-36.45000076293945,-46.20000076293945,32.85000228881836
2.741,102.43352508544922,64.77751922607422,47.80741882324219,483.49615478515625,-252.60643005371094,492.5558776855469,-36.45000076293945,-44.55000305175781,31.350000381469727
2.761,68.68486022949219,1.5705963373184204,63.62830352783203,397.2955627441406,-198.11485290527344,531.7258911132812,-36.30000305175781,-45.900001525878906,32.70000076293945
2.764,62.555702209472656,-68.34009552001953,80.21533203125,37.304744720458984,-140.6921844482422,434.7335205078125,-35.400001525878906,-46.95000076293945,31.80000114440918
2.771,95.1168441772461,-51.561527252197266,46.0452880859375,-139.6263427734375,-136.0290985107422,410.75189208984375,-35.400001525878906,-46.95000076293945,31.80000114440918
2.781,102.81659698486328,-13.10107135772705,53.668426513671875,-283.5160827636719,-162.40887451171875,376.9111633300781,-35.25,-48.30000305175781,31.500001907348633
2.791,106.22594451904297,42.52102279663086,51.1401481628418,-258.2021484375,-169.20367431640625,347.0673828125,-33.30000305175781,-49.05000305175781,31.950000762939453
2.801,109.90343475341797,81.32624053955078,40.03105163574219,-108.18376159667969,-176.6646270751953,346.134765625,-32.70000076293945,-51.900001525878906,27.750001907348633
2.82,115.68782806396484,93.04825592041016,32.13976287841797,41.701377868652344,-176.26492309570312,338.8070373535156,-31.650001525878906,-50.85000228881836,26.55000114440918
2.824,121.9319076538086,85.5017318725586,29.419950485229492,161.34303283691406,-151.6171417236328,316.9571228027344,-31.650001525878906,-50.85000228881836,26.55000114440918
2.831,118.40763854980469,55.0474853515625,33.59543991088867,176.53138732910156,-128.43490600585938,291.1102600097656,-30.30000114440918,-52.20000076293945,26.850000381469727
2.841,101.43753814697266,30.339323043823242,36.66001510620117,166.2725830078125,-93.79479217529297,227.82540893554688,-27.900001525878906,-53.55000305175781,27.000001907348633
2.851,72.89865112304688,2.9879636764526367,35.66402816772461,158.27871704101562,-69.01377868652344,153.61561584472656,-27.150001525878906,-51.900001525878906,27.000001907348633
2.861,56.77130889892578,-11.836933135986328,35.702335357666016,146.0214385986328,-44.23276901245117,78.3399658203125,-27.750001907348633,-51.750003814697266,27.450000762939453
2.88,55.85193634033203,-14.403517723083496,35.85556411743164,145.48851013183594,-10.258805274963379,-8.926492691040039,-27.750001907348633,-51.750003814697266,27.450000762939453
2.884,60.372188568115234,-6.435614109039307,35.16603469848633,198.6477813720703,7.06125545501709,-85.93415069580078,-26.700000762939453,-51.150001525878906,26.55000114440918
2.891,63.05369567871094,-1.072602391242981,29.76471519470215,261.2664489746094,31.309341430664062,-171.60183715820312,-25.650001525878906,-49.650001525878906,27.000001907348633
2.901,58.18867874145508,-10.5344877243042,35.12772750854492,293.9081115722656,60.75344467163086,-264.3307800292969,-27.30000114440918,-48.60000228881836,27.150001525878906
2.911,55.35394287109375,-34.05512619018555,44.12992477416992,274.9892883300781,77.27411651611328,-359.0581970214844,-24.0,-46.650001525878906,28.950000762939453
2.921,49.45463180541992,-64.27952575683594,41.37180709838867,216.10107421875,92.3292465209961,-442.4609375,-24.0,-46.650001525878906,28.950000762939453
2.94,48.650177001953125,-91.70750427246094,44.704532623291016,32.90811538696289,126.5696792602539,-599.0076293945312,-28.950000762939453,-42.60000228881836,30.30000114440918
2.944,47.07958221435547,-71.74943542480469,38.843528747558594,13.323123931884766,138.8269500732422,-636.3123779296875,-28.950000762939453,-42.60000228881836,30.30000114440918
2.951,44.85776138305664,-67.88040924072266,35.510799407958984,8.39356803894043,158.0122528076172,-678.14697265625,-28.950000762939453,-39.60000228881836,29.850000381469727
2.961,42.82748031616211,-60.44880294799805,37.77092742919922,20.117916107177734,178.5298614501953,-723.578857421875,-28.200000762939453,-39.900001525878906,29.850000381469727
2.971,53.361968994140625,-57.53745651245117,34.05512619018555,15.321592330932617,192.7855987548828,-752.7564697265625,-28.200000762939453,-39.900001525878906,29.850000381469727
2.981,63.51338195800781,-62.8238525390625,29.496564865112305,-1.1990811824798584,215.3016815185547,-789.1286010742188,-30.30000114440918,-35.10000228881836,30.450000762939453
2.995,69.52761840820312,-57.53745651245117,25.129541397094727,16.65390396118164,223.4287872314453,-820.7044067382812,-29.250001907348633,-31.950000762939453,30.150001525878906
3.001,74.35432434082031,-40.79719543457031,18.923770904541016,21.45022964477539,239.5497589111328,-825.9004516601562,-28.950000762939453,-30.30000114440918,31.80000114440918
3.011,78.91288757324219,-35.74064254760742,16.855180740356445,38.63705825805664,249.5421142578125,-829.4976806640625,-28.650001525878906,-28.350000381469727,30.600000381469727
3.021,88.29815673828125,-34.66804122924805,16.81687355041504,34.906585693359375,240.61561584472656,-854.6784057617188,-28.650001525878906,-28.350000381469727,30.600000381469727
3.031,92.51195526123047,-36.88985824584961,15.322891235351562,27.84532928466797,228.4915771484375,-870.9326171875,-28.950000762939453,-24.450000762939453,31.80000114440918
3.05,97.26204681396484,-36.69832229614258,10.457873344421387,-6.661561965942383,228.35833740234375,-894.9142456054688,-28.650001525878906,-23.700000762939453,33.30000305175781
3.054,108.44776153564453,-30.37763023376465,9.078812599182129,-31.309341430664062,217.96630859375,-923.9586181640625,-29.400001525878906,-23.700000762939453,34.650001525878906
3.061,121.35729217529297,-25.81907081604004,4.63517427444458,-43.43338394165039,211.9709014892578,-917.8300170898438,-29.250001907348633,-21.150001525878906,34.95000076293945
3.071,133.69223022460938,-28.577192306518555,0.4213795065879822,-50.76110076904297,221.43031311035156,-901.9754638671875,-29.250001907348633,-21.150001525878906,34.95000076293945
3.081,149.78126525878906,-42.1379508972168,-2.8347349166870117,-36.771820068359375,231.95558166503906,-873.8637084960938,-33.150001525878906,-18.75,36.150001525878906
3.091,169.7776336669922,-70.25545501708984,-8.427590370178223,-11.191424369812012,229.4241943359375,-813.1102294921875,-33.30000305175781,-15.000000953674316,36.30000305175781
3.111,179.35443115234375,-147.7509765625,-29.496564865112305,-12.923430442810059,217.83306884765625,-714.5191040039062,-36.150001525878906,-13.65000057220459,36.60000228881836
3.114,174.98741149902344,-266.043701171875,-5.324704647064209,-363.05511474609375,184.5252685546875,-706.5252685546875,-36.0,-10.800000190734863,37.80000305175781
3.121,115.53459930419922,-210.2300567626953,-32.484527587890625,-509.343017578125,163.4747314453125,-602.0719604492188,-36.0,-10.800000190734863,37.80000305175781
3.131,89.63890838623047,-118.21610260009766,-69.9489974975586,-270.326171875,175.9984588623047,-287.77947998046875,-36.900001525878906,-6.750000476837158,39.900001525878906
3.141,72.43896484375,-122.46820831298828,-71.44297790527344,-93.39509582519531,85.13475799560547,-31.176109313964844,-37.20000076293945,-6.750000476837158,41.70000076293945
3.151,97.87496185302734,-238.8838653564453,-62.63231658935547,-178.79632568359375,2.398162364959717,97.7917251586914,-37.650001525878906,-4.350000381469727,41.70000076293945
3.171,73.0901870727539,-295.00396728515625,-91.40104675292969,-238.75038146972656,-55.29096221923828,231.4226531982422,-37.95000076293945,-5.550000190734863,40.20000076293945
3.174,42.865787506103516,-224.02066040039062,-84.62066650390625,-24.11485481262207,-117.24349212646484,406.4884948730469,-37.95000076293945,-5.550000190734863,40.20000076293945
3.181,51.02522659301758,-139.78306579589844,-86.61264038085938,71.2787094116211,-119.37519073486328,463.64471435546875,-40.5,-9.600000381469727,40.35000228881836
3.191,43.01901626586914,-116.30074310302734,-91.4776611328125,316.15771484375,-18.91883659362793,620.4578857421875,-40.05000305175781,-10.800000190734863,40.80000305175781
3.201,24.861391067504883,-166.9045867919922,57.614070892333984,534.1240234375,-125.10413360595703,720.781005859375,-42.30000305175781,-10.350000381469727,39.0
3.211,141.08551025390625,-126.8352279663086,46.926353454589844,486.1607971191406,-163.4747314453125,800.1868286132812,-42.0,-13.050000190734863,38.55000305175781
3.23,270.7937927246094,-38.115692138671875,100.70970153808594,63.81776428222656,-145.88819885253906,611.7978515625,-42.0,-13.050000190734863,38.55000305175781
3.234,358.517333984375,95.57653045654297,66.9610366821289,13.722817420959473,-41.434913635253906,726.5099487304688,-42.45000076293945,-17.100000381469727,39.900001525878906
3.241,123.04281616210938,106.9920883178711,-110.40142822265625,228.0918731689453,37.83767318725586,766.2128295898438,-43.650001525878906,-20.25,36.900001525878906
3.251,-54.472877502441406,-20.83913230895996,-76.69107055664062,495.88665771484375,-9.059723854064941,658.1622924804688,-44.25,-21.900001525878906,37.5
3.261,-130.51272583007812,-69.10623931884766,-21.490354537963867,468.7074890136719,-49.16232681274414,629.7840576171875,-43.95000076293945,-25.200000762939453,36.900001525878906
3.271,-57.001155853271484,-164.56784057617188,18.617311477661133,19.584991455078125,-21.583459854125977,521.8667602539062,-43.95000076293945,-25.200000762939453,36.900001525878906
3.29,68.761474609375,-203.37306213378906,30.645782470703125,-275.6554260253906,-38.77029037475586,478.83306884765625,-44.25,-29.250001907348633,37.80000305175781
3.294,145.68238830566406,-137.67617797851562,3.869029998779297,-162.6753387451172,-21.716691970825195,402.7580261230469,-41.70000076293945,-34.5,38.400001525878906
3.301,107.41346740722656,-49.9526252746582,-40.41412353515625,-83.40275573730469,-15.055130004882812,393.2986145019531,-41.70000076293945,-34.5,36.900001525878906
3.311,44.6279182434082,-22.218191146850586,9.653421401977539,-48.09647750854492,-35.57273864746094,384.37213134765625,-40.95000076293945,-36.900001525878906,35.85000228881836
3.321,41.10365295410156,-36.2003288269043,14.288596153259277,-41.035221099853516,-40.102603912353516,345.2021484375,-40.95000076293945,-36.900001525878906,35.85000228881836
3.331,88.22154235839844,-82.28392028808594,10.802638053894043,-68.88054656982422,-43.96630859375,279.9188232421875,-40.80000305175781,-38.55000305175781,36.0
3.35,78.68304443359375,-99.10079956054688,20.379444122314453,-76.4747314453125,-77.27411651611328,221.29708862304688,-39.900001525878906,-41.85000228881836,35.10000228881836
3.354,69.06793212890625,-57.805606842041016,32.56114196777344,-42.90045928955078,-101.65543365478516,194.38436889648438,-39.75,-42.900001525878906,34.95000076293945
3.361,79.75564575195312,-62.63231658935547,24.938005447387695,-38.10413360595703,-103.12097930908203,172.93414306640625,-39.75,-42.900001525878906,34.95000076293945
3.371,88.68122863769531,-75.73339080810547,22.524648666381836,-37.17151641845703,-116.57733154296875,126.7029037475586,-39.75,-42.900001525878906,34.95000076293945
3.381,88.33646392822266,-77.8019790649414,19.07699966430664,-28.644716262817383,-131.49923706054688,110.848388671875,-39.75,-45.60000228881836,31.950000762939453
3.4,92.6651840209961,-76.38461303710938,27.006595611572266,-51.4272575378418,-119.64165496826172,82.47013854980469,-41.25,-45.150001525878906,33.45000076293945
3.404,115.49629211425781,-77.8019790649414,37.387855529785156,-87.26646423339844,-114.57886505126953,66.34915924072266,-40.95000076293945,-47.25,31.05000114440918
3.411,148.2872772216797,-60.29557418823242,28.61549949645996,-110.31546783447266,-104.5865249633789,69.54670715332031,-40.95000076293945,-47.25,31.05000114440918
3.421,159.204833984375,-53.974884033203125,21.87342643737793,-116.0444107055664,-108.84992218017578,71.41194152832031,-40.95000076293945,-47.25,31.05000114440918
3.431,160.27743530273438,-47.38603973388672,16.47210693359375,-155.34762573242188,-100.72281646728516,75.8085708618164,-39.900001525878906,-47.25,28.80000114440918
3.441,165.0275421142578,-40.03105163574219,9.615114212036133,-194.91729736328125,-102.32159423828125,73.67687225341797,-40.5,-47.55000305175781,29.700000762939453
3.46,170.65869140625,-21.56696891784668,4.750096321105957,-216.6339874267578,-109.64930725097656,84.4686050415039,-40.05000305175781,-47.10000228881836,28.650001525878906
3.464,171.080078125,-5.018246650695801,1.5322890281677246,-256.0704345703125,-96.45941925048828,103.7871322631836,-41.55000305175781,-47.55000305175781,26.100000381469727
3.471,152.34783935546875,11.185709953308105,1.723825216293335,-295.50689697265625,-69.81317138671875,98.85757446289062,-41.55000305175781,-47.55000305175781,26.100000381469727
3.481,139.51492309570312,17.31486701965332,-0.19153612852096558,-329.4808654785156,-49.29555892944336,88.865234375,-43.05000305175781,-47.10000228881836,24.150001525878906
3.491,125.76262664794922,23.597251892089844,0.5746083855628967,-442.0612487792969,-14.12251091003418,73.27718353271484,-42.45000076293945,-49.650001525878906,21.75
3.501,99.75202178955078,38.80522155761719,1.4173674583435059,-497.08575439453125,-25.04747200012207,68.74732208251953,-43.20000076293945,-49.95000076293945,19.950000762939453
3.521,76.95922088623047,29.4582576751709,-3.1028854846954346,-520.0015258789062,-29.577335357666016,43.96630859375,-43.80000305175781,-49.500003814697266,19.05000114440918
3.525,63.589996337890625,40.107666015625,-11.185709953308105,-320.95404052734375,-97.92495727539062,72.47779083251953,-44.400001525878906,-51.150001525878906,15.15000057220459
3.531,80.98147583007812,51.1784553527832,1.9153614044189453,-153.61561584472656,-134.83001708984375,117.37671661376953,-44.400001525878906,-51.150001525878906,15.15000057220459
3.541,96.30436706542969,52.13613510131836,33.44221115112305,73.0107192993164,-168.40428161621094,216.10107421875,-45.0,-52.20000076293945,13.950000762939453
3.551,106.3791732788086,66.11827087402344,71.63451385498047,208.10719299316406,-209.70596313476562,327.4823913574219,-45.45000076293945,-51.60000228881836,12.600000381469727
3.561,99.71371459960938,59.29958724975586,40.83550262451172,303.90045166015625,-217.5666046142578,478.03369140625,-45.900001525878906,-52.650001525878906,12.300000190734863
3.581,80.36856079101562,0.8044517636299133,53.859962463378906,218.49923706054688,-171.06890869140625,497.75189208984375,-45.900001525878906,-52.650001525878906,12.300000190734863
3.585,71.51959228515625,-46.504974365234375,67.38241577148438,-84.60183715820312,-128.43490600585938,438.59722900390625,-44.400001525878906,-56.250003814697266,9.75
3.591,94.61885070800781,-30.339323043823242,44.32146072387695,-190.65390014648438,-118.04287719726562,422.0765686035156,-45.0,-57.60000228881836,9.75
3.601,94.46562194824219,-4.865017890930176,43.4020881652832,-278.5865173339844,-118.44257354736328,402.22509765625,-44.400001525878906,-58.95000076293945,8.550000190734863
3.611,87.64693450927734,37.387855529785156,44.05331039428711,-261.5329284667969,-130.1669158935547,378.376708984375,-44.400001525878906,-58.95000076293945,8.550000190734863
3.621,90.36675262451172,66.76950073242188,39.954437255859375,-158.4119415283203,-149.08575439453125,364.1209716796875,-44.400001525878906,-58.95000076293945,8.550000190734863
3.64,98.02819061279297,77.07414245605469,29.03687858581543,-49.82848358154297,-159.47779846191406,350.7978515625,-42.45000076293945,-63.60000228881836,3.450000047683716
3.644,107.56669616699219,68.64655303955078,25.857378005981445,51.693721771240234,-139.2266387939453,316.55743408203125,-42.30000305175781,-64.05000305175781,3.3000001907348633
3.651,117.48826599121094,48.91832733154297,28.19411849975586,80.47166442871094,-123.77182006835938,297.5053405761719,-42.30000305175781,-64.5,3.9000000953674316
3.661,114.73014831542969,34.32327651977539,31.641769409179688,125.10413360595703,-112.71363067626953,272.9908142089844,-42.30000305175781,-64.5,3.9000000953674316
3.671,99.13910675048828,19.68991470336914,35.204341888427734,156.679931640625,-80.07197570800781,213.16998291015625,-43.650001525878906,-65.10000610351562,3.450000047683716
3.681,82.70530700683594,7.201758861541748,40.873809814453125,156.94639587402344,-52.89280319213867,148.4196014404297,-43.80000305175781,-65.70000457763672,1.0500000715255737
3.7,72.86034393310547,0.8427590131759644,40.069358825683594,157.612548828125,1.3323123455047607,46.364471435546875,-43.20000076293945,-66.60000610351562,1.9500000476837158
3.703,72.55388641357422,-16.35718536376953,30.26270866394043,159.47779846191406,19.45176124572754,11.990811347961426,-43.650001525878906,-66.30000305175781,1.6500000953674316
3.711,71.213134765625,-22.103269577026367,28.500577926635742,176.7978515625,29.177640914916992,-69.67993927001953,-43.650001525878906,-66.30000305175781,1.6500000953674316
3.721,64.85413360595703,-31.10546875,23.82709503173828,209.97242736816406,58.08882141113281,-149.48544311523438,-48.150001525878906,-61.95000076293945,3.750000238418579
3.731,53.13212585449219,-42.59763717651367,21.796812057495117,230.75650024414062,59.82082748413086,-243.14700317382812,-48.45000076293945,-62.70000076293945,3.750000238418579
3.741,47.96064758300781,-53.8216552734375,24.78477668762207,197.44869995117188,70.87902069091797,-332.1454772949219,-50.400001525878906,-59.250003814697266,4.200000286102295
3.76,50.450618743896484,-60.10403823852539,22.37141990661621,118.04287719726562,115.51148223876953,-502.1485290527344,-54.150001525878906,-56.55000305175781,6.300000190734863
3.763,37.15800857543945,-72.63050079345703,24.36339569091797,111.11485290527344,120.04134368896484,-524.9310913085938,-54.150001525878906,-56.55000305175781,6.300000190734863
3.771,34.476505279541016,-71.59620666503906,25.321077346801758,94.32771301269531,121.77335357666016,-583.286376953125,-55.500003814697266,-46.35000228881836,7.350000381469727
3.781,35.97048568725586,-64.50936889648438,24.708162307739258,84.20214080810547,145.6217498779297,-655.4976806640625,-57.150001525878906,-42.30000305175781,7.500000476837158
3.791,43.74685287475586,-61.48310089111328,20.83913230895996,81.27105712890625,162.40887451171875,-687.073486328125,-55.95000076293945,-38.400001525878906,7.500000476837158
3.81,51.676448822021484,-59.950809478759766,23.175872802734375,85.66768646240234,173.0673828125,-747.5604858398438,-57.150001525878906,-33.45000076293945,10.050000190734863
3.814,62.13432312011719,-56.34992980957031,20.226215362548828,89.93108367919922,194.38436889648438,-791.2603149414062,-57.150001525878906,-33.45000076293945,10.050000190734863
3.821,72.82203674316406,-44.24484634399414,15.591041564941406,109.915771484375,194.38436889648438,-803.517578125,-56.400001525878906,-23.25,10.350000381469727
3.831,80.52178955078125,-36.88985824584961,13.752294540405273,151.084228515625,207.17457580566406,-814.0428466796875,-52.95000076293945,-18.30000114440918,10.350000381469727
3.841,86.95740509033203,-32.71437072753906,13.177685737609863,195.1837615966797,203.04440307617188,-815.1087036132812,-51.000003814697266,-13.800000190734863,11.40000057220459
3.851,93.85270690917969,-33.557132720947266,15.399505615234375,196.51608276367188,220.6309356689453,-825.10107421875,-48.0,-8.850000381469727,10.65000057220459
3.87,99.59879302978516,-38.843528747558594,17.046716690063477,201.0459442138672,226.7595672607422,-835.7595825195312,-48.0,-8.850000381469727,10.65000057220459
3.874,103.39120483398438,-42.48271560668945,20.76251792907715,165.3399658203125,230.22357177734375,-852.8131713867188,-48.0,-8.850000381469727,10.65000057220459
3.881,112.62324523925781,-45.50898742675781,24.9763126373291,121.64012145996094,228.4915771484375,-861.7396240234375,-44.400001525878906,-1.350000023841858,9.300000190734863
3.891,119.63346862792969,-49.837703704833984,25.20615577697754,34.373661041259766,236.88514709472656,-879.0596923828125,-42.75,0.0,10.65000057220459
3.901,132.9260711669922,-68.22517395019531,20.915746688842773,-101.52220153808594,260.6003112792969,-897.0458984375,-40.05000305175781,3.750000238418579,9.450000762939453
3.911,139.4766082763672,-85.11865997314453,8.159439086914062,-240.48239135742188,265.6630859375,-877.0612182617188,-40.05000305175781,3.750000238418579,9.450000762939453
3.931,139.17015075683594,-102.9315185546875,-8.504204750061035,-360.9234313964844,292.7090148925781,-826.03369140625,-37.650001525878906,5.100000381469727,9.300000190734863
3.934,136.79510498046875,-127.67798614501953,-16.35718536376953,-443.1271057128906,238.35067749023438,-694.9341430664062,-36.45000076293945,5.850000381469727,10.800000190734863
3.941,161.1201934814453,-190.0421600341797,-31.90991973876953,-516.404296875,213.56967163085938,-631.6492919921875,-36.75,8.100000381469727,12.750000953674316
3.951,153.22891235351562,-207.0122528076172,-48.42033386230469,-562.23583984375,178.26339721679688,-559.7044067382812,-36.45000076293945,8.700000762939453,13.65000057220459
3.961,97.22373962402344,-176.9410858154297,-74.3160171508789,-487.6263427734375,138.8269500732422,-414.74884033203125,-36.45000076293945,8.700000762939453,13.65000057220459
3.971,66.4630355834961,-120.01654052734375,-103.88919830322266,-230.09034729003906,98.99080657958984,-203.44410705566406,-36.75,10.350000381469727,16.5
3.991,65.81181335449219,-105.99610137939453,-88.41307830810547,2.797856092453003,-0.9326186776161194,21.45022964477539,-37.95000076293945,9.450000762939453,18.900001525878906
3.995,69.9489974975586,-149.28326416015625,-96.87897491455078,141.6248016357422,-72.74425506591797,270.9923400878906,-37.20000076293945,9.450000762939453,18.450000762939453
4.001,48.80340576171875,-223.7525177001953,-96.30436706542969,158.27871704101562,-104.18682861328125,360.9234313964844,-40.5,11.100000381469727,19.05000114440918
4.011,44.512996673583984,-220.03671264648438,-94.15916442871094,324.8177490234375,-69.54670715332031,509.7427062988281,-40.5,11.100000381469727,19.05000114440918
4.021,54.702720642089844,-228.23446655273438,33.13574981689453,485.49462890625,-175.19908142089844,670.8192749023438,-42.150001525878906,7.050000190734863,18.900001525878906
4.031,139.85968017578125,-191.72767639160156,-0.689530074596405,478.96630859375,-168.80397033691406,836.0260009765625,-43.20000076293945,4.050000190734863,15.90000057220459
4.05,213.17971801757812,-176.78785705566406,29.64979362487793,221.5635528564453,-185.5911102294922,744.096435546875,-45.75,0.75,16.05000114440918
4.054,223.52267456054688,-77.34229278564453,-37.08139419555664,-39.569679260253906,-46.364471435546875,607.4011840820312,-47.55000305175781,-3.0,14.700000762939453
4.061,79.98548889160156,113.46600341796875,26.048913955688477,-10.791729927062988,-20.38437843322754,655.3644409179688,-47.55000305175781,-3.0,14.700000762939453
4.071,26.585216522216797,105.26825714111328,29.726408004760742,236.88514709472656,-34.24042892456055,707.0581665039062,-48.0,-10.800000190734863,15.450000762939453
4.081,9.653421401977539,-2.4899697303771973,11.453861236572266,396.0964660644531,-67.41500854492188,601.2725830078125,-49.500003814697266,-12.750000953674316,15.000000953674316
4.091,33.13574981689453,-90.74982452392578,-45.164222717285156,332.8116455078125,-45.16539001464844,586.7503662109375,-49.05000305175781,-14.550000190734863,13.950000762939453
4.111,48.57356262207031,-216.32090759277344,-2.7964274883270264,-85.13475799560547,-8.793261528015137,531.0596923828125,-51.000003814697266,-18.900001525878906,14.250000953674316
4.114,89.71552276611328,-80.36856079101562,25.51261329650879,-210.1056671142578,-30.24349021911621,460.3139343261719,-51.000003814697266,-18.900001525878906,14.250000953674316
4.121,99.59879302978516,-50.79538345336914,8.465897560119629,-119.24195861816406,-26.246553421020508,450.05511474609375,-51.45000076293945,-22.950000762939453,15.90000057220459
4.131,89.98367309570312,-28.883649826049805,-15.016432762145996,-22.382848739624023,-34.373661041259766,417.679931640625,-50.250003814697266,-25.80000114440918,13.500000953674316
4.141,54.51118469238281,-41.83149337768555,18.23423957824707,-34.24042892456055,-38.63705825805664,385.8376770019531,-51.750003814697266,-27.750001907348633,13.950000762939453
4.151,51.63814163208008,-83.81621551513672,29.305028915405273,-93.66156005859375,-53.82542037963867,316.6906433105469,-51.45000076293945,-28.80000114440918,14.100000381469727
4.17,74.85232543945312,-92.62687683105469,17.00840950012207,-112.84685516357422,-60.22052001953125,290.0444030761719,-51.30000305175781,-32.85000228881836,13.950000762939453
4.174,64.47106170654297,-61.253257751464844,20.800825119018555,-66.882080078125,-77.94027709960938,247.2771759033203,-51.30000305175781,-32.85000228881836,13.950000762939453
4.181,62.44078063964844,-68.60824584960938,25.627534866333008,-59.4211311340332,-96.99234008789062,211.30474853515625,-51.150001525878906,-34.95000076293945,13.050000190734863
4.191,69.9489974975586,-75.73339080810547,24.89969825744629,-66.74884796142578,-103.7871322631836,169.33689880371094,-49.650001525878906,-35.70000076293945,12.600000381469727
4.201,89.10260772705078,-74.3160171508789,21.75850486755371,-43.43338394165039,-110.71515655517578,146.9540557861328,-49.05000305175781,-37.5,12.450000762939453
4.211,104.1573486328125,-73.20510864257812,16.58702850341797,-40.502296447753906,-108.3169937133789,136.4287872314453,-49.05000305175781,-37.5,12.450000762939453
4.223,109.36713409423828,-83.47145080566406,18.962078094482422,-57.289432525634766,-108.983154296875,122.3062744140625,-48.750003814697266,-37.5,12.750000953674316
4.231,121.89360046386719,-58.18867874145508,16.89348793029785,-46.764163970947266,-120.17457580566406,111.64777374267578,-49.80000305175781,-39.75,10.950000762939453
4.241,140.47259521484375,-53.40027618408203,17.161638259887695,-49.16232681274414,-110.71515655517578,111.64777374267578,-48.30000305175781,-39.0,10.200000762939453
4.251,147.0614471435547,-54.396263122558594,15.476119995117188,-59.82082748413086,-115.11178588867188,107.25114440917969,-48.30000305175781,-39.0,9.15000057220459
4.261,148.51712036132812,-52.67243576049805,13.560758590698242,-78.47319793701172,-115.91117858886719,106.98468017578125,-48.30000305175781,-39.0,9.15000057220459
4.271,151.9264678955078,-47.50096130371094,16.66364288330078,-113.77947998046875,-124.8376693725586,95.66002655029297,-48.150001525878906,-39.900001525878906,9.300000190734863
4.283,161.23512268066406,-34.13174057006836,13.062764167785645,-163.20826721191406,-116.44409942626953,87.53292083740234,-47.70000076293945,-39.60000228881836,7.500000476837158
4.291,164.6061553955078,-12.48815631866455,5.4013190269470215,-185.99081420898438,-123.2388916015625,103.92036437988281,-48.750003814697266,-38.25,6.600000381469727
4.301,158.5153045654297,-1.072602391242981,7.163451671600342,-216.10107421875,-103.25421142578125,105.5191421508789,-47.25,-39.0,6.600000381469727
4.311,146.06546020507812,13.139378547668457,5.324704647064209,-278.5865173339844,-65.15007781982422,118.57579803466797,-47.25,-39.0,6.600000381469727
4.321,135.72250366210938,14.36521053314209,2.145204782485962,-363.4548034667969,-20.784072875976562,66.48238372802734,-48.0,-40.20000076293945,4.350000381469727
4.34,113.61923217773438,27.619510650634766,-3.907337188720703,-472.7044372558594,-5.062787055969238,87.53292083740234,-46.95000076293945,-39.150001525878906,5.25
4.344,68.34009552001953,19.115306854248047,-2.1068975925445557,-535.1898803710938,7.72741174697876,25.313934326171875,-47.400001525878906,-38.400001525878906,1.9500000476837158
4.351,48.72679138183594,5.286397457122803,-18.502389907836914,-478.5666198730469,-18.519142150878906,20.117916107177734,-47.400001525878906,-38.400001525878906,1.9500000476837158
4.361,62.44078063964844,9.002198219299316,-23.597251892089844,-318.6891174316406,-70.21286010742188,73.27718353271484,-47.400001525878906,-38.400001525878906,1.9500000476837158
4.371,91.28612518310547,22.256498336791992,6.205770969390869,-144.68911743164062,-125.63705444335938,89.26493072509766,-46.20000076293945,-38.85000228881836,0.15000000596046448
4.381,107.71992492675781,55.392250061035156,41.5250358581543,29.444103240966797,-177.5972442626953,152.1500701904297,-46.05000305175781,-36.60000228881836,-0.30000001192092896
4.4,105.3448715209961,84.73558807373047,50.71876907348633,266.0627746582031,-218.89892578125,302.96783447265625,-47.25,-38.55000305175781,-0.30000001192092896
4.404,94.31239318847656,65.16059112548828,42.32948684692383,361.056640625,-209.57273864746094,457.5160827636719,-45.45000076293945,-38.85000228881836,-0.15000000596046448
4.411,78.989501953125,-46.0452880859375,80.7899398803711,271.5252685546875,-191.18682861328125,462.1791687011719,-45.45000076293945,-38.85000228881836,-0.15000000596046448
4.421,81.05809020996094,-71.8643569946289,69.79576873779297,58.355281829833984,-152.68299865722656,415.814697265625,-45.45000076293945,-38.85000228881836,-0.15000000596046448
4.431,88.10662078857422,-43.478702545166016,40.682273864746094,-131.89892578125,-123.77182006835938,421.1439514160156,-42.75,-43.95000076293945,-1.350000023841858
4.441,95.1168441772461,8.96389102935791,41.48672866821289,-204.6431884765625,-129.10107421875,398.0949401855469,-43.05000305175781,-43.95000076293945,-1.8000000715255737
4.46,90.78813171386719,56.541465759277344,51.1401481628418,-193.85145568847656,-138.8269500732422,379.9754943847656,-41.70000076293945,-45.0,-0.9000000357627869
4.464,86.99571228027344,74.2394027709961,42.48271560668945,-22.782541275024414,-150.151611328125,355.8606262207031,-41.70000076293945,-45.0,-0.9000000357627869
4.471,102.73998260498047,71.90266418457031,24.746469497680664,67.94792938232422,-147.0872802734375,341.8713684082031,-41.70000076293945,-45.0,-0.9000000357627869
4.481,112.77647399902344,62.09601593017578,26.776752471923828,136.16232299804688,-131.23277282714844,331.612548828125,-37.80000305175781,-48.30000305175781,-2.5500001907348633
4.491,117.98625946044922,41.10365295410156,31.182083129882812,140.95864868164062,-115.64471435546875,303.2342834472656,-38.70000076293945,-48.45000076293945,-3.450000047683716
4.501,106.18763732910156,15.476119995117188,31.488540649414062,118.70903015136719,-99.65696716308594,260.4670715332031,-37.650001525878906,-49.20000076293945,-2.700000047683716
4.521,84.69728088378906,3.332728862762451,31.680076599121094,88.865234375,-66.74884796142578,195.84991455078125,-37.650001525878906,-49.20000076293945,-2.700000047683716
4.524,76.65276336669922,0.8044517636299133,25.435998916625977,76.87442779541016,-30.776416778564453,115.91117858886719,-34.95000076293945,-49.20000076293945,-1.6500000953674316
4.531,80.8282470703125,-3.6391866207122803,22.37141990661621,96.19295501708984,-19.052066802978516,77.67381286621094,-36.75,-49.05000305175781,-1.350000023841858
4.541,83.01176452636719,-10.266336441040039,23.788787841796875,135.4961700439453,-8.260336875915527,10.92496109008789,-34.80000305175781,-51.000003814697266,-2.5500001907348633
4.551,76.5761489868164,-16.66364288330078,21.298818588256836,174.0,12.390504837036133,-64.084228515625,-33.30000305175781,-49.05000305175781,-0.30000001192092896
4.561,66.15657806396484,-20.072986602783203,14.09705924987793,208.90658569335938,41.83460998535156,-152.68299865722656,-33.30000305175781,-49.05000305175781,-0.30000001192092896
4.581,59.49112319946289,-25.89568519592285,10.074800491333008,238.88360595703125,59.55436325073242,-234.4869842529297,-34.5,-46.35000228881836,-0.6000000238418579
4.584,49.9143180847168,-70.71514129638672,17.774553298950195,239.016845703125,67.94792938232422,-364.3874206542969,-33.75,-43.650001525878906,-0.6000000238418579
4.591,49.14817428588867,-75.19709014892578,19.919757843017578,199.44715881347656,77.00765228271484,-444.45941162109375,-35.70000076293945,-43.05000305175781,0.45000001788139343
4.601,50.144161224365234,-76.23138427734375,22.562957763671875,156.01377868652344,88.46553802490234,-507.7442321777344,-34.650001525878906,-42.30000305175781,0.45000001788139343
4.611,55.85193634033203,-69.79576873779297,19.49837875366211,130.83306884765625,97.65850067138672,-579.8223266601562,-34.650001525878906,-42.30000305175781,0.45000001788139343
4.629,59.06974411010742,-72.74542236328125,22.90772247314453,99.79019927978516,111.781005859375,-646.1715087890625,-34.95000076293945,-35.25,1.2000000476837158
4.634,56.618080139160156,-77.84028625488281,18.962078094482422,32.64165496826172,136.16232299804688,-733.5711669921875,-36.0,-35.10000228881836,2.1000001430511475
4.641,59.91250228881836,-83.20330047607422,11.951854705810547,-12.790199279785156,145.48851013183594,-767.4119262695312,-36.75,-31.650001525878906,2.1000001430511475
4.651,64.43275451660156,-76.76768493652344,8.96389102935791,-40.102603912353516,146.0214385986328,-808.9801025390625,-37.05000305175781,-30.450000762939453,1.350000023841858
4.661,73.28172302246094,-61.138336181640625,5.592854976654053,-62.618682861328125,163.20826721191406,-846.4180297851562,-37.05000305175781,-30.450000762939453,1.350000023841858
4.671,78.45320129394531,-49.03324890136719,1.1875240802764893,-63.684532165527344,166.80551147460938,-868.6676635742188,-36.75,-25.500001907348633,1.350000023841858
4.689,84.46743774414062,-36.88985824584961,-0.1149216815829277,-45.56508255004883,165.3399658203125,-876.6615600585938,-37.5,-21.150001525878906,1.0500000715255737
4.695,89.37075805664062,-22.103269577026367,-4.405331134796143,11.724349021911621,174.79937744140625,-885.9877319335938,-38.70000076293945,-19.5,0.15000000596046448
4.701,93.08656311035156,-13.560758590698242,-8.159439086914062,34.24042892456055,185.19142150878906,-875.995361328125,-39.45000076293945,-15.90000057220459,1.2000000476837158
4.711,95.95960235595703,-13.637372970581055,-5.899312973022461,80.20520782470703,192.7855987548828,-910.1026000976562,-39.45000076293945,-15.90000057220459,1.2000000476837158
4.721,107.22193145751953,-14.480132102966309,-0.5363011956214905,93.39509582519531,183.99234008789062,-920.7611083984375,-40.20000076293945,-10.200000762939453,2.700000047683716
4.731,120.62945556640625,-14.288596153259277,2.2601263523101807,83.93567657470703,193.05206298828125,-924.8912353515625,-39.150001525878906,-9.75,3.450000047683716
4.751,132.00669860839844,-21.298818588256836,7.5848307609558105,45.56508255004883,205.7090301513672,-921.9601440429688,-37.95000076293945,-5.100000381469727,4.200000286102295
4.754,146.98483276367188,-38.07738494873047,5.70777702331543,-33.57427215576172,223.56201171875,-906.3721313476562,-37.80000305175781,-1.8000000715255737,4.650000095367432
4.761,166.13844299316406,-74.58417510986328,-18.23423957824707,-70.87902069091797,234.35374450683594,-882.9234008789062,-37.80000305175781,-1.8000000715255737,4.650000095367432
4.771,171.11837768554688,-100.05847930908203,-22.984336853027344,-118.57579803466797,245.9448699951172,-818.039794921875,-34.95000076293945,2.8500001430511475,9.300000190734863
4.781,180.0056610107422,-154.26319885253906,-29.190107345581055,-157.34608459472656,196.1163787841797,-704.7932739257812,-32.25,4.200000286102295,10.65000057220459
4.791,183.33839416503906,-220.7262420654297,10.496180534362793,-264.86370849609375,84.86830139160156,-574.2266235351562,-32.25,6.450000286102295,12.450000762939453
4.81,149.3215789794922,-281.3282775878906,-21.950040817260742,-467.7748718261719,81.00459289550781,-544.6492919921875,-30.30000114440918,6.150000095367432,13.950000762939453
4.814,68.49332427978516,-170.35223388671875,-64.24121856689453,-257.9356689453125,94.86064147949219,-260.6003112792969,-30.30000114440918,6.150000095367432,13.950000762939453
4.821,32.676063537597656,-120.9742202758789,-49.56955337524414,-65.016845703125,49.16232681274414,-20.517610549926758,-29.400001525878906,7.050000190734863,17.700000762939453
4.831,48.4969482421875,-212.56680297851562,-42.63594436645508,-3.9969370365142822,0.0,180.12863159179688,-28.950000762939453,7.500000476837158,18.450000762939453
4.841,50.71876907348633,-359.3984069824219,-50.79538345336914,-168.80397033691406,-57.15620040893555,272.9908142089844,-31.500001907348633,4.950000286102295,19.5
4.851,28.8453426361084,-271.44500732421875,-62.74723815917969,-104.18682861328125,-112.84685516357422,383.7059631347656,-32.55000305175781,4.5,18.0
4.87,54.35795593261719,-123.96218872070312,-62.2109375,185.32464599609375,-124.8376693725586,553.5758056640625,-32.55000305175781,4.5,18.0
4.874,37.234622955322266,-98.79434204101562,-53.668426513671875,476.5681457519531,-151.48391723632812,735.5696411132812,-33.75,0.0,18.30000114440918
4.881,101.7056884765625,-227.65985107421875,39.149986267089844,333.8774719238281,-179.19601440429688,717.3169555664062,-35.400001525878906,-0.45000001788139343,17.400001525878906
4.891,155.33580017089844,-173.18698120117188,-10.41956615447998,159.3445587158203,-110.848388671875,728.9080810546875,-34.5,-3.750000238418579,17.25
4.901,188.24171447753906,-47.309425354003906,-19.038692474365234,146.82083129882812,-99.12403869628906,673.8836059570312,-35.25,-6.900000095367432,15.450000762939453
4.911,156.63824462890625,4.788403511047363,65.19889831542969,154.28176879882812,-67.41500854492188,560.37060546875,-35.25,-6.900000095367432,15.450000762939453
4.931,83.24160766601562,83.31822204589844,13.48414421081543,245.545166015625,-45.96477508544922,619.9249267578125,-37.20000076293945,-14.40000057220459,14.40000057220459
4.934,139.974609375,-57.99714279174805,-16.510414123535156,390.2342834472656,-48.62940216064453,596.0765380859375,-37.20000076293945,-14.40000057220459,14.40000057220459
4.941,147.55943298339844,-79.18103790283203,-96.91728210449219,272.4578857421875,68.88054656982422,563.568115234375,-38.55000305175781,-16.5,16.5
4.951,98.83264923095703,-89.33245086669922,-91.74581146240234,115.2450180053711,102.18836212158203,568.3644409179688,-37.20000076293945,-17.850000381469727,16.350000381469727
4.962,9.040505409240723,-129.44012451171875,12.717999458312988,-37.17151641845703,101.12251281738281,511.34149169921875,-37.20000076293945,-17.850000381469727,16.350000381469727
4.971,-3.7924153804779053,-63.36015319824219,13.407529830932617,-102.18836212158203,40.23583221435547,426.8728942871094,-37.5,-22.80000114440918,15.750000953674316
4.991,59.452816009521484,-88.83445739746094,67.11426544189453,-73.27718353271484,46.497703552246094,354.9280090332031,-37.05000305175781,-27.000001907348633,18.0
4.995,98.02819061279297,-79.44918823242188,-18.04270362854004,-121.77335357666016,28.644716262817383,348.5329284667969,-37.05000305175781,-27.000001907348633,18.0
5.001,87.4170913696289,-83.77790832519531,-26.929981231689453,-108.58345794677734,23.315465927124023,314.9586486816406,-35.70000076293945,-28.350000381469727,17.700000762939453
5.011,71.71112823486328,-68.1868667602539,-14.326903343200684,-128.7013702392578,18.119447708129883,291.9096374511719,-35.70000076293945,-28.350000381469727,17.700000762939453
5.021,54.62610626220703,-56.541465759277344,32.369606018066406,-124.97090148925781,-10.92496109008789,250.6079559326172,-34.95000076293945,-31.05000114440918,18.150001525878906
5.04,66.69288635253906,-54.85594940185547,49.64616775512695,-104.05359649658203,-34.24042892456055,215.43490600585938,-34.80000305175781,-32.400001525878906,15.000000953674316
5.044,70.67683410644531,-56.92454147338867,37.19631576538086,-102.8545150756836,-60.88667678833008,173.6002960205078,-36.150001525878906,-33.0,16.350000381469727
5.051,82.4754638671875,-79.71733856201172,27.542896270751953,-111.5145492553711,-72.87748718261719,146.0214385986328,-34.95000076293945,-34.95000076293945,15.600000381469727
5.061,84.46743774414062,-63.398460388183594,35.54910659790039,-87.53292083740234,-95.26033782958984,125.63705444335938,-34.95000076293945,-34.95000076293945,15.600000381469727
5.071,89.71552276611328,-45.164222717285156,25.550920486450195,-50.09494400024414,-115.11178588867188,146.42112731933594,-36.0,-36.60000228881836,15.000000953674316
5.081,110.0566635131836,-54.93256378173828,12.066776275634766,-48.8958625793457,-134.83001708984375,132.0321502685547,-34.5,-38.25,13.950000762939453
5.101,131.81517028808594,-58.87820816040039,1.6855180263519287,-14.388973236083984,-157.34608459472656,117.37671661376953,-34.80000305175781,-37.05000305175781,13.500000953674316
5.105,138.0592498779297,-53.01720428466797,0.727837324142456,-4.929555892944336,-161.7427215576172,102.72128295898438,-34.05000305175781,-36.30000305175781,13.200000762939453
5.111,130.32118225097656,-56.15839385986328,8.312667846679688,-9.992342948913574,-158.14547729492188,99.79019927978516,-34.05000305175781,-36.30000305175781,13.200000762939453
5.121,132.61961364746094,-55.392250061035156,9.576807022094727,-37.4379768371582,-153.48239135742188,69.81317138671875,-34.5,-35.85000228881836,13.200000762939453
5.131,146.21868896484375,-53.247047424316406,13.21599292755127,-93.52832794189453,-143.75650024414062,73.41041564941406,-34.05000305175781,-39.75,11.700000762939453
5.141,163.2270965576172,-47.539268493652344,13.982137680053711,-140.1592559814453,-144.95558166503906,86.0673828125,-33.900001525878906,-37.650001525878906,12.300000190734863
5.161,168.59010314941406,-30.760704040527344,7.661445617675781,-191.0535888671875,-119.37519073486328,78.20673370361328,-33.30000305175781,-38.25,10.950000762939453
5.164,163.07386779785156,-12.449849128723145,2.8347349166870117,-288.1791687011719,-85.66768646240234,72.61102294921875,-33.30000305175781,-38.25,10.950000762939453
5.171,139.13185119628906,8.465897560119629,-1.8387469053268433,-341.07196044921875,-62.75191116333008,72.0781021118164,-36.0,-39.30000305175781,8.700000762939453
5.181,126.2223129272461,11.760318756103516,-1.8387469053268433,-426.47320556640625,-44.63246536254883,54.091880798339844,-35.55000305175781,-38.25,6.900000095367432
5.191,108.60099029541016,18.847156524658203,-4.252102375030518,-501.6156005859375,-29.177640914916992,81.13782501220703,-34.5,-39.0,5.850000381469727
5.201,82.93515014648438,35.93217849731445,0.9576807022094727,-556.7733154296875,-15.854516983032227,-11.724349021911621,-35.55000305175781,-39.30000305175781,6.900000095367432
5.221,69.60423278808594,52.51920700073242,-0.19153612852096558,-517.2036743164062,-51.027565002441406,-60.22052001953125,-35.55000305175781,-39.30000305175781,6.900000095367432
5.224,77.7253646850586,68.45501708984375,-12.986149787902832,-206.6416473388672,-102.18836212158203,30.776416778564453,-37.05000305175781,-39.75,1.0500000715255737
5.231,98.29634857177734,64.73921203613281,-5.018246650695801,0.6661561727523804,-131.89892578125,129.10107421875,-37.05000305175781,-39.75,1.0500000715255737
5.241,102.05045318603516,38.8818359375,25.5892276763916,189.5880584716797,-188.52220153808594,185.0581817626953,-36.150001525878906,-40.650001525878906,1.2000000476837158
5.251,105.61302185058594,27.88766098022461,51.063533782958984,334.9433288574219,-210.90504455566406,266.1960144042969,-35.400001525878906,-40.650001525878906,1.2000000476837158
5.261,73.58818054199219,43.21055221557617,46.390052795410156,453.2526550292969,-217.69984436035156,427.5390319824219,-35.400001525878906,-40.650001525878906,1.2000000476837158
5.28,48.343719482421875,-7.929595947265625,71.97927856445312,360.6569519042969,-187.3231201171875,452.7197570800781,-36.0,-42.900001525878906,0.30000001192092896
5.284,40.18428039550781,-59.79758071899414,67.76548767089844,115.51148223876953,-147.62020874023438,390.90045166015625,-33.75,-47.10000228881836,0.30000001192092896
5.291,50.5272331237793,-44.85776138305664,30.68408966064453,-10.525267601013184,-123.9050521850586,381.30780029296875,-33.75,-47.10000228881836,0.30000001192092896
5.301,63.168617248535156,-15.284584045410156,30.530860900878906,-127.10260009765625,-113.77947998046875,372.64776611328125,-34.20000076293945,-47.70000076293945,-0.15000000596046448
5.311,82.78192138671875,26.393678665161133,27.121517181396484,-166.93873596191406,-120.70750427246094,365.7197570800781,-34.20000076293945,-47.70000076293945,-0.15000000596046448
5.321,86.65094757080078,49.37801742553711,37.57939147949219,-129.76722717285156,-136.0290985107422,373.0474548339844,-33.0,-49.80000305175781,-2.5500001907348633
5.34,79.33426666259766,50.5655403137207,32.292991638183594,-37.4379768371582,-140.29249572753906,300.4364318847656,-33.150001525878906,-54.60000228881836,-4.200000286102295
5.344,95.76806640625,29.611486434936523,41.41011428833008,-35.57273864746094,-127.23583221435547,272.8575744628906,-31.650001525878906,-56.250003814697266,-5.700000286102295
5.351,103.00813293457031,27.657817840576172,41.79318618774414,-22.116384506225586,-134.43031311035156,256.4701232910156,-31.650001525878906,-56.250003814697266,-5.700000286102295
5.361,109.59697723388672,30.032865524291992,39.149986267089844,7.194486618041992,-113.11331939697266,231.68911743164062,-31.650001525878906,-56.250003814697266,-5.700000286102295
5.371,107.18362426757812,30.224401473999023,31.488540649414062,51.82695007324219,-82.33690643310547,209.4394989013672,-31.05000114440918,-59.85000228881836,-7.650000095367432
5.381,93.43132781982422,22.448034286499023,27.044902801513672,106.31852722167969,-64.75038146972656,174.53292846679688,-29.700000762939453,-60.000003814697266,-7.800000190734863
5.394,83.85452270507812,1.072602391242981,31.7183837890625,97.5252685546875,-49.82848358154297,68.21439361572266,-31.500001907348633,-63.000003814697266,-8.40000057220459
5.401,83.0500717163086,-8.274360656738281,32.75267791748047,91.26339721679688,-39.30321502685547,12.124042510986328,-31.500001907348633,-63.000003814697266,-8.40000057220459
5.411,80.94316864013672,-5.975927352905273,24.13355255126953,134.03062438964844,8.526799201965332,-34.773353576660156,-31.500001907348633,-63.000003814697266,-8.40000057220459
5.421,71.8260498046875,-9.423578262329102,9.84495735168457,205.84225463867188,40.635528564453125,-72.47779083251953,-32.70000076293945,-63.900001525878906,-10.050000190734863
5.431,65.73519897460938,-23.13756561279297,18.195932388305664,222.89585876464844,71.94486999511719,-177.99693298339844,-35.55000305175781,-66.60000610351562,-8.550000190734863
5.45,63.97306823730469,-34.3998908996582,25.167848587036133,199.18069458007812,91.79632568359375,-273.9234313964844,-37.80000305175781,-66.0,-5.100000381469727
5.454,62.59400939941406,-42.367794036865234,17.50640296936035,201.31239318847656,122.3062744140625,-361.056640625,-37.80000305175781,-66.0,-5.100000381469727
5.461,48.26710510253906,-63.589996337890625,22.256498336791992,171.60183715820312,138.02755737304688,-423.0091857910156,-37.80000305175781,-66.0,-5.100000381469727
5.471,44.0150032043457,-71.90266418457031,29.688100814819336,112.31393432617188,158.81163024902344,-526.5298461914062,-47.400001525878906,-65.10000610351562,-0.9000000357627869
5.481,42.59763717651367,-62.977081298828125,30.14778709411621,79.13935852050781,182.12710571289062,-582.4869995117188,-51.000003814697266,-63.000003814697266,-0.30000001192092896
5.491,44.35976791381836,-56.618080139160156,27.542896270751953,59.15467071533203,207.4410400390625,-649.23583984375,-55.650001525878906,-57.750003814697266,1.6500000953674316
5.511,49.837703704833984,-59.10805130004883,27.964275360107422,47.163856506347656,213.8361358642578,-679.2128295898438,-55.650001525878906,-57.750003814697266,1.6500000953674316
5.514,58.533443450927734,-65.19889831542969,22.37141990661621,-3.86370587348938,226.7595672607422,-735.9693603515625,-63.900001525878906,-49.650001525878906,7.050000190734863
5.521,78.9511947631836,-60.33388137817383,11.60708999633789,-15.055130004882812,220.76416015625,-743.5635375976562,-65.55000305175781,-44.400001525878906,7.650000095367432
5.531,85.31019592285156,-53.40027618408203,6.818686485290527,-10.658498764038086,221.29708862304688,-761.8162231445312,-69.75,-37.05000305175781,10.200000762939453
5.541,89.67721557617188,-41.71657180786133,-1.1109095811843872,4.396630764007568,233.1546630859375,-788.8621826171875,-69.45000457763672,-31.80000114440918,13.65000057220459
5.551,94.04424285888672,-34.01681900024414,-0.5746083855628967,28.77794647216797,231.95558166503906,-802.5849609375,-69.45000457763672,-31.80000114440918,13.65000057220459
5.571,100.63308715820312,-30.224401473999023,2.9879636764526367,40.102603912353516,220.8973846435547,-809.3797607421875,-68.70000457763672,-14.40000057220459,18.900001525878906
5.575,102.81659698486328,-37.924156188964844,4.32871675491333,24.51454734802246,225.96017456054688,-833.2281494140625,-68.55000305175781,-7.200000286102295,19.80000114440918
5.581,112.89139556884766,-35.5874137878418,10.113107681274414,12.523736000061035,231.4226531982422,-840.8223266601562,-66.1500015258789,-1.6500000953674316,23.700000762939453
5.591,120.9359130859375,-32.063148498535156,12.7946138381958,-12.25727367401123,221.16384887695312,-856.6768798828125,-61.20000076293945,5.850000381469727,26.250001907348633
5.601,132.96438598632812,-31.41192626953125,14.863204002380371,-50.62786865234375,219.9647674560547,-852.9464111328125,-61.20000076293945,5.850000381469727,26.250001907348633
5.611,141.8899688720703,-39.41813659667969,11.990161895751953,-122.43950653076172,232.48851013183594,-856.410400390625,-50.70000076293945,17.850000381469727,29.850000381469727
5.63,152.92245483398438,-55.77532196044922,2.719813108444214,-219.56507873535156,241.68145751953125,-850.814697265625,-41.70000076293945,23.25,31.350000381469727
5.634,160.7754364013672,-70.6385269165039,-15.361198425292969,-304.6998291015625,252.73965454101562,-794.5911254882812,-37.20000076293945,25.200000762939453,34.35000228881836
5.641,156.71485900878906,-89.29414367675781,-31.488540649414062,-315.7580261230469,236.61868286132812,-740.89892578125,-30.900001525878906,27.600000381469727,35.400001525878906
5.651,160.5072784423828,-107.0687026977539,-31.373619079589844,-343.3369140625,212.1041259765625,-672.8177490234375,-30.900001525878906,27.600000381469727,35.400001525878906
5.661,161.84803771972656,-142.27304077148438,-45.432373046875,-293.64166259765625,187.1898956298828,-572.6278686523438,-21.450000762939453,27.150001525878906,37.95000076293945
5.671,125.37955474853516,-166.52151489257812,-40.79719543457031,-253.1393585205078,147.22052001953125,-432.4685974121094,-18.150001525878906,27.150001525878906,37.650001525878906
5.69,88.41307830810547,-172.9954376220703,-49.416324615478516,-203.04440307617188,148.15313720703125,-322.15313720703125,-15.90000057220459,26.100000381469727,38.400001525878906
5.694,37.502777099609375,-123.73234558105469,-74.39263153076172,-19.718223571777344,99.79019927978516,-40.36906433105469,-14.250000953674316,23.55000114440918,40.05000305175781
5.701,34.62973403930664,-136.94833374023438,-76.95922088623047,55.69065856933594,36.238895416259766,130.96630859375,-14.250000953674316,23.55000114440918,40.05000305175781
5.711,52.97889709472656,-193.06842041015625,-86.61264038085938,98.19142150878906,-43.43338394165039,269.2603454589844,-13.800000190734863,22.350000381469727,37.5
5.721,61.29156494140625,-246.9283905029297,-88.45138549804688,74.8759536743164,-112.31393432617188,331.74578857421875,-13.950000762939453,22.950000762939453,37.20000076293945
5.731,50.83369064331055,-186.32635498046875,-84.81220245361328,125.90351867675781,-154.9479217529297,418.47930908203125,-15.90000057220459,20.25,37.95000076293945
5.75,49.68447494506836,-103.31459045410156,-64.39444732666016,524.1317138671875,-202.24502563476562,674.1500854492188,-16.950000762939453,18.30000114440918,36.60000228881836
5.754,103.77427673339844,-213.25633239746094,6.167463779449463,477.5007629394531,-206.90811157226562,664.15771484375,-16.950000762939453,18.30000114440918,36.60000228881836
5.761,142.42626953125,-169.81593322753906,-29.95625114440918,290.8437805175781,-171.46859741210938,655.8973999023438,-19.5,17.400001525878906,34.95000076293945
5.771,202.41539001464844,-92.32041931152344,-28.040889739990234,237.95098876953125,-131.36599731445312,753.6890869140625,-22.200000762939453,15.90000057220459,33.60000228881836
5.781,219.61532592773438,21.911733627319336,39.72459411621094,240.74884033203125,-48.49617004394531,659.3613891601562,-21.900001525878906,13.200000762939453,30.600000381469727
5.8,143.84364318847656,42.59763717651367,117.37334442138672,239.5497589111328,-52.89280319213867,565.96630859375,-24.450000762939453,14.100000381469727,29.250001907348633
5.804,68.26348114013672,121.39559936523438,43.593624114990234,345.8682861328125,-39.30321502685547,661.35986328125,-24.450000762939453,14.100000381469727,29.250001907348633
5.811,63.36015319824219,-35.0128059387207,20.41775131225586,409.6860656738281,-33.17457962036133,587.016845703125,-24.450000762939453,14.100000381469727,29.250001907348633
5.821,70.17884063720703,-134.19021606445312,-53.89826965332031,226.2266387939453,42.90045928955078,499.084228515625,-27.900001525878906,7.500000476837158,27.750001907348633
5.831,49.45463180541992,-192.34059143066406,-115.87936401367188,-97.39203643798828,38.10413360595703,501.0826721191406,-27.450000762939453,7.800000190734863,26.55000114440918
5.841,46.77312469482422,-107.33685302734375,-44.66622543334961,-185.85757446289062,42.76722717285156,477.2342834472656,-30.30000114440918,3.0,26.400001525878906
5.86,73.664794921875,-18.157625198364258,51.7530632019043,-89.39816284179688,10.658498764038086,418.47930908203125,-29.55000114440918,4.200000286102295,28.650001525878906
5.864,110.51634979248047,-11.185709953308105,65.16059112548828,36.372127532958984,2.398162364959717,373.58038330078125,-29.55000114440918,4.200000286102295,28.650001525878906
5.871,81.78592681884766,-103.5061264038086,-23.673866271972656,-71.2787094116211,-5.196018218994141,326.81622314453125,-30.750001907348633,-0.75,27.150001525878906
5.881,54.97087097167969,-120.39961242675781,-1.4939818382263184,-154.28176879882812,-45.298622131347656,286.713623046875,-30.30000114440918,-1.0500000715255737,26.850000381469727
5.891,63.36015319824219,-58.45682907104492,19.460071563720703,-121.50688934326172,-55.95711898803711,241.68145751953125,-31.650001525878906,-1.6500000953674316,28.500001907348633
5.901,79.14273071289062,-26.776752471923828,46.390052795410156,-67.68146514892578,-54.4915771484375,230.88973999023438,-33.0,-3.0,26.850000381469727
5.921,66.65457153320312,-49.3397102355957,47.19450378417969,-68.4808578491211,-82.07044219970703,203.97702026367188,-33.0,-3.0,26.850000381469727
5.924,65.65858459472656,-76.23138427734375,31.794998168945312,-115.37825012207031,-87.26646423339844,148.15313720703125,-32.55000305175781,-6.150000095367432,27.150001525878906
5.931,78.3382797241211,-58.87820816040039,44.091617584228516,-113.64624786376953,-97.12557220458984,133.6309356689453,-32.400001525878906,-6.300000190734863,27.30000114440918
5.941,77.30398559570312,-56.19670104980469,43.9766960144043,-110.31546783447266,-102.72128295898438,109.51607513427734,-31.80000114440918,-8.850000381469727,26.100000381469727
5.951,84.12267303466797,-67.76548767089844,32.905906677246094,-130.43338012695312,-122.70597076416016,91.52986145019531,-33.150001525878906,-8.25,24.750001907348633
5.961,105.88117218017578,-68.30178833007812,16.433799743652344,-134.83001708984375,-120.17457580566406,85.00152587890625,-33.150001525878906,-8.25,24.750001907348633
5.981,125.37955474853516,-52.97889709472656,-0.3064578175544739,-119.90811157226562,-141.0918731689453,91.26339721679688,-35.25,-10.050000190734863,24.900001525878906
5.985,141.00889587402344,-39.68628692626953,-10.955866813659668,-92.72894287109375,-157.87901306152344,110.44869232177734,-35.25,-9.600000381469727,22.350000381469727
5.991,144.57147216796875,-35.6257209777832,-19.99637222290039,-94.9938735961914,-151.75038146972656,118.44257354736328,-34.95000076293945,-9.0,22.950000762939453
6.001,140.97059631347656,-38.537071228027344,-18.195932388305664,-112.84685516357422,-157.4793243408203,118.30934143066406,-36.150001525878906,-12.15000057220459,22.950000762939453
6.011,144.6097869873047,-43.32547378540039,-24.823083877563477,-147.35374450683594,-157.87901306152344,124.8376693725586,-36.150001525878906,-12.15000057220459,22.950000762939453
6.021,153.9567413330078,-30.875625610351562,-30.14778709411621,-167.0719757080078,-172.2679901123047,146.1546630859375,-35.70000076293945,-12.450000762939453,21.150001525878906
6.04,161.84803771972656,-18.4257755279541,-31.41192626953125,-192.3859100341797,-165.3399658203125,151.88360595703125,-37.20000076293945,-13.65000057220459,20.700000762939453
6.044,162.7674102783203,-8.006210327148438,-30.224401473999023,-234.22052001953125,-177.73046875,142.15773010253906,-37.95000076293945,-12.90000057220459,19.200000762939453
6.051,149.13003540039062,12.986149787902832,-20.877439498901367,-257.13629150390625,-199.04747009277344,150.41806030273438,-39.900001525878906,-14.850000381469727,19.650001525878906
6.061,138.71046447753906,26.929981231689453,-22.448034286499023,-298.4379577636719,-201.4456329345703,125.63705444335938,-39.900001525878906,-14.850000381469727,19.650001525878906
6.071,134.49667358398438,46.73481750488281,-28.07919692993164,-316.4241943359375,-187.85604858398438,111.24808502197266,-41.400001525878906,-17.850000381469727,17.100000381469727
6.081,126.60538482666016,78.29997253417969,-35.77894973754883,-284.3154602050781,-196.1163787841797,112.04747009277344,-40.20000076293945,-20.25,17.100000381469727
6.191,105.57471466064453,98.52619171142578,49.37801742553711,-318.6891174316406,-196.51608276367188,193.18528747558594,-45.0,-32.85000228881836,6.600000381469727
6.201,97.45358276367188,114.69184112548828,52.174442291259766,-214.50228881835938,-209.70596313476562,128.3016815185547,-44.400001525878906,-33.75,4.5
6.213,97.26204681396484,106.72393798828125,55.392250061035156,-126.30321502685547,-212.77027893066406,58.355281829833984,-43.5,-33.900001525878906,3.3000001907348633
6.221,85.5017318725586,80.59840393066406,54.587799072265625,-96.05972290039062,-209.97242736816406,16.12097930908203,-43.5,-33.900001525878906,3.3000001907348633
6.231,76.95922088623047,62.32585906982422,47.07958221435547,-20.517610549926758,-227.6921844482422,-37.4379768371582,-43.5,-31.950000762939453,0.30000001192092896
6.241,69.75746154785156,41.639957427978516,45.54729461669922,58.754974365234375,-235.9525146484375,-122.43950653076172,-42.900001525878906,-32.55000305175781,0.9000000357627869
6.251,75.15878295898438,32.75267791748047,53.63011932373047,184.39202880859375,-264.1975402832031,-212.5038299560547,-42.45000076293945,-30.600000381469727,-1.6500000953674316
6.27,79.87056732177734,31.41192626953125,62.8238525390625,344.5359802246094,-291.6431884765625,-276.1883544921875,-43.650001525878906,-30.30000114440918,-1.6500000953674316
6.274,80.29194641113281,19.68991470336914,70.71514129638672,496.81927490234375,-300.16998291015625,-356.26031494140625,-43.05000305175781,-28.500001907348633,-2.8500001430511475
6.281,80.94316864013672,-24.095245361328125,88.98768615722656,517.4701538085938,-309.49615478515625,-397.56201171875,-43.05000305175781,-28.500001907348633,-2.8500001430511475
6.291,85.69326782226562,-53.51519775390625,99.59879302978516,513.2067260742188,-317.09033203125,-450.05511474609375,-41.25,-25.500001907348633,-3.3000001907348633
6.301,82.39884948730469,-83.35652923583984,110.7078857421875,475.3690490722656,-298.5711975097656,-511.4747314453125,-42.30000305175781,-24.30000114440918,-3.6000001430511475
6.311,73.43495178222656,-91.4776611328125,118.67578887939453,464.7105712890625,-279.11944580078125,-568.231201171875,-41.70000076293945,-22.950000762939453,-4.5
6.331,70.33206939697266,-66.61626434326172,131.81517028808594,499.2174377441406,-243.41346740722656,-599.2741088867188,-41.70000076293945,-22.950000762939453,-4.5
6.334,75.9632339477539,-67.4973373413086,136.87171936035156,491.8897399902344,-220.36447143554688,-638.444091796875,-39.45000076293945,-19.05000114440918,-4.200000286102295
6.341,85.76988220214844,-108.60099029541016,141.35366821289062,441.7947692871094,-205.84225463867188,-672.4180297851562,-38.25,-17.400001525878906,-5.100000381469727
6.351,81.78592681884766,-119.78669738769531,132.3131561279297,345.2021484375,-183.05972290039062,-722.7794799804688,-36.45000076293945,-16.350000381469727,-5.700000286102295
6.361,70.83006286621094,-101.7056884765625,110.97603607177734,330.1470031738281,-157.74578857421875,-751.15771484375,-36.45000076293945,-16.350000381469727,-5.700000286102295
6.371,67.65056610107422,-69.52761840820312,99.2157211303711,386.1041259765625,-138.2940216064453,-764.0811767578125,-35.400001525878906,-14.100000381469727,-4.950000286102295
6.391,79.29595947265625,-54.51118469238281,94.19747161865234,436.1990661621094,-108.84992218017578,-785.6646118164062,-35.70000076293945,-13.65000057220459,-4.950000286102295
6.395,90.71151733398438,-68.761474609375,91.78411865234375,424.0750427246094,-100.3231201171875,-805.6492919921875,-36.30000305175781,-12.300000190734863,-5.100000381469727
6.401,86.765869140625,-99.44556427001953,88.37477111816406,400.7595520019531,-100.9892807006836,-811.7779541015625,-36.900001525878906,-10.950000762939453,-4.950000286102295
6.411,84.65897369384766,-103.96581268310547,81.86254119873047,359.9908142089844,-90.86370086669922,-845.0857543945312,-36.900001525878906,-10.950000762939453,-4.950000286102295
6.421,85.92311096191406,-104.84687805175781,69.9873046875,330.81317138671875,-67.68146514892578,-841.88818359375,-37.650001525878906,-5.550000190734863,-4.950000286102295
6.431,101.97383880615234,-112.01033020019531,59.452816009521484,313.2266540527344,-57.422664642333984,-824.3016967773438,-38.25,-3.0,-5.100000381469727
6.45,122.27667236328125,-122.88958740234375,46.77312469482422,291.2434997558594,-79.80551147460938,-775.6722412109375,-39.0,-1.8000000715255737,-5.100000381469727
6.454,142.84765625,-136.3737335205078,35.089420318603516,309.2297058105469,-94.0612564086914,-699.4639892578125,-38.70000076293945,2.1000001430511475,-3.750000238418579
6.461,156.90640258789062,-146.06546020507812,26.815059661865234,350.7978515625,-98.32465362548828,-643.9065551757812,-38.70000076293945,2.1000001430511475,-3.750000238418579
6.471,156.37010192871094,-151.9264678955078,23.63555908203125,428.2052001953125,-106.31852722167969,-542.517578125,-38.70000076293945,5.850000381469727,-4.950000286102295
6.481,139.70645141601562,-148.70864868164062,32.063148498535156,487.22662353515625,-92.46247863769531,-437.2649230957031,-37.650001525878906,10.200000762939453,-6.0
6.491,119.28870391845703,-133.19422912597656,50.68046188354492,555.0413208007812,-84.4686050415039,-374.51300048828125,-36.30000305175781,11.550000190734863,-6.600000381469727
6.51,97.6451187133789,-122.46820831298828,49.56955337524414,602.871337890625,-46.497703552246094,-300.16998291015625,-35.25,13.500000953674316,-8.700000762939453
6.514,63.092002868652344,-159.97097778320312,58.07375717163086,677.8805541992188,-13.856048583984375,-149.48544311523438,-35.25,13.500000953674316,-8.700000762939453
6.521,66.30980682373047,-178.39675903320312,71.71112823486328,648.9693603515625,2.6646246910095215,-53.82542037963867,-34.5,14.250000953674316,-10.950000762939453
6.531,69.68084716796875,-218.8874969482422,78.60643005371094,524.264892578125,13.456355094909668,15.721285820007324,-34.20000076293945,14.100000381469727,-12.300000190734863
6.541,59.644351959228516,-223.36944580078125,63.93476104736328,381.30780029296875,4.929555892944336,114.3124008178711,-35.25,13.500000953674316,-13.500000953674316
6.551,46.77312469482422,-177.630615234375,38.76691436767578,366.6523742675781,32.24195861816406,210.1056671142578,-35.25,13.500000953674316,-13.500000953674316
6.57,38.03907775878906,-165.94691467285156,30.569168090820312,309.8958435058594,15.854516983032227,406.35528564453125,-34.20000076293945,10.5,-15.600000381469727
6.574,108.17961120605469,-298.48992919921875,-19.038692474365234,155.48085021972656,15.055130004882812,406.4884948730469,-34.20000076293945,10.5,-15.600000381469727
6.581,86.95740509033203,-269.5679626464844,-50.83369064331055,-111.11485290527344,50.22817611694336,349.06585693359375,-35.25,8.40000057220459,-15.000000953674316
6.591,68.1485595703125,-124.11541748046875,-64.85413360595703,-138.16079711914062,87.53292083740234,284.3154602050781,-36.0,5.700000286102295,-15.450000762939453
6.601,71.8260498046875,91.40104675292969,-77.1890640258789,-97.12557220458984,61.28636932373047,255.80397033691406,-36.0,5.700000286102295,-15.450000762939453
6.619,84.77389526367188,235.0531463623047,-50.18246841430664,151.2174530029297,24.11485481262207,315.0918884277344,-36.0,5.700000286102295,-15.450000762939453
6.624,83.1266860961914,208.42962646484375,-46.313438415527344,712.5206298828125,0.2664624750614166,437.5313720703125,-37.95000076293945,4.800000190734863,-14.850000381469727
6.631,141.85166931152344,31.948226928710938,7.929595947265625,762.6156005859375,5.8621745109558105,446.4578857421875,-38.70000076293945,4.050000190734863,-15.600000381469727
6.641,173.4168243408203,-71.67282104492188,12.066776275634766,509.20977783203125,49.02909469604492,350.93109130859375,-39.0,0.30000001192092896,-15.750000953674316
6.651,76.88260650634766,-120.16976928710938,22.06496238708496,221.16384887695312,30.776416778564453,307.2312316894531,-39.45000076293945,-4.050000190734863,-16.650001525878906
6.661,8.925583839416504,-105.65132904052734,2.5282769203186035,34.773353576660156,33.30780792236328,290.8437805175781,-39.45000076293945,-4.050000190734863,-16.650001525878906
6.68,42.44440841674805,-59.950809478759766,20.264522552490234,-5.462480545043945,18.119447708129883,282.4502258300781,-41.55000305175781,-6.150000095367432,-16.80000114440918
6.684,98.33465576171875,-34.170047760009766,13.522451400756836,52.89280319213867,52.3598747253418,285.1148376464844,-41.55000305175781,-4.5,-17.25
6.691,79.67903137207031,-30.415939331054688,12.181697845458984,130.96630859375,31.176109313964844,296.9724426269531,-42.45000076293945,-5.550000190734863,-15.90000057220459
6.701,74.04786682128906,-44.43638229370117,8.35097599029541,32.24195861816406,37.97090148925781,259.4012145996094,-40.95000076293945,-9.0,-17.700000762939453
6.711,52.97889709472656,-50.642154693603516,-23.980323791503906,2.398162364959717,25.7136287689209,243.41346740722656,-40.95000076293945,-9.0,-17.700000762939453
6.721,75.9632339477539,-47.65419006347656,-16.127342224121094,7.860642910003662,17.053598403930664,236.48544311523438,-42.150001525878906,-10.950000762939453,-16.350000381469727
6.74,79.6024169921875,-27.15982437133789,-3.064578056335449,37.17151641845703,3.86370587348938,216.76722717285156,-42.45000076293945,-11.700000762939453,-16.650001525878906
6.744,79.21934509277344,-23.21417999267578,-0.15322890877723694,60.22052001953125,1.9984685182571411,209.1730499267578,-41.70000076293945,-12.15000057220459,-16.350000381469727
6.751,78.60643005371094,-41.754878997802734,3.485957622528076,54.091880798339844,-23.182235717773438,201.578857421875,-41.70000076293945,-12.15000057220459,-16.350000381469727
6.761,72.36235046386719,-50.79538345336914,5.056553840637207,31.842266082763672,-38.37059783935547,185.5911102294922,-41.70000076293945,-12.15000057220459,-16.350000381469727
6.771,62.479087829589844,-48.91832733154297,1.1109095811843872,38.50382614135742,-36.771820068359375,151.48391723632812,-41.400001525878906,-15.600000381469727,-15.600000381469727
6.781,57.7289924621582,-51.063533782958984,12.641385078430176,33.57427215576172,-54.89126968383789,133.6309356689453,-42.0,-16.200000762939453,-16.05000114440918
6.8,75.61846923828125,-48.57356262207031,-5.056553840637207,34.50688934326172,-66.61561584472656,118.8422622680664,-43.20000076293945,-14.850000381469727,-17.400001525878906
6.804,85.80818939208984,-47.80741882324219,-6.588842868804932,30.37672233581543,-83.66921997070312,100.45635223388672,-43.20000076293945,-14.850000381469727,-17.400001525878906
6.811,75.31201171875,-54.05149841308594,-3.2561142444610596,14.788667678833008,-81.13782501220703,78.73966217041016,-43.20000076293945,-14.850000381469727,-17.400001525878906
6.821,69.14454650878906,-58.18867874145508,-5.669469833374023,-3.0643184185028076,-94.86064147949219,61.15313720703125,-41.70000076293945,-16.80000114440918,-17.100000381469727
6.831,66.76950073242188,-54.089805603027344,-12.105083465576172,4.663093090057373,-108.3169937133789,45.03215789794922,-41.55000305175781,-18.900001525878906,-17.55000114440918
6.841,84.2759017944336,-38.99675750732422,-44.16823196411133,46.764163970947266,-91.13016510009766,26.64624786376953,-40.650001525878906,-16.350000381469727,-18.450000762939453
6.86,52.44259262084961,-50.450618743896484,-9.806650161743164,49.96171569824219,-106.4517593383789,4.929555892944336,-40.650001525878906,-16.350000381469727,-18.450000762939453
6.864,67.65056610107422,-45.93036651611328,-11.185709953308105,55.95711898803711,-108.050537109375,-10.791729927062988,-41.400001525878906,-18.75,-18.900001525878906
6.871,76.30799865722656,-64.12629699707031,-1.723825216293335,32.5084228515625,-109.915771484375,-30.90964698791504,-40.95000076293945,-17.850000381469727,-17.400001525878906
6.881,80.21533203125,-58.18867874145508,-9.500192642211914,19.185298919677734,-109.915771484375,-55.29096221923828,-38.400001525878906,-18.75,-18.900001525878906
6.891,76.11646270751953,-53.247047424316406,-7.661445617675781,25.04747200012207,-125.37059783935547,-72.74425506591797,-40.05000305175781,-18.900001525878906,-19.05000114440918
6.901,81.51777648925781,-49.45463180541992,-11.377246856689453,34.64012145996094,-134.03062438964844,-67.5482406616211,-40.05000305175781,-18.900001525878906,-19.05000114440918
6.921,93.04825592041016,-42.29117965698242,-8.925583839416504,35.17304611206055,-137.22817993164062,-102.45481872558594,-38.400001525878906,-17.55000114440918,-21.450000762939453
6.924,110.40142822265625,-38.307228088378906,-15.361198425292969,45.03215789794922,-149.3522186279297,-108.18376159667969,-38.400001525878906,-17.55000114440918,-21.450000762939453
6.931,112.31678771972656,-38.000770568847656,-18.310853958129883,45.03215789794922,-168.1378173828125,-85.26799011230469,-38.70000076293945,-16.80000114440918,-20.700000762939453
6.941,114.73014831542969,-38.03907775878906,-11.262324333190918,55.29096221923828,-169.0704345703125,-99.3905029296875,-37.20000076293945,-17.100000381469727,-22.950000762939453
6.951,115.11322021484375,-35.24264907836914,-21.835119247436523,48.09647750854492,-188.1225128173828,-100.72281646728516,-37.20000076293945,-17.100000381469727,-22.950000762939453
6.961,126.10739135742188,-24.823083877563477,-41.946414947509766,55.55742645263672,-169.8698272705078,-90.59724426269531,-37.20000076293945,-17.100000381469727,-22.950000762939453
6.98,112.47001647949219,-27.083209991455078,-3.7924153804779053,50.4946403503418,-169.33689880371094,-82.6033706665039,-35.55000305175781,-13.800000190734863,-24.600000381469727
6.984,111.39741516113281,-29.4582576751709,-36.58340072631836,48.8958625793457,-168.9372100830078,-77.00765228271484,-35.55000305175781,-13.800000190734863,-24.600000381469727
6.991,112.20186614990234,-17.851167678833008,-32.71437072753906,25.580398559570312,-169.33689880371094,-30.24349021911621,-34.5,-17.700000762939453,-23.100000381469727
7.001,102.77828979492188,-5.171475887298584,-43.21055221557617,12.25727367401123,-179.9954071044922,-24.11485481262207,-34.5,-17.700000762939453,-23.100000381469727
7.011,103.73596954345703,-2.030282974243164,-30.837318420410156,-4.396630764007568,-183.45941162109375,-11.324655532836914,-34.5,-17.700000762939453,-23.100000381469727
7.03,104.96179962158203,7.4316020011901855,-25.780763626098633,-8.260336875915527,-190.5206756591797,-4.130168437957764,-31.80000114440918,-15.750000953674316,-27.150001525878906
7.034,99.10079956054688,26.815059661865234,-14.020444869995117,13.056661605834961,-212.23736572265625,51.160797119140625,-31.650001525878906,-14.100000381469727,-27.000001907348633
7.041,99.2923355102539,39.68628692626953,1.5322890281677246,17.719755172729492,-226.2266387939453,66.34915924072266,-31.650001525878906,-14.100000381469727,-27.000001907348633
7.051,101.0927734375,43.172245025634766,10.572794914245605,16.25421142578125,-234.8866729736328,97.5252685546875,-31.650001525878906,-14.100000381469727,-27.000001907348633
7.061,102.58675384521484,43.4020881652832,28.07919692993164,31.042879104614258,-236.08575439453125,147.75344848632812,-31.650001525878906,-14.100000381469727,-27.000001907348633
7.071,94.15916442871094,30.722396850585938,34.591426849365234,72.47779083251953,-240.0826873779297,199.98008728027344,-29.400001525878906,-14.850000381469727,-28.80000114440918
7.09,83.58637237548828,1.5322890281677246,28.155811309814453,105.25267791748047,-252.60643005371094,246.61102294921875,-27.000001907348633,-16.200000762939453,-28.650001525878906
7.095,86.88079071044922,-30.186094284057617,31.52684783935547,57.955589294433594,-271.9249572753906,244.4793243408203,-24.750001907348633,-18.900001525878906,-30.150001525878906
7.101,101.32261657714844,-24.66985511779785,34.782962799072266,68.08116149902344,-276.05511474609375,229.95712280273438,-24.750001907348633,-18.900001525878906,-30.150001525878906
7.111,97.5685043334961,-10.687716484069824,37.311241149902344,164.14088439941406,-259.134765625,227.02603149414062,-24.750001907348633,-18.900001525878906,-30.150001525878906
7.121,82.66699981689453,15.093047142028809,44.05331039428711,277.25421142578125,-260.3338317871094,257.4027404785156,-22.05000114440918,-19.200000762939453,-30.900001525878906
