time,accel_x,accel_y,accel_z,gyro_x,gyro_y,gyro_z,mag_x,mag_y,mag_z
0.0,70.48529815673828,25.09123420715332,-35.05111312866211,-47.430320739746094,11.324655532836914,26.779478073120117,-28.500001907348633,-13.050000190734863,-28.200000762939453
0.003,66.9227294921875,21.643583297729492,-34.01681900024414,-47.430320739746094,11.591117858886719,30.24349021911621,-29.700000762939453,-14.850000381469727,-27.000001907348633
0.01,66.15657806396484,22.869415283203125,-34.93619155883789,-43.83307647705078,14.388973236083984,37.97090148925781,-28.500001907348633,-14.550000190734863,-28.200000762939453
0.02,65.46704864501953,22.409727096557617,-31.41192626953125,-37.17151641845703,21.983154296875,31.842266082763672,-28.500001907348633,-13.800000190734863,-26.400001525878906
0.03,67.95702362060547,21.0689754486084,-29.03687858581543,-32.108726501464844,28.111791610717773,21.45022964477539,-30.000001907348633,-14.250000953674316,-27.150001525878906
0.04,70.21714782714844,20.41775131225586,-27.083209991455078,-12.523736000061035,15.321592330932617,15.721285820007324,-30.000001907348633,-14.250000953674316,-27.150001525878906
0.05,71.213134765625,22.06496238708496,-25.09123420715332,4.663093090057373,6.9280242919921875,10.258805274963379,-27.900001525878906,-12.450000762939453,-28.05000114440918
0.064,72.51557922363281,24.78477668762207,-28.423961639404297,12.523736000061035,11.457886695861816,15.45482349395752,-29.55000114440918,-13.800000190734863,-27.450000762939453
0.07,71.51959228515625,25.550920486450195,-31.10546875,13.189892768859863,9.326186180114746,22.51607894897461,-28.05000114440918,-12.750000953674316,-27.150001525878906
0.08,70.6002197265625,23.252487182617188,-31.41192626953125,19.45176124572754,8.660030364990234,20.91730499267578,-28.200000762939453,-14.100000381469727,-27.750001907348633
0.09,70.25545501708984,18.4257755279541,-31.143775939941406,6.5283308029174805,13.722817420959473,9.059723854064941,-28.200000762939453,-14.100000381469727,-27.750001907348633
0.1,68.68486022949219,15.897499084472656,-29.4582576751709,-3.0643184185028076,20.784072875976562,24.781009674072266,-28.200000762939453,-14.40000057220459,-27.750001907348633
0.119,69.83407592773438,15.591041564941406,-29.76471519470215,-13.58958625793457,15.055130004882812,22.51607894897461,-26.55000114440918,-13.500000953674316,-27.450000762939453
0.123,67.61225891113281,18.502389907836914,-29.4582576751709,-29.577335357666016,29.977027893066406,27.31240463256836,-29.400001525878906,-15.15000057220459,-26.55000114440918
0.13,68.7997817993164,19.038692474365234,-29.573179244995117,-36.238895416259766,25.7136287689209,17.719755172729492,-28.200000762939453,-13.200000762939453,-28.80000114440918
0.14,69.02962493896484,18.310853958129883,-29.611486434936523,-39.43644714355469,27.045940399169922,17.32006072998047,-28.200000762939453,-13.200000762939453,-28.80000114440918
0.15,69.83407592773438,18.11931800842285,-29.726408004760742,-30.90964698791504,19.85145378112793,25.04747200012207,-28.200000762939453,-13.200000762939453,-28.80000114440918
0.16,70.48529815673828,20.187908172607422,-27.044902801513672,-26.912710189819336,20.117916107177734,25.313934326171875,-29.250001907348633,-14.250000953674316,-26.850000381469727
0.178,70.48529815673828,19.268535614013672,-27.734432220458984,-31.709033966064453,27.978559494018555,17.852985382080078,-28.200000762939453,-15.15000057220459,-28.05000114440918
0.183,71.09821319580078,20.64759635925293,-28.8453426361084,-25.447166442871094,21.183767318725586,19.718223571777344,-28.200000762939453,-15.15000057220459,-27.000001907348633
0.19,71.02159881591797,20.264522552490234,-29.573179244995117,-15.188361167907715,23.848390579223633,27.445634841918945,-29.250001907348633,-15.750000953674316,-27.150001525878906
0.2,70.21714782714844,22.06496238708496,-29.573179244995117,-15.055130004882812,29.31087303161621,20.784072875976562,-29.250001907348633,-15.750000953674316,-27.150001525878906
0.21,70.6002197265625,21.490354537963867,-28.960264205932617,-10.658498764038086,31.709033966064453,17.053598403930664,-29.250001907348633,-15.000000953674316,-26.400001525878906
0.22,70.5619125366211,20.76251792907715,-28.73042106628418,8.260336875915527,29.577335357666016,24.781009674072266,-28.200000762939453,-15.15000057220459,-27.000001907348633
0.239,70.40868377685547,21.605276107788086,-28.040889739990234,7.72741174697876,28.644716262817383,30.643184661865234,-28.950000762939453,-14.100000381469727,-25.200000762939453
0.243,70.86837005615234,20.30282974243164,-27.925968170166016,12.790199279785156,23.04900360107422,21.050535202026367,-30.150001525878906,-14.40000057220459,-25.80000114440918
0.25,71.09821319580078,18.617311477661133,-27.15982437133789,11.990811347961426,23.448698043823242,29.577335357666016,-30.150001525878906,-14.40000057220459,-25.80000114440918
0.26,70.98329162597656,18.310853958129883,-27.313053131103516,17.986217498779297,23.848390579223633,8.127105712890625,-30.150001525878906,-15.90000057220459,-26.250001907348633
0.27,70.17884063720703,17.468095779418945,-27.121517181396484,8.260336875915527,28.24502182006836,24.914241790771484,-29.250001907348633,-15.750000953674316,-25.350000381469727
0.28,70.71514129638672,17.391481399536133,-27.044902801513672,0.39969372749328613,41.434913635253906,22.116384506225586,-30.000001907348633,-14.250000953674316,-25.350000381469727
0.299,70.37037658691406,17.889474868774414,-27.734432220458984,12.124042510986328,29.177640914916992,30.509952545166016,-29.700000762939453,-16.80000114440918,-25.80000114440918
0.303,70.6385269165039,18.004396438598633,-29.34333610534668,2.398162364959717,35.705970764160156,27.445634841918945,-29.700000762939453,-16.80000114440918,-25.80000114440918
0.31,70.21714782714844,16.433799743652344,-29.113492965698242,3.86370587348938,38.50382614135742,29.977027893066406,-29.250001907348633,-15.450000762939453,-26.400001525878906
0.32,70.90667724609375,17.544710159301758,-29.381643295288086,5.329249382019043,37.83767318725586,29.31087303161621,-29.250001907348633,-16.5,-26.100000381469727
0.33,71.2514419555664,18.195932388305664,-29.03687858581543,-1.4655436277389526,27.17917251586914,28.77794647216797,-29.55000114440918,-17.700000762939453,-25.350000381469727
0.34,72.05589294433594,18.847156524658203,-29.688100814819336,-10.658498764038086,39.30321502685547,24.64777946472168,-31.05000114440918,-18.150001525878906,-26.400001525878906
0.359,71.48128509521484,19.919757843017578,-26.66183090209961,-1.1990811824798584,36.372127532958984,29.177640914916992,-31.05000114440918,-18.150001525878906,-26.400001525878906
0.363,71.94097137451172,21.14558982849121,-27.313053131103516,5.196018218994141,23.448698043823242,33.04134750366211,-30.750001907348633,-15.450000762939453,-25.650001525878906
0.37,72.01758575439453,19.345149993896484,-26.163835525512695,-2.131699800491333,30.24349021911621,19.052066802978516,-28.80000114440918,-16.5,-24.600000381469727
0.38,72.36235046386719,18.88546371459961,-27.313053131103516,1.5987749099731445,22.915773391723633,24.381317138671875,-29.700000762939453,-16.80000114440918,-24.450000762939453
0.39,73.54987335205078,20.341136932373047,-27.083209991455078,8.260336875915527,13.056661605834961,39.03675079345703,-29.250001907348633,-16.200000762939453,-25.650001525878906
0.4,72.86034393310547,20.570980072021484,-28.692113876342773,8.39356803894043,12.656967163085938,26.64624786376953,-30.150001525878906,-16.80000114440918,-25.500001907348633
0.419,71.02159881591797,19.345149993896484,-28.38565444946289,4.396630764007568,15.854516983032227,22.249616622924805,-30.150001525878906,-16.80000114440918,-25.500001907348633
0.423,71.55789947509766,18.195932388305664,-27.734432220458984,-3.9969370365142822,11.857580184936523,30.90964698791504,-30.450000762939453,-16.80000114440918,-26.250001907348633
0.43,70.52360534667969,17.583017349243164,-27.083209991455078,-3.4640121459960938,11.857580184936523,34.64012145996094,-30.450000762939453,-16.80000114440918,-26.250001907348633
0.44,70.40868377685547,16.35718536376953,-27.351360321044922,-17.053598403930664,17.32006072998047,23.848390579223633,-30.000001907348633,-16.5,-24.900001525878906
0.45,69.45100402832031,16.35718536376953,-26.929981231689453,-24.914241790771484,19.45176124572754,26.779478073120117,-29.400001525878906,-17.55000114440918,-25.80000114440918
0.46,69.60423278808594,16.855180740356445,-26.929981231689453,-19.98468589782715,11.857580184936523,26.379785537719727,-29.400001525878906,-17.55000114440918,-25.80000114440918
0.479,71.28974914550781,18.23423957824707,-26.470293045043945,-23.848390579223633,15.987748146057129,30.643184661865234,-31.05000114440918,-17.700000762939453,-24.900001525878906
0.483,71.63451385498047,19.766529083251953,-26.01060676574707,-19.85145378112793,12.656967163085938,25.580398559570312,-30.450000762939453,-15.600000381469727,-25.500001907348633
0.49,72.13250732421875,18.693927764892578,-26.43198585510254,-14.388973236083984,16.387441635131836,20.91730499267578,-30.450000762939453,-15.600000381469727,-25.500001907348633
0.5,71.97927856445312,20.264522552490234,-26.891674041748047,-4.663093090057373,11.724349021911621,15.854516983032227,-31.80000114440918,-15.750000953674316,-25.350000381469727
0.51,72.74542236328125,19.766529083251953,-27.198131561279297,-2.398162364959717,22.782541275024414,12.790199279785156,-31.80000114440918,-15.750000953674316,-25.350000381469727
0.52,72.36235046386719,20.76251792907715,-25.167848587036133,0.1332312375307083,22.649311065673828,5.196018218994141,-31.650001525878906,-17.100000381469727,-24.0
0.539,71.05990600585938,20.877439498901367,-26.2021427154541,9.72588062286377,10.92496109008789,14.522205352783203,-30.750001907348633,-17.700000762939453,-22.80000114440918
0.543,72.13250732421875,20.83913230895996,-27.58120346069336,12.523736000061035,20.91730499267578,10.658498764038086,-29.700000762939453,-17.850000381469727,-23.700000762939453
0.55,72.63050079345703,20.95405387878418,-25.857378005981445,9.992342948913574,12.523736000061035,3.197549819946289,-29.700000762939453,-17.850000381469727,-23.700000762939453
0.56,72.51557922363281,19.230228424072266,-25.70414924621582,13.722817420959473,13.856048583984375,3.7304747104644775,-29.700000762939453,-17.850000381469727,-23.700000762939453
0.57,73.89463806152344,18.157625198364258,-25.5892276763916,23.848390579223633,7.72741174697876,10.658498764038086,-31.200000762939453,-18.75,-23.25
0.58,73.32003021240234,16.012420654296875,-24.36339569091797,3.0643184185028076,8.926492691040039,-4.796324729919434,-30.750001907348633,-18.450000762939453,-24.150001525878906
0.599,74.16278839111328,14.67166805267334,-23.13756561279297,-3.7304747104644775,4.929555892944336,-7.72741174697876,-30.30000114440918,-17.700000762939453,-25.350000381469727
0.603,75.23539733886719,14.173673629760742,-23.9420166015625,-17.186830520629883,3.197549819946289,-8.127105712890625,-30.900001525878906,-17.850000381469727,-24.450000762939453
0.61,73.6264877319336,17.42978858947754,-24.708162307739258,-10.392036437988281,-5.8621745109558105,-2.531393527984619,-30.900001525878906,-17.850000381469727,-24.450000762939453
0.62,73.43495178222656,17.583017349243164,-25.51261329650879,-17.986217498779297,-1.8652373552322388,-9.059723854064941,-30.900001525878906,-17.850000381469727,-24.450000762939453
0.63,74.54586791992188,16.778566360473633,-23.597251892089844,-17.32006072998047,-5.062787055969238,-2.398162364959717,-30.450000762939453,-18.75,-25.200000762939453
0.64,76.4995346069336,16.931795120239258,-25.89568519592285,-19.584991455078125,-14.388973236083984,-6.794793128967285,-30.900001525878906,-19.05000114440918,-24.0
0.659,73.16680145263672,16.81687355041504,-25.052927017211914,-20.38437843322754,-1.0658499002456665,-13.056661605834961,-31.500001907348633,-17.700000762939453,-24.150001525878906
0.663,73.0901870727539,16.58702850341797,-24.478317260742188,-18.2526798248291,-1.0658499002456665,-12.390504837036133,-31.500001907348633,-17.700000762939453,-24.150001525878906
0.67,72.70711517333984,15.552734375,-25.70414924621582,-9.192955017089844,-15.055130004882812,-7.72741174697876,-31.05000114440918,-16.5,-26.100000381469727
0.68,71.8643569946289,14.824896812438965,-24.286781311035156,-10.525267601013184,-9.326186180114746,-7.594180583953857,-31.650001525878906,-18.30000114440918,-24.0
0.69,71.63451385498047,14.173673629760742,-23.13756561279297,-18.2526798248291,-2.2649309635162354,-15.055130004882812,-30.900001525878906,-17.55000114440918,-25.200000762939453
0.7,70.86837005615234,13.21599292755127,-25.780763626098633,-16.520673751831055,2.6646246910095215,-22.649311065673828,-30.900001525878906,-17.55000114440918,-24.750001907348633
0.719,67.99533081054688,13.445837020874023,-27.696125030517578,-8.260336875915527,3.197549819946289,-12.923430442810059,-30.900001525878906,-17.55000114440918,-24.750001907348633
0.723,68.7231674194336,15.207969665527344,-25.014619827270508,-15.45482349395752,12.25727367401123,-14.12251091003418,-30.900001525878906,-17.100000381469727,-26.55000114440918
0.73,69.02962493896484,13.369222640991211,-22.869415283203125,-14.788667678833008,5.196018218994141,-25.313934326171875,-30.900001525878906,-17.100000381469727,-23.25
0.74,68.99131774902344,13.445837020874023,-23.558944702148438,-11.724349021911621,-0.9326186776161194,-10.791729927062988,-30.750001907348633,-15.750000953674316,-23.55000114440918
0.75,66.99934387207031,16.625335693359375,-25.28277015686035,-10.525267601013184,-4.929555892944336,-10.392036437988281,-31.200000762939453,-16.80000114440918,-24.450000762939453
0.76,66.8844223022461,19.306842803955078,-25.972299575805664,-15.45482349395752,6.661561965942383,-5.595712184906006,-31.200000762939453,-16.80000114440918,-24.450000762939453
0.779,65.9267349243164,18.655620574951172,-26.891674041748047,-15.588054656982422,7.06125545501709,-5.329249382019043,-30.900001525878906,-16.350000381469727,-23.700000762939453
0.783,65.9267349243164,17.92778205871582,-26.278757095336914,-7.594180583953857,-1.3323123455047607,-7.860642910003662,-32.25,-16.200000762939453,-24.600000381469727
0.79,68.1102523803711,20.685903549194336,-25.052927017211914,-4.796324729919434,-2.6646246910095215,-13.722817420959473,-29.700000762939453,-16.80000114440918,-24.750001907348633
0.8,67.84210205078125,22.83110809326172,-25.89568519592285,3.7304747104644775,-14.12251091003418,-0.9326186776161194,-30.30000114440918,-17.700000762939453,-23.850000381469727
0.81,67.91871643066406,24.823083877563477,-26.738445281982422,12.124042510986328,-19.052066802978516,9.992342948913574,-30.30000114440918,-17.700000762939453,-23.850000381469727
0.82,66.00334930419922,23.903709411621094,-28.61549949645996,7.594180583953857,-6.661561965942383,10.125574111938477,-31.500001907348633,-17.400001525878906,-23.55000114440918
0.84,64.0496826171875,23.673866271972656,-27.542896270751953,5.8621745109558105,-5.8621745109558105,5.595712184906006,-30.30000114440918,-17.700000762939453,-24.900001525878906
0.843,65.04566955566406,22.869415283203125,-28.692113876342773,-3.86370587348938,2.2649309635162354,15.721285820007324,-29.700000762939453,-16.80000114440918,-24.750001907348633
0.85,64.85413360595703,24.554933547973633,-26.585216522216797,4.796324729919434,-7.860642910003662,15.588054656982422,-31.05000114440918,-16.950000762939453,-24.600000381469727
0.86,64.7009048461914,26.12552833557129,-27.925968170166016,-1.3323123455047607,9.326186180114746,12.790199279785156,-30.150001525878906,-17.850000381469727,-25.200000762939453
0.87,64.7009048461914,27.389667510986328,-30.454246520996094,-9.459418296813965,10.791729927062988,10.791729927062988,-30.150001525878906,-17.850000381469727,-25.200000762939453
0.88,67.65056610107422,30.530860900878906,-30.760704040527344,-1.5987749099731445,3.4640121459960938,24.381317138671875,-30.750001907348633,-16.200000762939453,-23.55000114440918
0.899,72.32404327392578,29.917943954467773,-29.266721725463867,-10.125574111938477,-3.4640121459960938,11.591117858886719,-30.150001525878906,-17.55000114440918,-27.000001907348633
0.903,73.77971649169922,27.849353790283203,-27.236438751220703,-19.718223571777344,-9.72588062286377,1.0658499002456665,-30.750001907348633,-17.700000762939453,-23.850000381469727
0.91,74.04786682128906,34.13174057006836,-28.19411849975586,-22.782541275024414,-15.188361167907715,-5.462480545043945,-29.700000762939453,-18.75,-24.750001907348633
0.92,73.51156616210938,34.13174057006836,-31.182083129882812,-29.044410705566406,-19.45176124572754,-3.197549819946289,-29.700000762939453,-18.75,-24.750001907348633
0.93,72.55388641357422,36.96647262573242,-32.676063537597656,-36.771820068359375,-13.189892768859863,-22.382848739624023,-31.05000114440918,-17.400001525878906,-24.600000381469727
0.94,72.51557922363281,36.77493667602539,-35.16603469848633,-29.84379768371582,-14.388973236083984,-30.24349021911621,-30.30000114440918,-17.400001525878906,-25.350000381469727
0.959,71.40467071533203,41.29519271850586,-33.7869758605957,-18.519142150878906,-21.183767318725586,-34.906585693359375,-30.000001907348633,-16.200000762939453,-24.900001525878906
0.963,71.97927856445312,42.02302932739258,-33.48051834106445,-9.326186180114746,-22.382848739624023,-50.89433288574219,-31.05000114440918,-16.5,-26.100000381469727
0.97,73.20510864257812,41.5633430480957,-32.86759948730469,-6.128636837005615,-15.321592330932617,-63.81776428222656,-31.05000114440918,-16.5,-26.100000381469727
0.98,72.63050079345703,42.52102279663086,-33.51882553100586,4.130168437957764,-33.70750427246094,-74.07656860351562,-31.650001525878906,-14.850000381469727,-25.200000762939453
0.99,74.81401824951172,42.559329986572266,-33.51882553100586,-3.597243309020996,-30.37672233581543,-84.20214080810547,-30.000001907348633,-15.750000953674316,-25.350000381469727
1.0,76.15476989746094,41.180267333984375,-33.365596771240234,-17.852985382080078,-25.313934326171875,-102.98774719238281,-31.05000114440918,-15.000000953674316,-23.55000114440918
1.019,75.2737045288086,37.54108428955078,-33.557132720947266,-32.108726501464844,-35.306278228759766,-125.63705444335938,-30.30000114440918,-15.450000762939453,-26.100000381469727
1.022,73.43495178222656,39.035064697265625,-33.13574981689453,-50.36140823364258,-32.90811538696289,-144.1562042236328,-30.30000114440918,-15.450000762939453,-26.100000381469727
1.03,73.16680145263672,42.252872467041016,-33.25067138671875,-53.558956146240234,-41.83460998535156,-137.09494018554688,-30.150001525878906,-13.65000057220459,-25.80000114440918
1.04,72.32404327392578,41.639957427978516,-33.05913543701172,-55.15773391723633,-33.30780792236328,-159.3445587158203,-30.450000762939453,-12.450000762939453,-25.80000114440918
1.05,71.213134765625,42.061336517333984,-33.63374710083008,-37.4379768371582,-32.90811538696289,-165.07350158691406,-31.05000114440918,-13.050000190734863,-26.400001525878906
1.06,69.48931121826172,43.70854568481445,-32.9442138671875,-29.31087303161621,-33.17457962036133,-172.6676788330078,-29.55000114440918,-12.750000953674316,-27.900001525878906
1.079,69.29777526855469,44.35976791381836,-31.335311889648438,-19.185298919677734,-33.30780792236328,-189.32159423828125,-29.55000114440918,-12.750000953674316,-27.900001525878906
1.083,68.26348114013672,45.394065856933594,-31.488540649414062,7.594180583953857,-36.771820068359375,-200.5130157470703,-30.000001907348633,-9.15000057220459,-26.100000381469727
1.09,68.87639617919922,44.66622543334961,-32.10145568847656,24.11485481262207,-44.23276901245117,-195.5834503173828,-28.950000762939453,-9.450000762939453,-26.250001907348633
1.1,67.68887329101562,43.13393783569336,-30.79901123046875,25.18070411682129,-50.62786865234375,-202.3782501220703,-30.750001907348633,-8.40000057220459,-27.900001525878906
1.11,69.3360824584961,40.758888244628906,-29.879636764526367,7.594180583953857,-49.42878723144531,-205.1761016845703,-29.250001907348633,-8.100000381469727,-27.150001525878906
1.12,68.91470336914062,37.73262023925781,-29.64979362487793,-7.9938740730285645,-59.82082748413086,-202.77793884277344,-28.80000114440918,-8.100000381469727,-26.400001525878906
1.139,68.1868667602539,36.8132438659668,-30.415939331054688,-26.779478073120117,-58.754974365234375,-204.6431884765625,-28.80000114440918,-8.100000381469727,-26.400001525878906
1.142,65.77350616455078,38.15399932861328,-30.760704040527344,-60.48698043823242,-50.62786865234375,-217.30015563964844,-27.750001907348633,-4.950000286102295,-27.900001525878906
1.15,66.9227294921875,39.60967254638672,-32.292991638183594,-63.018375396728516,-50.4946403503418,-217.69984436035156,-28.500001907348633,-6.150000095367432,-27.450000762939453
1.16,66.30980682373047,42.09964370727539,-31.680076599121094,-45.16539001464844,-47.297088623046875,-219.56507873535156,-28.950000762939453,-5.100000381469727,-28.05000114440918
1.17,66.42472839355469,44.6279182434082,-29.879636764526367,-27.578866958618164,-45.03215789794922,-223.69525146484375,-28.950000762939453,-4.350000381469727,-27.30000114440918
1.18,66.69288635253906,48.458641052246094,-31.41192626953125,-11.591117858886719,-40.23583221435547,-237.41806030273438,-28.950000762939453,-4.350000381469727,-27.30000114440918
1.199,65.58197021484375,48.956634521484375,-31.488540649414062,19.85145378112793,-46.764163970947266,-230.62327575683594,-27.30000114440918,-2.25,-27.900001525878906
1.202,64.73921203613281,44.398075103759766,-29.611486434936523,20.38437843322754,-47.696781158447266,-233.68759155273438,-25.950000762939453,-1.350000023841858,-28.80000114440918
1.21,64.12629699707031,42.63594436645508,-29.419950485229492,26.379785537719727,-47.0306282043457,-228.35833740234375,-25.650001525878906,-0.15000000596046448,-28.05000114440918
1.22,62.90046691894531,40.682273864746094,-29.573179244995117,16.78713607788086,-55.02450180053711,-225.69371032714844,-25.650001525878906,-1.350000023841858,-29.850000381469727
1.23,60.48711013793945,38.46045684814453,-29.266721725463867,13.189892768859863,-63.018375396728516,-200.91270446777344,-25.650001525878906,-1.350000023841858,-29.850000381469727
1.24,60.10403823852539,39.035064697265625,-28.998571395874023,-11.058192253112793,-51.693721771240234,-203.57733154296875,-25.200000762939453,0.9000000357627869,-29.55000114440918
1.259,60.563724517822266,38.07738494873047,-31.10546875,-25.580398559570312,-46.764163970947266,-193.18528747558594,-23.400001525878906,2.8500001430511475,-28.80000114440918
1.263,59.5677375793457,38.38384246826172,-29.34333610534668,-27.31240463256836,-49.29555892944336,-167.87135314941406,-23.700000762939453,4.350000381469727,-28.500001907348633
1.27,59.98911666870117,39.60967254638672,-28.73042106628418,-32.37519073486328,-46.364471435546875,-169.73660278320312,-23.700000762939453,4.350000381469727,-28.500001907348633
1.28,58.18867874145508,39.57136535644531,-29.496564865112305,-23.04900360107422,-36.10566711425781,-170.26951599121094,-23.700000762939453,4.350000381469727,-28.500001907348633
1.29,57.1160774230957,42.367794036865234,-29.611486434936523,-11.058192253112793,-31.042879104614258,-162.27565002441406,-22.05000114440918,3.750000238418579,-28.200000762939453
1.301,56.69469451904297,42.94240188598633,-30.186094284057617,24.64777946472168,-33.57427215576172,-172.93414306640625,-22.80000114440918,5.700000286102295,-29.400001525878906
1.319,54.54949188232422,45.432373046875,-30.837318420410156,44.36600112915039,-31.709033966064453,-157.87901306152344,-21.900001525878906,5.550000190734863,-29.850000381469727
1.323,55.698707580566406,42.82748031616211,-30.415939331054688,72.21133422851562,-33.17457962036133,-157.74578857421875,-22.80000114440918,6.900000095367432,-29.700000762939453
1.33,54.702720642089844,41.14196014404297,-30.645782470703125,85.4012222290039,-37.304744720458984,-144.55589294433594,-22.80000114440918,6.900000095367432,-29.700000762939453
1.34,55.46886444091797,39.26490783691406,-30.0711727142334,93.39509582519531,-41.83460998535156,-134.29708862304688,-22.80000114440918,6.900000095367432,-29.700000762939453
1.35,54.62610626220703,35.24264907836914,-30.68408966064453,79.2725830078125,-31.575803756713867,-129.36753845214844,-20.55000114440918,6.450000286102295,-29.700000762939453
1.36,53.170433044433594,32.905906677246094,-30.60747528076172,67.5482406616211,-27.445634841918945,-118.97549438476562,-19.650001525878906,6.300000190734863,-28.500001907348633
1.379,52.97889709472656,31.83330535888672,-30.224401473999023,63.018375396728516,-42.90045928955078,-98.05818939208984,-19.950000762939453,6.750000476837158,-31.05000114440918
1.383,51.71475601196289,31.028854370117188,-31.067161560058594,51.960182189941406,-32.77488327026367,-94.9938735961914,-19.950000762939453,5.850000381469727,-31.350000381469727
1.39,52.51920700073242,32.982521057128906,-31.52684783935547,44.76569747924805,-27.045940399169922,-71.14547729492188,-19.950000762939453,5.850000381469727,-31.350000381469727
1.4,54.51118469238281,33.863590240478516,-30.79901123046875,58.355281829833984,-34.24042892456055,-58.62174606323242,-19.05000114440918,7.650000095367432,-31.200000762939453
1.41,54.587799072265625,34.20835494995117,-30.837318420410156,75.00918579101562,-32.64165496826172,-47.9632453918457,-19.5,7.200000286102295,-31.200000762939453
1.42,56.92454147338867,35.54910659790039,-29.803022384643555,79.0061264038086,-27.978559494018555,-35.439510345458984,-18.900001525878906,6.750000476837158,-32.85000228881836
1.439,60.10403823852539,35.817256927490234,-29.305028915405273,104.85298156738281,-31.44257164001465,8.526799201965332,-19.650001525878906,6.300000190734863,-31.350000381469727
1.442,68.03363800048828,35.97048568725586,-33.71036148071289,115.2450180053711,-24.381317138671875,20.117916107177734,-18.900001525878906,6.300000190734863,-32.55000305175781
1.45,68.37840270996094,36.736629486083984,-34.05512619018555,116.44409942626953,-4.396630764007568,26.246553421020508,-18.900001525878906,6.300000190734863,-32.55000305175781
1.46,66.76950073242188,34.13174057006836,-34.13174057006836,121.24042510986328,6.395099639892578,39.43644714355469,-17.25,6.150000095367432,-32.70000076293945
1.47,62.057708740234375,31.871612548828125,-31.986534118652344,131.36599731445312,5.995405673980713,58.222049713134766,-18.30000114440918,6.150000095367432,-32.70000076293945
1.48,58.80159378051758,25.474306106567383,-31.680076599121094,130.96630859375,20.650842666625977,68.34762573242188,-16.950000762939453,5.100000381469727,-33.60000228881836
1.493,55.96685791015625,24.286781311035156,-32.331298828125,111.64777374267578,42.76722717285156,69.67993927001953,-18.900001525878906,4.350000381469727,-32.55000305175781
1.5,55.200714111328125,23.367408752441406,-32.44622039794922,103.12097930908203,41.701377868652344,84.33537292480469,-18.900001525878906,4.350000381469727,-32.55000305175781
1.51,54.81764221191406,20.800825119018555,-33.48051834106445,99.65696716308594,37.4379768371582,105.25267791748047,-18.900001525878906,4.350000381469727,-32.85000228881836
1.52,56.733001708984375,20.456058502197266,-32.44622039794922,68.88054656982422,44.89892578125,122.03981018066406,-20.400001525878906,2.1000001430511475,-33.60000228881836
1.53,59.37620162963867,20.724210739135742,-31.067161560058594,57.15620040893555,45.96477508544922,142.4241943359375,-20.400001525878906,2.1000001430511475,-33.60000228881836
1.54,63.168617248535156,19.80483627319336,-28.500577926635742,45.96477508544922,29.7105655670166,159.74424743652344,-20.400001525878906,2.1000001430511475,-33.900001525878906
1.556,66.69288635253906,20.64759635925293,-27.006595611572266,9.72588062286377,24.248085021972656,173.33384704589844,-19.200000762939453,2.4000000953674316,-32.55000305175781
1.56,66.42472839355469,19.460071563720703,-28.998571395874023,-2.398162364959717,30.90964698791504,177.46400451660156,-19.650001525878906,0.45000001788139343,-33.30000305175781
1.57,66.27149963378906,18.195932388305664,-29.22841453552246,-25.580398559570312,27.84532928466797,194.6508331298828,-21.150001525878906,-0.15000000596046448,-33.900001525878906
1.58,64.81582641601562,19.49837875366211,-29.64979362487793,-34.24042892456055,26.779478073120117,214.90199279785156,-20.25,0.75,-33.0
1.59,63.05369567871094,19.68991470336914,-31.41192626953125,-54.89126968383789,41.035221099853516,220.09800720214844,-20.25,0.75,-33.0
1.608,62.44078063964844,20.30282974243164,-34.13174057006836,-65.15007781982422,47.56355285644531,230.88973999023438,-21.900001525878906,-0.15000000596046448,-33.60000228881836
1.612,60.1806526184082,21.337125778198242,-32.21637725830078,-64.61714935302734,57.02296829223633,231.2894287109375,-21.450000762939453,-0.45000001788139343,-34.35000228881836
1.62,64.27952575683594,20.83913230895996,-28.692113876342773,-54.62480926513672,48.8958625793457,232.75497436523438,-20.700000762939453,-2.4000000953674316,-32.85000228881836
1.63,65.04566955566406,18.808849334716797,-25.167848587036133,-58.222049713134766,50.89433288574219,210.50535583496094,-22.05000114440918,-0.75,-33.0
1.64,66.30980682373047,12.02846908569336,-22.677879333496094,-55.82388687133789,41.83460998535156,193.3185272216797,-22.05000114440918,-0.75,-33.0
1.65,67.88040924072266,15.974113464355469,-25.359384536743164,-46.497703552246094,27.045940399169922,193.05206298828125,-23.400001525878906,-2.1000001430511475,-33.900001525878906
1.66,68.7231674194336,24.9763126373291,-28.347347259521484,-54.75803756713867,29.177640914916992,191.0535888671875,-22.200000762939453,-3.1500000953674316,-33.30000305175781
1.672,69.18285369873047,25.474306106567383,-28.309040069580078,-47.830013275146484,35.306278228759766,192.51913452148438,-23.55000114440918,-3.450000047683716,-31.950000762939453
1.68,70.0256118774414,20.570980072021484,-29.64979362487793,-49.82848358154297,25.18070411682129,203.71055603027344,-21.75,-4.950000286102295,-31.200000762939453
1.69,71.7877426147461,18.962078094482422,-31.22039031982422,-50.4946403503418,36.63859176635742,191.18682861328125,-21.75,-4.950000286102295,-31.200000762939453
1.7,73.0518798828125,19.843143463134766,-30.4925537109375,-59.95405578613281,46.897396087646484,183.32618713378906,-23.25,-4.950000286102295,-31.500001907348633
1.71,75.65677642822266,19.421764373779297,-31.41192626953125,-56.49004364013672,45.298622131347656,189.0551300048828,-25.05000114440918,-4.200000286102295,-31.200000762939453
1.729,77.41890716552734,19.306842803955078,-29.803022384643555,-62.35221862792969,49.29555892944336,191.9862060546875,-24.750001907348633,-5.700000286102295,-31.200000762939453
1.733,78.9511947631836,19.421764373779297,-29.879636764526367,-76.87442779541016,53.558956146240234,179.72894287109375,-25.05000114440918,-4.950000286102295,-31.950000762939453
1.74,78.52981567382812,19.19192123413086,-27.542896270751953,-81.93721008300781,54.62480926513672,178.5298614501953,-25.05000114440918,-4.950000286102295,-31.950000762939453
1.75,77.07414245605469,17.889474868774414,-26.393678665161133,-84.73506927490234,43.43338394165039,176.53138732910156,-24.450000762939453,-5.100000381469727,-31.80000114440918
1.76,75.50354766845703,18.04270362854004,-27.58120346069336,-87.0,46.09800720214844,180.12863159179688,-25.950000762939453,-7.800000190734863,-29.850000381469727
1.77,72.78372955322266,20.149600982666016,-28.653806686401367,-94.72740936279297,51.560489654541016,169.33689880371094,-24.900001525878906,-6.750000476837158,-30.600000381469727
1.788,71.28974914550781,21.107282638549805,-30.109479904174805,-91.26339721679688,50.36140823364258,170.66921997070312,-25.950000762939453,-6.750000476837158,-31.05000114440918
1.793,69.91069030761719,22.409727096557617,-31.488540649414062,-79.80551147460938,59.4211311340332,168.5375213623047,-25.950000762939453,-6.750000476837158,-31.05000114440918
1.8,69.75746154785156,21.605276107788086,-31.29700469970703,-79.53904724121094,60.08728790283203,179.9954071044922,-25.950000762939453,-6.750000476837158,-31.05000114440918
1.81,69.71915435791016,21.835119247436523,-31.22039031982422,-74.8759536743164,60.08728790283203,175.19908142089844,-25.80000114440918,-8.850000381469727,-29.400001525878906
1.82,70.14053344726562,23.673866271972656,-31.028854370117188,-59.95405578613281,53.95865249633789,180.66156005859375,-26.400001525878906,-7.800000190734863,-29.850000381469727
1.83,69.91069030761719,23.82709503173828,-30.875625610351562,-61.81929397583008,62.35221862792969,180.26187133789062,-26.55000114440918,-6.900000095367432,-31.950000762939453
1.849,69.29777526855469,22.754493713378906,-30.224401473999023,-63.151607513427734,64.88361358642578,185.72434997558594,-27.30000114440918,-8.850000381469727,-30.150001525878906
1.853,68.68486022949219,21.911733627319336,-28.347347259521484,-57.689125061035156,69.54670715332031,187.58958435058594,-27.30000114440918,-8.850000381469727,-30.150001525878906
1.86,69.4126968383789,21.490354537963867,-28.8453426361084,-52.626338958740234,60.22052001953125,198.51454162597656,-28.05000114440918,-9.15000057220459,-29.700000762939453
1.87,69.75746154785156,21.87342643737793,-26.85336685180664,-59.55436325073242,68.34762573242188,192.3859100341797,-28.200000762939453,-10.200000762939453,-28.500001907348633
1.88,70.94498443603516,20.64759635925293,-29.803022384643555,-62.35221862792969,71.54517364501953,184.79173278808594,-28.650001525878906,-11.40000057220459,-29.850000381469727
1.89,71.71112823486328,23.44402313232422,-31.60346221923828,-50.36140823364258,59.15467071533203,183.5926513671875,-28.200000762939453,-12.15000057220459,-28.80000114440918
1.91,71.2514419555664,24.401702880859375,-32.21637725830078,-44.89892578125,66.882080078125,185.85757446289062,-28.200000762939453,-12.15000057220459,-28.80000114440918
1.913,70.6002197265625,24.66985511779785,-33.288978576660156,-47.430320739746094,73.9433364868164,178.5298614501953,-29.400001525878906,-12.15000057220459,-28.500001907348633
1.92,69.68084716796875,25.5892276763916,-33.863590240478516,-43.69984436035156,79.9387435913086,172.134765625,-30.150001525878906,-12.15000057220459,-27.000001907348633
1.93,70.48529815673828,25.742456436157227,-35.43418502807617,-31.44257164001465,74.60948944091797,176.39816284179688,-28.950000762939453,-13.200000762939453,-27.750001907348633
1.94,69.06793212890625,26.43198585510254,-34.09343338012695,-34.64012145996094,94.72740936279297,174.79937744140625,-29.700000762939453,-12.15000057220459,-28.05000114440918
1.95,69.52761840820312,25.89568519592285,-34.85957717895508,-20.784072875976562,89.13169860839844,166.40582275390625,-29.700000762939453,-12.15000057220459,-28.05000114440918
1.97,68.07194519042969,24.938005447387695,-33.365596771240234,-18.385910034179688,83.13629150390625,155.48085021972656,-29.700000762939453,-12.90000057220459,-27.750001907348633
1.973,70.94498443603516,24.13355255126953,-33.097442626953125,-11.990811347961426,77.54058074951172,135.0964813232422,-30.450000762939453,-14.40000057220459,-26.250001907348633
1.98,69.06793212890625,25.550920486450195,-33.365596771240234,-8.793261528015137,82.20367431640625,131.7657012939453,-28.950000762939453,-17.100000381469727,-27.30000114440918
1.99,68.56993865966797,25.780763626098633,-33.557132720947266,-4.929555892944336,64.3506851196289,137.76109313964844,-30.000001907348633,-16.5,-26.850000381469727
2.0,68.1102523803711,23.558944702148438,-34.43819808959961,-2.531393527984619,63.684532165527344,128.7013702392578,-30.000001907348633,-16.5,-26.850000381469727
2.01,67.30580139160156,21.720197677612305,-35.54910659790039,-21.45022964477539,69.67993927001953,111.64777374267578,-30.000001907348633,-16.5,-26.850000381469727
2.03,66.84611511230469,21.643583297729492,-35.54910659790039,-26.513015747070312,62.8851432800293,111.11485290527344,-30.900001525878906,-17.100000381469727,-25.200000762939453
2.033,68.26348114013672,22.448034286499023,-37.34954833984375,-33.17457962036133,62.75191116333008,121.64012145996094,-31.80000114440918,-17.400001525878906,-25.350000381469727
2.04,69.25946807861328,25.70414924621582,-40.64396667480469,-39.83613967895508,71.81163787841797,105.78560638427734,-29.700000762939453,-17.100000381469727,-26.55000114440918
2.05,72.24742889404297,26.96828842163086,-38.19230651855469,-42.36753463745117,66.48238372802734,101.2557373046875,-31.950000762939453,-19.05000114440918,-25.500001907348633
2.06,72.82203674316406,28.309040069580078,-38.38384246826172,-33.57427215576172,59.95405578613281,108.050537109375,-31.950000762939453,-19.05000114440918,-25.500001907348633
2.07,74.54586791992188,29.917943954467773,-36.50678634643555,-22.51607894897461,50.76110076904297,97.39203643798828,-33.0,-18.450000762939453,-23.850000381469727
2.089,75.9632339477539,31.680076599121094,-39.41813659667969,-21.183767318725586,51.693721771240234,78.60643005371094,-31.200000762939453,-19.05000114440918,-25.200000762939453
2.094,76.69107055664062,31.143775939941406,-41.14196014404297,-4.396630764007568,34.50688934326172,80.07197570800781,-31.650001525878906,-19.05000114440918,-24.450000762939453
2.1,76.69107055664062,30.60747528076172,-41.946414947509766,-7.06125545501709,31.176109313964844,83.40275573730469,-31.650001525878906,-19.05000114440918,-24.450000762939453
2.11,76.537841796875,31.22039031982422,-41.14196014404297,-16.387441635131836,25.04747200012207,73.54364013671875,-31.650001525878906,-19.05000114440918,-24.450000762939453
2.12,77.1124496459961,31.680076599121094,-41.10365295410156,-31.44257164001465,30.509952545166016,72.74425506591797,-31.950000762939453,-19.80000114440918,-25.500001907348633
2.13,73.81802368164062,30.837318420410156,-43.55531692504883,-24.51454734802246,23.848390579223633,64.88361358642578,-32.55000305175781,-19.650001525878906,-24.600000381469727
2.149,71.55789947509766,30.14778709411621,-43.93838882446289,-24.781009674072266,23.715160369873047,53.69218826293945,-32.70000076293945,-21.0,-23.700000762939453
2.153,68.30178833007812,32.676063537597656,-44.32146072387695,-19.718223571777344,33.30780792236328,36.238895416259766,-33.45000076293945,-20.25,-23.700000762939453
2.16,66.9227294921875,39.11167907714844,-45.24083709716797,-10.125574111938477,39.70290756225586,31.309341430664062,-33.45000076293945,-20.25,-23.700000762939453
2.17,66.23319244384766,38.46045684814453,-42.82748031616211,13.856048583984375,32.90811538696289,26.513015747070312,-32.25,-20.850000381469727,-24.150001525878906
2.18,66.07996368408203,34.20835494995117,-43.74685287475586,19.052066802978516,42.23430252075195,10.125574111938477,-31.650001525878906,-20.25,-24.0
2.19,65.62027740478516,33.02082824707031,-43.93838882446289,29.044410705566406,43.56661605834961,2.398162364959717,-32.25,-20.850000381469727,-23.850000381469727
2.209,67.80379486083984,34.3615837097168,-43.13393783569336,53.82542037963867,42.633995056152344,4.929555892944336,-32.70000076293945,-20.25,-24.0
2.212,72.66880798339844,34.20835494995117,-43.21055221557617,72.87748718261719,33.70750427246094,-11.457886695861816,-33.0,-18.900001525878906,-24.900001525878906
2.22,76.95922088623047,35.6257209777832,-47.80741882324219,73.54364013671875,46.497703552246094,-19.98468589782715,-33.0,-18.900001525878906,-24.900001525878906
2.23,79.90887451171875,36.736629486083984,-47.309425354003906,90.73047637939453,37.70444107055664,-25.7136287689209,-32.400001525878906,-21.0,-23.25
2.24,83.0500717163086,38.15399932861328,-43.3637809753418,102.05513000488281,17.986217498779297,-30.37672233581543,-33.150001525878906,-21.0,-23.25
2.25,85.31019592285156,35.97048568725586,-41.83149337768555,88.19908142089844,-1.0658499002456665,-31.042879104614258,-32.25,-21.150001525878906,-22.350000381469727
2.27,86.34449005126953,29.266721725463867,-40.873809814453125,74.60948944091797,-9.992342948913574,-53.558956146240234,-32.400001525878906,-20.25,-24.0
2.273,87.9533920288086,22.639572143554688,-34.476505279541016,52.75957107543945,-53.558956146240234,-86.20060729980469,-32.25,-19.650001525878906,-23.850000381469727
2.28,86.68925476074219,16.127342224121094,-28.653806686401367,37.97090148925781,-71.01225280761719,-108.3169937133789,-32.25,-19.650001525878906,-23.850000381469727
2.29,84.9654312133789,15.974113464355469,-32.21637725830078,17.586523056030273,-79.67227935791016,-146.82083129882812,-32.55000305175781,-20.100000381469727,-24.150001525878906
2.3,81.4028549194336,20.685903549194336,-38.65199279785156,0.39969372749328613,-88.46553802490234,-161.07656860351562,-33.0,-19.650001525878906,-23.850000381469727
2.31,77.30398559570312,23.290794372558594,-37.88584899902344,-5.595712184906006,-98.4578857421875,-178.6630859375,-30.900001525878906,-18.75,-23.700000762939453
2.329,74.81401824951172,20.76251792907715,-43.478702545166016,-7.9938740730285645,-96.99234008789062,-209.3062744140625,-30.900001525878906,-18.75,-23.700000762939453
2.332,76.76768493652344,22.17988395690918,-39.80120849609375,-3.197549819946289,-97.12557220458984,-236.21897888183594,-30.900001525878906,-16.80000114440918,-26.250001907348633
2.34,81.55608367919922,23.02264404296875,-35.31926345825195,4.529861927032471,-105.25267791748047,-240.34915161132812,-30.900001525878906,-16.80000114440918,-26.250001907348633
2.35,82.5137710571289,23.252487182617188,-30.530860900878906,4.929555892944336,-119.24195861816406,-256.3369140625,-31.500001907348633,-16.200000762939453,-26.100000381469727
2.36,85.27188873291016,23.21417999267578,-27.27474594116211,-0.5329249501228333,-116.84379577636719,-262.06585693359375,-31.500001907348633,-16.200000762939453,-26.100000381469727
2.37,90.59659576416016,24.631547927856445,-25.933992385864258,4.663093090057373,-131.0995330810547,-256.86981201171875,-31.500001907348633,-16.200000762939453,-26.100000381469727
2.389,95.00192260742188,24.171859741210938,-25.972299575805664,19.31852912902832,-138.02755737304688,-263.66461181640625,-30.30000114440918,-13.050000190734863,-28.650001525878906
2.394,96.07452392578125,23.252487182617188,-24.478317260742188,23.448698043823242,-141.89126586914062,-276.32159423828125,-30.30000114440918,-11.850000381469727,-28.950000762939453
2.4,99.71371459960938,22.984336853027344,-25.129541397094727,34.24042892456055,-142.5574188232422,-279.6523742675781,-27.450000762939453,-11.40000057220459,-28.80000114440918
2.41,99.8286361694336,23.75048065185547,-23.980323791503906,41.30168533325195,-154.54823303222656,-294.8407287597656,-27.450000762939453,-11.40000057220459,-28.80000114440918
2.42,101.55245971679688,23.13756561279297,-22.256498336791992,52.226646423339844,-163.74119567871094,-286.84686279296875,-28.500001907348633,-10.350000381469727,-29.400001525878906
2.43,99.75202178955078,21.222204208374023,-21.45204734802246,36.5053596496582,-163.0750274658203,-292.0428771972656,-26.55000114440918,-10.050000190734863,-28.950000762939453
2.449,97.07051086425781,17.00840950012207,-19.268535614013672,18.78560447692871,-166.40582275390625,-294.0413513183594,-27.150001525878906,-10.200000762939453,-30.600000381469727
2.453,93.3547134399414,14.211980819702148,-18.34916114807129,-16.12097930908203,-167.6049041748047,-298.5711975097656,-27.450000762939453,-8.25,-31.350000381469727
2.46,88.10662078857422,11.836933135986328,-16.35718536376953,-33.17457962036133,-156.81317138671875,-295.6401062011719,-27.450000762939453,-8.25,-31.350000381469727
2.47,85.5783462524414,10.457873344421387,-15.361198425292969,-50.76110076904297,-151.75038146972656,-306.2986145019531,-27.450000762939453,-8.25,-31.350000381469727
2.48,83.0500717163086,11.91354751586914,-14.556746482849121,-61.68606185913086,-158.0122528076172,-309.2297058105469,-24.900001525878906,-5.850000381469727,-34.650001525878906
2.49,80.8665542602539,14.595053672790527,-14.901511192321777,-67.14854431152344,-155.08116149902344,-308.69677734375,-24.150001525878906,-4.350000381469727,-33.60000228881836
2.509,78.9511947631836,16.778566360473633,-17.276559829711914,-59.15467071533203,-143.62327575683594,-308.69677734375,-23.25,-2.25,-34.20000076293945
2.512,80.59840393066406,19.49837875366211,-18.808849334716797,-51.560489654541016,-146.1546630859375,-311.2281799316406,-23.25,-2.25,-34.20000076293945
2.52,81.55608367919922,21.337125778198242,-18.04270362854004,-43.16691970825195,-144.1562042236328,-315.4915771484375,-23.25,-2.25,-34.20000076293945
2.53,82.0923843383789,20.264522552490234,-17.046716690063477,-48.22970962524414,-139.89280700683594,-317.22357177734375,-21.150001525878906,-0.15000000596046448,-35.10000228881836
2.54,83.89282989501953,20.64759635925293,-16.012420654296875,-56.756507873535156,-139.6263427734375,-316.55743408203125,-19.5,-0.30000001192092896,-36.30000305175781
2.55,81.4794692993164,18.655620574951172,-14.480132102966309,-49.16232681274414,-158.27871704101562,-296.3062744140625,-17.55000114440918,1.0500000715255737,-36.0
2.569,79.10442352294922,18.502389907836914,-15.476119995117188,-52.493106842041016,-145.2220458984375,-283.11639404296875,-17.700000762939453,0.15000000596046448,-34.650001525878906
2.573,75.84831237792969,20.992361068725586,-16.89348793029785,-61.81929397583008,-130.83306884765625,-276.4548034667969,-17.700000762939453,0.15000000596046448,-34.650001525878906
2.58,73.7031021118164,21.98834800720215,-17.697938919067383,-60.48698043823242,-128.83460998535156,-269.9264831542969,-18.150001525878906,2.1000001430511475,-36.60000228881836
2.59,71.7877426147461,21.413740158081055,-18.732234954833984,-45.298622131347656,-124.03828430175781,-244.612548828125,-16.5,3.450000047683716,-37.80000305175781
2.6,67.99533081054688,23.558944702148438,-20.95405387878418,-47.56355285644531,-104.5865249633789,-247.54364013671875,-14.250000953674316,4.200000286102295,-35.55000305175781
2.61,69.02962493896484,23.903709411621094,-20.034679412841797,-38.90352249145508,-98.59111785888672,-243.5467071533203,-15.300000190734863,4.200000286102295,-36.30000305175781
2.626,66.9227294921875,22.103269577026367,-20.149600982666016,-33.30780792236328,-93.39509582519531,-224.3614044189453,-15.300000190734863,4.200000286102295,-36.30000305175781
2.63,67.07595825195312,20.532672882080078,-17.046716690063477,-42.500762939453125,-89.39816284179688,-225.02755737304688,-13.950000762939453,5.100000381469727,-38.400001525878906
2.64,66.61626434326172,21.605276107788086,-17.353174209594727,-49.82848358154297,-87.66615295410156,-220.36447143554688,-12.90000057220459,5.100000381469727,-36.60000228881836
2.65,64.24121856689453,19.421764373779297,-15.361198425292969,-47.830013275146484,-96.99234008789062,-209.83920288085938,-12.0,6.900000095367432,-37.05000305175781
2.66,61.559715270996094,20.76251792907715,-15.667655944824219,-57.422664642333984,-100.45635223388672,-209.83920288085938,-10.950000762939453,5.550000190734863,-37.650001525878906
2.67,58.839900970458984,23.865402221679688,-17.468095779418945,-65.68299865722656,-93.66156005859375,-207.30780029296875,-10.950000762939453,5.550000190734863,-37.650001525878906
2.689,56.15839385986328,24.401702880859375,-20.800825119018555,-44.23276901245117,-84.86830139160156,-195.5834503173828,-10.65000057220459,9.0,-38.70000076293945
2.693,52.67243576049805,29.113492965698242,-21.37543296813965,-50.36140823364258,-74.20980072021484,-205.04287719726562,-10.65000057220459,9.0,-38.70000076293945
2.7,51.71475601196289,28.002582550048828,-22.06496238708496,-37.304744720458984,-71.94486999511719,-190.65390014648438,-9.450000762939453,8.25,-36.60000228881836
2.71,50.71876907348633,27.964275360107422,-22.524648666381836,-25.980091094970703,-57.422664642333984,-190.65390014648438,-9.300000190734863,9.15000057220459,-36.30000305175781
2.72,51.44660568237305,29.15180015563965,-25.70414924621582,-7.9938740730285645,-49.16232681274414,-170.0030517578125,-8.40000057220459,9.0,-36.60000228881836
2.738,49.837703704833984,30.645782470703125,-25.780763626098633,9.592649459838867,-42.23430252075195,-166.80551147460938,-8.40000057220459,9.0,-36.60000228881836
2.742,48.99494171142578,29.84132957458496,-26.738445281982422,11.324655532836914,-26.513015747070312,-166.2725830078125,-8.25,10.050000190734863,-37.05000305175781
2.751,49.3397102355957,29.688100814819336,-25.09123420715332,9.859111785888672,-23.04900360107422,-146.82083129882812,-6.450000286102295,8.700000762939453,-36.900001525878906
2.76,49.45463180541992,27.925968170166016,-23.099258422851562,-19.052066802978516,-32.77488327026367,-158.14547729492188,-6.900000095367432,7.800000190734863,-37.95000076293945
2.77,49.109867095947266,22.90772247314453,-20.149600982666016,-27.578866958618164,-39.9693717956543,-157.0796356201172,-7.800000190734863,9.600000381469727,-36.75
2.78,45.585601806640625,23.558944702148438,-19.460071563720703,-44.36600112915039,-48.62940216064453,-134.29708862304688,-7.800000190734863,9.600000381469727,-36.75
2.799,44.47468948364258,26.43198585510254,-23.673866271972656,-57.289432525634766,-41.30168533325195,-125.50382232666016,-6.300000190734863,11.100000381469727,-37.05000305175781
2.803,43.172245025634766,33.40390396118164,-28.61549949645996,-55.29096221923828,-28.644716262817383,-108.050537109375,-4.050000190734863,9.600000381469727,-38.25
2.81,39.226600646972656,37.15800857543945,-33.59543991088867,-48.76263427734375,-18.385910034179688,-102.05513000488281,-4.800000190734863,12.750000953674316,-36.75
2.82,36.8132438659668,39.035064697265625,-32.905906677246094,-23.448698043823242,-16.78713607788086,-93.52832794189453,-3.450000047683716,10.5,-37.95000076293945
2.83,32.484527587890625,40.83550262451172,-30.837318420410156,11.324655532836914,-9.592649459838867,-82.86982727050781,-3.450000047683716,10.5,-37.95000076293945
2.84,31.335311889648438,39.60967254638672,-30.0711727142334,34.10719680786133,-4.130168437957764,-73.81010437011719,-5.25,10.800000190734863,-38.55000305175781
2.858,28.92195701599121,38.46045684814453,-27.313053131103516,44.63246536254883,-0.1332312375307083,-69.54670715332031,-3.9000000953674316,12.90000057220459,-37.20000076293945
2.862,27.925968170166016,34.70634841918945,-26.393678665161133,67.814697265625,1.1990811824798584,-62.618682861328125,-3.750000238418579,11.100000381469727,-37.5
2.87,26.54690933227539,36.27694320678711,-26.048913955688477,80.20520782470703,-6.5283308029174805,-50.62786865234375,-4.200000286102295,10.200000762939453,-36.150001525878906
2.88,25.51261329650879,34.51481246948242,-26.929981231689453,79.80551147460938,1.7320060729980469,-46.63093185424805,-4.200000286102295,10.200000762939453,-36.150001525878906
2.89,24.36339569091797,31.60346221923828,-29.611486434936523,85.00152587890625,5.728943347930908,-36.905052185058594,-4.800000190734863,12.300000190734863,-38.55000305175781
2.9,25.167848587036133,30.837318420410156,-30.645782470703125,89.7978515625,-4.263399600982666,-25.7136287689209,-4.200000286102295,11.700000762939453,-36.150001525878906
2.919,23.597251892089844,30.91393280029297,-30.875625610351562,84.20214080810547,4.130168437957764,-11.457886695861816,-2.700000047683716,11.40000057220459,-37.20000076293945
2.923,24.05693817138672,30.645782470703125,-28.92195701599121,65.81623077392578,4.529861927032471,8.793261528015137,-3.9000000953674316,9.0,-38.400001525878906
2.93,27.77273941040039,28.998571395874023,-26.393678665161133,65.54976654052734,7.9938740730285645,19.31852912902832,-3.9000000953674316,9.0,-38.400001525878906
2.94,30.14778709411621,29.305028915405273,-28.270732879638672,47.830013275146484,11.591117858886719,39.16998291015625,-3.9000000953674316,9.0,-38.400001525878906
2.95,32.982521057128906,31.90991973876953,-27.925968170166016,34.64012145996094,18.119447708129883,49.69525146484375,-3.750000238418579,9.600000381469727,-36.75
2.96,36.430171966552734,34.93619155883789,-28.270732879638672,39.70290756225586,19.85145378112793,71.2787094116211,-3.450000047683716,9.75,-38.70000076293945
2.978,42.674251556396484,36.46847915649414,-30.79901123046875,43.96630859375,22.649311065673828,101.12251281738281,-4.050000190734863,11.100000381469727,-38.55000305175781
2.983,46.73481750488281,38.422149658203125,-34.62973403930664,57.822357177734375,34.50688934326172,134.5635528564453,-5.25,10.800000190734863,-36.30000305175781
2.99,52.51920700073242,43.51700973510742,-37.043087005615234,57.822357177734375,49.82848358154297,146.9540557861328,-5.25,10.800000190734863,-36.30000305175781
3.0,55.12409973144531,42.7508659362793,-38.728607177734375,80.07197570800781,53.29249572753906,162.40887451171875,-5.700000286102295,8.700000762939453,-39.150001525878906
3.01,54.702720642089844,37.617698669433594,-39.341522216796875,102.18836212158203,66.74884796142578,172.93414306640625,-3.9000000953674316,7.800000190734863,-37.650001525878906
3.02,55.23902130126953,32.86759948730469,-35.54910659790039,94.86064147949219,77.67381286621094,178.6630859375,-5.25,7.650000095367432,-39.0
3.039,58.112064361572266,33.288978576660156,-36.88985824584961,76.4747314453125,82.6033706665039,192.51913452148438,-6.750000476837158,8.40000057220459,-37.5
3.043,61.29156494140625,33.557132720947266,-38.80522155761719,53.558956146240234,96.05972290039062,207.4410400390625,-6.150000095367432,7.050000190734863,-37.95000076293945
3.05,62.172630310058594,35.24264907836914,-43.70854568481445,43.56661605834961,98.19142150878906,228.6248016357422,-6.150000095367432,7.050000190734863,-37.95000076293945
3.06,59.72096633911133,35.47249221801758,-43.4020881652832,31.44257164001465,110.04900360107422,238.75038146972656,-9.0,6.450000286102295,-39.30000305175781
3.07,59.91250228881836,35.28095626831055,-42.7891731262207,26.246553421020508,113.24655151367188,260.7335205078125,-8.700000762939453,6.300000190734863,-36.900001525878906
3.08,66.38642120361328,34.170047760009766,-42.367794036865234,18.78560447692871,114.71209716796875,267.39508056640625,-8.700000762939453,5.100000381469727,-36.150001525878906
3.099,75.38862609863281,33.82528305053711,-40.988731384277344,4.529861927032471,128.43490600585938,282.050537109375,-8.700000762939453,5.100000381469727,-36.150001525878906
3.103,84.65897369384766,36.46847915649414,-43.51700973510742,5.196018218994141,130.03369140625,311.2281799316406,-11.550000190734863,3.450000047683716,-39.30000305175781
3.11,93.46963500976562,40.91211700439453,-46.504974365234375,6.395099639892578,131.7657012939453,315.22509765625,-11.550000190734863,3.450000047683716,-39.30000305175781
3.12,94.46562194824219,41.25688552856445,-45.164222717285156,-3.0643184185028076,138.42726135253906,323.218994140625,-13.050000190734863,4.5,-36.75
3.13,93.16317749023438,42.48271560668945,-47.34773254394531,-3.3307809829711914,137.8943328857422,330.1470031738281,-12.450000762939453,3.1500000953674316,-37.95000076293945
3.14,91.59258270263672,44.66622543334961,-51.982906341552734,10.92496109008789,135.22970581054688,346.4012145996094,-12.450000762939453,3.1500000953674316,-37.95000076293945
3.159,89.75382995605469,44.16823196411133,-53.170433044433594,14.92189884185791,141.4915771484375,340.13934326171875,-12.450000762939453,3.1500000953674316,-37.95000076293945
3.163,89.98367309570312,41.90810775756836,-54.12811279296875,9.72588062286377,158.0122528076172,326.81622314453125,-16.5,0.30000001192092896,-35.55000305175781
3.17,88.33646392822266,38.49876403808594,-54.281341552734375,15.987748146057129,158.67840576171875,328.814697265625,-16.5,0.30000001192092896,-35.55000305175781
3.18,88.79615020751953,39.341522216796875,-52.595821380615234,15.055130004882812,155.747314453125,327.4823913574219,-17.55000114440918,0.0,-35.25
3.19,87.83847045898438,36.96647262573242,-52.3659782409668,17.852985382080078,171.20213317871094,298.97088623046875,-18.900001525878906,-1.6500000953674316,-33.60000228881836
3.2,85.27188873291016,37.11970138549805,-52.480899810791016,38.77029037475586,174.26646423339844,287.646240234375,-18.900001525878906,-1.6500000953674316,-33.60000228881836
3.219,86.61264038085938,36.08540725708008,-43.86177444458008,44.09954071044922,154.814697265625,288.3124084472656,-20.700000762939453,-2.4000000953674316,-32.10000228881836
3.223,88.48969268798828,32.25468444824219,-42.367794036865234,27.978559494018555,142.69065856933594,272.9908142089844,-23.55000114440918,-3.750000238418579,-33.45000076293945
3.23,87.3787841796875,31.756690979003906,-46.73481750488281,16.25421142578125,145.88819885253906,269.6600341796875,-23.55000114440918,-4.950000286102295,-33.0
3.24,86.38279724121094,32.21637725830078,-46.619895935058594,-1.5987749099731445,148.95252990722656,261.9326171875,-23.55000114440918,-4.950000286102295,-33.0
3.25,81.90084838867188,31.450233459472656,-46.504974365234375,-2.9310872554779053,131.23277282714844,264.9969177246094,-24.0,-5.700000286102295,-31.950000762939453
3.26,78.9511947631836,28.155811309814453,-48.037261962890625,-9.72588062286377,136.9617156982422,252.07350158691406,-23.55000114440918,-7.650000095367432,-31.950000762939453
3.279,75.38862609863281,31.22039031982422,-46.54328155517578,-24.64777946472168,140.02603149414062,247.8101043701172,-25.05000114440918,-7.200000286102295,-32.25
3.283,72.59219360351562,29.03687858581543,-44.704532623291016,-40.36906433105469,132.16539001464844,229.82388305664062,-24.450000762939453,-9.0,-31.80000114440918
3.29,68.1485595703125,25.28277015686035,-48.11387634277344,-29.7105655670166,137.8943328857422,218.76568603515625,-24.450000762939453,-9.0,-31.80000114440918
3.3,65.2755126953125,31.373619079589844,-45.35575866699219,-14.12251091003418,139.89280700683594,206.24195861816406,-25.80000114440918,-9.600000381469727,-31.500001907348633
3.31,64.81582641601562,36.2386360168457,-42.29117965698242,-12.656967163085938,135.76263427734375,202.24502563476562,-25.950000762939453,-10.200000762939453,-29.55000114440918
3.32,66.23319244384766,28.38565444946289,-40.03105163574219,-9.059723854064941,129.36753845214844,195.45022583007812,-25.950000762939453,-9.0,-30.600000381469727
3.34,62.977081298828125,26.163835525512695,-37.234622955322266,-11.324655532836914,136.0290985107422,185.32464599609375,-27.000001907348633,-12.750000953674316,-28.650001525878906
3.343,60.41049575805664,27.696125030517578,-36.123714447021484,-13.189892768859863,134.03062438964844,179.0627899169922,-27.000001907348633,-12.750000953674316,-28.650001525878906
3.35,58.99312973022461,28.155811309814453,-36.928165435791016,-1.5987749099731445,124.97090148925781,175.7320098876953,-28.05000114440918,-11.550000190734863,-27.900001525878906
3.36,60.44880294799805,27.964275360107422,-36.27694320678711,9.059723854064941,121.64012145996094,181.3277130126953,-28.950000762939453,-13.65000057220459,-27.000001907348633
3.37,61.67463684082031,27.389667510986328,-35.97048568725586,18.2526798248291,121.77335357666016,160.6768798828125,-29.250001907348633,-13.500000953674316,-28.650001525878906
3.38,62.057708740234375,30.0711727142334,-37.73262023925781,35.17304611206055,114.17916870117188,154.6814727783203,-29.400001525878906,-13.200000762939453,-27.750001907348633
3.399,63.13031005859375,32.484527587890625,-37.88584899902344,54.22511291503906,97.25880432128906,156.94639587402344,-30.000001907348633,-14.250000953674316,-27.450000762939453
3.403,60.985107421875,30.339323043823242,-37.656005859375,56.49004364013672,91.66309356689453,147.4869842529297,-30.000001907348633,-14.250000953674316,-27.450000762939453
3.41,58.9165153503418,25.780763626098633,-36.08540725708008,56.22358322143555,89.93108367919922,138.02755737304688,-30.750001907348633,-16.200000762939453,-26.400001525878906
3.42,57.03946304321289,23.099258422851562,-36.54509353637695,52.3598747253418,80.73812866210938,139.2266387939453,-30.150001525878906,-17.100000381469727,-26.55000114440918
3.43,55.0474853515625,22.37141990661621,-36.69832229614258,42.633995056152344,86.86676788330078,133.09800720214844,-30.30000114440918,-16.5,-24.150001525878906
3.44,53.40027618408203,20.877439498901367,-36.46847915649414,21.583459854125977,93.12863159179688,116.9770278930664,-30.000001907348633,-18.900001525878906,-25.350000381469727
3.459,53.89826965332031,19.345149993896484,-37.34954833984375,10.258805274963379,79.53904724121094,103.65390014648438,-30.000001907348633,-18.900001525878906,-25.350000381469727
3.463,54.396263122558594,18.4257755279541,-37.00477981567383,-5.329249382019043,73.9433364868164,94.46094512939453,-30.750001907348633,-18.450000762939453,-24.600000381469727
3.47,56.57977294921875,17.42978858947754,-32.982521057128906,-15.321592330932617,61.28636932373047,79.67227935791016,-31.500001907348633,-19.200000762939453,-24.600000381469727
3.48,57.84391403198242,15.705963134765625,-31.182083129882812,-35.439510345458984,48.49617004394531,71.41194152832031,-30.450000762939453,-17.850000381469727,-24.0
3.49,56.19670104980469,18.617311477661133,-31.52684783935547,-50.62786865234375,32.64165496826172,74.34303283691406,-30.30000114440918,-19.200000762939453,-23.55000114440918
3.5,52.21274948120117,21.835119247436523,-33.17405700683594,-58.08882141113281,25.447166442871094,76.4747314453125,-30.30000114440918,-19.200000762939453,-23.55000114440918
3.519,47.76911163330078,23.060951232910156,-34.13174057006836,-65.016845703125,32.90811538696289,63.950992584228516,-31.80000114440918,-18.450000762939453,-24.150001525878906
3.522,46.46666717529297,24.018630981445312,-34.93619155883789,-45.831546783447266,37.304744720458984,60.62021255493164,-32.400001525878906,-20.55000114440918,-23.25
3.53,46.198516845703125,24.631547927856445,-38.2689208984375,-22.116384506225586,36.10566711425781,54.091880798339844,-31.500001907348633,-18.900001525878906,-24.900001525878906
3.54,46.504974365234375,23.63555908203125,-37.11970138549805,-2.6646246910095215,43.43338394165039,53.558956146240234,-31.200000762939453,-17.55000114440918,-23.25
3.55,47.922340393066406,23.405715942382812,-38.76691436767578,24.381317138671875,49.42878723144531,32.5084228515625,-31.200000762939453,-17.55000114440918,-23.25
3.56,51.1784553527832,24.9763126373291,-36.35355758666992,51.29402542114258,47.9632453918457,35.306278228759766,-32.25,-19.650001525878906,-23.100000381469727
3.579,53.63011932373047,26.12552833557129,-33.82528305053711,74.60948944091797,47.430320739746094,37.83767318725586,-31.650001525878906,-20.25,-22.5
3.583,55.085792541503906,24.708162307739258,-32.369606018066406,83.93567657470703,51.82695007324219,31.842266082763672,-32.70000076293945,-19.80000114440918,-21.450000762939453
3.59,59.41450881958008,18.081010818481445,-30.339323043823242,88.46553802490234,34.64012145996094,49.29555892944336,-32.55000305175781,-19.650001525878906,-20.100000381469727
3.6,60.87018585205078,16.931795120239258,-27.696125030517578,74.74272155761719,31.575803756713867,45.831546783447266,-32.55000305175781,-19.650001525878906,-20.100000381469727
3.61,65.19889831542969,14.748282432556152,-24.861391067504883,40.23583221435547,22.649311065673828,37.17151641845703,-31.200000762939453,-21.75,-21.450000762939453
3.62,70.6385269165039,13.943830490112305,-24.746469497680664,13.58958625793457,8.39356803894043,42.90045928955078,-33.0,-21.150001525878906,-20.55000114440918
3.639,72.01758575439453,13.177685737609863,-24.823083877563477,-3.597243309020996,-5.062787055969238,59.95405578613281,-32.25,-21.150001525878906,-22.05000114440918
3.642,73.81802368164062,11.1474027633667,-26.01060676574707,-27.445634841918945,-3.0643184185028076,50.62786865234375,-31.950000762939453,-21.450000762939453,-22.200000762939453
3.65,78.26166534423828,13.48414421081543,-28.768728256225586,-27.84532928466797,-7.594180583953857,36.905052185058594,-33.30000305175781,-21.900001525878906,-21.30000114440918
3.66,85.00373840332031,14.250288963317871,-31.067161560058594,-22.51607894897461,-16.78713607788086,17.32006072998047,-33.30000305175781,-21.900001525878906,-21.30000114440918
3.67,92.78010559082031,19.07699966430664,-30.14778709411621,0.0,-32.90811538696289,16.920366287231445,-32.400001525878906,-21.450000762939453,-21.150001525878906
3.68,105.03841400146484,22.639572143554688,-28.309040069580078,0.5329249501228333,-47.297088623046875,-13.189892768859863,-32.55000305175781,-23.100000381469727,-22.05000114440918
3.7,115.26644897460938,22.83110809326172,-27.15982437133789,-11.324655532836914,-66.61561584472656,7.72741174697876,-32.25,-21.900001525878906,-20.55000114440918
3.704,111.70387268066406,19.651607513427734,-26.393678665161133,-31.842266082763672,-89.66461944580078,-31.575803756713867,-31.80000114440918,-21.150001525878906,-22.05000114440918
3.71,106.03440856933594,18.310853958129883,-27.964275360107422,-47.830013275146484,-91.79632568359375,-39.9693717956543,-31.80000114440918,-21.150001525878906,-22.05000114440918
3.72,100.13509368896484,17.1999454498291,-27.15982437133789,-77.54058074951172,-86.20060729980469,-66.48238372802734,-31.950000762939453,-20.25,-22.200000762939453
3.73,93.62286376953125,16.242263793945312,-28.998571395874023,-89.13169860839844,-90.4640121459961,-87.66615295410156,-32.400001525878906,-20.55000114440918,-23.25
3.74,87.03401947021484,17.468095779418945,-30.415939331054688,-88.06584930419922,-78.60643005371094,-108.45022583007812,-32.55000305175781,-20.100000381469727,-23.850000381469727
3.759,85.46342468261719,20.685903549194336,-33.17405700683594,-84.60183715820312,-68.74732208251953,-128.3016815185547,-31.80000114440918,-19.650001525878906,-22.350000381469727
3.763,88.14492797851562,22.37141990661621,-33.82528305053711,-66.74884796142578,-64.75038146972656,-151.35069274902344,-31.80000114440918,-19.650001525878906,-22.350000381469727
3.77,93.81439971923828,26.240449905395508,-34.897884368896484,-55.29096221923828,-69.67993927001953,-163.87442016601562,-30.000001907348633,-18.150001525878906,-22.350000381469727
3.78,96.18944549560547,29.190107345581055,-36.04710006713867,-39.70290756225586,-70.21286010742188,-179.9954071044922,-31.80000114440918,-18.450000762939453,-22.80000114440918
3.79,99.36894989013672,34.284969329833984,-32.56114196777344,-17.852985382080078,-80.60489654541016,-180.3950958251953,-30.750001907348633,-16.5,-23.850000381469727
3.8,102.12706756591797,35.35757064819336,-32.71437072753906,7.460949420928955,-98.05818939208984,-179.86216735839844,-30.750001907348633,-16.5,-24.900001525878906
3.82,105.19164276123047,34.24666213989258,-32.292991638183594,21.45022964477539,-110.98162078857422,-187.98927307128906,-30.750001907348633,-16.5,-24.900001525878906
3.823,105.49810028076172,26.738445281982422,-31.10546875,13.58958625793457,-108.71669006347656,-199.84686279296875,-30.450000762939453,-14.100000381469727,-25.80000114440918
3.83,103.19966888427734,24.823083877563477,-30.99054718017578,4.396630764007568,-106.58499145507812,-206.6416473388672,-30.450000762939453,-14.100000381469727,-25.80000114440918
3.84,102.85490417480469,23.3291015625,-31.948226928710938,-5.462480545043945,-114.97856140136719,-201.0459442138672,-29.55000114440918,-15.450000762939453,-24.600000381469727
3.85,102.08876037597656,23.980323791503906,-33.212364196777344,-20.784072875976562,-102.98774719238281,-216.76722717285156,-28.650001525878906,-12.90000057220459,-24.750001907348633
3.86,98.64111328125,23.060951232910156,-34.476505279541016,-43.83307647705078,-104.5865249633789,-228.4915771484375,-30.150001525878906,-13.200000762939453,-26.55000114440918
3.879,96.11283111572266,22.90772247314453,-32.10145568847656,-47.163856506347656,-107.78407287597656,-226.49310302734375,-30.150001525878906,-13.200000762939453,-26.55000114440918
3.883,95.34668731689453,25.09123420715332,-29.381643295288086,-67.28177642822266,-103.25421142578125,-234.62020874023438,-28.200000762939453,-10.950000762939453,-27.750001907348633
3.89,90.97966766357422,25.81907081604004,-29.4582576751709,-74.47626495361328,-102.8545150756836,-242.48085021972656,-28.200000762939453,-10.950000762939453,-27.750001907348633
3.9,89.60060119628906,25.014619827270508,-29.994558334350586,-69.94640350341797,-98.99080657958984,-257.5359802246094,-28.500001907348633,-10.050000190734863,-28.650001525878906
3.91,87.22555541992188,26.12552833557129,-29.34333610534668,-61.28636932373047,-109.38284301757812,-268.7274169921875,-26.700000762939453,-9.75,-28.500001907348633
3.92,83.77790832519531,24.401702880859375,-26.585216522216797,-47.696781158447266,-108.983154296875,-278.5865173339844,-26.700000762939453,-9.75,-28.500001907348633
3.939,80.13871765136719,24.05693817138672,-26.66183090209961,-49.69525146484375,-103.92036437988281,-289.37823486328125,-25.500001907348633,-6.450000286102295,-29.400001525878906
3.943,71.28974914550781,18.04270362854004,-27.811046600341797,-39.03675079345703,-114.3124008178711,-293.37518310546875,-23.700000762939453,-6.300000190734863,-29.55000114440918
3.95,70.25545501708984,18.502389907836914,-25.972299575805664,-40.36906433105469,-115.37825012207031,-302.16845703125,-23.700000762939453,-6.300000190734863,-29.55000114440918
3.96,67.03765106201172,18.923770904541016,-24.286781311035156,-56.09035110473633,-108.983154296875,-310.0290832519531,-24.900001525878906,-4.350000381469727,-30.600000381469727
3.97,63.13031005859375,17.544710159301758,-22.141576766967773,-63.151607513427734,-106.58499145507812,-323.4854431152344,-24.900001525878906,-4.350000381469727,-30.600000381469727
3.98,56.005165100097656,15.054739952087402,-24.13355255126953,-67.41500854492188,-110.98162078857422,-316.0245056152344,-22.650001525878906,-3.6000001430511475,-30.600000381469727
3.993,53.32366180419922,16.1656494140625,-23.980323791503906,-60.08728790283203,-101.65543365478516,-320.1546630859375,-20.400001525878906,-0.45000001788139343,-30.600000381469727
4.0,50.83369064331055,22.524648666381836,-24.89969825744629,-58.222049713134766,-88.06584930419922,-318.5558776855469,-20.400001525878906,-0.45000001788139343,-30.600000381469727
4.01,50.79538345336914,26.355371475219727,-26.393678665161133,-34.24042892456055,-96.19295501708984,-315.22509765625,-22.950000762939453,-0.15000000596046448,-31.05000114440918
4.02,52.02121353149414,28.270732879638672,-27.044902801513672,-2.6646246910095215,-85.80091857910156,-301.5022888183594,-22.950000762939453,-0.15000000596046448,-31.05000114440918
4.03,54.20472717285156,27.236438751220703,-27.46628189086914,9.72588062286377,-78.3399658203125,-314.5589599609375,-19.80000114440918,0.30000001192092896,-31.950000762939453
4.04,57.499149322509766,27.313053131103516,-26.2021427154541,21.84992218017578,-88.865234375,-302.8345947265625,-18.900001525878906,1.350000023841858,-31.350000381469727
4.058,58.38021469116211,24.746469497680664,-22.754493713378906,36.771820068359375,-122.83920288085938,-282.1837463378906,-18.0,4.200000286102295,-33.45000076293945
4.061,59.41450881958008,21.0689754486084,-21.98834800720215,31.975496292114258,-115.37825012207031,-289.64471435546875,-17.25,1.8000000715255737,-33.0
4.07,56.541465759277344,22.333112716674805,-22.524648666381836,23.315465927124023,-124.17151641845703,-272.4578857421875,-17.25,1.8000000715255737,-33.0
4.08,54.281341552734375,22.524648666381836,-25.321077346801758,17.32006072998047,-127.76875305175781,-241.9479217529297,-17.25,1.8000000715255737,-33.0
4.09,51.676448822021484,21.45204734802246,-26.393678665161133,4.663093090057373,-129.6339874267578,-231.95558166503906,-14.250000953674316,4.5,-33.75
4.108,50.87199783325195,21.26051139831543,-26.66183090209961,-17.719755172729492,-115.91117858886719,-226.09341430664062,-12.90000057220459,4.350000381469727,-33.60000228881836
4.112,50.48892593383789,20.341136932373047,-26.240449905395508,-34.373661041259766,-110.18223571777344,-219.0321502685547,-12.15000057220459,6.300000190734863,-33.900001525878906
4.12,48.458641052246094,20.609289169311523,-28.998571395874023,-29.977027893066406,-112.98008728027344,-205.5758056640625,-12.15000057220459,6.300000190734863,-33.900001525878906
4.13,46.73481750488281,21.796812057495117,-29.03687858581543,-36.10566711425781,-104.18682861328125,-201.0459442138672,-11.550000190734863,6.450000286102295,-33.45000076293945
4.14,44.85776138305664,20.685903549194336,-27.504589080810547,-35.972434997558594,-105.91883087158203,-201.578857421875,-10.65000057220459,7.050000190734863,-34.650001525878906
4.15,44.66622543334961,21.835119247436523,-27.46628189086914,-21.84992218017578,-126.83613586425781,-194.51760864257812,-9.450000762939453,7.500000476837158,-34.35000228881836
4.16,44.398075103759766,23.405715942382812,-26.393678665161133,-15.588054656982422,-136.56201171875,-166.40582275390625,-9.450000762939453,7.050000190734863,-35.10000228881836
4.178,43.785160064697266,21.56696891784668,-23.980323791503906,-29.7105655670166,-142.15773010253906,-137.62786865234375,-9.450000762939453,7.050000190734863,-35.10000228881836
4.181,47.07958221435547,19.80483627319336,-26.43198585510254,-40.635528564453125,-136.0290985107422,-137.3614044189453,-8.550000190734863,8.850000381469727,-33.75
4.19,47.002967834472656,20.379444122314453,-27.619510650634766,-44.36600112915039,-130.56661987304688,-110.848388671875,-7.050000190734863,7.650000095367432,-35.55000305175781
4.2,51.1401481628418,24.554933547973633,-28.462270736694336,-49.29555892944336,-116.44409942626953,-74.20980072021484,-7.800000190734863,8.100000381469727,-34.20000076293945
4.21,57.03946304321289,27.925968170166016,-32.71437072753906,-53.69218826293945,-88.33231353759766,-54.091880798339844,-5.25,10.350000381469727,-35.25
4.228,63.01538848876953,31.028854370117188,-34.476505279541016,-41.701377868652344,-67.28177642822266,-17.719755172729492,-5.25,10.350000381469727,-35.25
4.232,65.65858459472656,33.557132720947266,-36.27694320678711,-32.77488327026367,-27.045940399169922,18.519142150878906,-4.650000095367432,9.0,-34.650001525878906
4.24,62.63231658935547,35.702335357666016,-35.77894973754883,-12.656967163085938,-10.392036437988281,25.846860885620117,-5.400000095367432,9.0,-34.650001525878906
4.25,61.023414611816406,33.90189743041992,-36.35355758666992,8.260336875915527,7.460949420928955,51.027565002441406,-4.650000095367432,9.75,-36.150001525878906
4.26,62.63231658935547,31.7183837890625,-37.809234619140625,22.249616622924805,13.189892768859863,67.28177642822266,-5.400000095367432,11.40000057220459,-34.35000228881836
4.27,63.36015319824219,32.86759948730469,-37.57939147949219,27.445634841918945,16.25421142578125,80.07197570800781,-5.400000095367432,11.40000057220459,-34.35000228881836
4.28,62.862159729003906,33.02082824707031,-37.00477981567383,31.575803756713867,24.781009674072266,86.20060729980469,-5.400000095367432,11.40000057220459,-34.35000228881836
4.293,61.10002899169922,29.803022384643555,-35.31926345825195,35.57273864746094,12.656967163085938,92.3292465209961,-4.650000095367432,9.0,-35.400001525878906
4.3,56.2733154296875,24.018630981445312,-43.55531692504883,36.10566711425781,13.58958625793457,85.53445434570312,-4.800000190734863,7.650000095367432,-35.25
4.31,53.32366180419922,23.44402313232422,-46.696510314941406,34.906585693359375,34.50688934326172,74.20980072021484,-5.700000286102295,8.25,-35.400001525878906
4.32,52.63412857055664,28.61549949645996,-49.109867095947266,45.831546783447266,38.23736572265625,81.40428924560547,-5.550000190734863,8.850000381469727,-36.30000305175781
4.33,55.660400390625,31.7183837890625,-45.700523376464844,56.356815338134766,30.37672233581543,96.32618713378906,-5.550000190734863,8.850000381469727,-36.30000305175781
4.348,63.93476104736328,29.994558334350586,-42.09964370727539,52.75957107543945,43.16691970825195,105.25267791748047,-6.0,7.650000095367432,-35.25
4.352,71.8643569946289,29.803022384643555,-37.311241149902344,37.83767318725586,53.69218826293945,129.10107421875,-6.450000286102295,8.700000762939453,-35.10000228881836
4.36,81.05809020996094,31.29700469970703,-41.25688552856445,34.64012145996094,47.163856506347656,164.94027709960938,-7.950000286102295,5.850000381469727,-35.10000228881836
4.37,84.65897369384766,30.645782470703125,-41.71657180786133,25.18070411682129,55.29096221923828,175.9984588623047,-7.050000190734863,5.700000286102295,-35.25
4.38,85.23358154296875,30.68408966064453,-45.432373046875,11.191424369812012,69.01377868652344,196.38284301757812,-7.050000190734863,5.700000286102295,-35.25
4.39,81.24962615966797,32.369606018066406,-46.696510314941406,4.796324729919434,83.93567657470703,208.90658569335938,-7.950000286102295,5.550000190734863,-33.60000228881836
4.409,77.95520782470703,35.204341888427734,-48.956634521484375,9.459418296813965,80.73812866210938,222.4961700439453,-7.500000476837158,6.450000286102295,-34.20000076293945
4.413,72.66880798339844,34.476505279541016,-51.10184097290039,13.856048583984375,81.93721008300781,238.48391723632812,-8.25,5.700000286102295,-34.5
4.42,69.75746154785156,30.0711727142334,-49.837703704833984,2.531393527984619,82.33690643310547,239.81622314453125,-7.200000286102295,4.050000190734863,-34.35000228881836
4.43,71.59620666503906,30.60747528076172,-46.23682403564453,-1.9984685182571411,70.3460922241211,251.67381286621094,-7.200000286102295,4.050000190734863,-34.35000228881836
4.44,73.35833740234375,28.73042106628418,-43.05732345581055,-10.392036437988281,57.55589294433594,260.2005920410156,-10.5,2.700000047683716,-34.5
4.45,71.28974914550781,24.095245361328125,-40.52904510498047,-37.17151641845703,57.822357177734375,260.7335205078125,-11.40000057220459,3.1500000953674316,-32.55000305175781
4.468,67.80379486083984,21.528661727905273,-41.5250358581543,-58.08882141113281,52.226646423339844,261.0,-12.0,2.25,-32.25
4.473,66.76950073242188,21.45204734802246,-41.41011428833008,-81.67074584960938,57.289432525634766,270.9923400878906,-11.700000762939453,3.1500000953674316,-32.85000228881836
4.48,64.73921203613281,26.623523712158203,-42.7891731262207,-77.00765228271484,66.61561584472656,270.8591003417969,-11.700000762939453,3.1500000953674316,-32.85000228881836
4.49,63.896453857421875,28.883649826049805,-42.82748031616211,-83.5359878540039,76.60796356201172,280.7182312011719,-13.050000190734863,1.5,-33.45000076293945
4.5,63.74322509765625,29.84132957458496,-41.98472213745117,-68.34762573242188,89.7978515625,290.8437805175781,-12.750000953674316,1.8000000715255737,-34.20000076293945
4.51,61.636329650878906,28.807035446166992,-44.43638229370117,-54.22511291503906,103.52066802978516,288.8453369140625,-14.250000953674316,1.5,-32.25
4.529,59.79758071899414,28.347347259521484,-44.85776138305664,-43.43338394165039,128.3016815185547,282.5834655761719,-14.550000190734863,1.5,-32.25
4.533,59.37620162963867,30.109479904174805,-41.946414947509766,-8.39356803894043,126.16998291015625,286.1806945800781,-15.750000953674316,-0.75,-32.25
4.54,60.90849304199219,28.423961639404297,-33.7869758605957,1.7320060729980469,118.70903015136719,284.98162841796875,-15.750000953674316,-0.75,-32.25
4.55,63.13031005859375,26.891674041748047,-32.10145568847656,10.92496109008789,118.8422622680664,268.8606262207031,-15.90000057220459,-2.1000001430511475,-31.05000114440918
4.56,63.283538818359375,27.542896270751953,-30.301015853881836,16.65390396118164,112.98008728027344,260.0673828125,-16.950000762939453,-2.1000001430511475,-31.05000114440918
4.57,60.71695327758789,28.423961639404297,-31.565155029296875,27.84532928466797,99.92343139648438,268.4609375,-18.900001525878906,-3.6000001430511475,-30.600000381469727
4.589,58.18867874145508,28.462270736694336,-33.7486686706543,39.569679260253906,101.78866577148438,263.2649230957031,-19.200000762939453,-2.8500001430511475,-30.600000381469727
4.594,59.337894439697266,27.46628189086914,-33.7869758605957,55.69065856933594,107.11791229248047,244.74578857421875,-19.200000762939453,-2.8500001430511475,-30.600000381469727
4.6,57.23099899291992,28.53888511657715,-35.6257209777832,64.88361358642578,101.78866577148438,244.87901306152344,-18.30000114440918,-4.200000286102295,-28.950000762939453
4.61,56.46485137939453,27.044902801513672,-35.85556411743164,65.81623077392578,108.983154296875,242.21438598632812,-20.400001525878906,-4.800000190734863,-29.55000114440918
4.62,55.89024353027344,25.321077346801758,-35.85556411743164,54.35834503173828,124.17151641845703,224.22817993164062,-19.200000762939453,-4.800000190734863,-28.80000114440918
4.63,55.507171630859375,21.911733627319336,-35.93217849731445,49.82848358154297,134.83001708984375,220.49769592285156,-20.55000114440918,-6.450000286102295,-30.450000762939453
4.65,53.51519775390625,18.847156524658203,-34.591426849365234,40.36906433105469,129.90045166015625,211.0382843017578,-20.55000114440918,-6.450000286102295,-30.450000762939453
4.653,55.507171630859375,17.73624610900879,-30.722396850585938,8.660030364990234,141.75804138183594,179.72894287109375,-23.55000114440918,-8.40000057220459,-27.750001907348633
4.66,56.2733154296875,16.203956604003906,-26.355371475219727,-4.130168437957764,142.15773010253906,180.26187133789062,-23.55000114440918,-8.40000057220459,-27.450000762939453
4.67,54.01319122314453,16.89348793029785,-25.474306106567383,-17.586523056030273,125.37059783935547,177.86370849609375,-24.150001525878906,-9.0,-27.000001907348633
4.68,53.8216552734375,18.4257755279541,-23.673866271972656,-31.709033966064453,121.77335357666016,174.9326171875,-23.25,-8.850000381469727,-26.850000381469727
4.69,54.62610626220703,20.76251792907715,-28.002582550048828,-31.842266082763672,123.9050521850586,167.6049041748047,-23.25,-8.850000381469727,-26.850000381469727
4.711,58.49513626098633,24.325088500976562,-30.14778709411621,-25.04747200012207,116.44409942626953,154.0153045654297,-24.750001907348633,-9.15000057220459,-24.900001525878906
4.714,62.2109375,28.270732879638672,-34.24666213989258,7.06125545501709,102.32159423828125,163.74119567871094,-26.250001907348633,-11.850000381469727,-24.900001525878906
4.72,68.45501708984375,31.373619079589844,-36.16202163696289,26.246553421020508,104.32006072998047,177.06431579589844,-26.250001907348633,-11.850000381469727,-24.900001525878906
4.73,71.36636352539062,30.032865524291992,-36.66001510620117,33.04134750366211,108.18376159667969,166.93873596191406,-25.500001907348633,-11.850000381469727,-24.900001525878906
4.74,70.40868377685547,30.224401473999023,-35.47249221801758,57.422664642333984,106.31852722167969,177.06431579589844,-25.500001907348633,-11.850000381469727,-24.900001525878906
4.75,67.88040924072266,26.96828842163086,-33.17405700683594,66.34915924072266,111.64777374267578,175.865234375,-25.500001907348633,-11.850000381469727,-24.900001525878906
4.77,66.00334930419922,25.972299575805664,-28.883649826049805,63.151607513427734,112.71363067626953,157.21286010742188,-26.400001525878906,-12.450000762939453,-22.5
4.773,63.436767578125,23.82709503173828,-30.4925537109375,76.4747314453125,118.70903015136719,145.48851013183594,-26.55000114440918,-13.500000953674316,-22.05000114440918
4.781,59.10805130004883,29.573179244995117,-34.20835494995117,103.12097930908203,106.58499145507812,151.084228515625,-26.55000114440918,-13.500000953674316,-22.05000114440918
4.79,58.724979400634766,28.8453426361084,-34.82126998901367,113.77947998046875,113.11331939697266,141.35833740234375,-25.650001525878906,-14.100000381469727,-21.450000762939453
4.8,62.93877410888672,29.803022384643555,-37.656005859375,127.5022964477539,113.24655151367188,132.29861450195312,-25.650001525878906,-14.100000381469727,-21.450000762939453
4.81,67.84210205078125,29.496564865112305,-41.25688552856445,144.02296447753906,106.58499145507812,139.2266387939453,-26.400001525878906,-14.850000381469727,-21.450000762939453
4.831,74.92893981933594,32.44622039794922,-43.01901626586914,150.81776428222656,99.79019927978516,140.5589599609375,-27.150001525878906,-17.100000381469727,-20.400001525878906
4.834,82.55207824707031,31.60346221923828,-43.44039535522461,143.09034729003906,78.07350158691406,135.36293029785156,-26.700000762939453,-18.75,-19.650001525878906
4.84,91.20951080322266,29.573179244995117,-40.60565948486328,132.29861450195312,72.0781021118164,130.30015563964844,-26.700000762939453,-18.75,-19.650001525878906
4.85,95.27007293701172,29.879636764526367,-38.76691436767578,115.11178588867188,47.297088623046875,119.10872650146484,-26.700000762939453,-18.75,-19.650001525878906
4.86,96.03621673583984,30.68408966064453,-35.77894973754883,80.07197570800781,38.90352249145508,110.18223571777344,-29.55000114440918,-20.100000381469727,-19.80000114440918
4.87,93.69947814941406,27.849353790283203,-37.08139419555664,56.49004364013672,23.581928253173828,93.2618637084961,-28.500001907348633,-18.900001525878906,-18.30000114440918
4.889,88.71953582763672,25.244462966918945,-39.57136535644531,50.36140823364258,1.4655436277389526,67.14854431152344,-27.30000114440918,-20.100000381469727,-18.0
4.894,85.08035278320312,24.9763126373291,-41.5250358581543,21.45022964477539,4.796324729919434,24.914241790771484,-27.900001525878906,-20.55000114440918,-18.450000762939453
4.9,85.84649658203125,25.627534866333008,-42.21456527709961,18.519142150878906,-6.661561965942383,3.4640121459960938,-27.900001525878906,-20.55000114440918,-18.450000762939453
4.91,87.53201293945312,25.28277015686035,-42.59763717651367,-5.462480545043945,-20.650842666625977,-27.31240463256836,-27.150001525878906,-19.05000114440918,-17.400001525878906
4.92,94.5805435180664,24.708162307739258,-44.24484634399414,-19.98468589782715,-44.23276901245117,-43.56661605834961,-28.05000114440918,-20.100000381469727,-18.75
4.93,100.5181655883789,28.117504119873047,-47.232810974121094,-42.90045928955078,-54.091880798339844,-69.14701080322266,-27.150001525878906,-21.0,-19.650001525878906
4.949,103.12305450439453,33.7869758605957,-49.3014030456543,-59.82082748413086,-57.55589294433594,-94.32771301269531,-27.150001525878906,-21.0,-19.650001525878906
4.953,103.23797607421875,35.6257209777832,-44.819454193115234,-57.822357177734375,-79.53904724121094,-115.51148223876953,-27.750001907348633,-19.200000762939453,-19.05000114440918
4.96,103.31459045410156,32.178070068359375,-39.954437255859375,-53.29249572753906,-93.79479217529297,-131.63246154785156,-26.700000762939453,-17.850000381469727,-18.450000762939453
4.97,105.88117218017578,31.52684783935547,-37.234622955322266,-55.29096221923828,-97.25880432128906,-174.9326171875,-26.55000114440918,-17.400001525878906,-20.100000381469727
4.98,106.3791732788086,33.212364196777344,-38.8818359375,-49.16232681274414,-102.8545150756836,-181.06124877929688,-27.000001907348633,-17.700000762939453,-20.850000381469727
4.99,107.643310546875,35.817256927490234,-40.41412353515625,-35.03981399536133,-121.64012145996094,-199.98008728027344,-26.250001907348633,-18.150001525878906,-20.850000381469727
5.009,110.7078857421875,35.24264907836914,-41.90810775756836,-29.977027893066406,-111.38131713867188,-211.1715087890625,-26.250001907348633,-18.150001525878906,-20.850000381469727
5.013,112.546630859375,37.15800857543945,-41.180267333984375,-25.7136287689209,-119.64165496826172,-226.49310302734375,-25.05000114440918,-16.200000762939453,-22.350000381469727
5.02,114.00231170654297,36.16202163696289,-38.80522155761719,-22.116384506225586,-136.0290985107422,-226.7595672607422,-27.000001907348633,-15.450000762939453,-22.80000114440918
5.03,111.78048706054688,36.008792877197266,-37.00477981567383,-24.64777946472168,-131.0995330810547,-237.2848358154297,-25.650001525878906,-15.15000057220459,-23.25
5.04,106.49409484863281,31.52684783935547,-35.77894973754883,-39.70290756225586,-132.29861450195312,-248.07656860351562,-24.900001525878906,-14.40000057220459,-22.5
5.05,102.66336822509766,27.88766098022461,-35.702335357666016,-47.830013275146484,-121.3736572265625,-266.1960144042969,-24.900001525878906,-14.40000057220459,-22.5
5.069,98.56449890136719,26.087221145629883,-36.35355758666992,-57.822357177734375,-131.7657012939453,-276.8545227050781,-24.0,-13.050000190734863,-24.900001525878906
5.073,96.87897491455078,24.9763126373291,-32.905906677246094,-80.20520782470703,-122.3062744140625,-307.0979919433594,-25.05000114440918,-11.850000381469727,-23.850000381469727
5.08,94.08255004882812,26.470293045043945,-29.190107345581055,-86.46707153320312,-133.6309356689453,-304.83306884765625,-24.450000762939453,-10.200000762939453,-25.200000762939453
5.09,92.47364807128906,26.66183090209961,-29.15180015563965,-88.59877014160156,-145.88819885253906,-312.1607971191406,-22.650001525878906,-10.200000762939453,-25.80000114440918
5.1,87.80016326904297,25.474306106567383,-28.500577926635742,-86.60030364990234,-147.35374450683594,-325.7503662109375,-22.650001525878906,-10.200000762939453,-25.80000114440918
5.11,83.0500717163086,25.70414924621582,-27.389667510986328,-92.3292465209961,-138.02755737304688,-345.8682861328125,-22.80000114440918,-8.40000057220459,-26.400001525878906
5.129,79.71733856201172,25.550920486450195,-26.278757095336914,-92.06278228759766,-141.35833740234375,-357.7258605957031,-22.5,-6.900000095367432,-26.850000381469727
5.132,72.36235046386719,25.665842056274414,-24.516624450683594,-67.814697265625,-149.61868286132812,-353.1960144042969,-19.80000114440918,-5.700000286102295,-26.400001525878906
5.14,72.20912170410156,26.087221145629883,-24.325088500976562,-76.74119567871094,-136.0290985107422,-364.7871398925781,-19.950000762939453,-5.550000190734863,-28.500001907348633
5.15,70.14053344726562,24.44001007080078,-25.972299575805664,-64.75038146972656,-129.10107421875,-368.7840576171875,-19.950000762939453,-5.550000190734863,-28.500001907348633
5.16,68.34009552001953,26.087221145629883,-25.665842056274414,-45.96477508544922,-135.36293029785156,-366.3858947753906,-18.900001525878906,-1.6500000953674316,-27.750001907348633
5.17,65.12228393554688,24.018630981445312,-26.738445281982422,-28.511484146118164,-137.3614044189453,-369.4502258300781,-17.55000114440918,-1.0500000715255737,-27.900001525878906
5.189,63.85814666748047,21.528661727905273,-27.351360321044922,-30.24349021911621,-130.83306884765625,-370.1163635253906,-18.30000114440918,-1.0500000715255737,-30.150001525878906
5.193,64.85413360595703,20.877439498901367,-24.89969825744629,-33.70750427246094,-135.89585876464844,-367.98468017578125,-16.05000114440918,0.0,-28.650001525878906
5.2,68.07194519042969,20.570980072021484,-21.720197677612305,-32.37519073486328,-146.42112731933594,-351.0643005371094,-16.05000114440918,0.0,-28.650001525878906
5.21,67.07595825195312,18.77054214477539,-20.64759635925293,-49.96171569824219,-147.35374450683594,-354.66156005859375,-16.05000114440918,0.0,-28.650001525878906
5.22,67.07595825195312,17.966089248657227,-20.992361068725586,-61.28636932373047,-155.48085021972656,-330.81317138671875,-14.550000190734863,2.25,-29.400001525878906
5.23,65.35212707519531,17.697938919067383,-21.107282638549805,-65.949462890625,-163.20826721191406,-328.5482177734375,-14.40000057220459,2.4000000953674316,-29.250001907348633
5.25,63.32184600830078,19.230228424072266,-22.562957763671875,-77.4073486328125,-162.40887451171875,-313.2266540527344,-13.800000190734863,4.5,-29.400001525878906
5.254,56.733001708984375,20.877439498901367,-23.405715942382812,-80.20520782470703,-148.28636169433594,-306.2986145019531,-12.90000057220459,5.100000381469727,-29.850000381469727
5.26,56.57977294921875,20.072986602783203,-23.597251892089844,-84.33537292480469,-138.56048583984375,-311.62786865234375,-12.90000057220459,5.100000381469727,-29.850000381469727
5.27,53.553504943847656,20.379444122314453,-23.788787841796875,-71.41194152832031,-137.3614044189453,-300.4364318847656,-12.0,5.400000095367432,-31.200000762939453
5.28,54.54949188232422,21.45204734802246,-23.099258422851562,-81.13782501220703,-122.3062744140625,-300.16998291015625,-7.650000095367432,6.750000476837158,-31.05000114440918
5.29,52.82566452026367,22.103269577026367,-24.24847412109375,-53.82542037963867,-125.23736572265625,-285.3813171386719,-9.0,6.900000095367432,-30.900001525878906
5.309,53.170433044433594,22.06496238708496,-22.409727096557617,-38.90352249145508,-115.77794647216797,-271.1255798339844,-8.40000057220459,8.25,-30.600000381469727
5.312,53.553504943847656,21.950040817260742,-18.88546371459961,-31.44257164001465,-118.8422622680664,-269.52679443359375,-8.40000057220459,8.25,-30.600000381469727
5.32,52.480899810791016,22.17988395690918,-18.655620574951172,-22.249616622924805,-118.57579803466797,-259.8009033203125,-5.550000190734863,8.40000057220459,-30.450000762939453
5.33,52.21274948120117,22.333112716674805,-22.026655197143555,-5.728943347930908,-120.84072875976562,-248.07656860351562,-5.700000286102295,10.950000762939453,-31.350000381469727
5.34,50.757076263427734,23.290794372558594,-22.17988395690918,14.255742073059082,-114.57886505126953,-228.22511291503906,-4.200000286102295,9.450000762939453,-30.600000381469727
5.35,48.72679138183594,22.2948055267334,-23.367408752441406,15.588054656982422,-102.98774719238281,-212.5038299560547,-3.9000000953674316,10.200000762939453,-31.80000114440918
5.37,47.19450378417969,20.609289169311523,-24.210166931152344,25.04747200012207,-98.4578857421875,-195.45022583007812,-3.9000000953674316,10.200000762939453,-31.80000114440918
5.373,42.09964370727539,14.786589622497559,-23.175872802734375,37.4379768371582,-93.12863159179688,-180.79478454589844,-1.8000000715255737,10.050000190734863,-30.900001525878906
5.38,40.7205810546875,15.207969665527344,-22.562957763671875,46.764163970947266,-96.59264373779297,-168.0045928955078,-1.2000000476837158,10.5,-30.600000381469727
5.39,38.613685607910156,15.207969665527344,-20.64759635925293,40.36906433105469,-90.06431579589844,-173.0673828125,-1.0500000715255737,11.850000381469727,-31.200000762939453
5.4,37.656005859375,14.786589622497559,-19.230228424072266,47.0306282043457,-93.12863159179688,-144.2894287109375,-0.75,10.800000190734863,-31.500001907348633
5.41,36.77493667602539,17.00840950012207,-19.153614044189453,37.57120895385742,-88.46553802490234,-112.58039855957031,-0.75,10.800000190734863,-31.500001907348633
5.429,40.03105163574219,18.387468338012695,-22.754493713378906,36.905052185058594,-58.888206481933594,-70.61255645751953,1.5,11.100000381469727,-31.500001907348633
5.432,45.66221618652344,20.95405387878418,-29.726408004760742,39.70290756225586,-56.09035110473633,-59.02143859863281,1.5,11.100000381469727,-31.500001907348633
5.44,45.777137756347656,21.87342643737793,-30.14778709411621,54.75803756713867,-47.163856506347656,-33.17457962036133,1.9500000476837158,11.700000762939453,-33.30000305175781
5.45,48.19049072265625,24.708162307739258,-29.76471519470215,64.88361358642578,-35.439510345458984,1.1990811824798584,2.700000047683716,9.75,-30.600000381469727
5.46,49.68447494506836,24.401702880859375,-29.726408004760742,58.355281829833984,-8.127105712890625,25.313934326171875,1.5,9.15000057220459,-31.200000762939453
5.47,52.63412857055664,22.639572143554688,-26.470293045043945,56.756507873535156,-5.8621745109558105,66.08269500732422,1.5,9.15000057220459,-31.200000762939453
5.489,54.93256378173828,19.460071563720703,-28.423961639404297,45.56508255004883,7.72741174697876,92.86217498779297,2.4000000953674316,8.25,-32.10000228881836
5.494,51.10184097290039,19.766529083251953,-34.32327651977539,24.248085021972656,21.183767318725586,124.57120513916016,2.25,10.050000190734863,-32.25
5.5,49.60786056518555,20.149600982666016,-34.05512619018555,11.191424369812012,35.57273864746094,132.43185424804688,2.25,10.050000190734863,-32.25
5.51,49.3397102355957,19.958065032958984,-35.5874137878418,0.1332312375307083,33.30780792236328,164.00765991210938,1.6500000953674316,8.25,-31.05000114440918
5.52,49.37801742553711,18.88546371459961,-38.000770568847656,-15.321592330932617,38.10413360595703,179.19601440429688,1.6500000953674316,8.25,-31.05000114440918
5.53,50.29738998413086,20.570980072021484,-40.91211700439453,-38.23736572265625,51.027565002441406,187.3231201171875,0.30000001192092896,6.900000095367432,-31.950000762939453
5.543,53.93657684326172,22.103269577026367,-43.86177444458008,-44.63246536254883,57.55589294433594,204.50994873046875,0.30000001192092896,8.850000381469727,-31.200000762939453
5.55,57.38422775268555,21.605276107788086,-44.55130386352539,-36.5053596496582,47.163856506347656,217.69984436035156,-0.75,8.100000381469727,-31.200000762939453
5.56,61.866172790527344,24.938005447387695,-45.04929733276367,-46.497703552246094,64.084228515625,233.28790283203125,-2.25,8.40000057220459,-32.70000076293945
5.57,70.21714782714844,32.02484130859375,-45.62390899658203,-45.03215789794922,71.81163787841797,264.73046875,-2.25,8.40000057220459,-32.70000076293945
5.58,76.19307708740234,35.395877838134766,-49.68447494506836,-40.635528564453125,75.27565002441406,299.23736572265625,-2.5500001907348633,8.100000381469727,-31.200000762939453
5.599,82.4754638671875,34.13174057006836,-54.31964874267578,-28.511484146118164,89.26493072509766,316.15771484375,-2.5500001907348633,7.650000095367432,-30.450000762939453
5.603,85.5783462524414,38.15399932861328,-56.235008239746094,-43.96630859375,103.25421142578125,342.27105712890625,-4.800000190734863,7.200000286102295,-30.450000762939453
5.61,88.71953582763672,40.7205810546875,-55.392250061035156,-42.500762939453125,100.05665588378906,360.25726318359375,-4.800000190734863,7.200000286102295,-30.450000762939453
5.62,91.74581146240234,41.180267333984375,-52.51920700073242,-60.88667678833008,98.05818939208984,378.376708984375,-4.800000190734863,7.200000286102295,-30.450000762939453
5.63,94.69546508789062,39.41813659667969,-50.10585403442383,-79.80551147460938,98.32465362548828,391.03369140625,-5.25,7.200000286102295,-30.900001525878906
5.64,96.3809814453125,37.27293395996094,-48.650177001953125,-101.38896942138672,82.7365951538086,399.0275573730469,-6.750000476837158,5.700000286102295,-30.150001525878906
5.65,94.92530822753906,37.924156188964844,-47.99895477294922,-116.84379577636719,75.14241790771484,427.13934326171875,-7.950000286102295,7.500000476837158,-29.55000114440918
5.662,91.55427551269531,38.38384246826172,-48.07556915283203,-148.28636169433594,72.47779083251953,419.0122375488281,-8.40000057220459,5.550000190734863,-29.250001907348633
5.67,86.1529541015625,37.57939147949219,-50.22077560424805,-168.67074584960938,86.60030364990234,416.2143859863281,-8.40000057220459,5.550000190734863,-29.250001907348633
5.68,79.79395294189453,37.57939147949219,-52.3659782409668,-160.94332885742188,92.72894287109375,421.27716064453125,-8.40000057220459,5.550000190734863,-29.250001907348633
5.69,73.664794921875,39.41813659667969,-52.44259262084961,-139.6263427734375,112.58039855957031,415.4150085449219,-11.40000057220459,4.800000190734863,-27.750001907348633
5.7,70.37037658691406,44.206539154052734,-51.29337692260742,-108.58345794677734,135.62939453125,407.4211120605469,-12.0,5.400000095367432,-26.400001525878906
5.719,68.83808898925781,44.74283981323242,-52.787357330322266,-58.4885139465332,148.0198974609375,393.1653747558594,-13.200000762939453,4.350000381469727,-26.250001907348633
5.723,69.25946807861328,46.619895935058594,-47.57757568359375,10.525267601013184,142.82388305664062,392.3659973144531,-14.40000057220459,2.4000000953674316,-26.250001907348633
5.73,70.79175567626953,45.08760452270508,-42.52102279663086,36.771820068359375,143.88973999023438,392.0995178222656,-14.40000057220459,2.4000000953674316,-26.250001907348633
5.74,70.5619125366211,43.70854568481445,-39.533058166503906,65.28330993652344,143.88973999023438,373.3139343261719,-15.15000057220459,3.1500000953674316,-25.80000114440918
5.75,69.79576873779297,40.873809814453125,-37.311241149902344,100.72281646728516,134.5635528564453,379.44256591796875,-16.80000114440918,0.75,-25.350000381469727
5.76,68.53163146972656,40.452430725097656,-35.85556411743164,116.17764282226562,134.43031311035156,359.19140625,-17.400001525878906,1.350000023841858,-24.750001907348633
5.778,67.84210205078125,38.537071228027344,-32.75267791748047,108.050537109375,137.3614044189453,350.93109130859375,-17.25,-1.5,-24.900001525878906
5.782,67.80379486083984,34.62973403930664,-31.450233459472656,130.1669158935547,135.0964813232422,344.4027404785156,-19.05000114440918,-3.450000047683716,-24.150001525878906
5.79,66.84611511230469,30.875625610351562,-32.56114196777344,129.76722717285156,138.96017456054688,317.7565002441406,-19.05000114440918,-3.450000047683716,-24.150001525878906
5.8,64.47106170654297,29.4582576751709,-31.90991973876953,126.16998291015625,155.48085021972656,320.28790283203125,-19.5,-6.150000095367432,-24.600000381469727
5.81,62.01940155029297,27.925968170166016,-33.48051834106445,126.7029037475586,165.07350158691406,290.9770202636719,-20.700000762939453,-6.300000190734863,-22.5
5.82,57.53745651245117,27.504589080810547,-35.85556411743164,137.3614044189453,155.21438598632812,285.781005859375,-20.700000762939453,-6.300000190734863,-22.5
5.839,54.97087097167969,26.700138092041016,-32.178070068359375,134.43031311035156,167.33843994140625,262.3323059082031,-22.05000114440918,-8.40000057220459,-22.05000114440918
5.843,52.82566452026367,25.933992385864258,-28.692113876342773,121.24042510986328,167.33843994140625,239.5497589111328,-22.200000762939453,-9.0,-21.450000762939453
5.85,48.61186981201172,22.639572143554688,-21.796812057495117,124.03828430175781,157.74578857421875,232.62173461914062,-22.80000114440918,-10.050000190734863,-21.600000381469727
5.86,47.96064758300781,21.911733627319336,-20.41775131225586,117.11026000976562,137.49464416503906,212.77027893066406,-23.400001525878906,-10.5,-21.150001525878906
5.87,49.109867095947266,24.861391067504883,-21.720197677612305,112.31393432617188,133.76416015625,205.30934143066406,-23.25,-12.300000190734863,-21.30000114440918
5.88,50.10585403442383,26.815059661865234,-22.677879333496094,109.38284301757812,134.83001708984375,196.1163787841797,-23.25,-12.300000190734863,-21.30000114440918
5.899,49.18648147583008,29.22841453552246,-25.321077346801758,133.6309356689453,131.0995330810547,184.25880432128906,-24.750001907348633,-14.250000953674316,-21.30000114440918
5.903,48.650177001953125,28.92195701599121,-34.24666213989258,155.34762573242188,142.29095458984375,163.0750274658203,-23.25,-15.000000953674316,-18.75
5.91,54.01319122314453,31.52684783935547,-33.40390396118164,172.134765625,144.55589294433594,154.41500854492188,-24.450000762939453,-15.600000381469727,-19.200000762939453
5.92,57.15438461303711,30.68408966064453,-29.84132957458496,174.79937744140625,135.0964813232422,143.75650024414062,-25.05000114440918,-16.950000762939453,-19.80000114440918
5.93,58.99312973022461,28.07919692993164,-27.925968170166016,175.19908142089844,121.64012145996094,150.81776428222656,-25.05000114440918,-16.950000762939453,-19.80000114440918
5.94,61.21495056152344,22.409727096557617,-24.018630981445312,159.74424743652344,104.5865249633789,137.09494018554688,-24.0,-17.400001525878906,-19.05000114440918
5.959,65.62027740478516,21.298818588256836,-25.627534866333008,130.69984436035156,105.5191421508789,125.10413360595703,-24.900001525878906,-18.75,-17.700000762939453
5.963,68.26348114013672,26.54690933227539,-28.998571395874023,98.59111785888672,90.19754791259766,133.09800720214844,-24.900001525878906,-19.05000114440918,-16.650001525878906
5.97,72.24742889404297,30.454246520996094,-32.369606018066406,96.8591079711914,81.93721008300781,130.83306884765625,-25.80000114440918,-19.200000762939453,-16.80000114440918
5.98,75.38862609863281,31.641769409179688,-37.11970138549805,93.39509582519531,92.3292465209961,122.57273864746094,-25.80000114440918,-19.200000762939453,-16.80000114440918
5.99,77.49552154541016,32.56114196777344,-43.9766960144043,112.98008728027344,85.93415069580078,105.91883087158203,-24.30000114440918,-20.400001525878906,-16.05000114440918
6.0,81.97746276855469,31.22039031982422,-47.002967834472656,139.09341430664062,69.28024291992188,77.67381286621094,-24.0,-21.900001525878906,-15.750000953674316
6.02,86.95740509033203,33.13574981689453,-47.57757568359375,142.5574188232422,58.62174606323242,54.75803756713867,-25.500001907348633,-21.900001525878906,-15.000000953674316
6.023,92.32041931152344,37.11970138549805,-36.621707916259766,132.6983184814453,4.929555892944336,40.36906433105469,-23.55000114440918,-20.850000381469727,-13.500000953674316
6.03,93.9293212890625,35.47249221801758,-33.863590240478516,109.78253936767578,-24.11485481262207,33.4410400390625,-23.55000114440918,-20.850000381469727,-13.500000953674316
6.04,91.4393539428711,31.986534118652344,-34.170047760009766,73.0107192993164,-45.298622131347656,24.248085021972656,-25.650001525878906,-22.200000762939453,-13.65000057220459
6.05,87.53201293945312,23.673866271972656,-34.66804122924805,27.445634841918945,-56.09035110473633,-11.058192253112793,-25.950000762939453,-22.5,-14.100000381469727
6.06,84.8888168334961,17.046716690063477,-38.537071228027344,-5.595712184906006,-65.016845703125,-42.101070404052734,-24.750001907348633,-23.55000114440918,-13.500000953674316
6.079,81.441162109375,13.292608261108398,-42.90409469604492,-35.57273864746094,-78.60643005371094,-76.34149932861328,-23.55000114440918,-21.600000381469727,-15.000000953674316
6.083,79.10442352294922,13.407529830932617,-47.96064758300781,-58.222049713134766,-69.01377868652344,-123.2388916015625,-23.55000114440918,-21.600000381469727,-15.000000953674316
6.09,81.67100524902344,21.490354537963867,-48.535255432128906,-76.87442779541016,-55.29096221923828,-155.48085021972656,-23.55000114440918,-21.600000381469727,-15.000000953674316
6.1,86.1529541015625,24.66985511779785,-47.19450378417969,-75.5421142578125,-69.67993927001953,-161.07656860351562,-25.500001907348633,-20.850000381469727,-14.700000762939453
6.11,94.27408599853516,25.052927017211914,-44.5896110534668,-86.3338394165039,-76.60796356201172,-180.66156005859375,-25.200000762939453,-19.80000114440918,-15.600000381469727
6.12,102.9698257446289,25.014619827270508,-43.70854568481445,-101.9218978881836,-83.93567657470703,-209.70596313476562,-24.150001525878906,-20.25,-16.350000381469727
6.14,114.65353393554688,28.8453426361084,-44.85776138305664,-100.72281646728516,-104.98621368408203,-205.1761016845703,-24.450000762939453,-20.25,-15.15000057220459
6.144,124.11541748046875,34.05512619018555,-45.81544494628906,-96.32618713378906,-123.77182006835938,-223.82847595214844,-24.450000762939453,-20.25,-15.15000057220459
6.15,130.2828826904297,35.510799407958984,-41.754878997802734,-81.53751373291016,-134.03062438964844,-233.68759155273438,-23.700000762939453,-18.30000114440918,-16.650001525878906
6.16,129.9381103515625,33.212364196777344,-38.95845031738281,-80.8713607788086,-136.16232299804688,-258.3353576660156,-24.150001525878906,-18.30000114440918,-16.650001525878906
6.17,126.8352279663086,31.143775939941406,-35.93217849731445,-49.96171569824219,-160.54364013671875,-265.79632568359375,-23.55000114440918,-16.5,-18.0
6.18,121.66375732421875,30.301015853881836,-37.00477981567383,-44.49923324584961,-163.74119567871094,-283.11639404296875,-24.0,-15.450000762939453,-16.80000114440918
6.199,117.71810913085938,29.53487205505371,-41.14196014404297,-38.37059783935547,-160.41041564941406,-308.0306091308594,-24.0,-15.450000762939453,-16.80000114440918
6.203,113.7341537475586,24.938005447387695,-42.94240188598633,-21.45022964477539,-156.5467071533203,-308.2970886230469,-22.950000762939453,-14.850000381469727,-19.200000762939453
6.21,111.62725830078125,24.708162307739258,-41.41011428833008,-23.182235717773438,-149.88514709472656,-314.1592712402344,-22.650001525878906,-13.200000762939453,-18.450000762939453
6.22,110.7078857421875,25.780763626098633,-37.96246337890625,-32.37519073486328,-145.88819885253906,-318.02294921875,-22.05000114440918,-11.550000190734863,-20.850000381469727
6.23,109.40544128417969,25.474306106567383,-36.88985824584961,-45.03215789794922,-140.82542419433594,-319.35528564453125,-23.25,-9.600000381469727,-19.05000114440918
6.24,106.4557876586914,22.218191146850586,-36.39186477661133,-57.289432525634766,-140.5589599609375,-324.8177490234375,-23.25,-9.600000381469727,-19.05000114440918
6.259,102.2802963256836,20.494365692138672,-32.86759948730469,-83.66921997070312,-136.69525146484375,-319.08880615234375,-22.950000762939453,-9.0,-22.200000762939453
6.263,100.17340087890625,20.724210739135742,-31.450233459472656,-99.12403869628906,-126.03675079345703,-333.0780944824219,-20.700000762939453,-7.050000190734863,-22.950000762939453
6.27,95.53822326660156,26.43198585510254,-30.99054718017578,-95.9264907836914,-130.56661987304688,-336.5421142578125,-18.900001525878906,-7.050000190734863,-22.200000762939453
6.28,92.35872650146484,28.692113876342773,-29.419950485229492,-82.07044219970703,-136.69525146484375,-338.27410888671875,-20.400001525878906,-5.850000381469727,-23.25
6.29,85.61665344238281,27.696125030517578,-27.313053131103516,-69.67993927001953,-134.96324157714844,-356.1271057128906,-20.400001525878906,-5.850000381469727,-23.25
6.3,79.67903137207031,25.39769172668457,-28.768728256225586,-60.75344467163086,-132.56507873535156,-371.04901123046875,-18.75,-4.950000286102295,-23.55000114440918
6.319,75.50354766845703,24.05693817138672,-26.470293045043945,-43.30015182495117,-141.4915771484375,-367.8514404296875,-19.200000762939453,-1.6500000953674316,-22.950000762939453
6.323,70.79175567626953,22.677879333496094,-24.861391067504883,-33.4410400390625,-142.29095458984375,-369.1837463378906,-17.55000114440918,-1.8000000715255737,-24.600000381469727
6.33,66.04165649414062,19.153614044189453,-21.950040817260742,-40.502296447753906,-124.70443725585938,-375.8453063964844,-17.25,-1.8000000715255737,-23.55000114440918
6.34,62.8238525390625,17.73624610900879,-22.869415283203125,-37.03828430175781,-130.69984436035156,-388.9019775390625,-14.550000190734863,1.8000000715255737,-24.900001525878906
6.35,60.1423454284668,17.085023880004883,-23.980323791503906,-38.23736572265625,-134.96324157714844,-379.309326171875,-14.550000190734863,1.8000000715255737,-24.900001525878906
6.36,58.07375717163086,18.88546371459961,-22.256498336791992,-47.163856506347656,-122.9724349975586,-376.2450256347656,-15.15000057220459,2.1000001430511475,-25.500001907348633
6.379,57.0777702331543,20.187908172607422,-21.911733627319336,-41.568145751953125,-121.3736572265625,-381.5742492675781,-13.950000762939453,2.4000000953674316,-25.200000762939453
6.382,57.99714279174805,22.562957763671875,-21.107282638549805,-23.848390579223633,-131.7657012939453,-357.7258605957031,-11.40000057220459,3.6000001430511475,-26.250001907348633
6.39,59.452816009521484,23.060951232910156,-19.230228424072266,-12.390504837036133,-133.23123168945312,-354.66156005859375,-12.0,5.400000095367432,-25.350000381469727
6.4,58.99312973022461,24.018630981445312,-20.341136932373047,0.7993874549865723,-136.56201171875,-353.1960144042969,-12.0,5.400000095367432,-25.350000381469727
6.41,60.21895980834961,23.673866271972656,-17.276559829711914,17.986217498779297,-139.7595672607422,-346.6676940917969,-11.25,6.900000095367432,-25.650001525878906
6.42,59.72096633911133,24.210166931152344,-17.00840950012207,37.304744720458984,-149.21897888183594,-332.8116455078125,-9.75,6.450000286102295,-26.400001525878906
6.439,58.839900970458984,23.558944702148438,-17.12333106994629,36.238895416259766,-147.62020874023438,-312.9601745605469,-7.950000286102295,7.500000476837158,-27.30000114440918
6.443,55.200714111328125,20.456058502197266,-16.58702850341797,38.10413360595703,-147.35374450683594,-303.10107421875,-7.500000476837158,8.40000057220459,-27.150001525878906
6.45,54.24303436279297,18.655620574951172,-18.157625198364258,45.56508255004883,-150.6845245361328,-281.117919921875,-7.500000476837158,8.40000057220459,-27.150001525878906
6.46,53.43858337402344,18.962078094482422,-19.345149993896484,32.77488327026367,-143.2235870361328,-269.52679443359375,-6.0,8.850000381469727,-28.200000762939453
6.47,51.71475601196289,16.970102310180664,-18.962078094482422,21.983154296875,-131.0995330810547,-261.5329284667969,-3.3000001907348633,9.15000057220459,-27.150001525878906
6.48,49.837703704833984,16.81687355041504,-19.345149993896484,24.64777946472168,-130.30015563964844,-240.34915161132812,-4.050000190734863,9.15000057220459,-27.900001525878906
6.495,49.26309585571289,17.851167678833008,-18.579004287719727,2.2649309635162354,-117.11026000976562,-220.76416015625,-3.3000001907348633,8.850000381469727,-26.850000381469727
6.5,48.61186981201172,15.591041564941406,-14.326903343200684,-6.5283308029174805,-116.57733154296875,-215.96783447265625,-3.3000001907348633,8.850000381469727,-26.850000381469727
6.51,47.76911163330078,14.824896812438965,-13.522451400756836,-17.053598403930664,-118.57579803466797,-202.9111785888672,-3.1500000953674316,9.75,-27.750001907348633
6.52,46.313438415527344,15.284584045410156,-14.863204002380371,-13.323123931884766,-125.37059783935547,-179.32923889160156,-0.9000000357627869,9.450000762939453,-28.500001907348633
6.53,42.94240188598633,15.361198425292969,-14.633360862731934,-11.191424369812012,-123.9050521850586,-173.73353576660156,-1.0500000715255737,9.15000057220459,-27.450000762939453
6.54,40.91211700439453,16.855180740356445,-15.820884704589844,-11.457886695861816,-113.11331939697266,-170.53598022460938,0.15000000596046448,11.40000057220459,-27.750001907348633
6.559,38.34553527832031,17.046716690063477,-16.66364288330078,10.658498764038086,-92.86217498779297,-136.82847595214844,0.15000000596046448,11.40000057220459,-27.750001907348633
6.562,39.341522216796875,19.574993133544922,-20.724210739135742,28.24502182006836,-95.66002655029297,-132.16539001464844,2.700000047683716,10.200000762939453,-26.55000114440918
6.57,39.07337188720703,19.345149993896484,-20.685903549194336,33.04134750366211,-79.0061264038086,-120.57427215576172,2.700000047683716,10.200000762939453,-26.55000114440918
6.58,40.873809814453125,20.494365692138672,-23.099258422851562,51.82695007324219,-63.81776428222656,-99.79019927978516,3.1500000953674316,10.5,-27.750001907348633
6.59,46.696510314941406,18.655620574951172,-22.7161865234375,73.54364013671875,-55.69065856933594,-62.618682861328125,4.950000286102295,10.200000762939453,-28.500001907348633
6.6,52.787357330322266,19.230228424072266,-22.2948055267334,76.74119567871094,-45.03215789794922,-37.304744720458984,4.5,10.350000381469727,-28.200000762939453
6.612,54.62610626220703,19.536685943603516,-21.107282638549805,82.33690643310547,-24.248085021972656,2.797856092453003,4.5,10.800000190734863,-28.950000762939453
6.62,56.733001708984375,20.226215362548828,-25.28277015686035,77.54058074951172,-16.920366287231445,34.373661041259766,4.5,10.800000190734863,-28.950000762939453
6.63,54.587799072265625,19.574993133544922,-24.708162307739258,77.00765228271484,1.7320060729980469,53.69218826293945,3.9000000953674316,8.700000762939453,-27.000001907348633
6.64,52.94058609008789,16.1656494140625,-28.998571395874023,59.55436325073242,37.17151641845703,83.00305938720703,3.3000001907348633,8.40000057220459,-27.900001525878906
6.65,50.48892593383789,16.433799743652344,-31.028854370117188,51.4272575378418,60.75344467163086,118.17610931396484,3.3000001907348633,8.40000057220459,-27.900001525878906
6.66,51.29337692260742,17.161638259887695,-32.52283477783203,39.16998291015625,83.66921997070312,143.3568115234375,3.3000001907348633,8.40000057220459,-27.900001525878906
6.676,52.174442291259766,17.889474868774414,-34.3615837097168,15.055130004882812,100.18988800048828,183.7258758544922,3.0,8.850000381469727,-29.700000762939453
6.68,58.99312973022461,18.11931800842285,-34.20835494995117,-0.6661561727523804,110.31546783447266,187.58958435058594,4.050000190734863,8.100000381469727,-28.950000762939453
6.69,61.636329650878906,18.4257755279541,-35.5874137878418,-13.189892768859863,115.77794647216797,209.57273864746094,3.0,8.100000381469727,-28.950000762939453
6.7,66.00334930419922,21.835119247436523,-34.476505279541016,-21.45022964477539,119.10872650146484,251.0076446533203,3.0,8.100000381469727,-28.950000762939453
6.71,71.63451385498047,26.278757095336914,-35.395877838134766,-37.83767318725586,130.83306884765625,272.0581970214844,3.0,6.450000286102295,-27.450000762939453
6.729,77.30398559570312,30.224401473999023,-42.63594436645508,-29.7105655670166,136.29556274414062,306.03216552734375,0.30000001192092896,7.650000095367432,-28.650001525878906
6.732,81.90084838867188,33.94020462036133,-47.2711181640625,-9.72588062286377,150.6845245361328,341.2052001953125,0.0,7.200000286102295,-27.450000762939453
6.74,87.99169921875,38.07738494873047,-46.0452880859375,3.4640121459960938,156.14700317382812,360.3905029296875,-0.30000001192092896,6.150000095367432,-28.200000762939453
6.75,89.33245086669922,34.897884368896484,-45.54729461669922,6.5283308029174805,172.2679901123047,374.51300048828125,-0.30000001192092896,6.150000095367432,-28.200000762939453
6.76,89.33245086669922,32.63775634765625,-44.93437576293945,12.390504837036133,174.53292846679688,393.83154296875,-1.9500000476837158,5.100000381469727,-26.250001907348633
6.77,89.217529296875,30.952239990234375,-45.892059326171875,2.6646246910095215,179.72894287109375,407.95404052734375,-4.5,4.950000286102295,-28.650001525878906
6.78,92.97164154052734,30.37763023376465,-48.30541229248047,-23.98162269592285,187.1898956298828,408.3537292480469,-4.200000286102295,4.800000190734863,-28.500001907348633
6.793,97.30035400390625,30.79901123046875,-49.416324615478516,-43.96630859375,191.9862060546875,437.5313720703125,-5.400000095367432,5.550000190734863,-27.30000114440918
6.8,99.44556427001953,29.22841453552246,-47.232810974121094,-55.55742645263672,195.84991455078125,448.9892578125,-6.450000286102295,3.6000001430511475,-26.55000114440918
6.81,99.56048583984375,28.040889739990234,-47.117889404296875,-83.26952362060547,203.97702026367188,431.2695007324219,-6.450000286102295,3.6000001430511475,-26.55000114440918
6.82,98.29634857177734,29.075185775756836,-45.96867370605469,-98.72434997558594,200.11331176757812,445.6584777832031,-8.40000057220459,1.350000023841858,-26.55000114440918
6.83,96.26605987548828,27.925968170166016,-46.198516845703125,-93.79479217529297,189.9877471923828,448.5895690917969,-9.15000057220459,0.45000001788139343,-26.55000114440918
6.849,96.26605987548828,30.109479904174805,-42.40610122680664,-92.3292465209961,190.38743591308594,442.9938659667969,-10.050000190734863,1.0500000715255737,-25.650001525878906
6.853,94.81038665771484,31.182083129882812,-41.41011428833008,-89.66461944580078,194.6508331298828,429.8039855957031,-10.5,0.30000001192092896,-26.400001525878906
6.86,92.51195526123047,31.450233459472656,-42.7508659362793,-82.33690643310547,190.5206756591797,424.208251953125,-10.5,0.30000001192092896,-26.400001525878906
6.87,92.35872650146484,35.6257209777832,-44.35976791381836,-55.69065856933594,181.59417724609375,417.9463806152344,-12.750000953674316,-1.5,-23.55000114440918
6.88,89.63890838623047,40.069358825683594,-46.658203125,-26.246553421020508,184.79173278808594,412.084228515625,-14.550000190734863,-1.8000000715255737,-24.900001525878906
6.89,87.14894104003906,43.05732345581055,-47.04127502441406,4.130168437957764,192.11944580078125,394.4976806640625,-14.250000953674316,-2.25,-24.150001525878906
6.909,84.314208984375,41.5250358581543,-46.58158874511719,40.23583221435547,188.92189025878906,386.23736572265625,-15.750000953674316,-3.450000047683716,-22.05000114440918
6.913,82.32222747802734,40.069358825683594,-44.206539154052734,86.20060729980469,186.3905029296875,364.6539001464844,-15.750000953674316,-3.450000047683716,-22.05000114440918
6.92,79.48749542236328,36.315250396728516,-44.05331039428711,99.25727081298828,195.45022583007812,341.4716491699219,-17.25,-4.5,-21.30000114440918
6.93,78.3382797241211,34.55311965942383,-44.43638229370117,123.9050521850586,195.5834503173828,315.62481689453125,-18.900001525878906,-6.300000190734863,-20.700000762939453
6.94,78.14674377441406,31.488540649414062,-44.6279182434082,142.4241943359375,190.78712463378906,305.89892578125,-18.30000114440918,-7.650000095367432,-20.100000381469727
6.95,77.1124496459961,31.335311889648438,-43.21055221557617,151.6171417236328,191.58651733398438,282.84991455078125,-17.700000762939453,-8.700000762939453,-19.650001525878906
6.969,75.84831237792969,27.121517181396484,-40.52904510498047,141.6248016357422,186.5237274169922,254.60488891601562,-17.700000762939453,-8.700000762939453,-19.650001525878906
6.973,75.50354766845703,25.014619827270508,-39.839515686035156,129.6339874267578,179.0627899169922,236.7519073486328,-17.400001525878906,-9.75,-18.450000762939453
6.98,73.28172302246094,24.89969825744629,-38.46045684814453,119.24195861816406,166.67227172851562,234.4869842529297,-19.05000114440918,-10.800000190734863,-18.75
6.99,71.71112823486328,26.12552833557129,-38.230613708496094,87.0,175.33230590820312,210.50535583496094,-20.25,-12.750000953674316,-19.5
7.0,68.53163146972656,26.585216522216797,-40.7205810546875,75.5421142578125,167.87135314941406,194.38436889648438,-21.30000114440918,-13.500000953674316,-18.30000114440918
