time,accel_x,accel_y,accel_z,gyro_x,gyro_y,gyro_z,mag_x,mag_y,mag_z
0.0,-1.0552347898483276,-9.737591743469238,1.3016955852508545,0.04245513305068016,0.001679879380390048,-0.03420845419168472,-18.941829681396484,82.03741455078125,-23.078046798706055
0.01,-1.0085747241973877,-9.656235694885254,1.2490533590316772,0.04184426739811897,0.005192354787141085,-0.03176499158143997,-18.97106170654297,82.4028091430664,-22.94650650024414
0.02,-0.9846464395523071,-9.672985076904297,1.2215359210968018,0.038637224584817886,0.003817907767370343,-0.023518310859799385,-19.36568260192871,82.15434265136719,-23.063430786132812
0.03,-0.9200402498245239,-9.744770050048828,1.310070276260376,0.03955352306365967,0.00015271631127689034,-0.019853120669722557,-18.868751525878906,81.92049407958984,-22.011106491088867
0.04,-0.9092725515365601,-9.710074424743652,1.3016955852508545,0.039248090237379074,-0.0039706239476799965,-0.017409659922122955,-19.24875831604004,82.51973724365234,-22.420345306396484
0.06,-1.0181459188461304,-9.671788215637207,1.155733346939087,0.04214970022439957,-0.009926560334861279,-0.016340645030140877,-19.102602005004883,82.30049896240234,-22.405729293823242
0.064,-1.1150553226470947,-9.761519432067871,1.2634103298187256,0.03955352306365967,-0.009773843921720982,-0.019089538604021072,-19.424144744873047,82.09587860107422,-22.069570541381836
0.07,-1.1437692642211914,-9.786643981933594,1.2897313833236694,0.03726277872920036,-0.005650503095239401,-0.02367102913558483,-19.05875587463379,82.75357818603516,-22.186494827270508
0.08,-1.1437692642211914,-9.755537986755371,1.275374412536621,0.038637224584817886,0.0019853119738399982,-0.028710665181279182,-18.737211227416992,82.09587860107422,-22.624963760375977
0.09,-1.0289136171340942,-9.739984512329102,1.2957134246826172,0.040317103266716,0.007635815534740686,-0.0328340083360672,-19.131834030151367,82.066650390625,-22.639577865600586
0.1,-0.9475577473640442,-9.747162818908691,1.2981061935424805,0.03955352306365967,0.0073303827084600925,-0.03390302136540413,-19.584917068481445,82.31510925292969,-21.981876373291016
0.119,-0.9643074870109558,-9.707681655883789,1.2406784296035767,0.04596760869026184,-0.0004581489192787558,-0.032070424407720566,-19.55568504333496,82.68050384521484,-22.873428344726562
0.123,-0.9631110429763794,-9.716055870056152,1.2681959867477417,0.04459316283464432,-0.0013744467869400978,-0.03329215571284294,-19.307220458984375,82.47588348388672,-22.259572982788086
0.13,-1.0193424224853516,-9.77587604522705,1.3124631643295288,0.04306599870324135,-0.0074830991216003895,-0.03497203439474106,-19.847997665405273,82.05203247070312,-22.771120071411133
0.14,-1.0049854516983032,-9.760323524475098,1.2765707969665527,0.04535674676299095,-0.014660765416920185,-0.036651913076639175,-19.26337242126465,82.19818115234375,-22.771120071411133
0.15,-1.046859860420227,-9.704092025756836,1.2299107313156128,0.04566217586398125,-0.016493361443281174,-0.038179077208042145,-19.45337677001953,81.67202758789062,-22.274188995361328
0.16,-0.9966105818748474,-9.671788215637207,1.2765707969665527,0.04520402476191521,-0.01542434748262167,-0.03756821155548096,-19.117216110229492,81.90587615966797,-22.47880744934082
0.18,-0.916451096534729,-9.671788215637207,1.2693923711776733,0.04902193322777748,-0.016340645030140877,-0.03481931984424591,-19.117216110229492,82.24203491210938,-22.800350189208984
0.184,-0.8626124858856201,-9.69930648803711,1.2801601886749268,0.051770828664302826,-0.029016099870204926,-0.031612277030944824,-19.614147186279297,82.43203735351562,-22.712656021118164
0.19,-0.8590232729911804,-9.68375301361084,1.23589289188385,0.05360342189669609,-0.038637224584817886,-0.028099801391363144,-19.657995223999023,81.75971984863281,-22.66880989074707
0.2,-1.0516455173492432,-9.731609344482422,1.325623631477356,0.05054909735918045,-0.046273037791252136,-0.029932396486401558,-19.614147186279297,82.53434753417969,-22.94650650024414
0.21,-1.2382856607437134,-9.762716293334961,1.2897313833236694,0.051923543214797974,-0.036193765699863434,-0.03497203439474106,-19.219526290893555,81.99356842041016,-22.595731735229492
0.22,-1.2083754539489746,-9.744770050048828,1.2873386144638062,0.04917465150356293,-0.0024434609804302454,-0.039706241339445114,-19.27798843383789,82.15434265136719,-22.508039474487305
0.24,-1.00259268283844,-9.707681655883789,1.3710873126983643,0.04886921867728233,0.01114829070866108,-0.03894266113638878,-19.19029426574707,82.41741943359375,-23.078046798706055
0.243,-0.787238597869873,-9.708877563476562,1.4560325145721436,0.04902193322777748,0.010079275816679,-0.03741549327969551,-19.35106658935547,82.2712631225586,-22.508039474487305
0.25,-0.8231310248374939,-9.711270332336426,1.4404791593551636,0.04642575979232788,0.01160643994808197,-0.036193765699863434,-19.33645248413086,82.00818634033203,-23.618824005126953
0.26,-1.0241280794143677,-9.728019714355469,1.3986047506332397,0.044745877385139465,0.008246680721640587,-0.03298672288656235,-19.789535522460938,82.37358093261719,-22.288803100585938
0.27,-1.117448091506958,-9.719645500183105,1.377069354057312,0.03649919852614403,0.019853120669722557,-0.028405234217643738,-19.862613677978516,82.1104965209961,-22.128032684326172
0.28,-0.9116654396057129,-9.69810962677002,1.3794622421264648,0.03390302136540413,0.03298672288656235,-0.02535090781748295,-19.54106903076172,82.69512176513672,-22.054954528808594
0.3,-0.7262216210365295,-9.714859962463379,1.3316056728363037,0.032681290060281754,0.02275473065674305,-0.01817324012517929,-19.789535522460938,82.4466552734375,-22.186494827270508
0.304,-0.6855436563491821,-9.80100154876709,1.4883357286453247,0.03252857178449631,-0.005650503095239401,-0.005803219974040985,-19.92107582092285,82.72434997558594,-22.347267150878906
0.31,-0.7740780711174011,-9.77826976776123,1.4297115802764893,0.035124752670526505,-0.014660765416920185,-0.004123340360820293,-19.789535522460938,82.79742431640625,-22.65419578552246
0.32,-1.062413215637207,-9.720841407775879,1.3028918504714966,0.03436116874217987,-0.014202617108821869,0.001527163083665073,-20.02338409423828,82.4466552734375,-23.735750198364258
0.33,-1.1808578968048096,-9.68375301361084,1.262213945388794,0.035582900047302246,0.00015271631127689034,-0.00427605677396059,-19.964923858642578,82.16895294189453,-22.581117630004883
0.34,-0.9320043921470642,-9.66102123260498,1.3435698747634888,0.03649919852614403,0.0074830991216003895,-0.0032070425804704428,-19.570301055908203,82.53434753417969,-22.65419578552246
0.36,-0.8350950479507446,-9.741181373596191,1.377069354057312,0.03588833287358284,-0.017409659922122955,-0.004581489134579897,-19.935691833496094,82.38819122314453,-22.09880256652832
0.364,-0.9726824164390564,-9.759126663208008,1.4177473783493042,0.036193765699863434,-0.014355332590639591,-0.004581489134579897,-19.46799087524414,82.59281158447266,-22.420345306396484
0.37,-1.0719845294952393,-9.723234176635742,1.3962119817733765,0.035124752670526505,-0.006108652334660292,-0.007177666295319796,-19.482608795166016,82.25665283203125,-22.712656021118164
0.38,-1.0947163105010986,-9.79142951965332,1.4261221885681152,0.03787364438176155,0.0050396379083395,-0.017562376335263252,-19.979537963867188,82.24203491210938,-23.39959144592285
0.39,-0.8350950479507446,-10.103693962097168,1.4811570644378662,0.030695976689457893,-0.056810468435287476,-0.06536258012056351,-19.774919509887695,82.50511169433594,-22.888044357299805
0.4,-0.5180460810661316,-9.724431037902832,1.3674980401992798,0.03329215571284294,-0.12095130980014801,-0.08231408894062042,-19.83338165283203,82.30049896240234,-22.888044357299805
0.42,-1.1916255950927734,-9.562914848327637,1.2813564538955688,0.02580905519425869,-0.11041389405727386,-0.028405234217643738,-19.74568748474121,82.19818115234375,-23.268049240112305
0.423,-1.1473584175109863,-9.680163383483887,1.3411771059036255,0.025656340643763542,-0.0858265683054924,-0.01924225501716137,-19.657995223999023,82.00818634033203,-22.888044357299805
0.43,-1.0755738019943237,-9.80817985534668,1.4237295389175415,0.028099801391363144,-0.058490343391895294,-0.00931569468230009,-19.789535522460938,82.37358093261719,-22.873428344726562
0.44,-0.769292414188385,-9.860821723937988,1.5182459354400635,0.023976460099220276,-0.038637224584817886,-0.005650503095239401,-20.286466598510742,82.5635757446289,-22.72727394104004
0.45,-0.6317051649093628,-10.030712127685547,1.714457392692566,0.01725694164633751,-0.08643742650747299,-0.004581489134579897,-20.038002014160156,82.31510925292969,-22.244956970214844
0.46,-0.38763725757598877,-10.37527847290039,1.8795621395111084,-0.038179077208042145,-0.25564709305763245,-0.053297992795705795,-20.067232131958008,82.16895294189453,-22.20111083984375
0.479,-0.94037926197052,-9.347561836242676,1.5840485095977783,-0.07009679079055786,-0.2825251817703247,0.06368270516395569,-19.92107582092285,82.31510925292969,-22.858814239501953
0.483,-1.0169496536254883,-9.373882293701172,1.6797614097595215,-0.07956519722938538,-0.23747386038303375,0.09743300080299377,-19.62876319885254,82.32972717285156,-23.326513290405273
0.49,-0.8841480016708374,-9.730413436889648,1.86520516872406,-0.0985020250082016,-0.1592831164598465,0.14355333149433136,-19.35106658935547,82.19818115234375,-22.990352630615234
0.5,-0.20817556977272034,-10.04148006439209,2.1678972244262695,-0.11636982858181,-0.13500121235847473,0.16951508820056915,-19.54106903076172,82.47588348388672,-22.610347747802734
0.51,-0.3194418251514435,-9.881160736083984,1.8305093050003052,-0.13057243824005127,-0.156686931848526,0.21945331990718842,-19.044137954711914,81.97895050048828,-23.677288055419922
0.52,-1.5625131130218506,-9.750751495361328,1.3088740110397339,-0.14324790239334106,-0.09819658100605011,0.2796235680580139,-19.05875587463379,81.90587615966797,-22.990352630615234
0.539,-2.0685951709747314,-9.615557670593262,0.9774680137634277,-0.1134682148694992,0.2782491147518158,0.3145955801010132,-18.18181800842285,81.92049407958984,-23.531131744384766
0.543,-1.5792629718780518,-9.700502395629883,1.057627558708191,-0.1010981947183609,0.3309362530708313,0.3124575614929199,-18.00642967224121,81.83279418945312,-22.72727394104004
0.55,-0.7704888582229614,-9.804591178894043,1.1102696657180786,-0.08689558506011963,0.3500257730484009,0.30711251497268677,-18.00642967224121,81.05816650390625,-22.698041915893555
0.56,-0.1615155190229416,-9.742377281188965,1.155733346939087,-0.06352998316287994,0.27290403842926025,0.2993239462375641,-18.386436462402344,81.96434020996094,-22.74188804626465
0.57,-0.41156551241874695,-9.579665184020996,1.0660024881362915,-0.033139437437057495,0.1342376321554184,0.289702832698822,-18.327974319458008,81.35047912597656,-22.639577865600586
0.58,-1.3363914489746094,-9.55095100402832,0.8338987231254578,-0.008704829961061478,0.013439035043120384,0.279928982257843,-17.845659255981445,81.45278930664062,-22.347267150878906
0.6,-2.1188442707061768,-9.385847091674805,0.5982056260108948,0.040622539818286896,0.031154125928878784,0.22021691501140594,-17.494884490966797,81.62818145751953,-21.587255477905273
0.604,-2.0398812294006348,-9.378667831420898,0.5850450992584229,0.047800205647945404,0.02886338159441948,0.20754145085811615,-17.78719711303711,82.15434265136719,-21.631101608276367
0.61,-1.852044701576233,-9.384650230407715,0.5084748268127441,0.05803219974040985,0.01970040239393711,0.19349156320095062,-16.9541072845459,82.09587860107422,-22.244956970214844
0.62,-1.8113667964935303,-9.347561836242676,0.37926235795021057,0.07666358351707458,-0.011759155429899693,0.1693623811006546,-16.9541072845459,81.81818389892578,-22.566499710083008
0.63,-1.904686689376831,-9.403792381286621,0.4486542344093323,0.09773843735456467,-0.02672535367310047,0.13744467496871948,-17.23180389404297,81.49663543701172,-22.610347747802734
0.64,-1.624726414680481,-9.438488960266113,0.6783652305603027,0.11591167747974396,-0.03451388329267502,0.11636982858181,-16.69102668762207,81.62818145751953,-23.414207458496094
0.659,-1.4644074440002441,-9.651450157165527,0.92482590675354,0.13836097717285156,-0.0607810914516449,0.11698068678379059,-16.69102668762207,82.2274169921875,-23.253435134887695
0.663,-1.3495519161224365,-9.66819953918457,1.0277173519134521,0.13988813757896423,-0.05650503188371658,0.11804971098899841,-16.647178649902344,82.00818634033203,-22.771120071411133
0.67,-1.0815558433532715,-9.647860527038574,1.137787103652954,0.15271630883216858,-0.04108068719506264,0.11911872029304504,-16.778718948364258,81.90587615966797,-23.092662811279297
0.68,-0.8135596513748169,-9.609575271606445,1.0636096000671387,0.15790866315364838,-0.01710422709584236,0.11484266072511673,-16.07716941833496,81.86203002929688,-22.814966201782227
0.69,-0.6879364848136902,-9.570094108581543,0.8781659007072449,0.1644754558801651,-0.021991148591041565,0.11255192011594772,-16.35486602783203,82.02279663085938,-22.464191436767578
0.709,-0.7465606331825256,-9.604789733886719,1.0707881450653076,0.17989981174468994,-0.07437284290790558,0.12339477986097336,-16.15024757385254,81.8035659790039,-23.443437576293945
0.713,-1.4799607992172241,-9.578468322753906,1.155733346939087,0.19624045491218567,-0.11194105446338654,0.1492038369178772,-15.667933464050293,81.59895324707031,-23.735750198364258
0.72,-1.975274920463562,-9.677770614624023,1.2035897970199585,0.1898263692855835,-0.07070764899253845,0.16004669666290283,-15.390236854553223,81.58433532714844,-23.56036376953125
0.73,-1.7096717357635498,-9.56052303314209,1.2897313833236694,0.18906280398368835,0.027183502912521362,0.15745051205158234,-15.580240249633789,81.78894805908203,-23.38497543334961
0.74,-0.8422735333442688,-9.399006843566895,1.5361920595169067,0.20265454053878784,0.07635815441608429,0.16584990918636322,-15.375621795654297,82.00818634033203,-23.414207458496094
0.75,-0.7262216210365295,-9.65982437133789,1.6630116701126099,0.20173825323581696,0.05268712714314461,0.18738290667533875,-15.01023006439209,81.65740966796875,-24.334989547729492
0.76,-1.0887342691421509,-9.718448638916016,1.8747763633728027,0.20097467303276062,0.05711590126156807,0.1944078654050827,-15.22946548461914,81.89126586914062,-23.735750198364258
0.776,-0.9343971610069275,-9.511469841003418,1.8999011516571045,0.2177734524011612,0.12476921826601028,0.2151772677898407,-14.761765480041504,81.99356842041016,-23.5895938873291
0.78,-0.7704888582229614,-9.499505043029785,1.8987046480178833,0.2177734524011612,0.12721268832683563,0.22082778811454773,-14.95176887512207,82.00818634033203,-24.21806526184082
0.79,-0.3002992272377014,-9.351150512695312,1.9334007501602173,0.2246456891298294,0.10323622077703476,0.25732696056365967,-14.674072265625,81.71586608886719,-24.510377883911133
0.8,0.33020952343940735,-9.31884765625,2.3126630783081055,0.23884831368923187,-0.013591751456260681,0.308181494474411,-14.425606727600098,81.96434020996094,-24.232681274414062
0.81,0.16869398951530457,-9.57607650756836,2.3605194091796875,0.24205534160137177,-0.17104226350784302,0.3744603991508484,-14.717918395996094,81.97895050048828,-24.583454132080078
0.829,0.08374878764152527,-9.506684303283691,2.148754596710205,0.24846942722797394,-0.2837468981742859,0.4311181306838989,-13.650979042053223,81.92049407958984,-24.788074493408203
0.833,-0.751346230506897,-9.90149974822998,2.8630123138427734,0.20723602175712585,-0.4017966091632843,0.4977024495601654,-13.460975646972656,81.99356842041016,-25.796550750732422
0.84,-1.6307085752487183,-9.964909553527832,2.3030917644500732,0.17104226350784302,-0.446389764547348,0.508087158203125,-13.329436302185059,81.87664031982422,-24.86115074157715
0.85,-2.620140552520752,-9.852446556091309,2.4394824504852295,0.13561208546161652,-0.4219551682472229,0.5068654417991638,-12.014030456542969,81.62818145751953,-25.25577163696289
0.86,-2.365305185317993,-9.862017631530762,2.4263219833374023,0.08216137439012527,-0.34987306594848633,0.48288896679878235,-11.911721229553223,81.62818145751953,-25.43115997314453
0.87,-1.573280930519104,-9.57487964630127,2.8666014671325684,0.05513058975338936,-0.3145955801010132,0.44944408535957336,-11.51710033416748,81.35047912597656,-25.489622116088867
0.88,-1.5122638940811157,-9.571290016174316,2.170289993286133,0.035582900047302246,-0.3730859160423279,0.42867469787597656,-11.064016342163086,81.77433776855469,-25.796550750732422
0.894,-1.832902193069458,-9.474380493164062,2.3988046646118164,0.04108068719506264,-0.39324450492858887,0.3897320032119751,-10.844781875610352,82.066650390625,-25.606548309326172
0.9,-2.0171494483947754,-9.590433120727539,1.8831512928009033,0.02733621932566166,-0.4106541574001312,0.34987306594848633,-10.21631145477295,82.05203247070312,-26.045015335083008
0.91,-1.8472589254379272,-9.626324653625488,1.7443677186965942,0.04902193322777748,-0.4190535545349121,0.33429598808288574,-10.362466812133789,82.16895294189453,-25.650394439697266
0.92,-1.9884356260299683,-9.626324653625488,2.172683000564575,0.04077525436878204,-0.4509712755680084,0.2974913716316223,-9.704765319824219,82.32972717285156,-25.752704620361328
0.93,-2.210968017578125,-9.56770133972168,1.97407865524292,0.03894266113638878,-0.5403103232383728,0.25763240456581116,-9.558608055114746,82.12510681152344,-26.366558074951172
0.949,-3.266202688217163,-9.714859962463379,1.7419748306274414,0.006872233934700489,-0.5910121202468872,0.23716843128204346,-9.485530853271484,82.24203491210938,-26.43963623046875
0.953,-5.139782905578613,-9.927821159362793,1.0229315757751465,-0.019089538604021072,-0.42439863085746765,0.20570887625217438,-8.579362869262695,81.94972229003906,-26.49810028076172
0.96,-5.07397985458374,-9.846465110778809,0.8638089299201965,-0.05360342189669609,-0.2151772677898407,0.18387043476104736,-8.491668701171875,81.81818389892578,-27.024263381958008
0.97,-2.137986898422241,-9.426525115966797,1.6737794876098633,-0.0630718320608139,0.0354301817715168,0.1492038369178772,-8.330897331237793,81.96434020996094,-26.147327423095703
0.98,0.5144568085670471,-9.256633758544922,2.1164515018463135,-0.05375614017248154,-0.027030786499381065,0.13866640627384186,-7.965507507324219,82.2712631225586,-26.629642486572266
0.99,-0.18424732983112335,-9.509077072143555,1.7647066116333008,-0.054367005825042725,-0.3718641996383667,0.1797470897436142,-7.950891494750977,82.21280670166016,-26.23501968383789
1.01,-2.1547367572784424,-9.570094108581543,1.5230315923690796,-0.028557950630784035,-0.5453499555587769,0.21945331990718842,-7.600116729736328,81.75971984863281,-26.702720642089844
1.014,-2.7421746253967285,-9.498309135437012,1.683350682258606,-0.011759155429899693,-0.3474296033382416,0.2275473028421402,-7.45396089553833,81.92049407958984,-26.805028915405273
1.02,-1.9489539861679077,-9.524630546569824,1.903490424156189,-0.014355332590639591,-0.26740625500679016,0.22510384023189545,-7.658579349517822,81.86203002929688,-26.118093490600586
1.03,-1.397408366203308,-9.381060600280762,1.8843477964401245,-0.016340645030140877,-0.2987130880355835,0.23884831368923187,-7.015492916107178,81.55509948730469,-27.126571655273438
1.04,-2.1104695796966553,-9.343972206115723,1.8951154947280884,-0.02321287989616394,-0.36651915311813354,0.26679539680480957,-6.664718151092529,81.55509948730469,-26.819643020629883
1.05,-2.7361927032470703,-9.336793899536133,1.6223337650299072,-0.014355332590639591,-0.3145955801010132,0.28817567229270935,-6.737796306610107,81.35047912597656,-26.86349105834961
1.069,-2.5531415939331055,-9.480362892150879,1.3950154781341553,-0.007941247895359993,-0.2577851414680481,0.3075706362724304,-6.416252136230469,81.7304916381836,-26.731950759887695
1.073,-1.4500504732131958,-9.407382011413574,1.9238293170928955,-0.0027488935738801956,-0.23258693516254425,0.3445279896259308,-5.627009868621826,81.43817901611328,-26.775794982910156
1.08,-1.2035897970199585,-9.29491901397705,2.135594129562378,0.004123340360820293,-0.2600758671760559,0.3672827482223511,-5.24700403213501,81.33586883544922,-26.60040855407715
1.09,-1.9860427379608154,-9.409774780273438,2.073380708694458,-0.004581489134579897,-0.3428480923175812,0.37950003147125244,-4.823151111602783,81.30663299560547,-26.293479919433594
1.1,-3.328416109085083,-9.598808288574219,1.7778671979904175,-0.04596760869026184,-0.3182607889175415,0.3897320032119751,-4.9400763511657715,82.08126068115234,-26.86349105834961
1.11,-3.4025938510894775,-9.468399047851562,1.6654045581817627,-0.03848451003432274,-0.15592335164546967,0.379652738571167,-4.413913726806641,81.65740966796875,-26.103479385375977
1.13,-2.1571295261383057,-9.68494987487793,2.007578134536743,-0.04963279888033867,-0.058490343391895294,0.3923282027244568,-4.267758369445801,81.64279174804688,-27.097341537475586
1.133,-1.6307085752487183,-9.428916931152344,1.3890334367752075,-0.04566217586398125,-0.06780604273080826,0.42699480056762695,-3.566208839416504,81.75971984863281,-26.045015335083008
1.14,-1.9956140518188477,-9.629914283752441,1.612762451171875,-0.0429132841527462,-0.0685696229338646,0.4619668424129486,-3.697749137878418,81.59895324707031,-25.562700271606445
1.15,-2.5806589126586914,-9.79262638092041,1.5816556215286255,-0.05375614017248154,-0.039248090237379074,0.4761694371700287,-2.952353000640869,81.0435562133789,-25.40192985534668
1.16,-3.504288673400879,-9.686145782470703,1.483549952507019,-0.06261368840932846,0.04642575979232788,0.4720461070537567,-2.776965856552124,81.08740234375,-26.54194450378418
1.17,-3.328416109085083,-9.640682220458984,1.8460626602172852,-0.06948591768741608,0.16035212576389313,0.46853363513946533,-2.5577316284179688,81.37971496582031,-25.387313842773438
1.19,-2.9072792530059814,-9.528219223022461,1.9573287963867188,-0.0734565407037735,0.2324342280626297,0.4810563623905182,-2.3969600200653076,80.63432312011719,-26.176557540893555
1.194,-2.589033842086792,-9.492326736450195,2.166700839996338,-0.08994990587234497,0.2759583592414856,0.5093088746070862,-1.8269511461257935,80.80970764160156,-26.658872604370117
1.2,-2.2995026111602783,-9.400203704833984,2.1332013607025146,-0.08689558506011963,0.2945897579193115,0.5407684445381165,-1.5346390008926392,80.7073974609375,-25.387313842773438
1.21,-2.2648065090179443,-9.626324653625488,2.053041696548462,-0.10293079167604446,0.28817567229270935,0.5816964507102966,-1.490792155265808,80.31277465820312,-26.52733039855957
1.22,-2.9718856811523438,-9.950552940368652,1.9896320104599,-0.11789698898792267,0.2868012487888336,0.6136141419410706,-1.4177141189575195,80.16661834716797,-25.387313842773438
1.23,-3.407379150390625,-9.78425121307373,2.0685951709747314,-0.12782354652881622,0.35323283076286316,0.6265950202941895,-1.5784857273101807,80.21046447753906,-25.738086700439453
1.25,-3.194417953491211,-9.696913719177246,1.9226329326629639,-0.13836097717285156,0.4199698567390442,0.6386595964431763,-0.6138556003570557,80.0643081665039,-25.197309494018555
1.253,-3.0412774085998535,-10.41476058959961,1.8436697721481323,-0.20234911143779755,0.45463645458221436,0.688292384147644,0.4823150932788849,79.59661102294922,-25.358083724975586
1.26,-2.1894326210021973,-10.034300804138184,1.875972867012024,-0.24556781351566315,0.4683809280395508,0.7237226366996765,0.6430867910385132,80.15200805664062,-24.67115020751953
1.27,-1.9920247793197632,-10.231709480285645,2.0338993072509766,-0.28496861457824707,0.39813143014907837,0.7825183272361755,0.8038585186004639,79.3042984008789,-23.66267204284668
1.28,-3.073580503463745,-10.482954978942871,1.810170292854309,-0.3104722499847412,0.37033703923225403,0.8413141369819641,1.344636082649231,79.07044982910156,-24.174217224121094
1.29,-4.400400638580322,-10.614561080932617,1.4189437627792358,-0.36193764209747314,0.42562034726142883,0.8920159339904785,2.0754165649414062,78.13504791259766,-24.028060913085938
1.31,-2.506481647491455,-10.333403587341309,2.5148565769195557,-0.33857205510139465,0.7064656615257263,0.8286387324333191,3.3031277656555176,77.5650405883789,-23.092662811279297
1.314,-3.0580272674560547,-11.387442588806152,2.337787628173828,-0.3712533414363861,0.5584835410118103,0.9033169150352478,3.1131248474121094,77.15580749511719,-23.063430786132812
1.32,-2.799602508544922,-11.0895357131958,2.3018951416015625,-0.4040873646736145,0.579405665397644,0.9027060866355896,3.1862027645111084,77.15580749511719,-23.063430786132812
1.331,-2.4251255989074707,-10.917252540588379,1.987239122390747,-0.44394633173942566,0.5141957998275757,0.9422596096992493,3.624671220779419,77.12657165527344,-22.420345306396484
1.34,-3.394218921661377,-11.142178535461426,1.397408366203308,-0.4807509481906891,0.4700608253479004,0.9900597929954529,4.589301109313965,76.5857925415039,-22.259572982788086
1.35,-3.682553768157959,-11.23789119720459,1.262213945388794,-0.5250386595726013,0.5508477091789246,1.0328203439712524,4.720841884613037,75.85501098632812,-21.777257919311523
1.37,-2.825923442840576,-11.168498992919922,1.5397813320159912,-0.5832235813140869,0.6206390857696533,1.103986144065857,5.290850639343262,75.73809051513672,-21.748027801513672
1.374,-2.304288148880005,-11.436495780944824,1.6905291080474854,-0.6140722632408142,0.5296201705932617,1.2026408910751343,5.773165702819824,74.90499877929688,-20.91493797302246
1.38,-3.0077779293060303,-11.45563793182373,1.5912269353866577,-0.6362161040306091,0.49617525935173035,1.2544116973876953,6.123940467834473,74.49576568603516,-20.505699157714844
1.39,-3.5126636028289795,-11.443674087524414,1.3950154781341553,-0.6684393286705017,0.5470298528671265,1.3187053203582764,6.240865230560303,73.63343811035156,-20.403390884399414
1.4,-3.0580272674560547,-11.767902374267578,1.1784651279449463,-0.7032586336135864,0.6235406994819641,1.3836097717285156,7.775504112243652,73.25343322753906,-19.672609329223633
1.41,-2.5328028202056885,-13.022936820983887,0.7980062961578369,-0.821461021900177,0.6557638049125671,1.4744758605957031,8.1262788772583,71.631103515625,-19.511838912963867
1.43,-1.9836498498916626,-14.56391429901123,1.4464612007141113,-0.9251554012298584,0.6101016402244568,1.5451836585998535,9.50014591217041,70.19877624511719,-17.304880142211914
1.433,-2.170289993286133,-13.075578689575195,1.5421741008758545,-0.8865181803703308,0.6931793689727783,1.6942347288131714,9.207834243774414,69.95030975341797,-17.553346633911133
1.44,-2.317448616027832,-13.077971458435059,1.6701900959014893,-0.891252338886261,0.8202393054962158,1.7620407342910767,9.193218231201172,69.80415344238281,-17.553346633911133
1.45,-1.5852450132369995,-13.954941749572754,1.8041881322860718,-0.9401216506958008,1.019075870513916,1.8782578706741333,10.260157585144043,68.38643646240234,-16.895645141601562
1.46,-0.1172483041882515,-14.343774795532227,1.9250258207321167,-0.9763153791427612,1.1371256113052368,2.04655122756958,11.137094497680664,67.96258544921875,-15.711779594421387
1.47,1.5158531665802002,-14.367703437805176,2.3018951416015625,-0.9863946437835693,1.1357512474060059,2.18048357963562,11.6047945022583,66.85179901123047,-15.039462089538574
1.49,2.504088878631592,-14.429916381835938,2.506481647491455,-0.991892397403717,1.1282680034637451,2.3483188152313232,11.838644027709961,65.58023834228516,-15.200233459472656
1.494,2.9216363430023193,-14.853446006774902,2.8630123138427734,-0.9970847964286804,1.1284207105636597,2.574033260345459,13.387897491455078,63.650978088378906,-13.7240571975708
1.5,3.5880372524261475,-14.956337928771973,3.0999014377593994,-0.9520334601402283,1.2264646291732788,2.6056456565856934,13.548670768737793,62.540191650390625,-13.051739692687988
1.51,3.0544381141662598,-14.512468338012695,2.2169501781463623,-0.9133962988853455,1.3672691583633423,2.6842947006225586,14.104063987731934,61.54633331298828,-12.70096492767334
1.52,2.076970100402832,-13.447663307189941,0.3924228847026825,-0.8306240439414978,1.3031282424926758,2.688570499420166,14.922536849975586,60.91786193847656,-12.920199394226074
1.53,-2.2157537937164307,-12.945170402526855,-0.92482590675354,-0.8051204085350037,0.9929614663124084,2.7762298583984375,15.624086380004883,59.95323181152344,-12.072493553161621
1.55,-6.150750637054443,-13.261022567749023,-0.3433700203895569,-0.8828530311584473,0.8321511745452881,2.75530743598938,16.413330078125,58.57936096191406,-11.531715393066406
1.554,-0.8135596513748169,-13.88794231414795,1.4249258041381836,-0.8090909719467163,0.01878410577774048,2.486679792404175,16.910259246826172,57.14703369140625,-11.385560035705566
1.56,0.4342972934246063,-12.601799964904785,2.2683956623077393,-0.7345654964447021,-0.6279694437980652,2.568535566329956,17.59719467163086,56.197017669677734,-11.56094741821289
1.57,-1.0444670915603638,-8.481359481811523,3.5952160358428955,-0.6230825781822205,-1.2780828475952148,2.5952608585357666,19.27798843383789,54.16544723510742,-13.139432907104492
1.58,-3.998406410217285,-4.954339027404785,3.9014973640441895,-0.39568793773651123,-1.4066699743270874,2.470491647720337,20.564163208007812,53.78544235229492,-13.227126121520996
1.59,-6.890132904052734,-4.784448623657227,3.1381869316101074,-0.2848159074783325,-0.9531024694442749,1.806023120880127,21.66033363342285,52.689273834228516,-14.966383934020996
1.61,-4.147957801818848,-5.764309883117676,2.4394824504852295,-0.1036943718791008,-0.46700647473335266,1.056644082069397,21.616485595703125,52.67465591430664,-15.375621795654297
1.613,2.1236300468444824,-5.332405090332031,1.994417667388916,0.11178833991289139,-0.06872233748435974,0.2612975835800171,21.631101608276367,52.309268951416016,-14.820228576660156
1.62,3.6119656562805176,-4.468596458435059,1.9477574825286865,0.2652682065963745,-0.2538144886493683,-0.039095375686883926,21.601871490478516,52.57234573364258,-15.638701438903809
1.63,4.353740692138672,-2.9730820655822754,2.0614166259765625,0.4262312054634094,-0.682641863822937,-0.41401392221450806,20.98801612854004,52.718502044677734,-16.70564079284668
1.64,2.5423738956451416,-2.324627161026001,1.7730815410614014,0.5444336533546448,-1.0755809545516968,-0.8115344643592834,20.798011779785156,54.39929962158203,-17.670272827148438
1.65,0.2871387004852295,-2.2911276817321777,1.6977075338363647,0.6537785530090332,-1.2261593341827393,-1.2185235023498535,19.74568748474121,55.13007736206055,-18.459514617919922
1.67,-1.0648061037063599,-2.496910333633423,1.6390833854675293,0.7336491346359253,-1.1241447925567627,-1.6490306854248047,19.26337242126465,56.25548553466797,-19.52645492553711
1.674,-0.9631110429763794,-2.8390841484069824,1.4309078454971313,0.8352054357528687,-0.8410086631774902,-2.2690589427948,17.50950050354004,58.27243423461914,-21.441099166870117
1.68,-0.24885353446006775,-3.126222848892212,1.219143033027649,0.8724682927131653,-0.7883215546607971,-2.5555546283721924,16.749486923217773,59.237064361572266,-22.65419578552246
1.69,0.6867400407791138,-3.424129009246826,0.8841480016708374,0.9049968719482422,-0.8796459436416626,-2.8910725116729736,15.273311614990234,60.53785705566406,-23.764982223510742
1.7,0.638883650302887,-3.968496322631836,0.5395814776420593,0.9219483733177185,-1.1191051006317139,-3.174513816833496,13.607131958007812,62.554805755615234,-25.270387649536133
1.71,-0.8075776100158691,-4.755734920501709,0.4211367666721344,0.9216429591178894,-1.2681562900543213,-3.464980363845825,10.96170711517334,64.2940673828125,-25.92809295654297
1.73,-2.9898316860198975,-5.765506267547607,0.47018963098526,0.8677340149879456,-1.0645854473114014,-3.8482983112335205,6.0947089195251465,68.02104949951172,-29.070446014404297
1.733,-4.4650068283081055,-6.732206344604492,-0.23808583617210388,0.8374962210655212,-0.5366451144218445,-4.232227325439453,4.896229267120361,68.82490539550781,-28.982751846313477
1.74,-4.143172264099121,-7.15932559967041,-0.4055834412574768,0.8452848196029663,-0.2730567753314972,-4.421900749206543,3.0985093116760254,70.3156967163086,-29.508914947509766
1.75,-3.0233314037323,-8.132007598876953,-0.5312066078186035,0.8478809595108032,-0.10186177492141724,-4.622264385223389,-0.9646301865577698,72.15726470947266,-31.262788772583008
1.76,-2.26959228515625,-9.549755096435547,-0.4247260093688965,0.8512406945228577,-0.20433442294597626,-4.757266044616699,-4.676995277404785,73.63343811035156,-31.423559188842773
1.77,-2.5950162410736084,-11.272586822509766,-0.20817556977272034,0.8266533613204956,-0.493731826543808,-4.846909999847412,-8.915521621704102,74.33499145507812,-32.28588104248047
1.79,-3.882354736328125,-12.850653648376465,-0.2189432680606842,0.7965682744979858,-0.6600399017333984,-4.85729455947876,-13.285589218139648,75.56270599365234,-33.995906829833984
1.794,-5.788238048553467,-13.99801254272461,-0.0813559740781784,0.722959041595459,-0.631481945514679,-4.815755844116211,-18.664133071899414,76.23502349853516,-35.6036262512207
1.8,-6.459424018859863,-14.474184036254883,0.04905286058783531,0.669355571269989,-0.5479460954666138,-4.778646469116211,-21.967260360717773,75.86962890625,-36.0859375
1.81,-6.551548480987549,-14.662019729614258,0.32901307940483093,0.616973876953125,-0.436157763004303,-4.715421199798584,-25.825780868530273,75.97193908691406,-37.109031677246094
1.82,-6.0023956298828125,-14.513665199279785,0.48813581466674805,0.5957463383674622,-0.3465133011341095,-4.608061790466309,-30.02046012878418,75.47500610351562,-38.33674621582031
1.83,-5.78225564956665,-14.085350036621094,0.5790630578994751,0.6130033135414124,-0.28588491678237915,-4.481612682342529,-33.46974563598633,74.36421966552734,-38.848289489746094
1.85,-6.007181167602539,-13.545768737792969,0.6305087208747864,0.6369796991348267,-0.14294245839118958,-4.3678388595581055,-39.87138366699219,72.2741928100586,-41.47909927368164
1.854,-6.156732559204102,-12.92363452911377,0.47617167234420776,0.6916521787643433,0.2664899528026581,-4.247193336486816,-42.049110412597656,71.47032928466797,-41.888336181640625
1.86,-5.814558506011963,-12.581460952758789,0.380458801984787,0.7170030474662781,0.38667771220207214,-4.208556175231934,-43.52528381347656,70.7687759399414,-42.253726959228516
1.87,-5.641078948974609,-12.271590232849121,0.19980068504810333,0.7857254147529602,0.6270532011985779,-4.132503032684326,-45.83454895019531,68.59104919433594,-44.621456146240234
1.88,-5.637490272521973,-12.181859016418457,0.19621144235134125,0.8211556077003479,0.7386887669563293,-4.112039089202881,-48.17304992675781,66.80795288085938,-45.717628479003906
1.89,-5.797809600830078,-12.524033546447754,0.08015955239534378,0.8458956480026245,0.7611380815505981,-4.020256996154785,-50.73078155517578,64.674072265625,-47.14995574951172
1.91,-6.1124653816223145,-12.54317569732666,-0.06939185410737991,0.8512406945228577,0.8767443299293518,-3.7789649963378906,-53.71236038208008,61.50248718261719,-48.33382034301758
1.913,-5.576473236083984,-12.620943069458008,-0.36610186100006104,0.8443684577941895,0.9117163419723511,-3.7058138847351074,-54.676998138427734,60.31861877441406,-49.663841247558594
1.92,-4.7473602294921875,-12.794422149658203,-0.7118647694587708,0.8202393054962158,0.930347740650177,-3.553708553314209,-55.52470016479492,59.32476043701172,-50.555397033691406
1.93,-4.097708702087402,-13.022936820983887,-0.9583254456520081,0.7588472962379456,0.8643743395805359,-3.277291774749756,-56.44548416137695,57.35165023803711,-51.63694763183594
1.94,-4.034298896789551,-12.93200969696045,-1.0360921621322632,0.6983716487884521,0.7420485615730286,-2.948035717010498,-57.58550262451172,55.773162841796875,-52.79158401489258
1.95,-4.728217601776123,-12.714262962341309,-0.8446664214134216,0.628885805606842,0.6446155309677124,-2.591290235519409,-58.155513763427734,54.29698944091797,-53.72698211669922
1.97,-5.402993679046631,-12.485748291015625,-0.882951557636261,0.5453499555587769,0.584750771522522,-2.207972288131714,-58.56474685668945,51.695411682128906,-55.363929748535156
1.974,-5.867201328277588,-12.108878135681152,-0.9547362327575684,0.4118758738040924,0.5571091175079346,-1.5679383277893066,-58.53551483154297,51.6807975769043,-55.64162826538086
1.98,-5.775076866149902,-11.929417610168457,-0.9427720904350281,0.3332270085811615,0.5433646440505981,-1.2293663024902344,-59.00321578979492,50.81847381591797,-55.84624481201172
1.99,-5.223531246185303,-11.408977508544922,-0.9260223507881165,0.22617284953594208,0.47998735308647156,-0.7783950567245483,-58.871673583984375,49.98538589477539,-56.372406005859375
2.0,-4.8562331199646,-11.154142379760742,-0.8578268885612488,0.11530081182718277,0.27840182185173035,-0.322536826133728,-58.72551727294922,49.35691452026367,-56.53317642211914
2.01,-5.558526992797852,-11.059626579284668,-0.7010970711708069,0.029474247246980667,0.052839841693639755,0.10415252298116684,-57.2347297668457,48.78690719604492,-56.85471725463867
2.03,-5.928217887878418,-11.12183952331543,-0.332602322101593,-0.1595885455608368,0.012675453908741474,0.7156286239624023,-56.66471862792969,49.18152618408203,-57.68781280517578
2.034,-4.19581413269043,-11.20080280303955,0.20338991284370422,-0.21059578657150269,-0.009010262787342072,0.859029233455658,-56.211631774902344,48.9622917175293,-57.337032318115234
2.04,-3.129812002182007,-11.181659698486328,0.5551348328590393,-0.26939156651496887,-0.12553280591964722,1.0917688608169556,-55.68547058105469,48.494590759277344,-57.556270599365234
2.05,-2.830709218978882,-10.872984886169434,1.1880364418029785,-0.2991712689399719,-0.3478877544403076,1.4188872575759888,-55.02777099609375,48.88921356201172,-57.83396911621094
2.06,-3.5365920066833496,-10.314261436462402,1.101894736289978,-0.3171917796134949,-0.5193881988525391,1.71989107131958,-54.238529205322266,49.239986419677734,-57.35165023803711
2.07,-3.9182469844818115,-10.045068740844727,0.33858439326286316,-0.3191770911216736,-0.6123924255371094,1.9750800132751465,-53.449283599853516,49.649227142333984,-56.007015228271484
2.089,-3.7184462547302246,-10.571490287780762,0.33738797903060913,-0.36713001132011414,-0.6925684809684753,2.194227933883667,-51.183860778808594,50.30692672729492,-55.96316909790039
2.093,1.672582983970642,-12.838689804077148,3.7112677097320557,-0.49235737323760986,-0.29565879702568054,1.8532124757766724,-51.183860778808594,50.49692916870117,-56.98625946044922
2.1,7.856832981109619,-14.776875495910645,4.1730828285217285,-0.6093380451202393,0.2304489016532898,1.359938621520996,-50.62847137451172,50.964630126953125,-55.90470504760742
2.11,15.597614288330078,-14.549556732177734,0.453439861536026,-0.5302309989929199,0.20845776796340942,1.3280209302902222,-49.94153594970703,50.86231994628906,-56.211631774902344
2.12,8.204988479614258,-10.743773460388184,-0.7154539227485657,-0.2727513313293457,-1.140485405921936,2.275014877319336,-49.26921844482422,51.198482513427734,-56.34317398071289
2.13,-3.205185890197754,-9.157332420349121,1.5469597578048706,0.0529925599694252,-2.0645718574523926,2.6346616744995117,-47.500728607177734,51.6807975769043,-55.743934631347656
2.149,-16.01396369934082,-9.159724235534668,6.2536420822143555,0.0013744467869400978,-0.469449907541275,2.2982277870178223,-44.89915466308594,52.47003936767578,-54.676998138427734
2.153,-11.33958625793457,-8.592625617980957,5.047659397125244,-0.0962112694978714,0.24388794600963593,1.9769126176834106,-44.46068572998047,52.104644775390625,-54.633148193359375
2.16,-2.7529425621032715,-7.822136878967285,2.8630123138427734,-0.16493360698223114,0.7780895829200745,1.6865988969802856,-43.51066970825195,52.76234817504883,-55.10084533691406
2.17,4.758127689361572,-8.34736156463623,1.8831512928009033,-0.14996741712093353,0.46822819113731384,1.6933183670043945,-42.692195892333984,53.025428771972656,-55.05699920654297
2.18,6.265605926513672,-9.999605178833008,2.3497517108917236,-0.19685132801532745,-0.7133378982543945,1.8312212228775024,-41.81526184082031,53.05466079711914,-54.80853271484375
2.19,1.5421741008758545,-9.565308570861816,3.1034910678863525,-0.2015855312347412,-1.1946996450424194,1.8238909244537354,-41.2014045715332,52.8208122253418,-54.73545837402344
2.209,-6.86261510848999,-9.439684867858887,1.6235301494598389,-0.2909245789051056,-0.5016730427742004,1.623374342918396,-39.24291229248047,52.85004425048828,-54.867000579833984
2.213,-7.692924499511719,-9.568897247314453,0.17108681797981262,-0.30146196484565735,-0.37690383195877075,1.5717562437057495,-38.62905502319336,53.0985107421875,-54.267757415771484
2.22,-6.014359474182129,-9.78544807434082,-0.8901299834251404,-0.2535090744495392,-0.052839841693639755,1.408502459526062,-38.04443359375,53.317745208740234,-54.53084182739258
2.23,-1.753938913345337,-9.674181938171387,-0.30149564146995544,-0.1966986060142517,0.05711590126156807,1.2664763927459717,-37.57673263549805,53.25928497314453,-54.253143310546875
2.24,1.0636096000671387,-9.650253295898438,-0.6041877269744873,-0.17516560852527618,-0.3220787048339844,1.3049609661102295,-36.75825881958008,53.244667053222656,-53.69774627685547
2.25,0.4019941985607147,-9.954142570495605,0.8614161610603333,-0.12049316614866257,-0.6191118955612183,1.3122912645339966,-36.3636360168457,53.18620300292969,-53.244667053222656
2.27,-2.99222469329834,-9.128618240356445,1.2023932933807373,0.006872233934700489,-0.6867652535438538,1.2414308786392212,-35.6474723815918,53.72698211669922,-53.58082580566406
2.273,-3.317648410797119,-9.602396965026855,1.5589239597320557,0.010231993161141872,-0.671493649482727,1.2279918193817139,-34.85823059082031,53.49312973022461,-53.80005645751953
2.28,-2.847459077835083,-9.060422897338867,1.6773686408996582,0.003512475173920393,-0.47937649488449097,1.146288514137268,-34.81438064575195,53.78544235229492,-53.23004913330078
2.29,-2.1092729568481445,-9.991230964660645,2.3150558471679688,-0.0429132841527462,-0.3428480923175812,1.0896308422088623,-34.25898742675781,52.908504486083984,-53.50774383544922
2.3,-1.4309078454971313,-10.327422142028809,2.3365912437438965,-0.03405573591589928,-0.4147774875164032,1.0856602191925049,-33.615901947021484,53.58082580566406,-52.923118591308594
2.31,-1.4799607992172241,-9.830911636352539,2.4873390197753906,-0.02122756652534008,-0.4482223689556122,1.0349584817886353,-33.367435455322266,52.96696853637695,-53.59543991088867
2.328,-3.0245277881622314,-9.56650447845459,1.275374412536621,-0.16630806028842926,-0.43860122561454773,0.9891435503959656,-32.052032470703125,53.78544235229492,-52.98158645629883
2.331,-2.9515466690063477,-9.278169631958008,1.7742778062820435,-0.14049901068210602,-0.3451388478279114,0.944244921207428,-32.31510925292969,53.34697341918945,-53.624671936035156
2.34,-1.975274920463562,-9.594021797180176,1.4763715267181396,-0.17333300411701202,-0.28237244486808777,0.9094256162643433,-31.160480499267578,53.317745208740234,-53.434669494628906
2.35,-1.428515076637268,-9.767501831054688,1.0169496536254883,-0.15561792254447937,-0.3393356204032898,0.9181304574012756,-31.02893829345703,52.83543014526367,-53.36158752441406
2.36,-1.6139588356018066,-9.772287368774414,1.3495519161224365,-0.11407908797264099,-0.39217546582221985,0.9089674949645996,-30.37123680114746,53.56621170043945,-52.63081359863281
2.37,-2.3748762607574463,-9.501898765563965,1.399801254272461,-0.09453140199184418,-0.407905250787735,0.9334020614624023,-30.064308166503906,53.80005645751953,-53.87313461303711
2.39,-2.6763720512390137,-9.672985076904297,1.0013961791992188,-0.11835514008998871,-0.27030786871910095,0.8862127065658569,-29.026599884033203,53.37620544433594,-53.317745208740234
2.394,-2.5124638080596924,-9.117850303649902,1.2215359210968018,-0.07559457421302795,-0.21502456068992615,0.8604037165641785,-29.143524169921875,53.332359313964844,-53.317745208740234
2.4,-2.366501569747925,-9.431309700012207,1.5182459354400635,-0.09834930300712585,-0.22540926933288574,0.8698720932006836,-28.70505714416504,52.689273834228516,-53.56621170043945
2.41,-2.1475582122802734,-9.361918449401855,1.9633108377456665,-0.0780380368232727,-0.2376265674829483,0.8680394887924194,-28.368898391723633,52.80619812011719,-53.215431213378906
2.42,-2.605783700942993,-9.7124662399292,1.4727823734283447,-0.11178833991289139,-0.2102903574705124,0.9051495790481567,-27.857351303100586,53.215431213378906,-53.08388900756836
2.43,-2.44785737991333,-9.997212409973145,1.4560325145721436,-0.11636982858181,-0.14217887818813324,0.9349292516708374,-27.769657135009766,53.80005645751953,-53.23004913330078
2.448,-1.5852450132369995,-10.082158088684082,1.810170292854309,-0.09758572280406952,0.004886921960860491,1.0751228332519531,-26.30809783935547,53.25928497314453,-52.14849853515625
2.452,-1.683350682258606,-10.325029373168945,1.939382791519165,-0.11621711403131485,-0.0009162978385575116,1.0888673067092896,-26.351943969726562,53.025428771972656,-52.703887939453125
2.46,-1.1198409795761108,-9.954142570495605,2.1308083534240723,-0.10812314599752426,0.005497787147760391,1.134682059288025,-25.78193473815918,53.0985107421875,-52.090030670166016
2.47,-1.7479568719863892,-9.255437850952148,2.362912178039551,-0.08827002346515656,-0.03222314268350601,1.2186760902404785,-24.84653663635254,52.45542526245117,-52.39695739746094
2.48,-2.943171739578247,-8.83669376373291,2.520838737487793,-0.06032294034957886,0.01725694164633751,1.2857186794281006,-24.364221572875977,52.543113708496094,-52.86465835571289
2.49,-3.345165967941284,-7.852047443389893,1.9094724655151367,0.06185010448098183,0.21349740028381348,1.2735012769699097,-23.94036865234375,52.23618698120117,-53.58082580566406
2.503,-4.595416069030762,-7.795815944671631,1.3746765851974487,0.10903944075107574,0.308181494474411,1.2625057697296143,-22.434959411621094,52.13387680053711,-53.56621170043945
2.51,-4.749752521514893,-7.763513088226318,1.2885348796844482,0.1342376321554184,0.4060726761817932,1.2735012769699097,-22.508039474487305,51.94387435913086,-52.25080108642578
2.52,-3.4408788681030273,-8.321040153503418,0.25722840428352356,0.10720684379339218,0.532369077205658,1.3083206415176392,-21.908798217773438,52.20695877075195,-52.63081359863281
2.53,-2.912065029144287,-9.097511291503906,0.20578275620937347,0.11621711403131485,0.47219884395599365,1.3629930019378662,-21.046478271484375,51.4177131652832,-53.025428771972656
2.54,-3.390629768371582,-8.769694328308105,-0.03469592705368996,0.12064588069915771,0.3107776939868927,1.4343116283416748,-20.724933624267578,52.0169563293457,-53.55158996582031
2.55,-4.00199556350708,-8.5100736618042,-0.27397817373275757,0.0988074541091919,0.25595253705978394,1.5062408447265625,-20.08184814453125,51.66618347167969,-53.37620544433594
2.569,-3.0520453453063965,-8.882157325744629,1.7072789669036865,0.04871650040149689,0.24587324261665344,1.5874860286712646,-18.941829681396484,51.344635009765625,-53.55158996582031
2.573,-2.8079774379730225,-9.241080284118652,2.39401912689209,0.03695734962821007,0.23182335495948792,1.6160439252853394,-18.3718204498291,51.44694519042969,-53.56621170043945
2.58,-3.317648410797119,-9.686145782470703,2.6703901290893555,0.025503622367978096,0.20143280923366547,1.693471074104309,-17.641040802001953,51.4615592956543,-54.19468307495117
2.59,-4.242474555969238,-10.308279037475586,2.4598214626312256,0.021838432177901268,0.24388794600963593,1.7658586502075195,-16.96872329711914,50.979244232177734,-53.72698211669922
2.601,-4.207778453826904,-9.57607650756836,1.5254243612289429,0.04841107130050659,0.41920626163482666,1.8493945598602295,-16.23794174194336,51.12540054321289,-54.10698699951172
2.61,-3.8009984493255615,-8.71226692199707,-0.07417750358581543,0.05513058975338936,0.39125916361808777,1.913535237312317,-15.346389770507812,50.526161193847656,-53.215431213378906
2.626,-3.31884503364563,-10.911271095275879,-1.093519926071167,-0.03145955875515938,0.17104226350784302,2.1311559677124023,-13.577900886535645,50.0584602355957,-53.72698211669922
2.631,-3.008974552154541,-11.328818321228027,-1.2849457263946533,-0.03680463135242462,0.10308350622653961,2.2235493659973145,-13.16866397857666,49.94153594970703,-53.66851806640625
2.64,-2.717050075531006,-10.797612190246582,-1.00259268283844,0.003359758760780096,0.0050396379083395,2.331519842147827,-11.809412002563477,49.166908264160156,-53.741600036621094
2.65,-4.707878589630127,-8.792426109313965,0.02153540402650833,0.019394971430301666,-0.09712757170200348,2.3070852756500244,-11.210172653198242,48.81613540649414,-53.639286041259766
2.66,-7.708477973937988,-7.899903297424316,1.148554801940918,-0.059864792972803116,-0.055436018854379654,2.291966438293457,-9.923998832702637,48.2607421875,-54.004676818847656
2.67,-8.757730484008789,-9.763912200927734,3.152543783187866,0.0018325956771150231,0.128434419631958,2.3350324630737305,-8.696288108825684,47.8807373046875,-53.478515625
2.69,-5.456831932067871,-13.645071029663086,4.750949382781982,-0.006261368282139301,0.7147123217582703,2.459038019180298,-6.708564758300781,47.07687759399414,-53.06927490234375
2.693,-5.053641319274902,-13.357932090759277,4.986642360687256,0.0012217304902151227,0.817948579788208,2.4614815711975098,-6.387021541595459,46.945335388183594,-53.624671936035156
2.7,-5.045266151428223,-12.360124588012695,5.497509956359863,0.019394971430301666,0.9240863919258118,2.507143497467041,-5.1300787925720215,46.43379211425781,-53.1569709777832
2.71,-5.804987907409668,-9.540183067321777,5.419743537902832,0.039248090237379074,1.1394164562225342,2.5419631004333496,-4.340836048126221,46.19994354248047,-52.22157287597656
2.72,-5.857629776000977,-3.6287152767181396,4.211367607116699,0.09086620807647705,1.2589932680130005,2.43949031829834,-3.478515148162842,41.508331298828125,-52.513885498046875
2.73,-9.736394882202148,-5.2283172607421875,2.6943180561065674,0.14645493030548096,1.2043209075927734,2.3999369144439697,-2.5723471641540527,43.89067459106445,-51.30078887939453
2.746,-7.3878397941589355,-9.695716857910156,-1.0205388069152832,-0.013286319561302662,1.4760030508041382,2.3878722190856934,-0.4384683072566986,42.809120178222656,-51.22771453857422
2.75,-4.917250633239746,-10.642078399658203,-1.9130616188049316,-0.08765916526317596,1.4036155939102173,2.417804479598999,-0.26308098435401917,42.619117736816406,-50.39461898803711
2.76,-2.6428725719451904,-11.053643226623535,-2.0482561588287354,-0.2635883390903473,1.0296133756637573,2.4885122776031494,1.1107863187789917,41.522945404052734,-50.10231018066406
2.77,-5.721238613128662,-8.951549530029297,-1.8951154947280884,-0.4046982228755951,0.5691736936569214,2.559678077697754,1.9146448373794556,40.74831771850586,-49.649227142333984
2.78,-8.812766075134277,-12.422338485717773,-1.3184452056884766,-0.5232061147689819,0.34055736660957336,2.6094634532928467,3.1423561573028564,40.10523223876953,-49.18152618408203
2.79,-6.183053970336914,-12.626924514770508,-0.44745784997940063,-0.6372851133346558,0.48808133602142334,2.5856399536132812,3.9169833660125732,38.90675354003906,-49.32768249511719
2.803,-4.983053207397461,-5.2701921463012695,1.3004990816116333,-0.6378960609436035,0.22143864631652832,2.5033257007598877,5.027769565582275,37.69365692138672,-48.74305725097656
2.81,-8.234898567199707,-5.6650071144104,2.014756679534912,-0.6201809048652649,0.08216137439012527,2.4581215381622314,5.656240940093994,36.67056655883789,-47.98304748535156
2.82,-10.231709480285645,-7.633103847503662,2.0614166259765625,-0.6230825781822205,0.3338378667831421,2.331214666366577,6.635486125946045,35.80824279785156,-48.17304992675781
2.83,-8.902496337890625,-11.527421951293945,2.5746772289276123,-0.6748533248901367,0.5760459303855896,2.224923849105835,6.752411365509033,34.9459228515625,-49.035369873046875
2.84,-7.128218650817871,-15.90987777709961,2.8426733016967773,-0.7130324244499207,0.6863070726394653,2.12703275680542,8.243204116821289,33.77667236328125,-47.04764938354492
2.85,-6.340980052947998,-17.72722625732422,3.2159535884857178,-0.7205155491828918,0.7780895829200745,1.9393444061279297,8.111662864685059,32.46126937866211,-46.88687515258789
2.869,-4.797609329223633,-15.16331672668457,3.8141591548919678,-0.6976081132888794,0.8330674767494202,1.2962559461593628,9.368605613708496,31.4674072265625,-44.53376388549805
2.873,-3.616751194000244,-14.566307067871094,3.644268751144409,-0.7611380815505981,0.7535022497177124,1.077413558959961,9.251681327819824,30.795087814331055,-44.53376388549805
2.88,-1.590030550956726,-11.7056884765625,1.7898313999176025,-0.7463245987892151,0.5351179242134094,0.7814493775367737,9.207834243774414,30.83893585205078,-43.437591552734375
2.89,-2.5196421146392822,-5.814558506011963,0.8410770893096924,-0.6304128766059875,0.028557950630784035,0.835358202457428,10.070155143737793,29.611223220825195,-43.89067459106445
2.9,-7.360321998596191,0.9978070259094238,-0.08973085135221481,-0.13958270847797394,-1.5112805366516113,1.1814134120941162,10.49400806427002,28.69044303894043,-42.85296630859375
2.91,-13.000205039978027,5.190032482147217,2.8701906204223633,0.166460782289505,-2.013106346130371,1.325882911682129,10.874013900756836,27.930429458618164,-43.71529006958008
2.923,-9.751948356628418,4.650450706481934,3.328416109085083,0.0004581489192787558,-0.5337435007095337,0.4312708377838135,11.429407119750977,27.331188201904297,-43.466819763183594
2.93,-0.9332008361816406,5.422135829925537,-2.4885356426239014,-0.1872301995754242,1.2541064023971558,-0.6520985960960388,11.356328010559082,27.1704158782959,-42.882198333740234
2.94,12.015558242797852,6.075376510620117,-2.9694929122924805,0.14553864300251007,2.0167715549468994,-1.5601497888565063,10.77170467376709,27.491960525512695,-41.683719635009766
2.95,18.711872100830078,1.3914263248443604,0.6113661527633667,0.3182607889175415,0.8952229619026184,-1.8274033069610596,10.830166816711426,27.696578979492188,-41.142940521240234
2.96,17.291732788085938,-1.8975082635879517,3.3894331455230713,0.42928555607795715,-1.114065408706665,-2.3912320137023926,9.967845916748047,28.032737731933594,-41.522945404052734
2.97,10.85623550415039,-1.605583906173706,2.1475582122802734,0.46761733293533325,-2.322356939315796,-2.8258626461029053,9.485530853271484,28.193510055541992,-42.09295654296875
2.989,-1.432104229927063,-0.06699903309345245,1.0133603811264038,0.570242702960968,-2.5161538124084473,-3.531412124633789,8.462437629699707,29.46506690979004,-43.33528137207031
2.993,-3.0065815448760986,-0.4630111753940582,0.9415756464004517,0.5661193132400513,-2.3721425533294678,-3.6563336849212646,7.673194885253906,30.385852813720703,-44.446067810058594
3.0,-3.7387852668762207,-1.3124631643295288,1.0348957777023315,0.5635231733322144,-1.8455766439437866,-4.02239465713501,7.410114288330078,30.795087814331055,-45.01607894897461
3.01,-2.915654182434082,-2.287538528442383,1.179661512374878,0.5216789245605469,-0.9857837557792664,-4.495510101318359,6.007015228271484,31.978952407836914,-45.3814697265625
3.02,-1.0037890672683716,-1.810170292854309,1.2323036193847656,0.5916229486465454,-0.7444919943809509,-4.736496448516846,4.501607418060303,32.987430572509766,-46.71148681640625
3.039,-2.029113531112671,-2.746960163116455,2.14516544342041,0.6304128766059875,-0.5726861357688904,-4.930445671081543,3.0838937759399414,34.03975296020508,-47.09149169921875
3.042,-4.11924409866333,-3.7387852668762207,1.5972089767456055,0.6017022132873535,-0.2883284091949463,-5.003597259521484,1.8854135274887085,34.682838439941406,-47.00379943847656
3.05,-5.684150218963623,-4.887340068817139,1.8221343755722046,0.6136141419410706,-0.09010262042284012,-5.003597259521484,0.5115463137626648,35.61824035644531,-47.310726165771484
3.06,-7.308876991271973,-6.3182477951049805,1.2514461278915405,0.5198463201522827,0.3992004096508026,-5.003597259521484,-1.7100263833999634,36.655948638916016,-46.945335388183594
3.07,-8.059026718139648,-7.683353424072266,0.6939185857772827,0.48197266459465027,0.6756169199943542,-4.9959611892700195,-3.2154340744018555,37.34288024902344,-47.06226348876953
3.08,-8.274380683898926,-8.352147102355957,0.34217363595962524,0.4159992039203644,0.944244921207428,-4.924795627593994,-4.545454502105713,38.55597686767578,-47.64688491821289
3.09,-8.178667068481445,-8.148756980895996,-0.7238287925720215,0.40973785519599915,1.0870347023010254,-4.77620267868042,-5.831628322601318,38.775211334228516,-46.95995330810547
3.103,-8.380861282348633,-7.928617477416992,-1.636690616607666,0.5053382515907288,1.1268937587738037,-4.5210137367248535,-8.082432746887207,39.85676574707031,-47.00379943847656
3.11,-8.748159408569336,-8.001599311828613,-1.7647066116333008,0.545655369758606,1.0766500234603882,-4.324009418487549,-9.149372100830078,39.959075927734375,-47.500728607177734
3.12,-10.034300804138184,-8.932406425476074,-1.137787103652954,0.5464189648628235,0.8886561393737793,-4.11707878112793,-10.888628959655762,40.529083251953125,-47.32534408569336
3.13,-9.57368278503418,-9.322437286376953,-0.7034898400306702,0.5105305910110474,0.6249151229858398,-4.008650302886963,-11.47325325012207,40.98217010498047,-46.682254791259766
3.14,-7.706085205078125,-9.151350021362305,-0.06939185410737991,0.46639561653137207,0.25961771607398987,-3.8594465255737305,-12.642502784729004,41.55217742919922,-47.03303146362305
3.15,-6.130411148071289,-9.042476654052734,0.3960121273994446,0.43508875370025635,-0.2765692174434662,-3.6158640384674072,-14.206372261047363,41.39140701293945,-47.79304122924805
3.162,-6.740581512451172,-10.256834030151367,1.4464612007141113,0.44119739532470703,-0.9352346658706665,-3.190396308898926,-15.945630073547363,41.77141189575195,-47.909969329833984
3.17,-9.445667266845703,-11.413763999938965,1.9094724655151367,0.42898011207580566,-1.241125464439392,-2.7983736991882324,-16.091785430908203,41.9614143371582,-47.734580993652344
3.18,-12.699906349182129,-12.220145225524902,1.4572290182113647,0.4112650156021118,-1.1383473873138428,-2.6032021045684814,-17.085647583007812,42.282955169677734,-48.36305236816406
3.19,-15.286547660827637,-12.352946281433105,1.5206387042999268,0.4001167118549347,-0.5852088928222656,-2.4468207359313965,-17.52411651611328,42.38526916503906,-47.79304122924805
3.2,-16.847864151000977,-12.32542896270752,1.5014961957931519,0.32589662075042725,0.2073887437582016,-2.2537875175476074,-18.737211227416992,42.619117736816406,-48.30459213256836
3.22,-16.243677139282227,-12.369696617126465,1.32921302318573,0.21135936677455902,1.0042624473571777,-2.1113028526306152,-19.482608795166016,42.268341064453125,-48.20227813720703
3.223,-12.53001594543457,-12.168699264526367,0.4630111753940582,0.09407324343919754,1.7809776067733765,-1.7017178535461426,-20.140310287475586,42.76527404785156,-48.406898498535156
3.23,-10.04148006439209,-11.623135566711426,0.8243273496627808,0.11484266072511673,1.8892533779144287,-1.4633276462554932,-20.491085052490234,42.16603469848633,-49.32768249511719
3.24,-7.183253765106201,-11.100303649902344,1.8556338548660278,0.11652254313230515,1.7734944820404053,-1.1020008325576782,-21.601871490478516,42.47296142578125,-48.99152374267578
3.25,-5.857629776000977,-11.123035430908203,2.4299113750457764,0.050243668258190155,1.3681854009628296,-0.7327328324317932,-21.57263946533203,42.41449737548828,-49.07921600341797
3.26,-6.558726787567139,-10.74138069152832,1.9345970153808594,-0.020463986322283745,0.8718574047088623,-0.39477166533470154,-21.528793334960938,42.29757308959961,-48.83074951171875
3.279,-8.458627700805664,-10.388439178466797,1.9680966138839722,-0.08429940044879913,0.6065891981124878,-0.09468411654233932,-21.119556427001953,42.09295654296875,-49.86845779418945
3.283,-8.068597793579102,-10.96750259399414,1.0049854516983032,-0.14966197311878204,1.158505916595459,0.024129178375005722,-21.36802101135254,42.078338623046875,-49.91230773925781
3.29,-4.510470390319824,-10.63968563079834,0.3194418251514435,-0.16523903608322144,1.4219416379928589,-0.02886338159441948,-20.505699157714844,41.74217987060547,-49.56153106689453
3.3,1.5086746215820312,-10.401598930358887,-0.47138604521751404,-0.1996002048254013,1.3643674850463867,0.01664607785642147,-20.82724380493164,41.85910415649414,-49.98538589477539
3.31,5.6793646812438965,-9.856036186218262,-2.104487419128418,-0.21151207387447357,0.5850561857223511,0.2617557644844055,-20.73954963684082,41.9614143371582,-49.649227142333984
3.32,5.558526992797852,-9.30329418182373,-1.4428720474243164,-0.03375030308961868,-1.297019600868225,1.1023063659667969,-20.418006896972656,41.42063903808594,-50.81847381591797
3.34,-6.989434719085693,-11.669795989990234,2.7014968395233154,-0.07849618047475815,-2.3764185905456543,1.9448422193527222,-19.83338165283203,41.332942962646484,-50.760013580322266
3.343,-19.033706665039062,-15.116656303405762,3.4133615493774414,-0.19776761531829834,-1.6759088039398193,2.370004177093506,-18.269512176513672,41.81526184082031,-51.213096618652344
3.35,-17.16132354736328,-14.256437301635742,-0.019142581149935722,-0.19196438789367676,-0.09957103431224823,1.927890658378601,-17.100261688232422,41.34756088256836,-51.505409240722656
3.36,-3.067598581314087,-15.387044906616211,0.8338987231254578,0.11835514008998871,1.3918564319610596,0.674089789390564,-16.997953414916992,41.36217498779297,-51.710025787353516
3.37,14.841482162475586,-18.384056091308594,1.155733346939087,0.2603813111782074,1.5346461534500122,0.7389942407608032,-16.544870376586914,40.80678176879883,-51.62232971191406
3.38,21.2051944732666,-17.806190490722656,5.508277416229248,0.3448334336280823,0.39477166533470154,1.4698944091796875,-15.989476203918457,40.952938079833984,-51.900028228759766
3.399,15.487544059753418,-12.719048500061035,8.857032775878906,0.38698312640190125,-1.1717921495437622,1.7889188528060913,-15.200233459472656,40.45600509643555,-52.20695877075195
3.404,6.10767936706543,-11.723634719848633,6.638886451721191,0.30726519227027893,-2.8156304359436035,2.0196731090545654,-15.024847030639648,40.35369873046875,-52.04618453979492
3.41,0.2991028130054474,-10.937591552734375,3.1345977783203125,0.3816380500793457,-2.8293750286102295,2.0835087299346924,-14.323297500610352,39.929847717285156,-53.97544479370117
3.42,-9.641878128051758,-11.814560890197754,4.0905303955078125,0.6601925492286682,-2.004096031188965,2.0022635459899902,-13.577900886535645,40.03215408325195,-53.39081954956055
3.43,-15.978073120117188,-12.41396427154541,0.6400800943374634,0.5462662577629089,-0.8623890280723572,1.664149522781372,-13.066354751586914,39.213680267333984,-53.90237045288086
3.44,-9.037691116333008,-11.955738067626953,-1.951346755027771,0.3949243724346161,0.4329507350921631,1.4886785745620728,-12.335575103759766,39.06752395629883,-54.35545349121094
3.46,-0.9272187352180481,-15.741183280944824,-0.7884350419044495,0.1111774668097496,0.5448917746543884,1.4720324277877808,-12.101724624633789,38.278282165527344,-54.39929962158203
3.464,4.039084434509277,-21.360727310180664,1.7491532564163208,-0.09728028625249863,-0.18188512325286865,1.6971362829208374,-10.77170467376709,38.1028938293457,-54.063140869140625
3.47,3.5270204544067383,-20.435901641845703,3.847658634185791,0.004123340360820293,-0.6779077053070068,1.7960965633392334,-10.64016342163086,38.24905014038086,-54.09237289428711
3.48,-0.5096712112426758,-11.73559856414795,3.9242289066314697,0.10155634582042694,-1.1145235300064087,1.8278615474700928,-10.026308059692383,38.08827590942383,-54.75007247924805
3.49,-9.531808853149414,-4.447060585021973,0.589830756187439,0.07254024595022202,-1.0937541723251343,1.806023120880127,-9.470914840698242,37.35749816894531,-55.05699920654297
3.5,-12.928420066833496,-6.113661289215088,-0.039481572806835175,-0.06902776658535004,-0.5094616413116455,1.4448490142822266,-9.58784008026123,37.605960845947266,-54.5600700378418
3.52,-8.117650985717773,-9.280562400817871,2.097308874130249,-0.1485929638147354,0.22892174124717712,1.1722503900527954,-9.485530853271484,37.18210983276367,-54.32621765136719
3.523,-1.9812570810317993,-9.285347938537598,3.9804604053497314,-0.15424346923828125,0.16798794269561768,1.0144944190979004,-8.213972091674805,37.635196685791016,-53.80005645751953
3.53,-1.868794322013855,-8.59621524810791,3.717249870300293,-0.20097467303276062,-0.0933096632361412,0.9337075352668762,-8.564746856689453,37.211341857910156,-54.31160354614258
3.54,-5.6925249099731445,-8.601000785827637,2.14516544342041,-0.23839014768600464,-0.4031710624694824,0.862541675567627,-8.199357032775879,37.679039001464844,-53.522361755371094
3.55,-8.572286605834961,-10.287940979003906,-0.35533416271209717,-0.3546072542667389,-0.35521814227104187,0.7153232097625732,-7.61473274230957,36.80210494995117,-53.829288482666016
3.56,-5.714060306549072,-10.614561080932617,-0.11964112520217896,-0.3275764584541321,-0.06032294034957886,0.634994387626648,-7.424729347229004,37.109031677246094,-53.99005889892578
3.58,-2.413161516189575,-11.073983192443848,1.2071789503097534,-0.3660609722137451,-0.08475754410028458,0.6178901791572571,-6.825489521026611,36.56825256347656,-54.10698699951172
3.583,-2.5471596717834473,-9.404989242553711,1.9968103170394897,-0.3171917796134949,-0.2503020465373993,0.6717990040779114,-6.8547210693359375,36.100555419921875,-53.77082824707031
3.59,-4.5475592613220215,-8.721837997436523,1.935793399810791,-0.3022255599498749,-0.3449861407279968,0.6908885836601257,-6.620871067047119,35.969017028808594,-53.522361755371094
3.6,-6.204588890075684,-8.780462265014648,1.8747763633728027,-0.30543261766433716,-0.23457224667072296,0.6378960609436035,-6.927798748016357,36.451332092285156,-53.17158508300781
3.61,-4.874179840087891,-8.213363647460938,2.3676979541778564,-0.2845104932785034,-0.05604688450694084,0.5933029055595398,-6.328558921813965,35.82286071777344,-53.56621170043945
3.62,-4.146761417388916,-8.330612182617188,2.5902304649353027,-0.2652682065963745,-0.09086620807647705,0.5671883821487427,-6.430868148803711,35.969017028808594,-53.653900146484375
3.64,-5.033302307128906,-9.150154113769531,2.148754596710205,-0.25366178154945374,-0.09407324343919754,0.5639813542366028,-6.123940467834473,35.83747482299805,-53.025428771972656
3.643,-4.323830604553223,-9.20997428894043,2.2995026111602783,-0.20754145085811615,-0.016340645030140877,0.5642867684364319,-6.021631240844727,35.39900588989258,-53.08388900756836
3.65,-3.8141591548919678,-8.913264274597168,2.313859462738037,-0.1800525188446045,-0.024129178375005722,0.6166684627532959,-6.284712314605713,34.87284469604492,-52.689273834228516
3.66,-3.7124643325805664,-8.833104133605957,2.403590202331543,-0.15454889833927155,-0.04046982154250145,0.6805039048194885,-6.0508623123168945,35.95439910888672,-52.104644775390625
3.67,-4.30588436126709,-8.752944946289062,2.2325034141540527,-0.13836097717285156,-0.06704245507717133,0.7240279912948608,-5.670856475830078,35.44285202026367,-52.20695877075195
3.68,-6.45822811126709,-9.972087860107422,1.5361920595169067,-0.22846360504627228,0.0429132841527462,0.8063421249389648,-5.75855016708374,35.340545654296875,-52.0169563293457
3.699,-5.234299182891846,-10.260422706604004,1.0827522277832031,-0.20066924393177032,0.3315471112728119,0.8982772827148438,-5.2031569480896,35.296695709228516,-51.92926025390625
3.704,-2.919243335723877,-9.198010444641113,1.6486546993255615,-0.11499537527561188,0.4277583956718445,1.0155634880065918,-4.852382659912109,34.59514617919922,-51.476173400878906
3.71,-3.62153697013855,-8.94676399230957,1.0169496536254883,-0.08338310569524765,0.3862195312976837,1.0812314748764038,-4.720841884613037,34.40514373779297,-51.710025787353516
3.721,-5.746363162994385,-9.306883811950684,0.867398202419281,-0.03695734962821007,0.43188172578811646,1.1994339227676392,-4.3262200355529785,34.536685943603516,-51.54925537109375
3.73,-5.349154949188232,-9.355936050415039,0.7094718813896179,-0.02474004216492176,0.6733261942863464,1.3219122886657715,-4.223911285400391,33.9666748046875,-51.973106384277344
3.74,-3.2925240993499756,-9.168099403381348,0.760917603969574,-0.018020525574684143,0.701578676700592,1.4178181886672974,-3.9900612831115723,34.2882194519043,-51.373870849609375
3.76,-3.3619158267974854,-8.592625617980957,0.9439685344696045,-0.032070424407720566,0.5983425378799438,1.5212072134017944,-3.0985093116760254,33.71821212768555,-51.27155685424805
3.764,-5.07517671585083,-7.678567886352539,1.0097711086273193,-0.028710665181279182,0.5073235630989075,1.595579981803894,-3.1715874671936035,32.943580627441406,-50.570011138916016
3.77,-5.431707382202148,-7.11146879196167,0.7262216210365295,-0.020616700872778893,0.5141957998275757,1.6238324642181396,-2.3384976387023926,32.87050247192383,-51.02309036254883
3.78,-5.162514686584473,-7.696513652801514,0.9056833982467651,-0.05497787147760391,0.5061018466949463,1.6867517232894897,-1.9584916830062866,32.87050247192383,-49.95615005493164
3.79,-4.968696117401123,-7.8041911125183105,1.1186444759368896,-0.0933096632361412,0.3906483054161072,1.7342463731765747,-1.490792155265808,32.5051155090332,-49.70768737792969
3.8,-5.92223596572876,-8.043473243713379,1.5014961957931519,-0.1345430612564087,0.3539963960647583,1.7968600988388062,-1.1107863187789917,32.09587860107422,-50.08769607543945
3.82,-6.2297139167785645,-8.47776985168457,1.7515461444854736,-0.166460782289505,0.37568211555480957,1.8234326839447021,0.014615609310567379,31.394329071044922,-49.6784553527832
3.823,-5.949753284454346,-9.649056434631348,2.2671992778778076,-0.24908030033111572,0.5105305910110474,1.9094120264053345,-0.058462437242269516,31.10201644897461,-49.41537857055664
3.83,-5.259424209594727,-8.671588897705078,1.903490424156189,-0.24908030033111572,0.5361869931221008,1.9252945184707642,0.4823150932788849,30.765857696533203,-49.45922088623047
3.84,-5.843272686004639,-8.85224723815918,2.111665964126587,-0.2984076738357544,0.4697553813457489,2.0386099815368652,0.9061678051948547,30.35662078857422,-49.63460922241211
3.85,-6.396015167236328,-10.459028244018555,1.8831512928009033,-0.3568980097770691,0.5196936130523682,2.1449005603790283,1.783104419708252,29.625839233398438,-48.655364990234375
3.86,-5.163711071014404,-9.79142951965332,2.007578134536743,-0.38316524028778076,0.6178901791572571,2.2206478118896484,1.5638701915740967,29.669687271118164,-47.69073486328125
3.88,-5.19960355758667,-6.448657035827637,2.0410776138305664,-0.37201693654060364,0.5992587804794312,2.2519545555114746,2.3823444843292236,28.9096736907959,-47.866119384765625
3.884,-9.46480941772461,-4.2137603759765625,2.0027923583984375,-0.32528576254844666,0.5752823352813721,2.2127065658569336,2.9961998462677,27.915815353393555,-47.427650451660156
3.89,-9.730413436889648,-5.373082637786865,1.8484554290771484,-0.3150537610054016,0.7144068479537964,2.1699459552764893,2.981584310531616,27.565038681030273,-46.945335388183594
3.9,-6.587440490722656,-6.654439926147461,1.435693621635437,-0.33108893036842346,0.807563841342926,2.1319196224212646,3.566208839416504,26.848873138427734,-46.63841247558594
3.91,-7.11146879196167,-8.10568618774414,1.4404791593551636,-0.34605515003204346,0.6186537742614746,2.14428973197937,3.4346680641174316,26.658872604370117,-46.740718841552734
3.92,-8.590232849121094,-9.885946273803711,0.7704888582229614,-0.38606685400009155,0.5850561857223511,2.1558961868286133,4.282373428344727,26.001171112060547,-45.41069793701172
3.94,-8.25404167175293,-13.115060806274414,0.3397807776927948,-0.4570798873901367,0.5774204134941101,2.166128158569336,5.2031569480896,24.84653663635254,-44.48991394042969
3.944,-5.685346603393555,-13.653446197509766,-0.24167509377002716,-0.5919284224510193,0.5247332453727722,2.227825403213501,5.217772483825684,24.48114585876465,-44.69453430175781
3.95,-6.214160442352295,-10.928020477294922,-0.8243273496627808,-0.621097207069397,0.39584067463874817,2.2287418842315674,5.363928318023682,24.232681274414062,-44.82607650756836
3.96,-8.319844245910645,-10.311869621276855,-1.2598210573196411,-0.623235285282135,0.25076019763946533,2.178192615509033,5.80239725112915,23.911136627197266,-44.066062927246094
3.97,-8.204988479614258,-11.599207878112793,-1.3040882349014282,-0.6542366743087769,0.34437528252601624,2.1206185817718506,6.401637077331543,22.712656021118164,-43.876060485839844
3.98,-7.237092018127441,-12.882957458496094,-0.2883351147174835,-0.6844744682312012,0.4106541574001312,2.0877845287323,6.226249694824219,22.405729293823242,-43.247589111328125
4.0,-6.502495288848877,-13.666605949401855,0.04905286058783531,-0.7029531598091125,0.44364088773727417,1.8891007900238037,6.255480766296387,22.1718807220459,-42.063724517822266
4.004,-6.471388816833496,-11.12183952331543,0.02751745842397213,-0.7180721163749695,0.46242499351501465,1.6117680072784424,7.015492916107178,21.528793334960938,-42.16603469848633
4.01,-6.771687984466553,-9.42054271697998,-0.09212366491556168,-0.6991352438926697,0.4283692538738251,1.3920091390609741,6.8985676765441895,21.499561309814453,-41.74217987060547
4.02,-7.1641106605529785,-8.342576026916504,0.380458801984787,-0.6873761415481567,0.27840182185173035,1.1018481254577637,7.205495357513428,21.236480712890625,-40.879859924316406
4.03,-8.158329010009766,-5.7439703941345215,-0.6460620760917664,-0.5734497308731079,0.056810468435287476,0.9851729273796082,6.343174934387207,20.315698623657227,-40.397544860839844
4.04,-8.551947593688965,-2.365305185317993,-0.1818545162677765,-0.28848108649253845,-0.5036584138870239,1.0870347023010254,7.147032737731934,20.2718505859375,-39.8421516418457
4.06,-6.602993965148926,-0.2871387004852295,2.3258235454559326,-0.08674286305904388,-0.9236282110214233,0.9538660645484924,7.585501670837402,20.388774871826172,-40.207542419433594
4.063,-3.713660717010498,3.152543783187866,1.8532410860061646,0.08536841720342636,-0.9720392823219299,0.6760751008987427,7.249342441558838,20.403390884399414,-40.42677688598633
4.07,-2.079362630844116,5.167300701141357,2.1535403728485107,0.2548835277557373,-0.8568911552429199,0.5021312236785889,7.497807502746582,19.74568748474121,-40.017539978027344
4.08,-0.10648059844970703,5.675775051116943,0.647258460521698,0.14813482761383057,-0.23289236426353455,-0.20295996963977814,7.512423515319824,20.505699157714844,-39.62291717529297
4.09,6.03948450088501,6.997809410095215,-1.84965181350708,0.0835358202457428,0.6594290137290955,-1.70736825466156,7.8047356605529785,20.666471481323242,-39.447532653808594
4.1,12.965509414672852,3.3260233402252197,-0.8614161610603333,0.05574145168066025,0.3449861407279968,-2.2075142860412598,7.220110893249512,21.441099166870117,-38.71674728393555
4.12,12.93200969696045,-1.5050853490829468,0.07776673883199692,0.10094548016786575,-0.5412266254425049,-2.601980447769165,6.255480766296387,23.531131744384766,-38.93598175048828
4.123,8.943174362182617,-3.3655049800872803,1.588834285736084,0.1589776873588562,-1.6339117288589478,-3.0353891849517822,6.708564758300781,23.57497787475586,-38.68751907348633
4.13,5.021337985992432,-2.557927370071411,1.2335000038146973,0.1944078654050827,-2.013259172439575,-3.2365167140960693,5.729318618774414,24.13037109375,-39.403682708740234
4.14,0.3529413342475891,-1.6271193027496338,1.6331013441085815,0.26893341541290283,-2.241417407989502,-3.5627188682556152,5.1008477210998535,25.606548309326172,-40.879859924316406
4.15,-2.6763720512390137,-2.451446771621704,2.1643080711364746,0.24908030033111572,-1.949729084968567,-4.048509120941162,4.516223430633545,26.98041534423828,-41.318328857421875
4.16,-4.249652862548828,-4.167100429534912,2.510071039199829,0.22143864631652832,-1.4624114036560059,-4.3678388595581055,3.536977529525757,27.915815353393555,-41.756797790527344
4.18,-4.639682769775391,-4.825126647949219,2.8067808151245117,0.2226603776216507,-0.9648616313934326,-4.5963029861450195,1.7684887647628784,30.517393112182617,-42.0052604675293
4.184,-4.407578945159912,-4.823930263519287,2.8103702068328857,0.2909245789051056,-0.35643988847732544,-4.824766159057617,1.344636082649231,30.91201400756836,-42.72142791748047
4.19,-4.171885967254639,-4.8119659423828125,2.778066873550415,0.3300199508666992,-0.23854286968708038,-4.86951208114624,0.30692780017852783,32.03741455078125,-43.15989685058594
4.2,-4.7018961906433105,-5.521438121795654,2.93001127243042,0.38927385210990906,0.002138028386980295,-4.942968845367432,-1.388482928276062,33.67436599731445,-42.56065368652344
4.21,-6.275177478790283,-6.74656343460083,2.8654050827026367,0.42562034726142883,0.21639901399612427,-4.971526622772217,-3.3615901470184326,33.71821212768555,-43.11604690551758
4.22,-7.939384937286377,-7.75753116607666,2.293520450592041,0.44364088773727417,0.5994114875793457,-4.986034393310547,-4.282373428344727,35.530548095703125,-42.85296630859375
4.239,-8.898907661437988,-8.411967277526855,1.3878371715545654,0.4245513379573822,1.3796391487121582,-4.980536937713623,-7.527039051055908,37.094417572021484,-42.57527160644531
4.243,-8.506484031677246,-8.526823043823242,0.13878370821475983,0.43829578161239624,1.4282029867172241,-4.9371657371521,-8.360128402709961,36.831336975097656,-43.30604934692383
4.25,-8.50887680053711,-8.890532493591309,-0.06939185410737991,0.436157763004303,1.4275920391082764,-4.822170257568359,-9.35399055480957,37.605960845947266,-42.429115295410156
4.26,-9.267401695251465,-9.920642852783203,-0.010767702013254166,0.413555771112442,1.3133602142333984,-4.644866466522217,-11.04940128326416,38.8629035949707,-41.93218231201172
4.27,-9.810572624206543,-10.415956497192383,0.09690931439399719,0.4106541574001312,1.1940888166427612,-4.51444673538208,-12.540192604064941,39.213680267333984,-41.712947845458984
4.28,-9.393025398254395,-10.480562210083008,0.5204389095306396,0.41951167583465576,1.064738154411316,-4.414417743682861,-14.07483196258545,39.69599533081055,-42.268341064453125
4.3,-8.068597793579102,-10.047462463378906,0.32183465361595154,0.45585817098617554,0.8176431059837341,-4.2281036376953125,-17.304880142211914,40.777549743652344,-42.95527648925781
4.304,-7.269395351409912,-10.649256706237793,0.9451649785041809,0.5422956347465515,0.13805553317070007,-3.743535041809082,-17.23180389404297,40.339080810546875,-42.96989059448242
4.31,-7.792226791381836,-11.363513946533203,1.2418749332427979,0.551305890083313,-0.2255619913339615,-3.4822373390197754,-18.16720199584961,40.587547302246094,-43.393741607666016
4.32,-9.184849739074707,-11.831311225891113,1.2023932933807373,0.5659666657447815,-0.5294674634933472,-3.1870365142822266,-19.321834564208984,41.128326416015625,-43.59836196899414
4.33,-10.468598365783691,-11.93779182434082,0.6245266795158386,0.5832235813140869,-0.5138903856277466,-2.948493719100952,-20.154926300048828,40.79216766357422,-44.46068572998047
4.34,-11.539387702941895,-11.708080291748047,-0.3086740970611572,0.5984951853752136,-0.22128592431545258,-2.7869200706481934,-21.616485595703125,41.37678909301758,-43.58374786376953
4.36,-11.644671440124512,-11.568100929260254,-0.6364907622337341,0.5444336533546448,0.4573853313922882,-2.596329927444458,-22.82958221435547,41.6252555847168,-44.27068328857422
4.364,-9.7998046875,-11.763115882873535,-0.45463627576828003,0.3836233615875244,1.118188738822937,-2.3490822315216064,-22.917274475097656,41.59602355957031,-43.627593994140625
4.37,-8.39282512664795,-11.679367065429688,-0.2883351147174835,0.2838996350765228,1.393078088760376,-2.1960604190826416,-23.268049240112305,41.332942962646484,-44.27068328857422
4.38,-6.881757736206055,-11.096714973449707,-0.24167509377002716,0.19944749772548676,1.5795447826385498,-1.9946277141571045,-24.247295379638672,41.2014045715332,-45.30839157104492
4.39,-5.681756973266602,-10.29870891571045,0.18424732983112335,0.15164729952812195,1.638798713684082,-1.7734944820404053,-25.197309494018555,41.698333740234375,-44.91376876831055
4.4,-4.863411903381348,-9.540183067321777,0.5982056260108948,0.1443169116973877,1.5436564683914185,-1.4610369205474854,-26.045015335083008,41.23063278198242,-45.118385314941406
4.42,-4.339384078979492,-9.011369705200195,1.53858482837677,0.22098049521446228,1.2751811742782593,-0.9347765445709229,-27.126571655273438,41.36217498779297,-45.14761734008789
4.424,-4.380061626434326,-9.205188751220703,1.7407783269882202,0.21594086289405823,1.2246321439743042,-0.8703302145004272,-27.228879928588867,41.55217742919922,-46.46302032470703
4.43,-4.671986103057861,-9.349953651428223,1.5493526458740234,0.2054034322500229,1.1061242818832397,-0.6603453159332275,-27.404266357421875,41.42063903808594,-45.8199348449707
4.44,-5.117051124572754,-9.493523597717285,0.9355936050415039,0.23258693516254425,1.038318157196045,-0.3686571717262268,-27.491960525512695,41.522945404052734,-46.33148193359375
4.45,-4.944767951965332,-10.242477416992188,0.7657032608985901,0.2330450862646103,1.0100656747817993,-0.1160643994808197,-26.87810707092285,41.59602355957031,-46.901493072509766
4.46,-3.9661033153533936,-11.316854476928711,0.31106695532798767,0.12232576310634613,1.0661126375198364,0.30970868468284607,-27.63811683654785,41.522945404052734,-46.755332946777344
4.479,-2.1858434677124023,-12.154342651367188,-0.6257230639457703,-0.15531249344348907,0.5393940210342407,0.8936958909034729,-26.79041290283203,41.508331298828125,-46.901493072509766
4.483,-1.332802176475525,-12.214162826538086,-0.8231310248374939,-0.2496911585330963,0.3455969989299774,1.067639708518982,-26.95118522644043,41.23063278198242,-46.69687271118164
4.49,-0.8578268885612488,-11.876774787902832,-1.5529417991638184,-0.3695734441280365,0.05513058975338936,1.228450059890747,-26.132709503173828,41.02601623535156,-47.32534408569336
4.5,0.40797626972198486,-11.321639060974121,-2.7912275791168213,-0.3729332387447357,-0.34437528252601624,1.6832391023635864,-25.97193717956543,41.47909927368164,-47.06226348876953
4.51,-5.745166778564453,-10.744969367980957,0.9523433446884155,-0.394618958234787,-1.0835222005844116,2.2881486415863037,-25.22654151916504,41.3037109375,-47.06226348876953
4.52,-5.37786865234375,-9.722038269042969,6.059823036193848,-0.14385876059532166,-1.3710870742797852,1.5937473773956299,-24.13037109375,41.186790466308594,-46.95995330810547
4.539,-3.424129009246826,-15.655041694641113,2.9036900997161865,-0.21090121567249298,0.5396994352340698,1.448819637298584,-23.29728126525879,41.683719635009766,-47.33995819091797
4.543,1.4045867919921875,-16.235301971435547,1.0636096000671387,-0.17119498550891876,0.7168503403663635,1.3645201921463013,-23.00497055053711,41.186790466308594,-46.38994216918945
4.55,9.711270332336426,-17.822938919067383,-1.0743772983551025,0.03237585723400116,0.5539020299911499,1.1748465299606323,-22.37649917602539,41.128326416015625,-47.39842224121094
4.56,14.91685676574707,-18.725032806396484,5.212764263153076,0.12293662130832672,-0.0708603635430336,1.6850717067718506,-22.37649917602539,41.142940521240234,-47.95381546020508
4.57,8.883354187011719,-11.95932674407959,11.168498992919922,0.2808452844619751,-0.9028587937355042,1.9785923957824707,-21.791873931884766,41.2452507019043,-47.80765914916992
4.58,5.717649936676025,-9.958927154541016,8.234898567199707,0.4027129113674164,-1.5140293836593628,1.6647604703903198,-21.09032440185547,41.42063903808594,-46.916107177734375
4.599,2.6081764698028564,-10.346565246582031,4.3896331787109375,0.4375322163105011,-1.6473509073257446,1.9587393999099731,-19.27798843383789,41.11370849609375,-48.81613540649414
4.604,-12.949954986572266,-12.736994743347168,3.1752755641937256,0.4245513379573822,-1.4874567985534668,1.7179057598114014,-19.102602005004883,41.084476470947266,-48.713829040527344
4.61,-15.254243850708008,-12.088539123535156,-0.9332008361816406,0.5059491395950317,-0.803135097026825,1.2420417070388794,-18.591054916381836,40.71908950805664,-49.00613784790039
4.62,-8.782855033874512,-10.911271095275879,-4.1347975730896,0.5864306092262268,0.6446155309677124,1.1623238325119019,-18.488744735717773,40.529083251953125,-48.55305480957031
4.63,0.30987051129341125,-12.91525936126709,-5.6099724769592285,0.22632557153701782,0.9301950335502625,1.3043500185012817,-17.59719467163086,39.81291961669922,-49.020755767822266
4.64,6.6831536293029785,-17.531015396118164,-0.9631110429763794,0.0887281745672226,0.17302757501602173,1.312138557434082,-17.173341751098633,40.10523223876953,-50.146156311035156
4.659,0.47976091504096985,-18.00598907470703,4.711467742919922,0.10461067408323288,-1.550834059715271,1.7298176288604736,-15.784857749938965,40.017539978027344,-49.50307083129883
4.663,-1.345962643623352,-16.566707611083984,4.417150497436523,0.16096298396587372,-1.5717562437057495,1.726610541343689,-15.52177619934082,39.81291961669922,-50.20461654663086
4.67,-7.484748840332031,-9.30927562713623,1.7096717357635498,0.2796235680580139,-1.2669343948364258,1.7359262704849243,-15.317158699035645,39.5059928894043,-49.605377197265625
4.68,-12.071789741516113,-4.451846599578857,0.45104703307151794,0.3321579694747925,-0.6479753255844116,1.5905402898788452,-14.805611610412598,39.27214050292969,-48.9622917175293
4.69,-12.865010261535645,-4.698307037353516,-0.5443671345710754,0.1950187236070633,-0.015271631069481373,1.1508700847625732,-14.060215950012207,39.418296813964844,-50.043846130371094
4.7,-8.668000221252441,-8.736194610595703,0.6005984544754028,0.1310305893421173,0.5781839489936829,0.8472700715065002,-13.782519340515137,38.97983169555664,-48.55305480957031
4.719,-2.1571295261383057,-10.955538749694824,1.31365966796875,0.10216721147298813,0.4170682430267334,0.5109887719154358,-12.876352310180664,39.28675842285156,-48.845367431640625
4.723,-2.3497517108917236,-10.498509407043457,1.0049854516983032,0.10797043144702911,0.28008171916007996,0.5280929803848267,-13.460975646972656,39.023677825927734,-48.77228546142578
4.73,-3.5294132232666016,-9.77587604522705,1.1294121742248535,0.08827002346515656,0.1463022232055664,0.5552765130996704,-13.417129516601562,39.023677825927734,-49.07921600341797
4.74,-3.85483717918396,-9.609575271606445,1.8580267429351807,0.04657847434282303,0.11316278576850891,0.5600107312202454,-12.671732902526855,39.023677825927734,-49.89768981933594
4.75,-2.5196421146392822,-10.352546691894531,2.5591237545013428,0.023976460099220276,0.2142609804868698,0.6125450730323792,-12.949429512023926,38.7459831237793,-48.69921112060547
4.76,-0.9415756464004517,-10.52363395690918,3.393022298812866,-0.015882495790719986,0.19486600160598755,0.6418666243553162,-12.394037246704102,39.213680267333984,-49.95615005493164
4.78,-4.797609329223633,-7.259823799133301,3.355933427810669,-0.09972374886274338,-0.2275473028421402,0.6574437022209167,-11.999415397644043,38.93598175048828,-49.2984504699707
4.783,-6.412764072418213,-7.469195365905762,2.709871768951416,-0.14614950120449066,-0.24816399812698364,0.6018549799919128,-11.853259086608887,38.599822998046875,-49.45922088623047
4.79,-6.957131385803223,-8.443074226379395,2.0482561588287354,-0.21135936677455902,-0.1388191282749176,0.49846601486206055,-12.1455717086792,38.30751037597656,-49.093833923339844
4.8,-4.960321426391602,-9.92303466796875,2.17627215385437,-0.3119994103908539,0.02733621932566166,0.43646320700645447,-11.487869262695312,38.760597229003906,-49.48845672607422
4.81,-3.7076785564422607,-9.93978500366211,1.8616158962249756,-0.40393462777137756,0.013744467869400978,0.4381431043148041,-11.254019737243652,38.395206451416016,-49.473838806152344
4.82,-3.5509486198425293,-9.136992454528809,1.7910276651382446,-0.3700316250324249,-0.0018325956771150231,0.49067750573158264,-11.692487716674805,38.5267448425293,-49.049983978271484
4.839,-4.034298896789551,-8.935996055603027,0.9595218300819397,-0.2822197377681732,0.07696902006864548,0.578489363193512,-11.429407119750977,38.789825439453125,-48.713829040527344
4.842,-4.013959884643555,-8.928817749023438,0.7070790529251099,-0.25274547934532166,0.12324206531047821,0.5965099334716797,-10.947091102600098,38.775211334228516,-48.17304992675781
4.85,-3.6370902061462402,-8.333003997802734,1.0636096000671387,-0.2102903574705124,0.18387043476104736,0.6099489331245422,-10.874013900756836,38.43905258178711,-48.50920867919922
4.86,-3.840480089187622,-7.998009204864502,1.1413763761520386,-0.17989981174468994,0.1293507218360901,0.6443100571632385,-11.064016342163086,38.64366912841797,-47.836891174316406
4.87,-4.604987144470215,-8.578269004821777,1.2023932933807373,-0.15271630883216858,0.1417207270860672,0.708450973033905,-10.4063138961792,38.30751037597656,-48.479976654052734
4.88,-4.101297855377197,-9.596414566040039,1.200000524520874,-0.1514945775270462,0.2255619913339615,0.7875579595565796,-10.377082824707031,38.4828987121582,-47.98304748535156
4.899,-2.7517459392547607,-10.588239669799805,2.0243277549743652,-0.1973094791173935,0.18799376487731934,1.0404561758041382,-9.17860221862793,38.015201568603516,-48.24612808227539
4.904,-2.991028070449829,-11.109874725341797,2.104487419128418,-0.2249511182308197,0.17119498550891876,1.1261299848556519,-9.836304664611816,37.664424896240234,-47.851505279541016
4.91,-3.3439693450927734,-11.592028617858887,2.0650060176849365,-0.24938572943210602,0.17730362713336945,1.2058478593826294,-9.850920677185059,37.43057632446289,-47.41303634643555
4.92,-3.407379150390625,-11.102697372436523,2.025524377822876,-0.2945897579193115,0.2099849283695221,1.3968960046768188,-9.105524063110352,37.16749572753906,-47.866119384765625
4.93,-3.2781667709350586,-9.812965393066406,2.2648065090179443,-0.3032945990562439,0.2125811129808426,1.5436564683914185,-8.915521621704102,36.93364715576172,-47.51534652709961
4.94,-3.442075490951538,-7.8903326988220215,1.8604196310043335,-0.2973386347293854,0.20754145085811615,1.526857614517212,-8.447822570800781,36.831336975097656,-47.03303146362305
4.959,-6.148357391357422,-7.606782913208008,2.0482561588287354,-0.2869539260864258,0.2724458873271942,1.5853480100631714,-7.0008769035339355,35.939781188964844,-47.00379943847656
4.963,-6.313462257385254,-7.598408222198486,2.038684844970703,-0.2831360399723053,0.2958114743232727,1.5867223739624023,-7.161648750305176,36.451332092285156,-47.106109619140625
4.97,-6.439085483551025,-7.852047443389893,1.605583906173706,-0.31001412868499756,0.4153883457183838,1.6042847633361816,-6.971645355224609,35.6474723815918,-46.112247467041016
4.98,-4.810770034790039,-9.748359680175781,1.412961721420288,-0.3744603991508484,0.49877145886421204,1.6966781616210938,-6.620871067047119,35.6036262512207,-46.81379699707031
4.99,-4.2281174659729,-10.543972969055176,1.712064504623413,-0.4349360466003418,0.47112980484962463,1.8168659210205078,-6.387021541595459,35.04823303222656,-46.50687026977539
5.009,-5.371886730194092,-13.319647789001465,1.9369899034500122,-0.5096142888069153,0.3901901841163635,2.0260872840881348,-5.670856475830078,35.2674674987793,-46.02455520629883
5.013,-3.733999490737915,-12.754940032958984,2.1367905139923096,-0.5844453573226929,0.46593746542930603,2.211179494857788,-4.633148193359375,34.56591796875,-46.667640686035156
5.02,-1.8664016723632812,-11.265408515930176,1.9226329326629639,-0.593913733959198,0.40454548597335815,2.3296871185302734,-4.560070037841797,33.922828674316406,-45.30839157104492
5.03,-4.802394866943359,-9.220742225646973,2.0985054969787598,-0.6004804968833923,0.30894508957862854,2.4156665802001953,-3.756211757659912,33.440513610839844,-45.4399299621582
5.04,-8.280362129211426,-5.292923927307129,1.5397813320159912,-0.5245805382728577,0.39354991912841797,2.4225387573242188,-3.0546624660491943,33.031280517578125,-44.811458587646484
5.05,-9.492326736450195,-5.6793646812438965,0.7908278107643127,-0.4816672205924988,0.5917757153511047,2.3745861053466797,-2.747734546661377,32.46126937866211,-44.431453704833984
5.06,-7.802994728088379,-8.782855033874512,0.4163511395454407,-0.4680754840373993,0.762817919254303,2.3800835609436035,-1.4177141189575195,31.730487823486328,-44.38760757446289
5.079,-3.7196426391601562,-11.600403785705566,0.3206382095813751,-0.5392412543296814,0.7241807579994202,2.5465445518493652,-1.388482928276062,31.11663246154785,-43.96375274658203
5.083,-3.521038293838501,-10.72702407836914,0.3565305471420288,-0.5505422949790955,0.6743952035903931,2.5662448406219482,-0.45308390259742737,30.53200912475586,-42.64834976196289
5.09,-5.2797627449035645,-6.221338748931885,0.42711883783340454,-0.513126790523529,0.5633704662322998,2.5747969150543213,-0.24846535921096802,30.54662322998047,-42.58988571166992
5.1,-9.728019714355469,-7.456035137176514,0.6149553656578064,-0.44226643443107605,0.4456261694431305,2.5612051486968994,0.36539024114608765,29.45045280456543,-42.16603469848633
5.11,-9.772287368774414,-9.19322395324707,0.2883351147174835,-0.4531092941761017,0.6301075220108032,2.5050055980682373,0.8477053642272949,29.1873722076416,-41.23063278198242
5.129,-5.648257732391357,-8.671588897705078,-0.20817556977272034,-0.47968190908432007,0.7875579595565796,2.4191789627075195,2.1338791847229004,28.398128509521484,-41.712947845458984
5.133,-4.255634784698486,-5.546562671661377,-0.14356935024261475,-0.44715335965156555,0.43829578161239624,2.323120355606079,2.3823444843292236,27.72580909729004,-40.74831771850586
5.14,-8.258827209472656,-4.1347975730896,-0.10049854964017868,-0.4161519408226013,0.22708913683891296,2.267073631286621,2.937737464904785,27.199649810791016,-40.29523468017578
5.15,-11.546565055847168,-6.687938690185547,-0.25004997849464417,-0.4473060667514801,0.3045163154602051,2.157423257827759,3.3615901470184326,26.191171646118164,-41.27448272705078
5.16,-9.693324089050293,-10.542776107788086,-0.1495514065027237,-0.5294674634933472,0.6299547553062439,2.0482311248779297,3.2446651458740234,25.738086700439453,-40.07600402832031
5.17,-6.312265872955322,-13.075578689575195,0.558724045753479,-0.602465808391571,0.7318165302276611,2.012648344039917,3.5223617553710938,25.109615325927734,-39.1844482421875
5.18,-5.126622676849365,-14.5794677734375,0.9834501147270203,-0.6690501570701599,0.5170974135398865,1.9201021194458008,3.595440149307251,24.890382766723633,-39.87138366699219
5.197,-6.308676719665527,-13.39861011505127,1.852044701576233,-0.6821837425231934,0.35262197256088257,1.6614007949829102,4.06313943862915,24.32037353515625,-38.40982437133789
5.201,-6.1435723304748535,-12.574281692504883,2.1846470832824707,-0.6931793689727783,0.2655736804008484,1.5303701162338257,4.925460338592529,23.823442459106445,-38.760597229003906
5.21,-5.3276190757751465,-9.406185150146484,1.4201401472091675,-0.684779942035675,0.17898350954055786,1.2925907373428345,4.808535575866699,23.531131744384766,-37.4451904296875
5.22,-5.304887771606445,-6.215356349945068,1.506281852722168,-0.5850561857223511,-0.10461067408323288,1.0807733535766602,5.1300787925720215,23.39959144592285,-37.605960845947266
5.23,-5.1182475090026855,-2.937189817428589,1.712064504623413,-0.42730024456977844,-0.8171849846839905,0.9552405476570129,5.583162784576416,23.341127395629883,-36.919029235839844
5.249,-7.276573657989502,0.9200402498245239,1.3471590280532837,-0.19135352969169617,-1.401477575302124,1.0380127429962158,5.773165702819824,23.194971084594727,-36.78749084472656
5.253,-7.22871732711792,4.071387767791748,3.5952160358428955,0.20983220636844635,-0.9207265973091125,0.9477574229240417,6.401637077331543,22.814966201782227,-37.474422454833984
5.26,-7.249055862426758,5.047659397125244,1.8556338548660278,0.21288654208183289,-0.3637702465057373,0.6389650702476501,5.641624927520752,22.639577865600586,-37.92750549316406
5.27,-4.130012035369873,5.675775051116943,-0.33738797903060913,0.1690569519996643,0.5523748993873596,-0.11804971098899841,5.846243858337402,22.771120071411133,-38.015201568603516
5.28,2.289931058883667,4.41475772857666,-1.5960125923156738,0.04489859566092491,1.4332425594329834,-1.2192870378494263,6.357789993286133,22.712656021118164,-37.32826614379883
5.29,11.625528335571289,3.025723934173584,-2.0853447914123535,0.08261951804161072,1.2832752466201782,-1.906510353088379,5.24700403213501,23.38497543334961,-36.4074821472168
5.31,15.488739967346191,1.262213945388794,-0.5623133182525635,0.17211127281188965,0.19318613409996033,-2.3799309730529785,4.501607418060303,24.437299728393555,-35.45746612548828
5.314,14.4323091506958,-0.556331217288971,0.7010970711708069,0.30772337317466736,-1.9295705556869507,-2.9465084075927734,4.238526821136475,25.109615325927734,-36.24671173095703
5.32,10.139585494995117,-1.4656038284301758,1.1425727605819702,0.3326161205768585,-2.475836753845215,-3.073263168334961,4.06313943862915,25.723472595214844,-37.094417572021484
5.33,3.1130621433258057,-2.3186450004577637,1.6773686408996582,0.3510947823524475,-2.994919538497925,-3.4064900875091553,3.1277403831481934,26.731950759887695,-37.86904525756836
5.34,-3.394218921661377,-3.2159535884857178,1.5361920595169067,0.33796119689941406,-2.579531192779541,-3.7305538654327393,2.952353000640869,27.915815353393555,-38.804443359375
5.35,-5.648257732391357,-4.043870449066162,1.5708880424499512,0.32070425152778625,-1.8408424854278564,-4.045302391052246,2.1046478748321533,28.89505958557129,-38.51213073730469
5.369,-5.504688262939453,-4.392025947570801,1.734796404838562,0.3126102685928345,-1.117730736732483,-4.338059425354004,1.1546331644058228,30.02046012878418,-38.585208892822266
5.373,-3.838087320327759,-4.687539577484131,1.956132411956787,0.3399465084075928,-0.5925393104553223,-4.611727237701416,0.14615610241889954,31.59894561767578,-39.900611877441406
5.38,-3.455235719680786,-5.413760662078857,2.128415822982788,0.36880987882614136,-0.4735732972621918,-4.731761932373047,-1.1107863187789917,32.417423248291016,-38.62905502319336
5.39,-4.118047714233398,-6.995416641235352,2.352144718170166,0.3859141170978546,-0.42271873354911804,-4.7694830894470215,-2.2361881732940674,33.250511169433594,-39.11137008666992
5.4,-5.962913990020752,-9.06161880493164,2.170289993286133,0.3859141170978546,-0.3378084599971771,-4.745964527130127,-4.1946797370910645,35.01900100708008,-39.140602111816406
5.41,-7.733603000640869,-9.755537986755371,2.045863151550293,0.408363401889801,-0.1641700267791748,-4.679227828979492,-5.378544330596924,35.42823791503906,-39.710609436035156
5.43,-9.32602596282959,-10.235298156738281,2.2025930881500244,0.4040873646736145,0.13271047174930573,-4.673882961273193,-6.343174934387207,36.115169525146484,-39.345218658447266
5.433,-10.021141052246094,-9.011369705200195,2.1930220127105713,0.3799581825733185,0.5905539989471436,-4.651891708374023,-8.47705364227295,37.079803466796875,-39.91522979736328
5.44,-9.968499183654785,-8.292326927185059,2.073380708694458,0.37430769205093384,0.8072583675384521,-4.654640197753906,-9.280911445617676,38.08827590942383,-39.959075927734375
5.45,-9.507880210876465,-7.7898335456848145,1.4859428405761719,0.451123982667923,0.9663887619972229,-4.5943169593811035,-11.093247413635254,38.45366668701172,-39.69599533081055
5.46,-9.81416130065918,-8.61057186126709,1.3483555316925049,0.5230533480644226,1.0670288801193237,-4.467868328094482,-12.408652305603027,39.25752639770508,-40.36831283569336
5.47,-10.302297592163086,-9.851250648498535,1.3519446849822998,0.6136141419410706,1.175152063369751,-4.347680568695068,-14.133294105529785,39.447532653808594,-39.87138366699219
5.489,-9.991230964660645,-10.729416847229004,1.4859428405761719,0.6823365092277527,1.2701416015625,-4.180608749389648,-16.194095611572266,40.38292694091797,-39.91522979736328
5.493,-8.541180610656738,-10.336993217468262,0.8602197170257568,0.6878342628479004,1.153160810470581,-3.8782308101654053,-17.87489128112793,40.6021614074707,-40.339080810546875
5.5,-7.947760105133057,-10.374082565307617,0.5551348328590393,0.7107416987419128,0.9757044911384583,-3.7227654457092285,-18.97106170654297,41.2014045715332,-40.74831771850586
5.51,-7.673781871795654,-11.12662410736084,0.6616154909133911,0.7553348541259766,0.6707300543785095,-3.503312110900879,-20.09646224975586,41.36217498779297,-41.128326416015625
5.52,-7.88076114654541,-12.205788612365723,0.9930213689804077,0.7480044364929199,0.34804046154022217,-3.271336078643799,-21.38263702392578,41.712947845458984,-41.2014045715332
5.53,-8.575876235961914,-12.833903312683105,0.784845769405365,0.6829473376274109,0.1391245573759079,-2.981022357940674,-23.165740966796875,41.888336181640625,-41.21601867675781
5.55,-9.568897247314453,-12.592228889465332,-0.11964112520217896,0.5871942043304443,0.05910121276974678,-2.6430611610412598,-23.83806037902832,41.81526184082031,-40.85062789916992
5.554,-10.231709480285645,-11.163713455200195,-0.5048855543136597,0.5022839307785034,0.26542094349861145,-2.2733349800109863,-24.97807502746582,42.18064880371094,-41.2014045715332
5.56,-10.131211280822754,-10.627720832824707,-0.41036906838417053,0.42730024456977844,0.48685958981513977,-2.0473148822784424,-25.621164321899414,41.84449005126953,-41.84449005126953
5.57,-9.256633758544922,-10.390832901000977,0.015553345903754234,0.3058907687664032,0.8058840036392212,-1.8055648803710938,-25.606548309326172,41.82987594604492,-42.39988327026367
5.58,-7.3160552978515625,-10.55115032196045,0.623330295085907,0.19807305932044983,1.043968677520752,-1.5954272747039795,-26.49810028076172,41.74217987060547,-42.867584228515625
5.59,-5.03449821472168,-10.169495582580566,1.2035897970199585,0.1820378452539444,0.9566149711608887,-1.2973251342773438,-26.907337188720703,41.82987594604492,-41.888336181640625
5.61,-3.5018956661224365,-9.1776704788208,1.9106688499450684,0.222965806722641,0.6036875247955322,-0.9873108863830566,-27.784273147583008,41.05524826049805,-42.12218475341797
5.614,-3.9421751499176025,-8.804390907287598,2.2121644020080566,0.26450464129447937,0.16691893339157104,-0.5377141237258911,-27.813507080078125,41.522945404052734,-42.09295654296875
5.62,-4.898108005523682,-9.20279598236084,2.4717857837677,0.26633724570274353,-0.1238529235124588,-0.2590068578720093,-28.04735565185547,41.47909927368164,-42.429115295410156
5.63,-7.015755653381348,-9.499505043029785,2.056631088256836,0.2356412708759308,-0.41141775250434875,0.10445795953273773,-28.13504981994629,40.85062789916992,-42.896812438964844
5.64,-9.342775344848633,-9.243474006652832,1.0636096000671387,0.22052235901355743,-0.1875356286764145,0.5479460954666138,-27.71119499206543,41.42063903808594,-42.54603958129883
5.65,-8.883354187011719,-8.248059272766113,0.4462614059448242,0.3116939663887024,0.3171917796134949,0.7354817390441895,-27.594270706176758,41.332942962646484,-43.3206672668457
5.67,-5.839683532714844,-9.132206916809082,-0.3445664644241333,0.4334088861942291,0.6415612101554871,0.9570730924606323,-27.228879928588867,40.73370361328125,-43.52528381347656
5.674,-11.861222267150879,-13.49910831451416,1.9381862878799438,0.0780380368232727,0.2710714340209961,2.208125114440918,-26.79041290283203,41.46448516845703,-43.30604934692383
5.68,-13.344771385192871,-13.304093360900879,3.6394829750061035,0.08445211499929428,0.14187344908714294,2.295325994491577,-25.796550750732422,41.522945404052734,-43.686058044433594
5.69,-11.688939094543457,-14.975480079650879,2.5004994869232178,-0.21960605680942535,0.2603813111782074,1.86497163772583,-25.15346336364746,41.49371337890625,-42.95527648925781
5.7,-0.8973084688186646,-19.44527244567871,4.0725836753845215,-0.12278390675783157,1.6856825351715088,1.29243803024292,-24.831920623779297,41.55217742919922,-44.051448822021484
5.71,15.408580780029297,-18.276378631591797,-0.1411765217781067,-0.04871650040149689,1.6258177757263184,0.9217956066131592,-24.174217224121094,41.142940521240234,-43.627593994140625
5.73,24.88535499572754,-17.522640228271484,0.16749757528305054,0.22678370773792267,0.9986119866371155,1.245248794555664,-22.522653579711914,40.762935638427734,-44.738380432128906
5.733,17.94257926940918,-11.172087669372559,5.429314136505127,0.2617557644844055,-1.104138970375061,1.8332066535949707,-22.244956970214844,41.04063034057617,-45.07453918457031
5.74,9.762716293334961,-10.06301498413086,6.372086524963379,0.369878888130188,-1.8107572793960571,1.730886697769165,-22.434959411621094,40.90909194946289,-43.72990417480469
5.75,4.186243057250977,-13.816157341003418,-1.322034478187561,0.02275473065674305,-3.2169692516326904,1.8191567659378052,-21.57263946533203,41.2452507019043,-44.79684066772461
5.76,-9.619146347045898,-15.175280570983887,0.4414757788181305,0.10567968338727951,-3.2210922241210938,2.3542745113372803,-20.973400115966797,40.93832015991211,-44.562992095947266
5.77,-15.378670692443848,-12.629317283630371,-4.490131378173828,0.2825251817703247,-2.3774874210357666,1.7663167715072632,-19.90645980834961,40.83601379394531,-44.66530227661133
5.79,-8.822336196899414,-8.481359481811523,-2.2564315795898438,0.4208861291408539,-0.930347740650177,1.437824010848999,-19.204912185668945,40.63139724731445,-44.446067810058594
5.794,-2.025524377822876,-9.468399047851562,0.9020940661430359,0.09514226019382477,-0.44089198112487793,1.652390480041504,-18.766441345214844,40.61677932739258,-45.162235260009766
5.8,-1.2813564538955688,-11.446067810058594,3.4205398559570312,0.059406641870737076,-0.5940664410591125,1.434617042541504,-18.5325927734375,40.25138854980469,-45.67377853393555
5.81,-0.3601197898387909,-15.74716567993164,7.683353424072266,-0.05451972037553787,-0.8863654732704163,1.3376421928405762,-17.947969436645508,40.48523712158203,-45.57147216796875
5.82,-0.4331009089946747,-15.6825590133667,7.0648088455200195,-0.03375030308961868,-0.8659014701843262,1.3965907096862793,-16.98333740234375,40.42677688598633,-44.91376876831055
5.83,-3.235095977783203,-15.905092239379883,6.306283950805664,-0.08475754410028458,-0.7318165302276611,1.3964380025863647,-16.895645141601562,40.2660026550293,-44.86991882324219
5.85,-6.349354267120361,-14.136795997619629,1.5337992906570435,-0.14828753471374512,-0.512210488319397,1.3646730184555054,-15.741011619567871,39.959075927734375,-45.22069549560547
5.853,-6.8614182472229,-9.77109146118164,-2.365305185317993,-0.17073683440685272,-0.04917465150356293,1.3086260557174683,-15.580240249633789,39.944461822509766,-44.986846923828125
5.86,-5.254638671875,-8.918049812316895,-1.9094724655151367,-0.19624045491218567,0.03191770985722542,1.246623158454895,-14.717918395996094,39.929847717285156,-44.53376388549805
5.87,-3.483949661254883,-7.933403015136719,0.8386843204498291,-0.194713294506073,0.008246680721640587,1.1630873680114746,-14.674072265625,39.49137496948242,-44.97222900390625
5.88,-4.741377830505371,-6.967899322509766,2.524427890777588,-0.19654588401317596,-0.2977968156337738,1.0503827333450317,-14.250219345092773,39.79830551147461,-44.16836929321289
5.89,-6.92482852935791,-6.941577911376953,2.5016961097717285,-0.1768454760313034,-0.30604347586631775,0.8668177723884583,-13.548670768737793,39.579071044921875,-44.24144744873047
5.909,-7.874779224395752,-8.331808090209961,2.754138708114624,-0.22357667982578278,-0.0429132841527462,0.6264423131942749,-12.934814453125,39.53522491455078,-44.606842041015625
5.913,-5.982056140899658,-9.802197456359863,0.4666004180908203,-0.18555031716823578,0.20876319706439972,0.49556440114974976,-12.803274154663086,39.403682708740234,-44.70914840698242
5.92,-3.8452658653259277,-10.326226234436035,0.7345964908599854,-0.18600846827030182,0.2889392673969269,0.4579961895942688,-13.694826126098633,39.08213806152344,-44.431453704833984
5.93,-2.3605194091796875,-10.904091835021973,0.25244277715682983,-0.1765400469303131,0.16340644657611847,0.4940372407436371,-12.598654747009277,38.92136764526367,-44.03683090209961
5.94,-2.4227328300476074,-10.786844253540039,1.0169496536254883,-0.15393804013729095,0.05054909735918045,0.5615379214286804,-12.496346473693848,39.19906234741211,-44.548377990722656
5.95,-3.0999014377593994,-9.345169067382812,1.7706886529922485,-0.12461650371551514,-0.032681290060281754,0.6411030292510986,-12.671732902526855,39.00905990600586,-43.466819763183594
5.97,-5.048855781555176,-8.640481948852539,2.306680917739868,-0.13347405195236206,-0.029626963660120964,0.6455318927764893,-12.598654747009277,38.96521759033203,-43.3645133972168
5.973,-5.690132141113281,-8.153542518615723,2.225324869155884,-0.11514809727668762,0.14156801998615265,0.5881105065345764,-12.204033851623535,38.760597229003906,-43.379127502441406
5.98,-5.06680154800415,-8.244470596313477,2.1343977451324463,-0.10170906037092209,0.251676470041275,0.5612324476242065,-12.218649864196777,38.70213317871094,-43.78836441040039
5.99,-4.0666022300720215,-8.100900650024414,2.3150558471679688,-0.08491026610136032,0.2997821271419525,0.5151121020317078,-11.75094985961914,38.70213317871094,-43.90529251098633
6.0,-4.633700847625732,-8.01356315612793,2.049452543258667,-0.06322455406188965,0.1941024363040924,0.498924195766449,-12.1455717086792,38.68751907348633,-43.65682601928711
6.01,-5.740381240844727,-8.507680892944336,1.3339985609054565,-0.07116580009460449,0.24373522400856018,0.4896084666252136,-11.575562477111816,38.61444091796875,-44.46068572998047
6.029,-5.413760662078857,-9.517451286315918,0.8243273496627808,-0.07452555745840073,0.4615086615085602,0.5671883821487427,-11.6047945022583,38.1028938293457,-43.876060485839844
6.033,-3.2434709072113037,-9.91585636138916,1.112662434577942,-0.06658431142568588,0.47571131587028503,0.6123924255371094,-11.370944023132324,37.57673263549805,-43.58374786376953
6.04,-2.4885356426239014,-9.6466646194458,1.1341978311538696,-0.05161811038851738,0.4167627990245819,0.6973026394844055,-11.341712951660156,38.585208892822266,-44.21221923828125
6.05,-3.0041887760162354,-9.414560317993164,1.432104229927063,-0.038179077208042145,0.33918291330337524,0.8071057200431824,-11.166325569152832,38.24905014038086,-43.67144012451172
6.06,-4.098905086517334,-9.049654960632324,1.7395819425582886,-0.026114489883184433,0.3459024429321289,0.8940012454986572,-10.800935745239258,38.05904769897461,-43.7445182800293
6.07,-4.843072891235352,-8.23011302947998,1.4979069232940674,0.0018325956771150231,0.394618958234787,0.9527970552444458,-10.260157585144043,37.8251953125,-43.422977447509766
6.09,-4.545166492462158,-7.983652591705322,1.1521440744400024,0.02321287989616394,0.4193589985370636,1.0137308835983276,-9.880152702331543,37.37211227416992,-43.51066970825195
6.094,-4.84905481338501,-9.911070823669434,1.412961721420288,-0.02687807008624077,0.37598752975463867,1.1244500875473022,-9.836304664611816,37.19672393798828,-42.95527648925781
6.1,-4.9423747062683105,-10.377671241760254,1.3435698747634888,-0.042760565876960754,0.3856086730957031,1.2038626670837402,-9.31014347076416,37.69365692138672,-42.57527160644531
6.11,-4.1419758796691895,-10.086943626403809,1.506281852722168,-0.08338310569524765,0.4665483236312866,1.2551753520965576,-9.251681327819824,37.065185546875,-43.33528137207031
6.12,-3.2889344692230225,-9.357131958007812,2.1068801879882812,-0.10323622077703476,0.4121812880039215,1.3278683423995972,-9.017830848693848,36.78749084472656,-42.823734283447266
6.13,-4.027120590209961,-8.951549530029297,2.531606435775757,-0.14233160018920898,0.35262197256088257,1.4202616214752197,-8.696288108825684,36.6851806640625,-42.867584228515625
6.149,-5.536991596221924,-8.857032775878906,2.7182462215423584,-0.19074267148971558,0.48915034532546997,1.5844316482543945,-7.9947381019592285,36.31978988647461,-42.47296142578125
6.153,-6.149554252624512,-10.374082565307617,2.8833510875701904,-0.21334467828273773,0.5736024975776672,1.6329954862594604,-7.483191967010498,36.18824768066406,-42.79450607299805
6.16,-5.223531246185303,-11.371889114379883,2.799602508544922,-0.24098633229732513,0.650418758392334,1.7098116874694824,-7.117801666259766,35.662086486816406,-42.29757308959961
6.17,-3.7124643325805664,-11.072786331176758,2.610569477081299,-0.2727513313293457,0.5966625809669495,1.8102991580963135,-6.0800933837890625,35.472084045410156,-42.443729400634766
6.18,-4.516452789306641,-11.11466121673584,2.3306093215942383,-0.2997821271419525,0.5366451144218445,1.9501873254776,-6.167787551879883,35.559776306152344,-41.53756332397461
6.19,-4.7294135093688965,-10.388439178466797,2.1403796672821045,-0.3338378667831421,0.6001750826835632,2.0334177017211914,-6.007015228271484,34.419761657714844,-41.23063278198242
6.21,-6.010769844055176,-2.937189817428589,2.121237277984619,-0.2669481039047241,0.5757404565811157,2.0222692489624023,-4.823151111602783,34.156681060791016,-40.017539978027344
6.213,-8.724230766296387,-3.438485860824585,1.9573287963867188,-0.2298380434513092,0.5427537560462952,2.0230329036712646,-4.370067119598389,33.981292724609375,-40.66062545776367
6.22,-11.752347946166992,-6.455835342407227,1.416550874710083,-0.22311851382255554,0.6725625991821289,2.027003526687622,-4.1508331298828125,33.601287841796875,-39.418296813964844
6.23,-9.704092025756836,-11.337193489074707,0.15314064919948578,-0.29367345571517944,1.0493137836456299,2.04349684715271,-3.9754457473754883,33.48435974121094,-39.30137634277344
6.24,-3.87876558303833,-15.125031471252441,-0.48574298620224,-0.4245513379573822,1.1218539476394653,2.1726949214935303,-3.1423561573028564,33.11897277832031,-38.55597686767578
6.25,0.4223332107067108,-13.371092796325684,-0.064606212079525,-0.5539020299911499,0.8500189781188965,2.3292291164398193,-2.5431160926818848,32.57819366455078,-39.35983657836914
6.27,-2.2085752487182617,-7.994420051574707,0.38285163044929504,-0.5279402732849121,0.1869247555732727,2.5033257007598877,-1.739257574081421,31.540485382080078,-38.51213073730469
6.273,-10.730612754821777,-6.530013084411621,1.1964112520217896,-0.5018258094787598,0.29107728600502014,2.4798073768615723,-1.4615609645843506,31.6281795501709,-37.43057632446289
6.28,-9.154938697814941,-4.985445499420166,1.306481122970581,-0.48869219422340393,0.6065891981124878,2.364353895187378,-0.9792458415031433,31.014324188232422,-38.234432220458984
6.29,-5.765506267547607,-2.1774685382843018,1.2418749332427979,-0.4401284158229828,0.7305948138237,2.202321767807007,-0.6869336366653442,30.400466918945312,-37.37211227416992
6.3,-7.987241268157959,-4.3441691398620605,1.4979069232940674,-0.3568980097770691,0.451582133769989,2.2090413570404053,-0.07307805120944977,30.166616439819336,-38.05904769897461
6.31,-11.265408515930176,-7.76470947265625,1.34476637840271,-0.3451388478279114,0.6039929986000061,2.178040027618408,-0.1607716977596283,29.581993103027344,-36.87518310546875
6.329,-4.77248477935791,-13.087542533874512,1.6103696823120117,-0.5038110613822937,0.9495900273323059,2.10198712348938,1.2861735820770264,28.456592559814453,-35.969017028808594
6.333,-3.455235719680786,-12.41396427154541,1.6977075338363647,-0.5441282391548157,0.8538368940353394,2.107179641723633,1.3154048919677734,28.515052795410156,-36.50979232788086
6.34,-4.00917387008667,-11.156535148620605,1.7850456237792969,-0.5809328556060791,0.5810855627059937,2.1616992950439453,1.0230926275253296,27.886581420898438,-35.13592529296875
6.35,-7.462017059326172,-11.511869430541992,2.324627161026001,-0.598953366279602,0.2422080636024475,2.1708621978759766,1.2569423913955688,27.50657844543457,-34.682838439941406
6.36,-8.890532493591309,-12.502497673034668,2.1128623485565186,-0.6310237646102905,0.331852525472641,1.9845484495162964,1.7684887647628784,26.86349105834961,-35.61824035644531
6.37,-7.402196884155273,-12.28834056854248,1.9645073413848877,-0.7029531598091125,0.5826126933097839,1.585500717163086,1.783104419708252,26.468870162963867,-34.02513885498047
6.389,-3.957728624343872,-10.061819076538086,2.286341905593872,-0.778242290019989,0.3101668059825897,1.1737775802612305,2.5577316284179688,25.577316284179688,-33.27974319458008
6.393,-2.3030917644500732,-6.2189459800720215,2.341376781463623,-0.7615962028503418,0.12828169763088226,1.117730736732483,2.5577316284179688,25.825780868530273,-32.69511795043945
6.4,-2.730210542678833,-3.8811581134796143,2.9491539001464844,-0.6983716487884521,-0.24633140861988068,1.0897835493087769,2.76235032081604,25.76732063293457,-32.85588836669922
6.41,-0.5060819387435913,-2.2229323387145996,3.7746775150299072,-0.5922338366508484,-0.9364563822746277,1.0221302509307861,2.733119010925293,25.78193473815918,-33.10435485839844
6.42,-3.627518892288208,1.392622709274292,-1.00259268283844,-0.21792617440223694,-1.2391400337219238,0.764955997467041,3.1569714546203613,25.635778427124023,-33.542823791503906
6.43,-4.521238327026367,5.297708988189697,-0.02153540402650833,0.09483683109283447,-1.2652546167373657,0.6221662163734436,3.551593065261841,25.22654151916504,-32.987430572509766
6.449,-5.276174068450928,7.048058986663818,-1.5493526458740234,0.07635815441608429,-0.12171489745378494,-0.6895141005516052,3.595440149307251,25.723472595214844,-33.572052001953125
6.453,-2.6668004989624023,6.63769006729126,-1.4763715267181396,0.07376197725534439,0.08994990587234497,-0.9799805283546448,3.653902292251587,25.89885902404785,-33.29435729980469
6.46,4.322634220123291,4.917250633239746,-1.4931212663650513,0.06719517707824707,0.5366451144218445,-1.8839083909988403,3.4346680641174316,26.4104061126709,-33.83513641357422
6.47,14.22174072265625,1.782652735710144,-0.656829833984375,0.14767667651176453,0.35246923565864563,-2.7788259983062744,2.1338791847229004,26.921951293945312,-33.07512283325195
6.48,16.913665771484375,-1.435693621635437,0.9918249249458313,0.2796235680580139,-0.9318749308586121,-2.9407052993774414,1.490792155265808,28.28120231628418,-32.987430572509766
6.49,10.248458862304688,-3.1345977783203125,1.6378871202468872,0.39217546582221985,-2.261423110961914,-3.0440943241119385,1.4177141189575195,29.085063934326172,-33.542823791503906
6.506,-1.00259268283844,-2.675175428390503,2.1894326210021973,0.44318273663520813,-2.8678596019744873,-3.5633296966552734,0.17538732290267944,30.02046012878418,-34.229759216308594
6.51,-3.759124279022217,-2.888136863708496,1.9130616188049316,0.385303258895874,-2.6934573650360107,-3.768427610397339,0.2192341536283493,31.08740234375,-35.16515350341797
6.52,-7.0408806800842285,-4.005584716796875,0.97148597240448,0.2509129047393799,-1.7629570960998535,-4.208708763122559,-0.6869336366653442,31.803565979003906,-35.07746124267578
6.53,-6.996613025665283,-6.22373104095459,1.2514461278915405,0.20005835592746735,-0.9908233880996704,-4.448931694030762,-1.7246419191360474,32.89973831176758,-36.14440155029297
6.54,-4.892125606536865,-7.369893550872803,1.6797614097595215,0.15225815773010254,-0.5800164937973022,-4.583168983459473,-3.0254311561584473,34.156681060791016,-37.41596221923828
6.55,-3.31884503364563,-7.612764835357666,1.310070276260376,0.14676035940647125,-0.5306891798973083,-4.628526210784912,-4.1654486656188965,35.39900588989258,-36.18824768066406
6.57,-6.198606967926025,-8.62492847442627,2.3150558471679688,0.20433442294597626,-0.6096435189247131,-4.586987018585205,-7.205495357513428,37.75211715698242,-36.50979232788086
6.574,-7.335197448730469,-8.810372352600098,2.3808584213256836,0.1953241527080536,-0.5073235630989075,-4.613254547119141,-7.161648750305176,38.55597686767578,-36.14440155029297
6.58,-8.459823608398438,-8.894121170043945,2.2408783435821533,0.1872301995754242,-0.24678955972194672,-4.668079376220703,-8.740134239196777,38.68751907348633,-37.24057388305664
6.59,-8.884550094604492,-8.701499938964844,1.9118653535842896,0.22831088304519653,0.2041817009449005,-4.718780994415283,-10.304004669189453,39.783687591552734,-37.22595977783203
6.6,-8.305486679077148,-8.835497856140137,1.490728497505188,0.23976460099220276,0.6682865619659424,-4.749172210693359,-11.47325325012207,40.36831283569336,-37.299034118652344
6.61,-6.973881244659424,-9.226723670959473,0.9152546525001526,0.2635883390903473,0.8917105197906494,-4.725500583648682,-13.826367378234863,40.967552185058594,-37.021339416503906
6.623,-6.275177478790283,-10.50927734375,0.7680960297584534,0.29764407873153687,0.8843801021575928,-4.5572075843811035,-15.81408977508545,41.683719635009766,-37.094417572021484
6.63,-6.355337142944336,-11.235498428344727,0.5383850932121277,0.3110831081867218,0.8145887851715088,-4.448779106140137,-17.202571868896484,42.078338623046875,-37.605960845947266
6.64,-7.433303356170654,-12.058629989624023,0.5168496966362,0.3588833212852478,0.6611089110374451,-4.342030048370361,-19.102602005004883,43.452205657958984,-36.290557861328125
6.651,-7.898707389831543,-11.955738067626953,0.6448656916618347,0.3878994286060333,0.5398521423339844,-4.260326862335205,-21.031862258911133,43.13066482543945,-36.7436408996582
6.66,-7.94297456741333,-11.722436904907227,0.8925228118896484,0.3799581825733185,0.43417245149612427,-4.131587028503418,-22.712656021118164,43.34989929199219,-37.88365936279297
6.67,-7.5050883293151855,-11.666207313537598,0.8410770893096924,0.3546072542667389,0.34895676374435425,-3.925114631652832,-24.524991989135742,43.422977447509766,-37.53288269042969
6.689,-6.471388816833496,-12.522836685180664,1.332802176475525,0.44684794545173645,0.013286319561302662,-3.4460434913635254,-27.345806121826172,44.12452697753906,-37.78135299682617
6.692,-6.440281867980957,-12.608979225158691,1.3794622421264648,0.47968190908432007,-0.0780380368232727,-3.3403637409210205,-27.62350082397461,44.03683090209961,-38.55597686767578
6.7,-6.859025955200195,-12.608979225158691,1.5720844268798828,0.5019785165786743,-0.18570303916931152,-3.199712038040161,-28.646595001220703,44.446067810058594,-38.8629035949707
6.71,-7.550551891326904,-12.256037712097168,1.294516921043396,0.48915034532546997,-0.1540907472372055,-3.0469958782196045,-29.494300842285156,44.09529113769531,-39.00905990600586
