time,accel_x,accel_y,accel_z,gyro_x,gyro_y,gyro_z,mag_x,mag_y,mag_z
0.0,3.2446675300598145,-8.653642654418945,-3.469592809677124,-0.07452555745840073,0.30466902256011963,0.024587325751781464,-26.118093490600586,47.734580993652344,-12.65711784362793
0.01,3.2949166297912598,-8.577072143554688,-3.3164520263671875,-0.054367005825042725,0.26114487648010254,0.03237585723400116,-26.23501968383789,47.61765670776367,-13.256357192993164
0.02,3.2578277587890625,-8.474181175231934,-3.322434186935425,-0.02474004216492176,0.18112152814865112,0.020616700872778893,-26.103479385375977,48.1584358215332,-12.335575103759766
0.03,3.1657042503356934,-8.657232284545898,-2.9958138465881348,-0.02229658141732216,0.11194105446338654,0.006261368282139301,-26.921951293945312,47.76381301879883,-13.066354751586914
0.05,3.0448665618896484,-8.801998138427734,-2.991028070449829,-0.03405573591589928,0.0731511116027832,0.0029016099870204926,-26.585792541503906,47.529964447021484,-12.671732902526855
0.054,3.001795768737793,-8.749356269836426,-3.1728827953338623,-0.03940080478787422,0.023518310859799385,-0.00015271631127689034,-26.351943969726562,48.479976654052734,-12.686349868774414
0.06,2.809173583984375,-8.567501068115234,-3.2506494522094727,-0.027183502912521362,0.01618792861700058,0.007941247895359993,-26.702720642089844,47.77842712402344,-13.037124633789062
0.07,2.641676187515259,-8.38564682006836,-3.373879909515381,0.015882495790719986,0.03695734962821007,0.02535090781748295,-26.045015335083008,47.98304748535156,-12.744811058044434
0.08,2.7038893699645996,-8.421539306640625,-3.2243285179138184,0.06780604273080826,0.06108652427792549,0.014813481830060482,-26.366558074951172,48.465362548828125,-12.876352310180664
0.09,2.898904800415039,-8.571090698242188,-3.129812002182007,0.10735956579446793,0.0757472887635231,0.0277943667024374,-26.61502456665039,48.18766403198242,-13.007892608642578
0.11,2.9491539001464844,-8.666803359985352,-3.1142585277557373,0.13087788224220276,0.07651086896657944,0.042760565876960754,-26.205787658691406,47.8807373046875,-12.774043083190918
0.114,2.970689058303833,-8.748159408569336,-3.032902479171753,0.14538592100143433,0.06673702597618103,0.05100724473595619,-26.42502212524414,47.74919891357422,-13.110200881958008
0.12,2.9012973308563232,-8.801998138427734,-2.8905298709869385,0.14355333149433136,0.07024950534105301,0.050854530185461044,-26.673486709594727,48.056121826171875,-13.577900886535645
0.13,2.8175485134124756,-8.851051330566406,-2.724228620529175,0.10797043144702911,0.05146539583802223,0.0429132841527462,-26.42502212524414,48.17304992675781,-13.607131958007812
0.14,2.970689058303833,-8.98265552520752,-2.726621150970459,0.06673702597618103,0.057421330362558365,0.0555887334048748,-26.99502944946289,47.74919891357422,-13.417129516601562
0.15,3.064009428024292,-8.86660385131836,-2.922832727432251,0.03695734962821007,0.054825153201818466,0.08231408894062042,-26.87810707092285,47.64688491821289,-12.861736297607422
0.17,3.1106693744659424,-8.715856552124023,-3.0831520557403564,0.024587325751781464,0.03084869496524334,0.09712757170200348,-26.52733039855957,48.14381790161133,-12.803274154663086
0.174,2.9312076568603516,-8.71226692199707,-3.2063820362091064,0.03176499158143997,0.007941247895359993,0.12950342893600464,-26.87810707092285,47.79304122924805,-13.110200881958008
0.18,2.874976396560669,-8.778069496154785,-3.2004001140594482,0.02977968007326126,0.0025961773935705423,0.14248430728912354,-26.761180877685547,48.30459213256836,-13.27097225189209
0.19,2.7146570682525635,-8.847461700439453,-3.3308091163635254,0.03955352306365967,0.016951510682702065,0.14569135010242462,-26.673486709594727,47.76381301879883,-13.329436302185059
0.2,2.682354211807251,-8.806783676147461,-3.2554352283477783,0.05925392732024193,0.058490343391895294,0.15622878074645996,-26.4104061126709,48.2607421875,-12.320959091186523
0.21,2.750549554824829,-8.701499938964844,-3.1884360313415527,0.07971791177988052,0.08781187981367111,0.17119498550891876,-26.32271385192871,47.77842712402344,-12.978660583496094
0.23,2.7672994136810303,-8.647661209106445,-3.1094729900360107,0.1036943718791008,0.12034045159816742,0.19883663952350616,-26.001171112060547,48.056121826171875,-12.540192604064941
0.234,2.6452653408050537,-8.660820960998535,-2.9288148880004883,0.13347405195236206,0.1618792861700058,0.2382374405860901,-25.825780868530273,48.421512603759766,-13.49020767211914
0.24,2.583051919937134,-8.786444664001465,-2.750549554824829,0.13057243824005127,0.1572977900505066,0.24037547409534454,-26.132709503173828,48.34843444824219,-13.16866397857666
0.25,2.8115665912628174,-8.933603286743164,-2.7637100219726562,0.10613783448934555,0.14049901068210602,0.23365594446659088,-26.61502456665039,48.114585876464844,-13.183279037475586
0.26,3.201596736907959,-9.138189315795898,-2.671586275100708,0.07376197725534439,0.11942415684461594,0.2612975835800171,-26.32271385192871,48.14381790161133,-13.504822731018066
0.27,3.363112211227417,-9.153742790222168,-2.9168508052825928,0.03191770985722542,0.05955936014652252,0.31062498688697815,-25.92809295654297,48.45074462890625,-13.417129516601562
0.29,3.125026226043701,-9.058029174804688,-3.053241491317749,-0.002138028386980295,-0.04841107130050659,0.33368512988090515,-25.855012893676758,48.39228439331055,-13.431745529174805
0.293,2.5052852630615234,-9.042476654052734,-3.0520453453063965,-0.014966198243200779,-0.10277807712554932,0.35017848014831543,-25.270387649536133,47.98304748535156,-13.139432907104492
0.3,2.1104695796966553,-8.981459617614746,-3.1453652381896973,-0.017409659922122955,-0.08002334833145142,0.35124751925468445,-25.43115997314453,48.216896057128906,-13.592517852783203
0.31,1.7778671979904175,-8.81396198272705,-3.1417760848999023,0.0019853119738399982,-0.010690141469240189,0.34162637591362,-25.445777893066406,47.924583435058594,-13.607131958007812
0.32,1.7264214754104614,-8.713462829589844,-3.067598581314087,0.0354301817715168,0.08567384630441666,0.3326161205768585,-25.621164321899414,48.1584358215332,-13.607131958007812
0.33,1.8795621395111084,-8.636893272399902,-3.1058835983276367,0.060475654900074005,0.20295996963977814,0.3303253948688507,-25.694242477416992,48.20227813720703,-14.498684883117676
0.35,2.124826431274414,-8.599804878234863,-3.1334011554718018,0.1241583600640297,0.28328877687454224,0.33276882767677307,-24.992692947387695,48.33382034301758,-13.855597496032715
0.354,2.275574207305908,-8.853443145751953,-2.9730820655822754,0.16294831037521362,0.3735440969467163,0.3594941794872284,-24.56884002685547,48.421512603759766,-13.928675651550293
0.36,2.4191436767578125,-9.031708717346191,-2.922832727432251,0.1699732542037964,0.4056145250797272,0.36789360642433167,-24.802688598632812,48.24612808227539,-13.943290710449219
0.37,2.7397818565368652,-9.18604564666748,-2.803191661834717,0.16584990918636322,0.40454548597335815,0.36453381180763245,-24.74422836303711,48.611515045166016,-13.417129516601562
0.38,2.8689942359924316,-9.273384094238281,-2.9790639877319336,0.12034045159816742,0.3833179175853729,0.37430769205093384,-24.583454132080078,48.9184455871582,-13.943290710449219
0.39,3.06999135017395,-9.09272575378418,-3.2135608196258545,0.1036943718791008,0.2545780837535858,0.35521814227104187,-24.612686157226562,48.75767135620117,-13.314821243286133
0.41,2.8737800121307373,-9.053244590759277,-3.128615379333496,0.09651671350002289,0.15485434234142303,0.37369680404663086,-24.56884002685547,48.5384407043457,-14.016368865966797
0.413,2.410768747329712,-8.930013656616211,-3.152543783187866,0.09514226019382477,0.09392052888870239,0.3819434940814972,-24.40806770324707,48.684593200683594,-13.373282432556152
0.42,2.3509480953216553,-8.853443145751953,-3.25663161277771,0.10781770944595337,0.03390302136540413,0.3497203588485718,-23.867290496826172,48.55305480957031,-13.694826126098633
0.43,2.4335005283355713,-8.888139724731445,-3.0352954864501953,0.1394299864768982,-0.052381694316864014,0.3019201457500458,-24.203449249267578,48.479976654052734,-13.797135353088379
0.44,2.1571295261383057,-8.841479301452637,-2.946760892868042,0.15225815773010254,-0.018936822190880775,0.33292156457901,-24.349605560302734,48.87459945678711,-14.147910118103027
0.45,1.8340984582901,-9.010172843933105,-2.8869404792785645,0.1725694239139557,0.06520986557006836,0.33826664090156555,-24.261911392211914,48.9184455871582,-13.811750411987305
0.47,2.0578272342681885,-9.148957252502441,-2.801995277404785,0.17867808043956757,0.11667525768280029,0.3220787048339844,-23.721134185791016,48.5822868347168,-14.498684883117676
0.474,2.5220348834991455,-9.164510726928711,-2.956332206726074,0.17440202832221985,0.17928895354270935,0.3422372341156006,-23.472667694091797,48.9184455871582,-14.279450416564941
0.48,2.6524438858032227,-9.150154113769531,-3.008974552154541,0.17730362713336945,0.17776179313659668,0.3556762933731079,-23.2095890045166,48.976905822753906,-14.761765480041504
0.49,2.445464611053467,-9.195616722106934,-3.012563705444336,0.17760907113552094,0.17302757501602173,0.3799581825733185,-22.66880989074707,49.06460189819336,-15.477930068969727
0.5,2.287538528442383,-9.104689598083496,-2.9970104694366455,0.1791362315416336,0.18219056725502014,0.36621370911598206,-23.063430786132812,49.32768249511719,-14.600994110107422
0.51,2.366501569747925,-9.004191398620605,-3.073580503463745,0.1788308024406433,0.18524488806724548,0.3510947823524475,-23.180356979370117,49.06460189819336,-15.346389770507812
0.53,2.4741785526275635,-8.95274543762207,-3.043670415878296,0.18631389737129211,0.1771509051322937,0.34162637591362,-22.75650405883789,49.26921844482422,-15.024847030639648
0.533,2.4287149906158447,-8.98385238647461,-3.049652338027954,0.17806722223758698,0.17180584371089935,0.34605515003204346,-22.74188804626465,49.12306213378906,-14.250219345092773
0.54,2.469392776489258,-8.955138206481934,-3.1202404499053955,0.17318028211593628,0.16600261628627777,0.3442225456237793,-23.048816680908203,48.90382766723633,-14.95176887512207
0.55,2.616551399230957,-8.842676162719727,-3.2506494522094727,0.17547103762626648,0.15592335164546967,0.35124751925468445,-23.01958465576172,48.2607421875,-14.922536849975586
0.56,2.761317014694214,-8.740981101989746,-3.3032915592193604,0.19853119552135468,0.14187344908714294,0.369878888130188,-22.44957733154297,48.87459945678711,-15.404851913452148
0.57,2.724228620529175,-8.663214683532715,-3.335594892501831,0.22647827863693237,0.11942415684461594,0.3871358335018158,-22.434959411621094,49.093833923339844,-14.557147026062012
0.59,2.66560435295105,-8.62612533569336,-3.2949166297912598,0.24953843653202057,0.09315694868564606,0.3897320032119751,-22.44957733154297,49.56153106689453,-15.171003341674805
0.594,2.798405885696411,-8.567501068115234,-3.297309398651123,0.2727513313293457,0.052839841693639755,0.37491855025291443,-22.054954528808594,49.4007568359375,-15.390236854553223
0.6,2.8486552238464355,-8.526823043823242,-3.3056843280792236,0.27779096364974976,0.01817324012517929,0.3646865487098694,-21.718795776367188,49.48845672607422,-15.097925186157227
0.61,2.8965117931365967,-8.48016357421875,-3.342773199081421,0.2874121069908142,-0.031612277030944824,0.34727686643600464,-21.324174880981445,49.42999267578125,-14.922536849975586
0.62,2.956332206726074,-8.571090698242188,-3.150151014328003,0.2822197377681732,-0.04993823170661926,0.34926217794418335,-21.499561309814453,49.56153106689453,-15.156386375427246
0.63,2.9551358222961426,-8.638089179992676,-3.156132936477661,0.2503020465373993,-0.055894169956445694,0.3465133011341095,-21.908798217773438,49.35691452026367,-15.41946792602539
0.65,2.968296527862549,-8.511269569396973,-3.2757742404937744,0.20387627184391022,-0.058184914290905,0.3257438838481903,-21.616485595703125,50.0,-15.85793685913086
0.654,3.029313325881958,-8.281558990478516,-3.438485860824585,0.1641700267791748,-0.0907134935259819,0.29626965522766113,-21.514177322387695,49.63460922241211,-16.281789779663086
0.66,3.0652055740356445,-8.169095993041992,-3.4851462841033936,0.14645493030548096,-0.1059851199388504,0.28038716316223145,-21.134170532226562,50.043846130371094,-15.127155303955078
0.67,2.919243335723877,-8.072187423706055,-3.46600341796875,0.12767083942890167,-0.12919799983501434,0.2600758671760559,-20.63724136352539,50.40924072265625,-15.770242691040039
0.68,2.8319056034088135,-7.891529083251953,-3.46600341796875,0.12003502249717712,-0.14049901068210602,0.2145664095878601,-20.82724380493164,49.70768737792969,-15.22946548461914
0.69,2.8283162117004395,-7.805387020111084,-3.345165967941284,0.11942415684461594,-0.1388191282749176,0.17333300411701202,-20.30108070373535,50.043846130371094,-16.530254364013672
0.709,2.827119827270508,-7.667799949645996,-3.198007583618164,0.07452555745840073,-0.12507465481758118,0.09453140199184418,-20.37415885925293,49.70768737792969,-16.194095611572266
0.713,2.8007986545562744,-7.633103847503662,-3.1166512966156006,0.056352317333221436,-0.11682797223329544,0.07269296050071716,-20.885705947875977,50.043846130371094,-15.887167930603027
0.72,2.7696919441223145,-7.643871784210205,-3.180061101913452,0.033597588539123535,-0.09575312584638596,0.0529925599694252,-20.330312728881836,49.795379638671875,-15.244080543518066
0.73,2.7290141582489014,-7.768298149108887,-3.095116138458252,-0.00015271631127689034,-0.05100724473595619,0.04596760869026184,-20.871089935302734,49.69307327270508,-16.267173767089844
0.74,2.8151557445526123,-8.015955924987793,-3.0281169414520264,-0.043676864355802536,-0.01542434748262167,0.04001167416572571,-20.46185302734375,49.795379638671875,-15.448699951171875
0.75,2.888136863708496,-8.398807525634766,-3.102294445037842,-0.10919215530157089,0.04413501173257828,0.05696318298578262,-19.99415397644043,50.11692810058594,-15.945630073547363
0.77,3.0687947273254395,-8.816354751586914,-3.232703447341919,-0.1495092660188675,0.09269880503416061,0.09773843735456467,-19.877227783203125,49.97077178955078,-15.477930068969727
0.773,3.153740167617798,-9.17886734008789,-3.2590243816375732,-0.1820378452539444,0.13607022166252136,0.1388191282749176,-20.30108070373535,49.88307571411133,-15.726396560668945
0.78,3.2482566833496094,-9.404989242553711,-3.335594892501831,-0.18509215116500854,0.14966197311878204,0.15775594115257263,-19.80415153503418,49.766151428222656,-14.893306732177734
0.79,3.482753276824951,-9.640682220458984,-3.469592809677124,-0.17547103762626648,0.18081609904766083,0.19624045491218567,-20.593395233154297,49.41537857055664,-15.945630073547363
0.801,3.6335010528564453,-9.820143699645996,-3.579662799835205,-0.15073098242282867,0.20616701245307922,0.2519819140434265,-20.593395233154297,49.853843688964844,-14.86407470703125
0.81,3.7531421184539795,-9.949356079101562,-3.73041033744812,-0.11911872029304504,0.21945331990718842,0.27779096364974976,-20.564163208007812,49.42999267578125,-14.337912559509277
0.829,3.841676712036133,-10.092926025390625,-3.5437703132629395,-0.09605855494737625,0.24908030033111572,0.2765692174434662,-19.979537963867188,49.605377197265625,-14.980999946594238
0.833,3.7220354080200195,-10.195816040039062,-3.3643083572387695,-0.09514226019382477,0.2580905556678772,0.2718350291252136,-19.36568260192871,49.69307327270508,-15.14177131652832
0.84,3.62153697013855,-10.321439743041992,-3.0903303623199463,-0.10751228034496307,0.29336804151535034,0.23411409556865692,-19.701841354370117,49.6199951171875,-15.624086380004883
0.85,3.726821184158325,-10.319046974182129,-3.3056843280792236,-0.16050483286380768,0.3715587854385376,0.13530665636062622,-20.286466598510742,49.18152618408203,-14.937153816223145
0.86,3.9900314807891846,-10.186245918273926,-3.5844480991363525,-0.182648703455925,0.42928555607795715,0.06185010448098183,-19.789535522460938,49.2984504699707,-14.220989227294922
0.87,4.329812526702881,-9.940980911254883,-3.8811581134796143,-0.19028452038764954,0.45326200127601624,-0.02229658141732216,-20.09646224975586,49.56153106689453,-15.244080543518066
0.89,4.557130336761475,-9.69930648803711,-3.9828531742095947,-0.16798794269561768,0.4404338300228119,-0.0962112694978714,-20.476469039916992,49.225372314453125,-14.177140235900879
0.894,4.663610935211182,-9.284152030944824,-4.098905086517334,-0.11407908797264099,0.3260492980480194,-0.24648413062095642,-20.403390884399414,48.72844314575195,-14.820228576660156
0.9,4.71744966506958,-9.138189315795898,-4.096512317657471,-0.09239336103200912,0.2324342280626297,-0.3422372341156006,-20.593395233154297,49.51768493652344,-14.147910118103027
0.91,4.975874423980713,-8.895318031311035,-4.022334575653076,-0.06979135423898697,0.0933096632361412,-0.4619668424129486,-21.411867141723633,49.4007568359375,-13.987138748168945
0.92,5.065605640411377,-8.825925827026367,-3.893122434616089,-0.076052725315094,0.004734205547720194,-0.5381722450256348,-21.324174880981445,49.4007568359375,-14.308682441711426
0.93,4.851447582244873,-8.779266357421875,-3.6849467754364014,-0.10308350622653961,-0.04871650040149689,-0.603076696395874,-21.601871490478516,49.225372314453125,-15.127155303955078
0.949,4.545166492462158,-8.50887680053711,-3.6849467754364014,-0.17088955640792847,-0.03985895588994026,-0.8093964457511902,-22.464191436767578,49.239986419677734,-14.498684883117676
0.953,4.683949947357178,-8.137989044189453,-3.8249268531799316,-0.18096882104873657,-0.03329215571284294,-0.8576547503471375,-22.347267150878906,49.2984504699707,-14.659457206726074
0.96,4.883750915527344,-7.95015287399292,-3.7567315101623535,-0.19165895879268646,-0.04459316283464432,-0.9271407127380371,-22.47880744934082,49.51768493652344,-14.410990715026855
0.97,4.959124565124512,-7.883154392242432,-3.796213150024414,-0.21762074530124664,-0.09040804952383041,-1.0355693101882935,-23.472667694091797,49.049983978271484,-13.767904281616211
0.98,5.218746185302734,-7.94297456741333,-3.9517464637756348,-0.23869559168815613,-0.1466076523065567,-1.1279627084732056,-23.31189727783203,49.37152862548828,-13.840982437133789
0.99,5.6315083503723145,-8.097311019897461,-4.036691665649414,-0.266184538602829,-0.24144448339939117,-1.2224940061569214,-24.48114585876465,49.19614028930664,-13.943290710449219
1.01,5.831308364868164,-8.390432357788086,-3.909872055053711,-0.33979377150535583,-0.49556440114974976,-1.3477214574813843,-25.24115753173828,49.19614028930664,-13.534053802490234
1.013,5.650650501251221,-8.422735214233398,-3.8763725757598877,-0.3602577745914459,-0.5320636034011841,-1.35535728931427,-25.29962158203125,49.035369873046875,-13.811750411987305
1.02,5.304887771606445,-8.505288124084473,-3.789034366607666,-0.394618958234787,-0.5592471361160278,-1.3859004974365234,-25.518856048583984,49.049983978271484,-13.007892608642578
1.03,5.005784511566162,-8.616554260253906,-3.720839262008667,-0.44776421785354614,-0.5419901609420776,-1.4274393320083618,-26.23501968383789,48.55305480957031,-12.467114448547363
1.04,4.78803825378418,-8.605786323547363,-3.662214994430542,-0.4986187517642975,-0.461355984210968,-1.4498887062072754,-26.32271385192871,48.713829040527344,-12.89096736907959
1.05,4.735395908355713,-8.499305725097656,-3.6610186100006104,-0.5451971888542175,-0.3410155177116394,-1.4720324277877808,-27.272727966308594,48.45074462890625,-12.715579986572266
1.07,4.851447582244873,-8.415556907653809,-3.6083762645721436,-0.5937610268592834,-0.09865473955869675,-1.4963144063949585,-28.558900833129883,48.30459213256836,-11.911721229553223
1.074,5.015356063842773,-8.292326927185059,-3.4923245906829834,-0.5983425378799438,-0.05009094625711441,-1.503339409828186,-28.646595001220703,47.89535140991211,-11.955568313598633
1.08,5.026124000549316,-8.127222061157227,-3.561716318130493,-0.6050620079040527,0.017409659922122955,-1.5212072134017944,-29.757381439208984,47.8807373046875,-11.487869262695312
1.09,5.168496608734131,-7.982456207275391,-3.647857904434204,-0.5975789427757263,0.08429940044879913,-1.5558736324310303,-30.195850372314453,47.296112060546875,-12.262495994567871
1.1,5.477170944213867,-7.893921375274658,-3.7770702838897705,-0.587652325630188,0.10705412924289703,-1.5900822877883911,-30.707395553588867,46.7991828918457,-11.940953254699707
1.11,5.836094379425049,-7.846065044403076,-3.8177483081817627,-0.5632177591323853,0.05757404863834381,-1.630246639251709,-31.408945083618164,46.46302032470703,-12.1455717086792
1.13,5.836094379425049,-8.158329010009766,-3.5748770236968994,-0.5471825003623962,-0.08429940044879913,-1.6554447412490845,-32.72434997558594,46.170711517333984,-11.297865867614746
1.134,5.827719688415527,-8.172685623168945,-3.562912940979004,-0.5510004162788391,-0.10155634582042694,-1.6614007949829102,-32.797428131103516,45.87839889526367,-11.634024620056152
1.14,5.705685138702393,-8.23011302947998,-3.4923245906829834,-0.5673410296440125,-0.13958270847797394,-1.6723963022232056,-33.41128158569336,45.8199348449707,-11.385560035705566
1.15,5.546562671661377,-8.2695951461792,-3.43489670753479,-0.6044511198997498,-0.1540907472372055,-1.6626224517822266,-34.03975296020508,45.46916198730469,-11.078632354736328
1.16,5.401796817779541,-8.196614265441895,-3.5150563716888428,-0.64217209815979,-0.15577064454555511,-1.641700267791748,-35.296695709228516,45.26454162597656,-10.96170711517334
1.17,5.346762180328369,-8.01356315612793,-3.5641093254089355,-0.6556111574172974,-0.13484850525856018,-1.6187928915023804,-35.57439422607422,44.28529739379883,-10.230926513671875
1.189,5.3563337326049805,-7.82692289352417,-3.511467218399048,-0.6429356932640076,-0.11423180252313614,-1.528384804725647,-36.43671417236328,43.75913619995117,-9.923998832702637
1.193,5.263012886047363,-7.680960178375244,-3.61435866355896,-0.634994387626648,-0.11743884533643723,-1.5212072134017944,-36.67056655883789,43.802982330322266,-9.850920677185059
1.2,5.211567401885986,-7.551748275756836,-3.662214994430542,-0.5965099334716797,-0.1449277698993683,-1.5123496055603027,-37.75211715698242,43.7445182800293,-9.938613891601562
1.21,4.977071285247803,-7.408178806304932,-3.458824872970581,-0.5497786998748779,-0.1748601794242859,-1.4720324277877808,-37.86904525756836,42.54603958129883,-10.157849311828613
1.22,5.051248073577881,-7.294519424438477,-3.627518892288208,-0.5117523670196533,-0.18081609904766083,-1.4468343257904053,-38.54136276245117,42.312191009521484,-9.704765319824219
1.23,5.160121917724609,-7.280162334442139,-3.6059837341308594,-0.4599815011024475,-0.21273382008075714,-1.4045318365097046,-38.92136764526367,42.312191009521484,-9.8655366897583
1.249,4.922036170959473,-7.097111225128174,-3.7399816513061523,-0.3770565688610077,-0.29245173931121826,-1.3022119998931885,-39.24291229248047,41.683719635009766,-9.03244686126709
1.253,4.934000015258789,-7.143772125244141,-3.6705896854400635,-0.36880987882614136,-0.3036000430583954,-1.2909109592437744,-39.63753128051758,41.17217254638672,-9.237065315246582
1.26,4.847858428955078,-7.290930271148682,-3.438485860824585,-0.3654501140117645,-0.3793473243713379,-1.2455542087554932,-39.98830795288086,40.689857482910156,-8.696288108825684
1.27,4.837090969085693,-7.446463584899902,-3.5126636028289795,-0.3865249752998352,-0.4528038501739502,-1.1902709007263184,-40.1636962890625,40.134464263916016,-9.368605613708496
1.28,4.993820667266846,-7.447660446166992,-3.500699520111084,-0.4105014503002167,-0.5015203952789307,-1.0952813625335693,-40.47062301635742,40.35369873046875,-8.973984718322754
1.29,4.755734920501709,-7.293323516845703,-3.623929738998413,-0.4274529218673706,-0.5378668308258057,-0.9723447561264038,-41.099090576171875,39.593685150146484,-8.403975486755371
1.303,4.3477582931518555,-6.991827487945557,-3.8775689601898193,-0.4225660264492035,-0.5962044596672058,-0.8052730560302734,-41.04063034057617,39.228294372558594,-8.418591499328613
1.31,4.298705577850342,-6.809973239898682,-3.8943188190460205,-0.39797869324684143,-0.6269004344940186,-0.7243334650993347,-40.8652458190918,39.213680267333984,-7.673194885253906
1.32,4.3441691398620605,-6.835097789764404,-3.943371534347534,-0.34773504734039307,-0.6640104651451111,-0.5858197212219238,-40.63139724731445,38.40982437133789,-8.345513343811035
1.33,4.00917387008667,-7.558926582336426,-3.9792640209198,-0.2620611786842346,-0.6546947956085205,-0.4112650156021118,-40.2221565246582,38.234432220458984,-7.863198280334473
1.34,3.792623519897461,-8.555537223815918,-3.700500249862671,-0.15622878074645996,-0.6281222105026245,-0.2353358417749405,-40.19292449951172,38.07366180419922,-7.64396333694458
1.35,3.530609607696533,-9.10708236694336,-3.5988051891326904,-0.06994406878948212,-0.5413792729377747,-0.06505714356899261,-40.397544860839844,37.98596954345703,-7.658579349517822
1.369,3.5497522354125977,-8.591429710388184,-3.7639100551605225,0.09773843735456467,-0.41890081763267517,0.17806722223758698,-39.374454498291016,38.190589904785156,-6.401637077331543
1.373,3.5509486198425293,-8.425127983093262,-3.827319860458374,0.13927727937698364,-0.4196644127368927,0.22449298202991486,-39.65214920043945,37.41596221923828,-6.343174934387207
1.38,3.473181962966919,-8.315058708190918,-3.6801609992980957,0.184939444065094,-0.4349360466003418,0.29046642780303955,-39.973690032958984,37.75211715698242,-6.416252136230469
1.39,3.207578659057617,-8.25404167175293,-3.6813576221466064,0.2096794992685318,-0.45646902918815613,0.36483925580978394,-38.90675354003906,38.05904769897461,-6.8401055335998535
1.4,2.8797619342803955,-8.407181739807129,-3.4097721576690674,0.19914206862449646,-0.4334088861942291,0.4349360466003418,-38.950599670410156,38.219818115234375,-6.708564758300781
1.419,2.68953275680542,-8.49452018737793,-3.548555612564087,0.1586722582578659,-0.3880521357059479,0.5073235630989075,-38.4244384765625,38.015201568603516,-6.606255531311035
1.423,2.6835503578186035,-8.335397720336914,-3.8572299480438232,0.1472185254096985,-0.2733621895313263,0.6377432942390442,-38.30751037597656,38.54136276245117,-6.153171539306641
1.43,2.8630123138427734,-8.173882484436035,-4.1144585609436035,0.1725694239139557,-0.22678370773792267,0.7118107080459595,-38.07366180419922,38.833675384521484,-6.810873985290527
1.44,2.860619306564331,-8.084151268005371,-4.039084434509277,0.222965806722641,-0.1690569519996643,0.8284859657287598,-37.79596710205078,38.67290496826172,-6.445483684539795
1.45,2.7385854721069336,-8.149953842163086,-3.9290146827697754,0.2811506986618042,-0.1189659982919693,0.9305005073547363,-37.41596221923828,38.71674728393555,-6.0947089195251465
1.46,2.6500511169433594,-8.285148620605469,-3.8189449310302734,0.3445279896259308,-0.0685696229338646,1.002277135848999,-37.26980209350586,38.819061279296875,-6.927798748016357
1.47,2.311466693878174,-8.572286605834961,-2.8737800121307373,0.36224305629730225,0.003359758760780096,1.0877982378005981,-36.50979232788086,39.35983657836914,-6.8839521408081055
1.488,1.8927226066589355,-8.317450523376465,-2.778066873550415,0.3449861407279968,0.016035212203860283,1.035416603088379,-36.59748840332031,39.783687591552734,-7.717041492462158
1.491,1.9130616188049316,-8.374878883361816,-2.575873613357544,0.34147366881370544,0.02519819140434265,1.03037691116333,-36.01285934448242,39.63753128051758,-8.345513343811035
1.5,1.8197414875030518,-8.137989044189453,-3.184846878051758,0.2626720666885376,0.10903944075107574,1.0545060634613037,-35.866703033447266,40.10523223876953,-6.606255531311035
1.51,2.1930220127105713,-8.000402450561523,-3.3439693450927734,0.2626720666885376,0.13057243824005127,1.0230464935302734,-35.20900344848633,39.944461822509766,-6.810873985290527
1.52,2.4741785526275635,-7.902296543121338,-3.427718162536621,0.2223549336194992,0.16508632898330688,1.0551170110702515,-35.179771423339844,40.19292449951172,-7.717041492462158
1.539,2.0470597743988037,-7.75633430480957,-3.231506824493408,0.21074850857257843,0.1927279680967331,1.079246163368225,-35.179771423339844,39.929847717285156,-6.518562316894531
1.543,1.566102385520935,-7.661818027496338,-2.9216363430023193,0.18600846827030182,0.25992316007614136,1.085965633392334,-34.682838439941406,40.514469146728516,-6.869336128234863
1.55,1.345962643623352,-7.661818027496338,-2.764906644821167,0.1774563491344452,0.3439171314239502,1.0963504314422607,-34.37591552734375,40.9237060546875,-6.533177375793457
1.56,1.2669994831085205,-7.783851623535156,-2.7457637786865234,0.17287485301494598,0.49067750573158264,1.126588225364685,-34.9459228515625,41.069862365722656,-7.147032737731934
1.57,1.3316056728363037,-7.933403015136719,-2.8450660705566406,0.19944749772548676,0.679740309715271,1.1716394424438477,-34.47822189331055,41.318328857421875,-7.380882740020752
1.58,1.5409777164459229,-8.373682022094727,-2.7517459392547607,0.22708913683891296,0.8106181621551514,1.2186760902404785,-34.08360290527344,41.34756088256836,-7.8047356605529785
1.59,1.6378871202468872,-8.677571296691895,-2.733799695968628,0.24816399812698364,0.917061448097229,1.2605204582214355,-34.52206802368164,41.157554626464844,-7.410114288330078
1.604,1.8795621395111084,-9.211170196533203,-2.6500511169433594,0.2730567753314972,1.0018190145492554,1.2829697132110596,-35.01900100708008,41.28909683227539,-7.965507507324219
1.61,2.0398812294006348,-9.413363456726074,-2.8043882846832275,0.2782491147518158,1.0128145217895508,1.2932016849517822,-34.755916595458984,41.99064636230469,-7.64396333694458
1.62,2.255235195159912,-9.620343208312988,-2.891726016998291,0.2909245789051056,0.9877691268920898,1.3006848096847534,-34.56591796875,42.20988082885742,-7.629348278045654
1.63,2.5938196182250977,-9.69810962677002,-3.0628130435943604,0.3029891550540924,0.9398161768913269,1.3054189682006836,-34.33206558227539,41.97603225708008,-8.140894889831543
1.64,2.8115665912628174,-9.649056434631348,-3.0448665618896484,0.32070425152778625,0.87735515832901,1.3295481204986572,-34.21514129638672,42.58988571166992,-8.47705364227295
1.65,2.8977081775665283,-9.55095100402832,-3.071187734603882,0.33429598808288574,0.7806857824325562,1.3501648902893066,-34.60976028442383,42.838348388671875,-8.345513343811035
1.662,2.726621150970459,-9.413363456726074,-3.1058835983276367,0.3543018102645874,0.6669121384620667,1.3584116697311401,-33.89359664916992,42.67757797241211,-9.397836685180664
1.67,2.682354211807251,-9.276973724365234,-3.148954391479492,0.3732386529445648,0.6157521605491638,1.3619240522384644,-33.8643684387207,43.33528137207031,-8.886290550231934
1.68,2.596212387084961,-9.067601203918457,-2.9802606105804443,0.40424004197120667,0.5265658497810364,1.3454307317733765,-33.9082145690918,42.999122619628906,-9.280911445617676
1.69,2.4323041439056396,-8.900103569030762,-2.823530673980713,0.4190535545349121,0.4763221740722656,1.3451251983642578,-33.33820343017578,43.89067459106445,-10.128617286682129
1.7,2.287538528442383,-8.841479301452637,-2.9204399585723877,0.432034432888031,0.451582133769989,1.3381003141403198,-32.82666015625,44.182987213134766,-9.54399299621582
1.72,2.3784656524658203,-8.742177963256836,-2.9132614135742188,0.4608978033065796,0.451582133769989,1.330159068107605,-32.490501403808594,44.41683578491211,-9.54399299621582
1.723,2.533998966217041,-8.547162055969238,-2.9515466690063477,0.5238169431686401,0.4485277831554413,1.348179578781128,-32.03741455078125,44.59222412109375,-10.187079429626465
1.73,2.4885356426239014,-8.46461009979248,-2.943171739578247,0.5659666657447815,0.43539419770240784,1.350012183189392,-32.066646575927734,44.85530471801758,-9.953229904174805
1.74,2.6009981632232666,-8.328218460083008,-2.957528829574585,0.6198754906654358,0.41294488310813904,1.3494013547897339,-31.4674072265625,45.27915573120117,-9.690149307250977
1.75,2.702692985534668,-8.257630348205566,-3.0664021968841553,0.6898195743560791,0.3646865487098694,1.3391693830490112,-31.145864486694336,45.132999420166016,-10.523239135742188
1.76,2.737389087677002,-8.373682022094727,-3.005384922027588,0.7513642311096191,0.28466320037841797,1.3182471990585327,-30.722009658813477,45.89301300048828,-10.304004669189453
1.779,2.682354211807251,-8.4502534866333,-3.311666488647461,0.8132143616676331,0.1999056488275528,1.2889256477355957,-30.83893585205078,45.98070526123047,-10.757088661193848
1.783,2.74337100982666,-8.525627136230469,-3.538984537124634,0.9169087409973145,0.08185594528913498,1.2351694107055664,-29.596609115600586,46.76995086669922,-11.268634796142578
1.79,2.8737800121307373,-8.635696411132812,-3.404986619949341,0.9640980362892151,0.03145955875515938,1.2232576608657837,-29.523530960083008,46.43379211425781,-11.955568313598633
1.8,2.7601208686828613,-8.772088050842285,-3.317648410797119,1.014647126197815,0.009621127508580685,1.2313514947891235,-28.80736541748047,47.19380569458008,-13.080970764160156
1.811,2.6249263286590576,-8.901299476623535,-3.2554352283477783,1.063821792602539,0.03436116874217987,1.256091594696045,-28.865829467773438,47.63227081298828,-12.452499389648438
1.82,2.531606435775757,-9.007781028747559,-3.135793924331665,1.1047497987747192,0.08567384630441666,1.267392635345459,-28.16427993774414,48.026893615722656,-13.300204277038574
1.84,2.5902304649353027,-9.032905578613281,-3.0101706981658936,1.1424707174301147,0.1563815027475357,1.2735012769699097,-27.462730407714844,48.20227813720703,-14.513299942016602
1.843,3.022134780883789,-8.96231746673584,-3.207578659057617,1.1936306953430176,0.19058994948863983,1.2692252397537231,-27.024263381958008,48.99152374267578,-14.35252857208252
1.85,3.2949166297912598,-9.163313865661621,-3.0616164207458496,1.2128729820251465,0.19058994948863983,1.2770137786865234,-26.702720642089844,49.26921844482422,-15.083308219909668
1.86,3.3571300506591797,-9.471988677978516,-2.8654050827026367,1.1940888166427612,0.10690141469240189,1.273043155670166,-26.132709503173828,49.6199951171875,-15.580240249633789
1.87,3.280559778213501,-9.870392799377441,-2.9730820655822754,1.1261299848556519,0.02367102913558483,1.2232576608657837,-26.249635696411133,49.6784553527832,-15.653318405151367
1.88,3.2027928829193115,-10.272387504577637,-2.775674343109131,1.0080803632736206,-0.04902193322777748,1.1693487167358398,-25.518856048583984,50.07307434082031,-16.164865493774414
1.899,3.0867412090301514,-10.560722351074219,-2.557927370071411,0.8582656383514404,-0.02932153083384037,1.1491901874542236,-24.77345848083496,50.17538833618164,-16.32563591003418
1.904,2.8462624549865723,-10.096514701843262,-2.909672260284424,0.6876814961433411,0.09544768929481506,1.1808024644851685,-23.794212341308594,50.89155578613281,-16.939491271972656
1.91,2.585444688796997,-9.579665184020996,-3.2410783767700195,0.6305656433105469,0.19715675711631775,1.1988229751586914,-23.83806037902832,50.61385726928711,-17.363344192504883
1.92,2.3641088008880615,-9.011369705200195,-3.561716318130493,0.6079636812210083,0.3280346393585205,1.1953105926513672,-23.443437576293945,51.30078887939453,-16.442562103271484
1.93,2.376072883605957,-8.791230201721191,-3.7184462547302246,0.661414384841919,0.48716503381729126,1.1734721660614014,-22.624963760375977,50.64308547973633,-17.62642478942871
1.94,2.7290141582489014,-8.892925262451172,-3.751945734024048,0.7225008606910706,0.5832235813140869,1.1472049951553345,-22.405729293823242,51.1400146484375,-17.100261688232422
1.96,3.1034910678863525,-8.95274543762207,-3.7112677097320557,0.7808384895324707,0.6188065409660339,1.1155925989151,-22.011106491088867,51.476173400878906,-17.377958297729492
1.964,3.6358938217163086,-9.174081802368164,-3.5748770236968994,0.8161159157752991,0.5468770861625671,1.0464122295379639,-21.528793334960938,51.4615592956543,-18.298744201660156
1.97,3.9110684394836426,-9.390631675720215,-3.672982692718506,0.8084800839424133,0.48609599471092224,1.0140362977981567,-21.83572006225586,51.578487396240234,-19.16106414794922
1.98,4.187439441680908,-9.65503978729248,-3.7734811305999756,0.7738135457038879,0.3149010241031647,0.9425650835037231,-20.90032196044922,51.82695388793945,-18.488744735717773
1.99,4.3752760887146,-9.772287368774414,-4.040280818939209,0.6974554061889648,0.18585574626922607,0.8953757286071777,-20.91493797302246,52.25080108642578,-19.19029426574707
2.0,4.4410786628723145,-9.82971477508545,-4.293920040130615,0.6336199641227722,0.07208210229873657,0.8637634515762329,-20.593395233154297,52.8208122253418,-19.029523849487305
2.02,4.479363918304443,-9.884749412536621,-4.488935470581055,0.5632177591323853,-0.001679879380390048,0.8524624109268188,-19.424144744873047,52.484657287597656,-19.760305404663086
2.023,4.380061626434326,-9.737591743469238,-4.59302282333374,0.4700608253479004,-0.05803219974040985,0.861930787563324,-19.687227249145508,53.23004913330078,-20.871089935302734
2.03,4.2006001472473145,-9.487541198730469,-4.758127689361572,0.4567744731903076,-0.07024950534105301,0.8576547503471375,-19.24875831604004,52.39695739746094,-21.38263702392578
2.04,3.920639753341675,-9.169296264648438,-4.7796630859375,0.4528038501739502,-0.08170322328805923,0.8263479471206665,-19.52645492553711,52.952354431152344,-20.841859817504883
2.05,3.7316067218780518,-9.098708152770996,-4.640879154205322,0.45753806829452515,-0.07406741380691528,0.7834346890449524,-18.63490104675293,52.543113708496094,-20.841859817504883
2.06,3.6047871112823486,-9.299705505371094,-4.396811485290527,0.4433354437351227,-0.05146539583802223,0.6983716487884521,-18.474130630493164,52.61619567871094,-21.587255477905273
2.08,3.838087320327759,-9.242277145385742,-4.462614059448242,0.40882155299186707,-0.046273037791252136,0.5845980048179626,-18.401052474975586,52.323883056640625,-21.411867141723633
2.084,4.409972190856934,-8.889335632324219,-4.998606204986572,0.37980544567108154,-0.10934487730264664,0.42577308416366577,-17.743350982666016,53.08388900756836,-21.879568099975586
2.09,4.579862117767334,-8.870193481445312,-5.021337985992432,0.379652738571167,-0.1586722582578659,0.3686571717262268,-17.933351516723633,53.25928497314453,-21.894182205200195
2.1,5.08235502243042,-9.278169631958008,-5.347958564758301,0.37919458746910095,-0.27229318022727966,0.31871894001960754,-17.34872817993164,53.025428771972656,-21.733409881591797
2.11,5.594419002532959,-9.873982429504395,-5.72722053527832,0.4011857509613037,-0.4260784983634949,0.2759583592414856,-16.98333740234375,53.1569709777832,-21.64571762084961
2.12,5.828916072845459,-10.55115032196045,-5.582455158233643,0.39767327904701233,-0.6298020482063293,0.24785856902599335,-16.939491271972656,53.50774383544922,-21.938030242919922
2.14,5.8779683113098145,-11.127821922302246,-5.6578288078308105,0.3617849349975586,-0.8582656383514404,0.19043724238872528,-16.106401443481445,53.741600036621094,-22.39111328125
2.143,5.581258773803711,-11.523833274841309,-5.036891460418701,0.2580905556678772,-1.081536889076233,0.09453140199184418,-16.296403884887695,53.50774383544922,-22.72727394104004
2.15,5.209174633026123,-11.404192924499512,-4.705485820770264,0.18478672206401825,-1.145830512046814,0.038026362657547,-16.164865493774414,53.37620544433594,-22.493423461914062
2.16,4.436293125152588,-11.193623542785645,-4.551148414611816,0.07925976812839508,-1.1720976829528809,-0.05665775015950203,-15.609471321105957,53.478515625,-22.65419578552246
2.17,3.806980848312378,-10.870593070983887,-4.292723655700684,-0.014660765416920185,-1.1435396671295166,-0.21365012228488922,-15.843321800231934,53.30312728881836,-23.151124954223633
2.18,3.4959137439727783,-10.585847854614258,-4.145565032958984,-0.12202033400535583,-1.0894781351089478,-0.40256020426750183,-15.828704833984375,53.478515625,-23.458053588867188
2.2,3.3415768146514893,-10.27358341217041,-4.071387767791748,-0.24892757833003998,-0.9741773009300232,-0.6284275650978088,-15.916398048400879,53.06927490234375,-22.961122512817383
2.204,3.280559778213501,-9.656235694885254,-4.070191383361816,-0.3683517277240753,-0.8610145449638367,-0.8393288254737854,-16.311019897460938,53.36158752441406,-22.771120071411133
2.21,3.238685369491577,-9.369096755981445,-4.098905086517334,-0.4294382631778717,-0.811687171459198,-0.96257084608078,-16.15024757385254,53.06927490234375,-22.244956970214844
2.22,3.3379874229431152,-9.18006420135498,-3.981656551361084,-0.4816672205924988,-0.751669704914093,-1.1264355182647705,-16.311019897460938,53.142356872558594,-22.09880256652832
2.23,3.397808074951172,-9.160921096801758,-3.8356947898864746,-0.5140430927276611,-0.7122688889503479,-1.2651019096374512,-16.6325626373291,53.05466079711914,-22.288803100585938
2.241,3.3164520263671875,-9.332008361816406,-3.421736478805542,-0.5251913666725159,-0.6777549982070923,-1.4037683010101318,-17.31949806213379,53.5369758605957,-21.66033363342285
2.26,3.300898551940918,-9.77826976776123,-2.7254250049591064,-0.5508477091789246,-0.6469062566757202,-1.4995214939117432,-18.327974319458008,52.8792724609375,-21.57263946533203
2.263,3.390629768371582,-10.254441261291504,-2.137986898422241,-0.6197227835655212,-0.6536257863044739,-1.6223052740097046,-18.766441345214844,53.39081954956055,-21.309558868408203
2.27,3.4085757732391357,-10.554740905761719,-1.4883357286453247,-0.6772968769073486,-0.6815729141235352,-1.684918999671936,-19.00029182434082,53.244667053222656,-21.38263702392578
2.28,3.3786656856536865,-11.199605941772461,-0.7800601124763489,-0.8188648223876953,-0.7869471311569214,-1.767080307006836,-19.292604446411133,53.28851318359375,-20.63724136352539
2.29,2.803191661834717,-11.621939659118652,-0.17347964644432068,-1.0810787677764893,-0.9712757468223572,-1.9292651414871216,-19.789535522460938,52.74773406982422,-20.154926300048828
2.3,2.4574286937713623,-11.507083892822266,-0.24287149310112,-1.3368786573410034,-1.0241155624389648,-2.057241439819336,-20.91493797302246,52.718502044677734,-18.737211227416992
2.32,2.748156785964966,-11.224730491638184,-1.0241280794143677,-1.526857614517212,-0.987463653087616,-2.0894644260406494,-21.806488037109375,51.85618591308594,-17.027183532714844
2.323,3.049652338027954,-11.334800720214844,-1.5421741008758545,-1.6562083959579468,-0.9957103133201599,-2.04655122756958,-21.82110595703125,51.914642333984375,-17.129493713378906
2.33,3.10109806060791,-11.399406433105469,-1.5409777164459229,-1.6991217136383057,-0.986852765083313,-2.001347064971924,-22.215726852416992,51.403099060058594,-16.35486602783203
2.34,2.8618156909942627,-11.769097328186035,-1.0372885465621948,-1.715462327003479,-0.903164267539978,-1.8907805681228638,-23.03420066833496,51.11078643798828,-14.73253345489502
2.35,2.7122642993927,-12.181859016418457,-0.6376872062683105,-1.7324138879776,-0.7353289723396301,-1.7933475971221924,-22.917274475097656,50.584625244140625,-14.220989227294922
2.36,2.6189444065093994,-12.56590747833252,-0.3242274522781372,-1.7130188941955566,-0.6301075220108032,-1.772883653640747,-23.604209899902344,50.3800048828125,-14.308682441711426
2.38,2.361715793609619,-12.236894607543945,-0.4223332107067108,-1.678046703338623,-0.5155702829360962,-1.7800612449645996,-24.057292938232422,48.88921356201172,-12.964046478271484
2.383,2.416750907897949,-11.015358924865723,-1.0815558433532715,-1.556179165840149,-0.42928555607795715,-1.8837556838989258,-24.46653175354004,49.10844802856445,-12.510961532592773
2.39,2.4574286937713623,-10.408778190612793,-1.3627125024795532,-1.4888312816619873,-0.4329507350921631,-1.9226982593536377,-24.77345848083496,48.611515045166016,-11.824028015136719
2.4,2.4358932971954346,-10.13719367980957,-1.3651052713394165,-1.3280209302902222,-0.4723515212535858,-2.0173823833465576,-25.518856048583984,47.9391975402832,-11.663256645202637
2.41,2.3258235454559326,-10.49970531463623,-0.9236294627189636,-1.2373075485229492,-0.4680754840373993,-2.0734293460845947,-26.045015335083008,47.26688003540039,-10.552470207214355
2.42,2.311466693878174,-10.852646827697754,-0.6640082597732544,-1.1997393369674683,-0.3807217478752136,-2.0868682861328125,-26.61502456665039,47.09149169921875,-9.134756088256836
2.439,2.26959228515625,-10.89452075958252,-0.6819544434547424,-1.176831841468811,-0.15454889833927155,-2.0450241565704346,-27.375036239624023,46.170711517333984,-9.003214836120605
2.443,2.3916261196136475,-10.951948165893555,-0.43908295035362244,-1.1722503900527954,-0.1264491081237793,-2.0392208099365234,-27.857351303100586,45.93686294555664,-8.637825012207031
2.45,2.5435705184936523,-11.133803367614746,-0.31824538111686707,-1.1785117387771606,-0.03634648025035858,-2.001041889190674,-27.71119499206543,45.556854248046875,-9.646302223205566
2.46,2.6045873165130615,-11.37667465209961,-0.4211367666721344,-1.2113457918167114,0.03726277872920036,-1.9576704502105713,-28.573516845703125,44.928382873535156,-8.433206558227539
2.47,2.5974087715148926,-11.365906715393066,-0.5359922647476196,-1.238071084022522,0.08750644326210022,-1.9333884716033936,-29.28968048095703,44.13914108276367,-8.403975486755371
2.48,2.654836893081665,-11.100303649902344,-0.4378865361213684,-1.2489140033721924,0.11071932315826416,-1.9242254495620728,-29.947385787963867,44.09529113769531,-8.009353637695312
2.5,2.7421746253967285,-10.9028959274292,-0.3254238963127136,-1.2614367008209229,0.11102475225925446,-1.9173531532287598,-31.08740234375,43.02835464477539,-6.693948745727539
2.504,2.733799695968628,-10.384849548339844,-0.778863787651062,-1.2765556573867798,0.13255774974822998,-1.8748981952667236,-31.65740966796875,42.96989059448242,-7.0447235107421875
2.51,2.799602508544922,-10.035497665405273,-1.0013961791992188,-1.2539536952972412,0.13805553317070007,-1.8600845336914062,-31.803565979003906,42.35603332519531,-6.430868148803711
2.52,2.8869404792785645,-9.638289451599121,-1.1617152690887451,-1.21027672290802,0.1189659982919693,-1.832595705986023,-32.53434753417969,41.80064392089844,-5.80239725112915
2.53,2.8223342895507812,-9.349953651428223,-1.1880364418029785,-1.1450668573379517,0.08827002346515656,-1.80510675907135,-32.69511795043945,41.069862365722656,-5.422390937805176
2.54,2.717050075531006,-9.270990371704102,-1.0061818361282349,-1.085965633392334,0.04703662171959877,-1.7773122787475586,-33.235897064208984,40.44139099121094,-5.787781238555908
2.56,2.5770697593688965,-9.306883811950684,-0.8159525394439697,-1.0485501289367676,0.015271631069481373,-1.7525724172592163,-34.6243782043457,39.47676086425781,-4.574686050415039
2.563,2.6703901290893555,-9.268598556518555,-0.7441678643226624,-1.0603092908859253,0.0328340083360672,-1.7121025323867798,-34.81438064575195,39.43291473388672,-4.691610336303711
2.57,2.80558443069458,-9.083154678344727,-0.8123632073402405,-1.0775662660598755,0.04001167416572571,-1.679268479347229,-35.15053939819336,38.819061279296875,-5.24700403213501
2.58,2.827119827270508,-8.63330364227295,-1.0719845294952393,-1.0936014652252197,0.04581489413976669,-1.630552053451538,-35.092079162597656,38.395206451416016,-4.983922958374023
2.59,2.7565317153930664,-8.032705307006836,-1.4045867919921875,-1.088409185409546,0.03039054572582245,-1.592678427696228,-35.74978256225586,37.8251953125,-4.676995277404785
2.6,2.720639228820801,-7.35194730758667,-1.903490424156189,-1.0453431606292725,-0.04444044828414917,-1.5862643718719482,-35.895938873291016,37.22595977783203,-4.603917121887207
2.62,2.8725833892822266,-6.850651264190674,-2.379662036895752,-0.8758280277252197,-0.21502456068992615,-1.5253304243087769,-36.90441131591797,35.6474723815918,-3.610055446624756
2.623,2.974278450012207,-6.674778461456299,-2.376072883605957,-0.8559749126434326,-0.2324342280626297,-1.5109752416610718,-37.43057632446289,35.530548095703125,-3.726980447769165
2.63,2.8043882846832275,-6.666403770446777,-2.410768747329712,-0.8016079068183899,-0.2883284091949463,-1.4692835807800293,-37.021339416503906,35.340545654296875,-3.829289674758911
2.64,2.6225335597991943,-6.759723663330078,-2.228914260864258,-0.7351763248443604,-0.3428480923175812,-1.4369077682495117,-38.00058364868164,34.63899612426758,-3.800058364868164
2.65,2.423929214477539,-6.809973239898682,-1.9824535846710205,-0.7131851315498352,-0.3761402666568756,-1.4049900770187378,-37.401344299316406,34.05436706542969,-3.843905448913574
2.66,2.4430718421936035,-6.886543273925781,-1.7886348962783813,-0.7382306456565857,-0.37033703923225403,-1.3460414409637451,-38.015201568603516,33.87898254394531,-3.1862027645111084
2.68,2.310270071029663,-7.019344806671143,-1.8484554290771484,-0.8034404516220093,-0.3546072542667389,-1.2819007635116577,-38.234432220458984,32.65127182006836,-3.2008185386657715
2.683,2.091326951980591,-6.9511494636535645,-2.1056838035583496,-0.8709411025047302,-0.28939738869667053,-1.1853840351104736,-38.32212829589844,32.25665283203125,-1.9731072187423706
2.69,2.031506299972534,-6.8518476486206055,-2.3078773021698,-0.9118691086769104,-0.21670444309711456,-1.1148290634155273,-38.029815673828125,32.052032470703125,-2.4115755558013916
2.7,2.1439690589904785,-6.659224987030029,-2.610569477081299,-0.9450085163116455,-0.09575312584638596,-0.9801332950592041,-38.30751037597656,31.64279556274414,-2.1777257919311523
2.71,2.3078773021698,-6.4079790115356445,-2.80558443069458,-0.9421069025993347,0.010537425056099892,-0.8434521555900574,-38.73136520385742,31.014324188232422,-1.2569423913955688
2.72,2.3497517108917236,-5.85284423828125,-2.801995277404785,-0.9135489463806152,0.11927143484354019,-0.7018841505050659,-38.97983169555664,30.83893585205078,-2.4554224014282227
2.74,2.093719720840454,-5.142175674438477,-2.6356940269470215,-0.811687171459198,0.361174076795578,-0.4338670074939728,-39.710609436035156,29.508914947509766,-1.5784857273101807
2.744,2.060220241546631,-4.959124565124512,-2.699103832244873,-0.7785477042198181,0.42730024456977844,-0.38240164518356323,-39.929847717285156,29.391992568969727,-1.856182336807251
2.75,2.100898265838623,-4.755734920501709,-2.798405885696411,-0.7431175708770752,0.48517972230911255,-0.33597588539123535,-39.593685150146484,28.515052795410156,-1.7538732290267944
2.76,2.366501569747925,-4.482953071594238,-3.0376882553100586,-0.651029646396637,0.5873469114303589,-0.22708913683891296,-39.63753128051758,28.71967315673828,-1.0815550088882446
2.77,2.596212387084961,-4.370490550994873,-2.715853691101074,-0.5722280144691467,0.5766568183898926,-0.1518000215291977,-40.38292694091797,28.120431900024414,-1.7538732290267944
2.78,2.5591237545013428,-4.418346881866455,-2.7840490341186523,-0.5302309989929199,0.5082398653030396,-0.1264491081237793,-40.324466705322266,28.07658576965332,-1.1400175094604492
2.799,2.830709218978882,-4.426721572875977,-3.084348201751709,-0.4254676401615143,0.41172316670417786,-0.044745877385139465,-40.952938079833984,27.345806121826172,-2.016954183578491
2.803,3.5605199337005615,-4.336990833282471,-3.4229326248168945,-0.39645153284072876,0.35705074667930603,-0.007941247895359993,-40.73370361328125,27.345806121826172,-2.016954183578491
2.81,3.838087320327759,-4.125226020812988,-3.7639100551605225,-0.33276882767677307,0.2554943859577179,0.05451972037553787,-41.099090576171875,27.05349349975586,-1.6661795377731323
2.821,3.9326038360595703,-3.9565322399139404,-4.041477203369141,-0.25763240456581116,0.09453140199184418,0.13408491015434265,-41.28909683227539,27.901199340820312,-1.9584916830062866
2.83,3.8739798069000244,-4.0486555099487305,-4.0666022300720215,-0.16508632898330688,-0.11743884533643723,0.22113321721553802,-41.2452507019043,27.667348861694336,-2.5723471641540527
2.841,3.8189449310302734,-4.3477582931518555,-3.8811581134796143,-0.10430524498224258,-0.2932153046131134,0.31154128909111023,-40.90909194946289,27.60888671875,-2.0754165649414062
2.859,3.3379874229431152,-5.222335338592529,-2.6727828979492188,-0.01542434748262167,-0.4967861771583557,0.6562219858169556,-40.47062301635742,27.141185760498047,-1.6954107284545898
2.863,3.2410783767700195,-5.382654190063477,-2.550748825073242,-0.0039706239476799965,-0.5085453391075134,0.7644978761672974,-40.499855041503906,27.462730407714844,-1.5492546558380127
2.87,2.667997121810913,-6.110072612762451,-2.427518606185913,0.01542434748262167,-0.48059821128845215,0.9440922141075134,-40.10523223876953,27.55042266845703,-1.9877228736877441
2.88,2.1918253898620605,-6.946363925933838,-2.620140552520752,0.06169738993048668,-0.35705074667930603,1.1774427890777588,-40.42677688598633,27.930429458618164,-2.1923413276672363
2.89,2.1343977451324463,-7.901099681854248,-2.7672994136810303,0.11133018881082535,-0.18539761006832123,1.397354245185852,-39.81291961669922,27.959659576416016,-1.7538732290267944
2.9,2.4777677059173584,-8.739784240722656,-3.431307554244995,0.17547103762626648,-0.01114829070866108,1.596648931503296,-39.374454498291016,28.28120231628418,-1.7684887647628784
2.919,2.641676187515259,-9.474380493164062,-4.767699241638184,0.40515637397766113,0.294437050819397,1.9045250415802002,-38.658287048339844,28.763521194458008,-3.0108156204223633
2.923,2.7529425621032715,-9.436095237731934,-5.114657878875732,0.47021350264549255,0.33719760179519653,1.944536805152893,-38.760597229003906,29.406606674194336,-2.630809783935547
2.93,3.029313325881958,-9.20877742767334,-5.292923927307129,0.5988006591796875,0.41401392221450806,2.0083720684051514,-38.97983169555664,29.71353530883789,-1.856182336807251
2.94,3.407379150390625,-9.138189315795898,-4.738985061645508,0.7735080718994141,0.48487427830696106,2.101834535598755,-38.54136276245117,30.34200668334961,-2.3969600200653076
2.95,3.3954150676727295,-9.471988677978516,-4.036691665649414,0.8810203671455383,0.5505422949790955,2.217135429382324,-37.81058120727539,31.014324188232422,-2.4700381755828857
2.96,3.390629768371582,-10.291529655456543,-3.5820553302764893,0.9195048809051514,0.6299547553062439,2.3359487056732178,-38.17597198486328,31.686643600463867,-2.031569719314575
2.979,3.8596227169036865,-12.125627517700195,-3.4444680213928223,0.8498662114143372,0.8138251900672913,2.5677719116210938,-37.854427337646484,32.91435241699219,-2.5138847827911377
2.983,4.1730828285217285,-12.379267692565918,-4.0833516120910645,0.8336783647537231,0.8474227786064148,2.6109907627105713,-38.05904769897461,32.85588836669922,-3.536977529525757
2.99,4.505684852600098,-12.5204439163208,-4.277170181274414,0.8549058437347412,0.8666650652885437,2.657874584197998,-37.3867301940918,33.791290283203125,-3.493130683898926
3.0,4.77248477935791,-12.0933256149292,-4.705485820770264,0.8332201838493347,0.8814785480499268,2.7348437309265137,-37.48904037475586,34.2882194519043,-4.106986045837402
3.01,5.12901496887207,-11.218749046325684,-4.962713718414307,0.9011789560317993,0.783892810344696,2.749657154083252,-37.021339416503906,35.61824035644531,-4.618532657623291
3.02,5.294119834899902,-10.924431800842285,-4.686342716217041,0.9906706809997559,0.5902485251426697,2.766608715057373,-37.31365203857422,35.895938873291016,-5.232388019561768
3.039,4.4135613441467285,-11.606385231018066,-4.336990833282471,1.0949759483337402,0.38179075717926025,2.757751226425171,-36.18824768066406,37.16749572753906,-5.451622009277344
3.043,4.3202409744262695,-11.802597045898438,-4.322634220123291,1.1195632219314575,0.3630066514015198,2.74415922164917,-36.05670928955078,37.605960845947266,-5.700087547302246
3.05,4.301098346710205,-12.0394868850708,-4.31306266784668,1.1580477952957153,0.3315471112728119,2.7090344429016113,-35.99824523925781,38.43905258178711,-6.0508623123168945
3.06,4.470988750457764,-12.29551887512207,-4.356133460998535,1.2093604803085327,0.3220787048339844,2.685974597930908,-35.19438934326172,39.330604553222656,-6.416252136230469
3.07,4.5822553634643555,-12.421141624450684,-4.524827480316162,1.2803735733032227,0.299018532037735,2.6555838584899902,-33.630516052246094,39.783687591552734,-6.957030296325684
3.08,4.686342716217041,-12.137593269348145,-4.535595417022705,1.3335187435150146,0.2736676335334778,2.621986150741577,-33.630516052246094,41.04063034057617,-6.606255531311035
3.1,4.640879154205322,-10.985447883605957,-4.869393825531006,1.4569135904312134,0.0985020250082016,2.4576635360717773,-31.993568420410156,42.22449493408203,-8.097047805786133
3.104,4.5822553634643555,-10.85623550415039,-4.719842433929443,1.4752395153045654,0.04841107130050659,2.417193651199341,-31.876644134521484,42.3414192199707,-8.287050247192383
3.11,4.621737003326416,-10.752148628234863,-4.6648077964782715,1.4844025373458862,0.01191187184303999,2.3747386932373047,-31.540485382080078,42.19526290893555,-8.769365310668945
3.12,4.668396949768066,-10.590632438659668,-4.350151538848877,1.5001323223114014,-0.07925976812839508,2.2824978828430176,-30.91201400756836,43.13066482543945,-9.251681327819824
3.13,4.11924409866333,-10.460224151611328,-3.579662799835205,1.464396595954895,-0.09651671350002289,2.2235493659973145,-30.093538284301758,44.066062927246094,-9.704765319824219
3.14,3.5772697925567627,-10.167102813720703,-3.5365920066833496,1.4074335098266602,-0.06643159687519073,2.1429152488708496,-28.89505958557129,45.22069549560547,-10.362466812133789
3.156,3.59043025970459,-9.929017066955566,-3.506681442260742,1.3142764568328857,-0.003359758760780096,1.9633208513259888,-27.755043029785156,45.746856689453125,-11.809412002563477
3.16,3.76151704788208,-9.796216011047363,-3.8177483081817627,1.3060299158096313,-0.00015271631127689034,1.941787838935852,-27.60888671875,46.112247467041016,-11.444022178649902
3.17,4.327419757843018,-9.67657470703125,-3.9254255294799805,1.3180943727493286,-0.039248090237379074,1.8527542352676392,-27.287343978881836,46.185325622558594,-12.803274154663086
3.18,4.692325115203857,-9.538987159729004,-4.1419758796691895,1.3153455257415771,-0.1463022232055664,1.808924674987793,-26.49810028076172,46.78456497192383,-12.61327075958252
3.19,4.761716842651367,-9.20279598236084,-4.4410786628723145,1.3469579219818115,-0.2773328125476837,1.7482962608337402,-25.518856048583984,46.76995086669922,-12.584039688110352
3.209,4.889732837677002,-8.932406425476074,-4.372883319854736,1.3857477903366089,-0.4466952085494995,1.6858352422714233,-24.612686157226562,47.44226837158203,-13.373282432556152
3.213,4.634897232055664,-8.544769287109375,-4.529613018035889,1.4314099550247192,-0.7060074806213379,1.5845844745635986,-23.341127395629883,47.924583435058594,-14.688687324523926
3.22,4.427917957305908,-8.374878883361816,-4.474577903747559,1.4567607641220093,-0.8319984078407288,1.5025757551193237,-22.888044357299805,48.33382034301758,-14.966383934020996
3.23,4.240081787109375,-8.277969360351562,-4.442275047302246,1.479515552520752,-0.9393580555915833,1.4114041328430176,-22.20111083984375,48.6407470703125,-16.091785430908203
3.24,3.792623519897461,-8.295915603637695,-4.2137603759765625,1.4792102575302124,-0.9844093322753906,1.3377948999404907,-20.958784103393555,48.62613296508789,-16.07716941833496
3.25,3.297309398651123,-8.232505798339844,-4.176671981811523,1.444390892982483,-0.9705121517181396,1.243874430656433,-20.505699157714844,49.31306457519531,-17.42180633544922
3.26,3.0388846397399902,-8.100900650024414,-4.34536600112915,1.3894129991531372,-0.935998260974884,1.1253665685653687,-19.614147186279297,49.48845672607422,-17.275650024414062
3.273,2.7421746253967285,-7.846065044403076,-4.494917392730713,1.2788463830947876,-0.8623890280723572,0.9439395070075989,-19.292604446411133,49.45922088623047,-18.050277709960938
3.28,2.6536402702331543,-7.658228397369385,-4.594219207763672,1.2293663024902344,-0.8092436790466309,0.8565858006477356,-18.63490104675293,50.30692672729492,-19.380298614501953
3.29,2.575873613357544,-7.606782913208008,-4.660021781921387,1.1618657112121582,-0.7131851315498352,0.7550293803215027,-17.61180877685547,49.70768737792969,-20.213388442993164
3.3,2.5351955890655518,-7.511070251464844,-4.832304954528809,1.0997101068496704,-0.6075054407119751,0.6594290137290955,-17.670272827148438,50.24846649169922,-20.257234573364258
3.31,2.6141586303710938,-7.2813591957092285,-5.040481090545654,1.0644326210021973,-0.5346598029136658,0.5422956347465515,-16.807950973510742,50.29231262207031,-20.257234573364258
3.33,2.7840490341186523,-7.076772689819336,-5.284548759460449,1.0458012819290161,-0.5141957998275757,0.40912699699401855,-16.559486389160156,51.0815544128418,-20.90032196044922
3.333,2.8929224014282227,-7.1880388259887695,-5.126622676849365,1.0100656747817993,-0.5881105065345764,0.2278527319431305,-16.734872817993164,50.87693786621094,-21.397253036499023
3.34,2.7804598808288574,-7.454838752746582,-5.123033046722412,0.976468026638031,-0.6154467463493347,0.16249015927314758,-16.530254364013672,50.68693161010742,-22.405729293823242
3.35,2.352144718170166,-7.910671234130859,-4.898108005523682,0.9077457189559937,-0.6093380451202393,0.09422595798969269,-16.2525577545166,50.89155578613281,-22.274188995361328
3.36,2.0374884605407715,-8.249256134033203,-4.844269275665283,0.797789990901947,-0.5438227653503418,0.025656340643763542,-15.916398048400879,51.27155685424805,-22.858814239501953
3.37,2.1475582122802734,-8.256434440612793,-4.8466620445251465,0.6899722814559937,-0.46883904933929443,-0.02687807008624077,-16.515640258789062,51.66618347167969,-22.975738525390625
3.389,2.434696912765503,-8.273183822631836,-4.861019134521484,0.5636758804321289,-0.36682456731796265,-0.01924225501716137,-16.018707275390625,51.92926025390625,-23.238819122314453
3.393,3.084348201751709,-8.10568618774414,-5.350350856781006,0.4697553813457489,-0.3017674386501312,0.021991148591041565,-15.755626678466797,51.11078643798828,-23.341127395629883
3.4,3.428914785385132,-7.9585280418396,-5.783452033996582,0.42592576146125793,-0.31780263781547546,0.04459316283464432,-15.448699951171875,51.60771560668945,-23.764982223510742
3.41,3.8333017826080322,-7.7730841636657715,-6.236892223358154,0.3914119005203247,-0.4202752709388733,0.06322455406188965,-15.477930068969727,51.56386947631836,-24.144987106323242
3.42,3.8189449310302734,-7.770691394805908,-6.240480899810791,0.3364340364933014,-0.6243042945861816,0.050243668258190155,-15.112540245056152,52.04618453979492,-24.071908950805664
3.43,3.397808074951172,-8.006383895874023,-5.923432350158691,0.22510384023189545,-0.8484918475151062,0.018478674814105034,-15.039462089538574,52.0169563293457,-24.48114585876465
3.45,2.585444688796997,-8.437091827392578,-5.0117669105529785,0.08399397134780884,-0.912327229976654,-0.0177150908857584,-15.507162094116211,51.695411682128906,-25.387313842773438
3.453,2.3389840126037598,-8.255237579345703,-4.864608287811279,-0.12293662130832672,-0.8652905821800232,-0.08200865983963013,-15.14177131652832,52.19234085083008,-25.182693481445312
3.46,2.3880369663238525,-8.01116943359375,-4.829912185668945,-0.21624629199504852,-0.7738135457038879,-0.07620543986558914,-14.90792179107666,52.17772674560547,-25.31423568725586
3.47,2.4538395404815674,-7.891529083251953,-5.172085762023926,-0.30482175946235657,-0.6688974499702454,-0.0429132841527462,-14.966383934020996,52.04618453979492,-24.904998779296875
3.48,2.3401803970336914,-7.974081039428711,-5.236692428588867,-0.3929390609264374,-0.5575672388076782,-0.03252857178449631,-15.112540245056152,52.03157043457031,-25.31423568725586
3.49,2.599801778793335,-8.60459041595459,-5.31685209274292,-0.4421136975288391,-0.527634859085083,-0.04948008432984352,-15.28792667388916,51.7977180480957,-24.831920623779297
3.51,2.8630123138427734,-9.21715259552002,-5.02731990814209,-0.48640143871307373,-0.5036584138870239,-0.05619960278272629,-14.761765480041504,51.95848846435547,-24.612686157226562
3.514,2.95393967628479,-10.321439743041992,-3.981656551361084,-0.645684540271759,-0.49327367544174194,-0.07406741380691528,-14.600994110107422,51.94387435913086,-24.334989547729492
3.52,2.7589244842529297,-10.548758506774902,-3.8488550186157227,-0.7209736704826355,-0.45784348249435425,-0.08338310569524765,-14.703303337097168,52.075416564941406,-24.729610443115234
3.53,2.4598214626312256,-10.923234939575195,-3.4301111698150635,-0.9065240025520325,-0.27718010544776917,-0.10155634582042694,-14.776381492614746,51.914642333984375,-24.174217224121094
3.54,2.00518536567688,-11.102697372436523,-2.9934210777282715,-1.063821792602539,-0.09834930300712585,-0.14248430728912354,-14.922536849975586,51.87080001831055,-23.954984664916992
3.55,1.7766706943511963,-11.182855606079102,-2.8869404792785645,-1.214552879333496,0.11881328374147415,-0.21273382008075714,-14.922536849975586,51.84156799316406,-23.618824005126953
3.57,2.0003998279571533,-11.364710807800293,-3.2434709072113037,-1.3410018682479858,0.3445279896259308,-0.3020728826522827,-15.18561840057373,51.31540298461914,-22.858814239501953
3.574,3.1788647174835205,-12.0394868850708,-4.412364959716797,-1.4269812107086182,0.5363396406173706,-0.461355984210968,-15.624086380004883,50.43846893310547,-22.464191436767578
3.58,3.6191442012786865,-12.474980354309082,-4.687539577484131,-1.4161382913589478,0.5053382515907288,-0.52702397108078,-16.004093170166016,50.789241790771484,-21.718795776367188
3.59,4.317848205566406,-13.896317481994629,-4.990231513977051,-1.3662000894546509,0.37950003147125244,-0.6197227835655212,-16.091785430908203,50.2776985168457,-20.98801612854004
3.6,4.372883319854736,-15.172887802124023,-4.54636287689209,-1.3336715698242188,0.21792617440223694,-0.7382306456565857,-16.2525577545166,49.853843688964844,-19.862613677978516
3.61,4.415954113006592,-15.938591957092285,-3.789034366607666,-1.3779592514038086,0.09743300080299377,-0.8654433488845825,-16.9541072845459,49.37152862548828,-19.83338165283203
3.63,3.7435710430145264,-16.693527221679688,-3.324826955795288,-1.4929546117782593,0.021074850112199783,-0.9642508029937744,-17.363344192504883,48.6407470703125,-18.06489372253418
3.633,3.7782669067382812,-15.933805465698242,-2.988635540008545,-1.6603316068649292,0.04993823170661926,-1.1574369668960571,-18.3718204498291,48.01227569580078,-18.386436462402344
3.64,3.568894863128662,-15.570096015930176,-3.0628130435943604,-1.7357735633850098,0.11988230049610138,-1.1989758014678955,-18.050277709960938,48.62613296508789,-17.071033477783203
3.65,3.0891339778900146,-14.974284172058105,-3.0137598514556885,-1.7875443696975708,0.21120664477348328,-1.2872458696365356,-18.868751525878906,47.60304260253906,-16.106401443481445
3.66,2.764906644821167,-14.906088829040527,-2.719442844390869,-1.8290832042694092,0.35445454716682434,-1.393078088760376,-19.19029426574707,47.5591926574707,-15.273311614990234
3.67,2.6081764698028564,-14.621342658996582,-2.857030153274536,-1.8542814254760742,0.5569563508033752,-1.4972307682037354,-19.760305404663086,46.53609848022461,-15.14177131652832
3.69,2.6261227130889893,-14.048261642456055,-3.025723934173584,-1.8463401794433594,0.7475463151931763,-1.6087136268615723,-20.856473922729492,46.521484375,-13.826367378234863
3.693,2.544766664505005,-12.809975624084473,-3.156132936477661,-1.7989981174468994,0.978606104850769,-1.7875443696975708,-21.76264190673828,45.4399299621582,-12.554807662963867
3.7,2.449054002761841,-12.100502967834473,-3.1860432624816895,-1.7519614696502686,1.1000155210494995,-1.8602373600006104,-22.888044357299805,45.01607894897461,-12.584039688110352
3.71,2.510071039199829,-11.334800720214844,-3.0245277881622314,-1.6814066171646118,1.259145975112915,-1.9517143964767456,-23.516515731811523,44.051448822021484,-11.283249855041504
3.72,2.5806589126586914,-10.668399810791016,-2.864208459854126,-1.6143640279769897,1.35535728931427,-2.0505218505859375,-24.583454132080078,43.7006721496582,-11.020169258117676
3.73,2.713460922241211,-10.091730117797852,-2.871387243270874,-1.5566374063491821,1.4094188213348389,-2.1639902591705322,-25.86962890625,42.882198333740234,-10.508623123168945
3.75,2.922832727432251,-9.438488960266113,-2.9802606105804443,-1.4813481569290161,1.3559681177139282,-2.3318252563476562,-28.500438690185547,41.84449005126953,-9.617071151733398
3.753,3.9553356170654297,-8.812766075134277,-3.2410783767700195,-1.3927727937698364,1.1899654865264893,-2.4825563430786133,-28.441978454589844,41.55217742919922,-9.8655366897583
3.76,4.35972261428833,-8.672784805297852,-3.2542386054992676,-1.350012183189392,1.0338894128799438,-2.551889419555664,-29.09967803955078,41.36217498779297,-9.35399055480957
3.77,4.516452789306641,-8.560322761535645,-3.040081262588501,-1.3031282424926758,0.7754933834075928,-2.6178629398345947,-30.45893096923828,40.83601379394531,-8.462437629699707
3.78,4.230510234832764,-8.427520751953125,-2.8893332481384277,-1.2764029502868652,0.5357288122177124,-2.6679539680480957,-31.55510139465332,40.19292449951172,-8.491668701171875
3.79,3.8979079723358154,-8.263612747192383,-2.8390841484069824,-1.253495454788208,0.29107728600502014,-2.73301100730896,-32.57819366455078,38.93598175048828,-7.673194885253906
3.809,3.7076785564422607,-8.126025199890137,-3.0101706981658936,-1.2206615209579468,0.0630718320608139,-2.76141619682312,-34.200523376464844,38.278282165527344,-6.810873985290527
3.813,3.3954150676727295,-8.120043754577637,-2.9036900997161865,-1.2194397449493408,0.019547687843441963,-2.75530743598938,-34.58053207397461,37.32826614379883,-6.708564758300781
3.82,3.1477580070495605,-8.240880966186523,-2.8486552238464355,-1.2308934926986694,-0.03420845419168472,-2.743701219558716,-34.916690826416016,37.0067253112793,-6.372405529022217
3.83,2.8869404792785645,-8.346165657043457,-2.768495798110962,-1.2666290998458862,-0.029168814420700073,-2.707813024520874,-34.82899475097656,36.23209762573242,-5.904706001281738
3.84,2.723031997680664,-8.325825691223145,-2.6141586303710938,-1.3243557214736938,0.05360342189669609,-2.6430611610412598,-35.6474723815918,35.57439422607422,-5.24700403213501
3.85,2.520838737487793,-8.193024635314941,-2.585444688796997,-1.368032693862915,0.14355333149433136,-2.590832233428955,-36.71440887451172,34.361297607421875,-5.700087547302246
3.87,2.801995277404785,-7.922635555267334,-2.8666014671325684,-1.3959797620773315,0.25076019763946533,-2.5537221431732178,-37.98596954345703,32.59280776977539,-4.428529739379883
3.874,2.9958138465881348,-7.606782913208008,-2.8558335304260254,-1.3732250928878784,0.36361753940582275,-2.476294994354248,-38.1028938293457,32.373573303222656,-4.267758369445801
3.88,2.829512596130371,-7.416553497314453,-2.827119827270508,-1.363756537437439,0.39477166533470154,-2.4581215381622314,-39.11137008666992,31.75971794128418,-3.741595983505249
3.89,2.740978240966797,-7.0408806800842285,-2.8893332481384277,-1.3249666690826416,0.45036038756370544,-2.450791358947754,-39.82753372192383,30.54662322998047,-3.78544282913208
3.9,3.0831520557403564,-6.573083400726318,-2.8689942359924316,-1.2820534706115723,0.4590652287006378,-2.4382686614990234,-40.397544860839844,29.494300842285156,-3.610055446624756
3.91,3.207578659057617,-6.317051887512207,-2.860619306564331,-1.234253168106079,0.4182899594306946,-2.4049763679504395,-40.543701171875,28.310436248779297,-3.1131248474121094
3.929,3.2709884643554688,-6.123232841491699,-2.851048231124878,-1.159727692604065,0.2548835277557373,-2.32281494140625,-41.77141189575195,27.06810760498047,-3.0838937759399414
3.933,3.284149169921875,-6.005984783172607,-2.657229423522949,-1.1554515361785889,0.22617284953594208,-2.3101396560668945,-41.99064636230469,26.717334747314453,-3.478515148162842
3.94,3.308077335357666,-5.960521221160889,-2.5842483043670654,-1.1403326988220215,0.0959058403968811,-2.25317645072937,-42.6045036315918,25.986553192138672,-3.1862027645111084
3.95,3.2925240993499756,-5.769094944000244,-2.520838737487793,-1.1230758428573608,-0.04153883829712868,-2.179872512817383,-43.15989685058594,24.802688598632812,-3.3469743728637695
3.96,3.084348201751709,-5.405385971069336,-2.480160713195801,-1.109636664390564,-0.168751522898674,-2.0929770469665527,-43.20374298095703,23.984214782714844,-2.630809783935547
3.97,2.8007986545562744,-5.093122959136963,-2.7110679149627686,-1.0850493907928467,-0.2828305959701538,-1.9921842813491821,-43.27682113647461,23.443437576293945,-3.1715874671936035
3.99,2.5591237545013428,-4.706681728363037,-2.963510751724243,-1.0335839986801147,-0.3556762933731079,-1.878868818283081,-43.057586669921875,21.864952087402344,-2.3531131744384766
3.994,2.27677059173584,-4.234099388122559,-3.111865520477295,-0.925308108329773,-0.40805795788764954,-1.7096590995788574,-43.04296875,21.178016662597656,-1.739257574081421
4.0,2.2779672145843506,-4.124029636383057,-3.211167812347412,-0.8718574047088623,-0.4222606122493744,-1.6209309101104736,-43.56913375854492,20.783395767211914,-1.943876028060913
4.01,2.3054845333099365,-3.9936206340789795,-3.084348201751709,-0.7739662528038025,-0.4150829017162323,-1.4547755718231201,-43.11604690551758,19.935691833496094,-2.3531131744384766
4.02,2.1750757694244385,-4.23529577255249,-2.5603203773498535,-0.698677122592926,-0.3790418803691864,-1.2652546167373657,-43.14527893066406,18.766441345214844,-1.8123356103897095
4.03,1.9776678085327148,-4.548755645751953,-2.080559253692627,-0.6711881756782532,-0.31093040108680725,-1.0702358484268188,-42.75065612792969,18.927213668823242,-2.981584310531616
4.05,2.0267207622528076,-4.727020740509033,-2.472982168197632,-0.6601925492286682,-0.23029619455337524,-0.8996517658233643,-42.72142791748047,17.61180877685547,-2.2800350189208984
4.053,2.2803597450256348,-4.82632303237915,-2.998206615447998,-0.5916229486465454,-0.09224064648151398,-0.6320928335189819,-42.92604446411133,17.34872817993164,-2.031569719314575
4.06,2.5770697593688965,-4.703092575073242,-3.5365920066833496,-0.5288565754890442,-0.07437284290790558,-0.48884493112564087,-42.6045036315918,17.027183532714844,-2.1631100177764893
4.07,3.0305097103118896,-4.676771640777588,-3.7112677097320557,-0.39614611864089966,-0.09789115190505981,-0.2952006161212921,-42.75065612792969,17.14410972595215,-2.3384976387023926
4.08,3.221935510635376,-4.935196399688721,-3.6670005321502686,-0.2626720666885376,-0.1394299864768982,-0.08765916526317596,-42.867584228515625,16.296403884887695,-2.4115755558013916
4.09,3.0723841190338135,-5.0703911781311035,-3.7986059188842773,-0.12476921826601028,-0.15363259613513947,0.12003502249717712,-42.39988327026367,16.369482040405273,-2.2946505546569824
4.109,2.746960163116455,-4.8119659423828125,-3.4779675006866455,0.10064005106687546,-0.05115996673703194,0.48777589201927185,-42.12218475341797,16.559486389160156,-2.0608010292053223
4.113,2.664407968521118,-4.89691162109375,-3.4337005615234375,0.1394299864768982,-0.028710665181279182,0.5714644193649292,-42.48757553100586,16.910259246826172,-1.9146448373794556
4.12,2.449054002761841,-5.142175674438477,-3.789034366607666,0.1774563491344452,0.020463986322283745,0.7014260292053223,-42.136802673339844,17.42180633544922,-1.783104419708252
4.13,2.5674986839294434,-5.539383888244629,-4.426721572875977,0.22968532145023346,0.10552696883678436,0.8626943826675415,-42.03449249267578,17.173341751098633,-2.893890619277954
4.14,3.3236305713653564,-6.250052452087402,-5.245067119598389,0.30604347586631775,0.13286319375038147,1.034500241279602,-42.48757553100586,17.480268478393555,-1.6954107284545898
4.15,4.350151538848877,-7.314858913421631,-5.950949668884277,0.45463645458221436,0.09728028625249863,1.3762794733047485,-42.41449737548828,17.684886932373047,-2.3384976387023926
4.169,5.240281105041504,-8.440681457519531,-6.5072808265686035,0.7183775305747986,-0.10506881773471832,1.9063576459884644,-42.239112854003906,19.08798599243164,-2.689272165298462
4.173,5.02731990814209,-8.48734188079834,-6.346961975097656,0.8022187352180481,-0.1696678102016449,2.032654047012329,-41.81526184082031,19.321834564208984,-2.733119010925293
4.18,4.280759334564209,-8.185846328735352,-5.710471153259277,0.9156869649887085,-0.23441952466964722,2.165975332260132,-41.756797790527344,19.701841354370117,-2.3384976387023926
4.19,2.9132614135742188,-7.617550373077393,-5.274977207183838,1.037096381187439,-0.33979377150535583,2.2237021923065186,-41.53756332397461,20.90032196044922,-2.9961998462677
4.2,2.282752752304077,-7.430910587310791,-5.023731231689453,1.1681270599365234,-0.2226603776216507,2.242180824279785,-41.01139831542969,21.967260360717773,-3.1715874671936035
4.21,2.7290141582489014,-7.726424217224121,-5.375475883483887,1.2712105512619019,-0.018478674814105034,2.32281494140625,-40.952938079833984,22.054954528808594,-3.0838937759399414
4.229,3.5162527561187744,-8.840283393859863,-5.873183250427246,1.5030338764190674,0.1973094791173935,2.640923023223877,-40.19292449951172,24.101139068603516,-3.478515148162842
4.233,3.6358938217163086,-9.33320426940918,-6.063412666320801,1.5322027206420898,0.20204368233680725,2.6810874938964844,-39.49137496948242,23.867290496826172,-3.624671220779419
4.24,3.8500516414642334,-10.039087295532227,-6.22492790222168,1.6157385110855103,0.19639316201210022,2.780200242996216,-39.944461822509766,25.475008010864258,-4.033908367156982
4.25,4.186243057250977,-10.817951202392578,-6.4008002281188965,1.728137731552124,0.11957687139511108,2.886643648147583,-39.05290985107422,26.79041290283203,-4.706226348876953
4.26,4.436293125152588,-11.077571868896484,-6.406782150268555,1.8023579120635986,0.01970040239393711,2.945744752883911,-38.848289489746094,27.652734756469727,-4.516223430633545
4.27,4.594219207763672,-11.170891761779785,-6.142375469207764,1.8562666177749634,-0.04001167416572571,3.0254628658294678,-37.91289138793945,28.865829467773438,-5.0862321853637695
4.289,4.892125606536865,-11.13021469116211,-5.964109897613525,1.8904752731323242,-0.08200865983963013,3.2795827388763428,-36.6851806640625,30.853551864624023,-5.9923996925354
4.293,4.831109046936035,-11.264212608337402,-5.685346603393555,1.8909332752227783,-0.09239336103200912,3.3148603439331055,-37.0067253112793,30.722009658813477,-6.197018623352051
4.3,4.2723846435546875,-11.334800720214844,-5.532205581665039,1.9000962972640991,-0.13515393435955048,3.3956470489501953,-36.21747970581055,31.993568420410156,-6.167787551879883
4.31,3.768695592880249,-11.404192924499512,-5.08953332901001,1.9089539051055908,-0.17241671681404114,3.3657147884368896,-35.7059326171875,32.82666015625,-6.708564758300781
4.32,3.9625141620635986,-11.298907279968262,-4.83469820022583,1.9110918045043945,-0.21319197118282318,3.300352096557617,-35.19438934326172,34.33206558227539,-6.664718151092529
4.33,4.31306266784668,-10.979466438293457,-4.744967460632324,1.9422460794448853,-0.26862797141075134,3.2375857830047607,-33.586673736572266,35.12131118774414,-8.023969650268555
4.35,3.967299699783325,-10.354939460754395,-4.715056896209717,1.998598337173462,-0.36743542551994324,3.0921998023986816,-32.15433883666992,37.079803466796875,-9.82168960571289
4.353,3.9182469844818115,-10.280762672424316,-4.759324073791504,2.0169243812561035,-0.394618958234787,3.029127836227417,-31.613563537597656,37.34288024902344,-9.427068710327148
4.36,3.858426570892334,-10.057032585144043,-4.883750915527344,2.040900707244873,-0.42699480056762695,2.9292516708374023,-31.20432472229004,37.95673751831055,-9.836304664611816
4.37,3.6610186100006104,-9.723234176635742,-4.9052863121032715,2.071749448776245,-0.47280970215797424,2.7905850410461426,-29.31891441345215,39.213680267333984,-10.157849311828613
4.38,3.291327476501465,-9.57487964630127,-4.962713718414307,2.0900754928588867,-0.4992296099662781,2.645657539367676,-28.73428726196289,39.79830551147461,-11.180940628051758
4.39,2.8283162117004395,-9.797411918640137,-4.540380477905273,2.072054862976074,-0.4827362596988678,2.4885122776031494,-28.032737731933594,40.66062545776367,-11.809412002563477
4.407,2.585444688796997,-10.278369903564453,-3.7196426391601562,1.9156733751296997,-0.25076019763946533,2.2350029945373535,-26.556564331054688,41.508331298828125,-13.680211067199707
4.41,2.5902304649353027,-10.308279037475586,-3.596412181854248,1.8532124757766724,-0.15913039445877075,2.179872512817383,-26.468870162963867,41.91756820678711,-13.241742134094238
4.42,1.9537396430969238,-10.334601402282715,-3.2506494522094727,1.6940820217132568,0.09269880503416061,2.1204659938812256,-25.723472595214844,42.72142791748047,-13.943290710449219
4.43,2.1236300468444824,-9.531808853149414,-4.058227062225342,1.5490015745162964,0.42638394236564636,2.0141754150390625,-24.831920623779297,43.057586669921875,-15.14177131652832
4.44,3.421736478805542,-8.891729354858398,-4.369294166564941,1.4934128522872925,0.46532657742500305,1.8280142545700073,-23.808828353881836,43.30604934692383,-15.083308219909668
4.45,4.047459602355957,-8.568697929382324,-4.2137603759765625,1.4827226400375366,0.4105014503002167,1.7321083545684814,-24.39345359802246,43.686058044433594,-15.901782989501953
4.47,3.9840495586395264,-8.204988479614258,-4.249652862548828,1.5080735683441162,0.07009679079055786,1.432020902633667,-22.464191436767578,44.431453704833984,-16.384098052978516
4.474,4.113262176513672,-8.047062873840332,-4.287938117980957,1.5173892974853516,0.021380282938480377,1.3929253816604614,-22.74188804626465,44.431453704833984,-17.085647583007812
4.48,4.287938117980957,-7.797012805938721,-4.48414945602417,1.556179165840149,-0.14737124741077423,1.2751811742782593,-22.215726852416992,44.97222900390625,-17.62642478942871
4.49,4.591826438903809,-7.491927146911621,-4.6887359619140625,1.6339117288589478,-0.45066583156585693,1.1236865520477295,-21.952646255493164,45.615318298339844,-18.5325927734375
4.5,4.758127689361572,-7.622336387634277,-4.3549370765686035,1.7136296033859253,-0.8156577944755554,1.0004445314407349,-21.09032440185547,46.287635803222656,-19.117216110229492
4.51,4.8191447257995605,-8.130810737609863,-4.157529354095459,1.7592918872833252,-1.2533427476882935,0.8865181803703308,-20.169540405273438,46.185325622558594,-20.154926300048828
4.523,4.60020112991333,-8.195417404174805,-4.328616142272949,1.7724254131317139,-1.6354389190673828,0.7864890098571777,-19.81876564025879,46.82841491699219,-21.251096725463867
4.53,4.509274005889893,-7.7898335456848145,-4.164707660675049,1.760055422782898,-1.8348864316940308,0.7399104833602905,-19.00029182434082,47.41303634643555,-22.332651138305664
4.54,4.310669898986816,-7.313662052154541,-4.514059543609619,1.733482837677002,-2.068695068359375,0.6890559792518616,-18.547208786010742,47.57380676269531,-23.10727882385254
4.55,3.634697675704956,-7.217949390411377,-4.639682769775391,1.7099645137786865,-2.2458460330963135,0.663705050945282,-17.114879608154297,47.2230339050293,-23.428821563720703
4.56,2.7625136375427246,-7.29691219329834,-4.438685894012451,1.6284139156341553,-2.261575937271118,0.6212499737739563,-16.35486602783203,47.98304748535156,-25.13884925842285
4.57,1.9250258207321167,-7.494320392608643,-3.9696924686431885,1.5329662561416626,-2.0914499759674072,0.6557638049125671,-15.960245132446289,48.17304992675781,-25.738086700439453
4.589,1.3866406679153442,-7.268198490142822,-4.315455436706543,1.3124439716339111,-1.445918083190918,0.7880162000656128,-14.586379051208496,48.026893615722656,-26.52733039855957
4.592,1.5278172492980957,-7.185646057128906,-4.448256969451904,1.2942707538604736,-1.3550517559051514,0.8071057200431824,-14.717918395996094,47.544578552246094,-27.111955642700195
4.6,1.7192429304122925,-7.192824363708496,-4.791627407073975,1.2299772500991821,-1.1090258359909058,0.8639161586761475,-14.089447021484375,48.684593200683594,-27.535808563232422
4.61,2.1272192001342773,-7.422535419464111,-5.775076866149902,1.1238393783569336,-0.8122979998588562,0.874453604221344,-13.680211067199707,47.80765914916992,-28.73428726196289
4.62,2.81276273727417,-7.960920810699463,-6.240480899810791,1.0367910861968994,-0.7050911784172058,0.824362576007843,-13.066354751586914,48.55305480957031,-29.435836791992188
4.63,3.8249268531799316,-9.0843505859375,-6.014359474182129,0.8684976100921631,-0.6675229668617249,0.7812966108322144,-13.21251106262207,48.20227813720703,-29.421222686767578
4.642,4.381258010864258,-10.27597713470459,-5.763113021850586,0.573755145072937,-0.6056728959083557,0.8022187352180481,-12.671732902526855,48.669979095458984,-30.34200668334961
4.65,4.299902439117432,-10.941182136535645,-5.5788655281066895,0.36163219809532166,-0.5335907936096191,0.8232936263084412,-12.744811058044434,47.98304748535156,-30.35662078857422
4.66,3.8021950721740723,-11.395817756652832,-5.552545070648193,0.04199698567390442,-0.4075998365879059,0.8148941993713379,-11.780181884765625,48.33382034301758,-30.00584602355957
4.67,3.290131092071533,-11.3838529586792,-5.800201892852783,-0.3170390725135803,-0.13469578325748444,0.7095199823379517,-10.96170711517334,48.12919998168945,-29.7281494140625
4.68,3.1202404499053955,-10.828719139099121,-5.6793646812438965,-0.5354233980178833,0.13927727937698364,0.5705481171607971,-11.663256645202637,48.31920623779297,-30.122772216796875
4.69,3.125026226043701,-10.256834030151367,-5.784648418426514,-0.6695082783699036,0.42531490325927734,0.4239404797554016,-11.312481880187988,47.866119384765625,-30.064308166503906
4.703,3.1166512966156006,-9.828518867492676,-5.964109897613525,-0.7415904402732849,0.7118107080459595,0.08964447677135468,-11.809412002563477,47.456886291503906,-28.968137741088867
4.71,3.355933427810669,-10.013962745666504,-6.025127410888672,-0.7577782869338989,0.741284966468811,-0.06139195337891579,-11.692487716674805,47.06226348876953,-29.041215896606445
4.72,3.9840495586395264,-10.674381256103516,-5.897111415863037,-0.8290968537330627,0.6655376553535461,-0.48349982500076294,-11.531715393066406,47.51534652709961,-28.63197898864746
4.73,4.666004180908203,-12.029914855957031,-5.048855781555176,-0.9488264322280884,0.4815145432949066,-0.7945829629898071,-12.467114448547363,47.106109619140625,-28.251972198486328
4.74,5.155336380004883,-13.404592514038086,-5.130211353302002,-1.1409435272216797,0.34895676374435425,-0.9955576062202454,-12.642502784729004,47.06226348876953,-27.404266357421875
4.75,5.335994243621826,-14.682358741760254,-5.547759056091309,-1.3435980081558228,0.28008171916007996,-1.0955867767333984,-13.139432907104492,46.76995086669922,-26.658872604370117
4.763,5.513063430786133,-15.842878341674805,-5.382654190063477,-1.6340645551681519,0.24877485632896423,-1.1749993562698364,-13.884828567504883,47.03303146362305,-26.468870162963867
4.77,5.240281105041504,-16.107284545898438,-4.978267192840576,-1.8545868396759033,0.28725937008857727,-1.2125674486160278,-14.235603332519531,46.740718841552734,-25.168079376220703
4.78,3.8464622497558594,-15.491132736206055,-4.5786662101745605,-2.0283780097961426,0.4237877428531647,-1.25761878490448,-14.294065475463867,46.43379211425781,-24.451913833618164
4.79,2.7517459392547607,-14.612967491149902,-4.396811485290527,-2.123825788497925,0.6319400668144226,-1.3694071769714355,-15.22946548461914,46.05378341674805,-24.11575698852539
4.8,2.413161516189575,-14.001601219177246,-4.723431587219238,-2.15849232673645,0.8781187534332275,-1.5383113622665405,-16.06255531311035,46.33148193359375,-22.66880989074707
4.82,2.8689942359924316,-13.89392375946045,-4.893321990966797,-2.116342544555664,1.1134545803070068,-1.7027868032455444,-16.70564079284668,45.90762710571289,-21.075708389282227
4.823,3.7363924980163574,-14.450255393981934,-4.703092575073242,-2.049300193786621,1.2628111839294434,-1.894445776939392,-17.9918155670166,44.94300079345703,-19.90645980834961
4.83,4.094119548797607,-14.599806785583496,-4.790431022644043,-2.015397071838379,1.2570078372955322,-1.9909626245498657,-18.72259521484375,44.6799201965332,-19.657995223999023
4.84,4.591826438903809,-14.886945724487305,-4.541577339172363,-1.9788979291915894,1.1763737201690674,-2.0986275672912598,-19.54106903076172,44.31452941894531,-18.25489616394043
4.85,4.761716842651367,-15.056836128234863,-4.2795634269714355,-1.9772180318832397,1.067945122718811,-2.1707096099853516,-21.031862258911133,43.84682846069336,-18.313358306884766
4.86,4.5475592613220215,-15.074782371520996,-3.9864423274993896,-1.993253231048584,0.9677632451057434,-2.2174408435821533,-22.186494827270508,43.61297607421875,-16.924875259399414
4.879,4.163511276245117,-14.951552391052246,-3.6287152767181396,-2.0450241565704346,0.9013316631317139,-2.272724151611328,-22.873428344726562,42.73604202270508,-16.837182998657227
4.883,3.6119656562805176,-14.508879661560059,-3.300898551940918,-2.090533494949341,0.883005678653717,-2.356565475463867,-23.925752639770508,42.619117736816406,-15.697164535522461
4.89,3.2685956954956055,-13.95853042602539,-3.184846878051758,-2.1207714080810547,0.8976664543151855,-2.4110851287841797,-25.007307052612305,41.508331298828125,-15.434082984924316
4.9,3.0628130435943604,-13.167702674865723,-3.293720245361328,-2.1306979656219482,0.949895441532135,-2.484083414077759,-26.264249801635742,41.21601867675781,-13.943290710449219
4.91,2.96111798286438,-12.363714218139648,-3.2446675300598145,-2.1085541248321533,0.9909761548042297,-2.560136079788208,-27.477344512939453,40.689857482910156,-13.227126121520996
4.92,2.695514678955078,-11.483156204223633,-3.1860432624816895,-2.0668625831604004,1.0389289855957031,-2.6511549949645996,-28.441978454589844,40.03215408325195,-12.277112007141113
4.94,2.3078773021698,-10.578668594360352,-3.2099714279174805,-2.0033326148986816,1.0685560703277588,-2.7374398708343506,-29.669687271118164,39.09675598144531,-11.634024620056152
4.943,2.3054845333099365,-9.57368278503418,-3.1345977783203125,-1.93293035030365,1.0897835493087769,-2.861903667449951,-31.175094604492188,38.07366180419922,-11.341712951660156
4.95,2.693121910095215,-9.242277145385742,-3.056830644607544,-1.879937767982483,1.068861484527588,-2.9268081188201904,-31.730487823486328,37.15288162231445,-11.034785270690918
4.96,3.2171499729156494,-9.008976936340332,-2.939582586288452,-1.7965545654296875,0.9781479835510254,-2.9744555950164795,-33.22127914428711,36.71440887451172,-9.953229904174805
4.97,3.4743783473968506,-8.717052459716797,-2.882154941558838,-1.7136296033859253,0.8416195511817932,-2.9834659099578857,-34.06898498535156,36.05670928955078,-10.070155143737793
4.98,3.6323046684265137,-8.556733131408691,-2.685943365097046,-1.6235270500183105,0.5965099334716797,-2.9836184978485107,-35.369773864746094,35.01900100708008,-9.324758529663086
4.999,3.6394829750061035,-8.492127418518066,-2.4335005283355713,-1.5740469694137573,0.35292738676071167,-2.9654452800750732,-35.82286071777344,34.43437576293945,-9.237065315246582
5.004,3.3750762939453125,-8.135597229003906,-2.389233350753784,-1.5253304243087769,-0.016951510682702065,-2.922531843185425,-36.71440887451172,32.73896408081055,-8.608593940734863
5.01,3.2434709072113037,-7.901099681854248,-2.2995026111602783,-1.5120441913604736,-0.12919799983501434,-2.8994717597961426,-37.3867301940918,32.28588104248047,-8.462437629699707
5.02,3.0245277881622314,-7.673781871795654,-2.24566388130188,-1.494939923286438,-0.3152064383029938,-2.813645362854004,-38.5267448425293,31.175094604492188,-7.673194885253906
5.03,2.664407968521118,-7.52303409576416,-2.221735715866089,-1.4718797206878662,-0.4726569652557373,-2.6818511486053467,-38.55597686767578,30.225080490112305,-7.61473274230957
5.04,2.262413740158081,-7.378268718719482,-1.9106688499450684,-1.462716817855835,-0.5273294448852539,-2.5587615966796875,-38.43905258178711,29.201988220214844,-7.249342441558838
5.06,1.8867405652999878,-7.075576305389404,-1.9298113584518433,-1.444390892982483,-0.5236642360687256,-2.4185681343078613,-39.447532653808594,28.60274887084961,-7.483191967010498
5.064,1.6390833854675293,-6.569494247436523,-1.8939191102981567,-1.3672691583633423,-0.4717406630516052,-2.233934164047241,-39.769073486328125,27.345806121826172,-6.372405529022217
5.07,1.6187443733215332,-6.388835906982422,-1.8963117599487305,-1.332908034324646,-0.44104471802711487,-2.1684188842773438,-39.769073486328125,26.32271385192871,-6.0947089195251465
5.08,1.6941183805465698,-6.180660724639893,-1.8855441808700562,-1.2363911867141724,-0.38026362657546997,-1.9987510442733765,-39.98830795288086,25.752704620361328,-5.860859394073486
5.09,1.8185451030731201,-6.029912948608398,-1.8125630617141724,-1.154382586479187,-0.33597588539123535,-1.8690948486328125,-40.41215896606445,25.15346336364746,-6.0947089195251465
5.1,1.691725492477417,-5.785844802856445,-1.6007983684539795,-1.0943650007247925,-0.33658674359321594,-1.7516560554504395,-40.38292694091797,23.998830795288086,-5.8900909423828125
5.12,1.4093725681304932,-5.546562671661377,-1.4691929817199707,-1.0754282474517822,-0.3514002561569214,-1.6488779783248901,-40.309852600097656,23.136510848999023,-5.977784156799316
5.123,1.1186444759368896,-5.30967378616333,-1.6271193027496338,-1.0819951295852661,-0.3399465084075928,-1.5204435586929321,-40.09061813354492,22.5518856048584,-5.831628322601318
5.13,1.1449655294418335,-5.181657314300537,-1.6103696823120117,-1.094212293624878,-0.3248275816440582,-1.4569135904312134,-39.900611877441406,21.54340934753418,-6.123940467834473
5.14,1.0899306535720825,-4.889732837677002,-1.6354942321777344,-1.109636664390564,-0.2744311988353729,-1.3555099964141846,-40.41215896606445,20.91493797302246,-5.0862321853637695
5.15,1.0372885465621948,-4.502095699310303,-1.9369899034500122,-1.1071932315826416,-0.18906280398368835,-1.2489140033721924,-40.66062545776367,20.681087493896484,-5.407775402069092
5.16,1.1425727605819702,-4.240081787109375,-2.108076810836792,-1.0740537643432617,-0.12064588069915771,-1.1493428945541382,-40.47062301635742,19.482608795166016,-5.393159866333008
5.18,1.5110673904418945,-4.180261135101318,-2.2121644020080566,-1.0302242040634155,-0.07880160957574844,-1.047023057937622,-40.19292449951172,18.649517059326172,-5.305466175079346
5.183,2.2229323387145996,-4.542773723602295,-2.8103702068328857,-0.9091201424598694,-0.09987646341323853,-0.85994553565979,-40.36831283569336,18.44489860534668,-5.334697246551514
5.19,2.5124638080596924,-4.713860511779785,-2.970689058303833,-0.8373435139656067,-0.13927727937698364,-0.7429648041725159,-40.28062057495117,17.670272827148438,-5.75855016708374
5.2,2.8175485134124756,-5.07517671585083,-3.438485860824585,-0.7011205554008484,-0.28420504927635193,-0.5882632732391357,-40.324466705322266,17.684886932373047,-5.860859394073486
5.21,2.685943365097046,-5.613561630249023,-3.3164520263671875,-0.5720753073692322,-0.4254676401615143,-0.41920626163482666,-40.35369873046875,17.15872573852539,-5.232388019561768
5.22,2.4717857837677,-6.409175395965576,-2.9694929122924805,-0.45662176609039307,-0.5207626223564148,-0.22449298202991486,-40.529083251953125,17.173341751098633,-5.173925876617432
5.241,1.856830358505249,-7.272984027862549,-2.39401912689209,-0.36682456731796265,-0.4631885588169098,0.012217304669320583,-39.81291961669922,16.9541072845459,-4.706226348876953
5.245,1.0504491329193115,-7.459624290466309,-2.3844475746154785,-0.3022255599498749,-0.13087788224220276,0.23335051536560059,-39.593685150146484,16.793336868286133,-5.305466175079346
5.25,1.0253244638442993,-6.935595989227295,-2.5698914527893066,-0.2535090744495392,0.0177150908857584,0.30146196484565735,-40.017539978027344,16.398714065551758,-5.188541412353516
5.26,1.399801254272461,-6.3146586418151855,-2.761317014694214,-0.12782354652881622,0.2779436707496643,0.45005494356155396,-39.783687591552734,16.267173767089844,-5.349313259124756
5.27,1.765903115272522,-6.262016773223877,-2.902493953704834,0.012828170321881771,0.4772384762763977,0.6204863786697388,-40.19292449951172,16.384098052978516,-5.510084629058838
5.28,1.9310078620910645,-6.540780544281006,-3.3643083572387695,0.12996158003807068,0.6357579827308655,0.8197811841964722,-40.17831039428711,16.778718948364258,-5.87547492980957
5.3,2.23848557472229,-6.611368656158447,-4.3441691398620605,0.28527405858039856,0.7596108913421631,0.920573890209198,-40.45600509643555,17.14410972595215,-5.87547492980957
5.304,3.8500516414642334,-6.723831653594971,-5.849254608154297,0.4908302128314972,0.6788239479064941,1.0742064714431763,-40.9237060546875,17.129493713378906,-5.977784156799316
5.31,4.737788677215576,-6.69870662689209,-6.32542610168457,0.5679519176483154,0.5910121202468872,1.1482739448547363,-41.25986862182617,17.290266036987305,-6.474714756011963
5.32,5.1804609298706055,-6.721438407897949,-6.479763507843018,0.7269296646118164,0.3142901659011841,1.3391693830490112,-40.90909194946289,18.137971878051758,-6.752411365509033
5.33,4.8227338790893555,-7.18086051940918,-6.226124286651611,0.8790351152420044,-0.006108652334660292,1.5096007585525513,-41.157554626464844,18.70798110961914,-6.8547210693359375
5.34,3.888336658477783,-8.220541954040527,-4.954339027404785,0.9556986689567566,-0.30314186215400696,1.673770785331726,-41.17217254638672,18.956445693969727,-7.293189525604248
5.36,3.469592809677124,-9.596414566040039,-4.843072891235352,0.9842565655708313,-0.3793473243713379,1.8194620609283447,-40.134464263916016,19.979537963867188,-7.103186130523682
5.363,3.3535408973693848,-10.387242317199707,-5.340780258178711,1.0412198305130005,-0.2727513313293457,2.0615174770355225,-40.558319091796875,20.447237014770508,-7.263957500457764
5.37,3.3547372817993164,-10.409974098205566,-5.709274768829346,1.119257926940918,-0.1797470897436142,2.1905627250671387,-39.85676574707031,21.134170532226562,-6.927798748016357
5.38,3.5341989994049072,-10.035497665405273,-6.122036457061768,1.2505937814712524,-0.07009679079055786,2.3122775554656982,-39.66676330566406,21.952646255493164,-7.0885701179504395
5.39,3.9696924686431885,-9.549755096435547,-6.2560343742370605,1.4947872161865234,-0.04398229718208313,2.4324653148651123,-39.389068603515625,22.595731735229492,-7.147032737731934
5.4,4.025923728942871,-9.623931884765625,-6.239284515380859,1.680795669555664,-0.07620543986558914,2.5218045711517334,-38.43905258178711,24.305757522583008,-7.819350719451904
5.419,3.896711587905884,-10.228119850158691,-6.56710147857666,1.969887614250183,-0.15241087973117828,2.632523775100708,-38.161354064941406,25.88424301147461,-8.170125961303711
5.423,3.950549840927124,-11.43529987335205,-6.104090690612793,1.9813413619995117,-0.15515977144241333,2.6485588550567627,-37.635196685791016,26.644256591796875,-8.097047805786133
5.43,3.920639753341675,-12.16271686553955,-5.776273727416992,1.9828685522079468,-0.15271630883216858,2.7029261589050293,-37.7667350769043,27.798887252807617,-8.330897331237793
5.44,3.8045878410339355,-12.897314071655273,-5.426921844482422,1.896583914756775,-0.06017022579908371,2.8037188053131104,-36.80210494995117,28.83659553527832,-8.155509948730469
5.45,3.620340585708618,-12.90688419342041,-5.30129861831665,1.778228759765625,0.059864792972803116,2.8823676109313965,-36.61210250854492,29.7281494140625,-9.368605613708496
5.46,3.177668571472168,-12.42832088470459,-5.253442287445068,1.6643023490905762,0.20922134816646576,2.950631618499756,-35.41362380981445,30.298158645629883,-10.026308059692383
5.48,2.6907289028167725,-11.779865264892578,-5.362315654754639,1.5798503160476685,0.39736783504486084,2.973386526107788,-34.361297607421875,31.862030029296875,-10.099386215209961
5.484,2.506481647491455,-10.827521324157715,-5.240281105041504,1.541060209274292,0.7345654964447021,2.9408578872680664,-34.87284469604492,32.34434509277344,-11.312481880187988
5.49,2.6117656230926514,-10.52243709564209,-5.185246467590332,1.5474743843078613,0.9013316631317139,2.9164233207702637,-34.40514373779297,32.88512420654297,-11.341712951660156
5.5,2.8905298709869385,-9.90748119354248,-5.168496608734131,1.5884023904800415,1.0606147050857544,2.872746467590332,-33.805904388427734,33.805904388427734,-11.034785270690918
5.51,3.1932218074798584,-9.588040351867676,-5.186442852020264,1.6337590217590332,1.1210904121398926,2.794097423553467,-33.2066650390625,34.49283981323242,-13.256357192993164
5.52,3.7184462547302246,-9.56650447845459,-4.5367913246154785,1.6838500499725342,1.1178834438323975,2.718502998352051,-32.82666015625,35.472084045410156,-12.949429512023926
5.539,4.230510234832764,-9.399006843566895,-4.186243057250977,1.7792977094650269,0.9860891699790955,2.6140449047088623,-32.680503845214844,36.58287048339844,-13.694826126098633
5.543,4.7401814460754395,-8.967103004455566,-4.387239933013916,1.8110626935958862,0.8886561393737793,2.5749497413635254,-32.1251106262207,36.655948638916016,-14.586379051208496
5.55,5.004588603973389,-8.677571296691895,-4.744967460632324,1.8600845336914062,0.6795875430107117,2.4943156242370605,-31.540485382080078,37.81058120727539,-14.747150421142578
5.56,5.315655708312988,-8.755337715148926,-4.838287353515625,1.89811110496521,0.3101668059825897,2.3609941005706787,-31.394329071044922,38.32212829589844,-15.609471321105957
5.57,5.6554365158081055,-9.287740707397461,-4.388436794281006,1.8842138051986694,-0.13179416954517365,2.210415840148926,-30.809703826904297,38.99444580078125,-16.2525577545166
5.58,5.6793646812438965,-9.940980911254883,-3.7986059188842773,1.8116735219955444,-0.5340489149093628,2.107790470123291,-29.80122947692871,39.65214920043945,-16.384098052978516
5.601,5.109872817993164,-10.15633487701416,-3.3128626346588135,1.686446189880371,-0.8596401214599609,2.046856641769409,-28.018123626708984,40.6021614074707,-17.61180877685547
5.605,3.071187734603882,-9.214759826660156,-3.4743783473968506,1.4848606586456299,-0.8362745046615601,2.0147862434387207,-27.111955642700195,40.6021614074707,-17.947969436645508
5.61,3.1058835983276367,-8.171488761901855,-3.996013641357422,1.5111279487609863,-0.8671231865882874,1.9353737831115723,-26.556564331054688,40.93832015991211,-18.88336753845215
5.62,3.528217077255249,-6.878168106079102,-4.505684852600098,1.5922203063964844,-0.9983065128326416,1.7599027156829834,-25.97193717956543,41.46448516845703,-19.43876075744629
5.63,3.37268328666687,-6.03110933303833,-4.366901397705078,1.74050772190094,-1.112691044807434,1.6736180782318115,-25.533470153808594,41.65448760986328,-19.321834564208984
5.64,2.544766664505005,-5.7547383308410645,-4.388436794281006,1.8709274530410767,-1.1968377828598022,1.5575536489486694,-24.40806770324707,42.09295654296875,-20.388774871826172
5.659,2.197807550430298,-5.9569315910339355,-4.392025947570801,2.0228800773620605,-1.2147055864334106,1.2947288751602173,-23.00497055053711,42.999122619628906,-22.215726852416992
5.663,1.8963117599487305,-7.094718933105469,-3.407379150390625,2.01035737991333,-1.1762210130691528,1.2713632583618164,-22.65419578552246,42.867584228515625,-22.20111083984375
5.67,1.4656038284301758,-7.692924499511719,-2.785245418548584,1.9515618085861206,-1.0296133756637573,1.2483030557632446,-22.464191436767578,43.29143524169922,-22.44957733154297
5.68,1.361515998840332,-8.148756980895996,-2.2265214920043945,1.7977763414382935,-0.741284966468811,1.2499829530715942,-21.674949645996094,43.466819763183594,-22.800350189208984
5.69,1.5457634925842285,-8.088936805725098,-2.282752752304077,1.6209309101104736,-0.4360050857067108,1.2965614795684814,-20.82724380493164,44.0806770324707,-23.735750198364258
5.7,2.001595973968506,-7.665406703948975,-2.7672994136810303,1.4395039081573486,-0.11881328374147415,1.361160397529602,-20.286466598510742,43.89067459106445,-24.40806770324707
5.72,3.363112211227417,-6.912864685058594,-4.572683811187744,1.3559681177139282,-0.009468411095440388,1.3261884450912476,-19.55568504333496,44.738380432128906,-25.460391998291016
5.724,3.676571846008301,-6.849454879760742,-4.985445499420166,1.3607022762298584,-0.036651913076639175,1.3083206415176392,-18.985675811767578,44.6799201965332,-25.913476943969727
5.73,4.004388809204102,-6.935595989227295,-5.143372535705566,1.3817771673202515,-0.1918116807937622,1.2580769062042236,-18.795673370361328,44.47529983520508,-26.191171646118164
5.74,4.211367607116699,-7.395018577575684,-5.021337985992432,1.3768901824951172,-0.40912699699401855,1.1959214210510254,-17.87489128112793,44.986846923828125,-26.629642486572266
5.75,4.474577903747559,-8.00518798828125,-4.621737003326416,1.349859356880188,-0.6243042945861816,1.1720976829528809,-17.012569427490234,44.621456146240234,-28.33966636657715
5.76,4.18863582611084,-8.37727165222168,-4.602594375610352,1.289689302444458,-0.731511116027832,1.1988229751586914,-16.837182998657227,45.542240142822266,-28.295820236206055
5.779,4.264009952545166,-8.214560508728027,-5.224728107452393,1.2667818069458008,-0.8903360962867737,1.2302825450897217,-16.471790313720703,44.95761489868164,-29.143524169921875
5.783,4.341776371002197,-8.170292854309082,-5.454439163208008,1.2649492025375366,-0.9097310304641724,1.2292135953903198,-16.281789779663086,45.35223388671875,-30.722009658813477
5.79,4.640879154205322,-8.401200294494629,-5.801398277282715,1.2745702266693115,-0.9773843884468079,1.2205086946487427,-15.127155303955078,44.88453674316406,-29.845073699951172
5.8,4.971088886260986,-9.404989242553711,-5.781059741973877,1.2275335788726807,-1.171334147453308,1.1957685947418213,-14.425606727600098,45.732242584228516,-31.145864486694336
5.81,4.784448623657227,-11.280961990356445,-6.028716564178467,1.085965633392334,-1.2849550247192383,1.1636983156204224,-13.709442138671875,45.30839157104492,-30.868165969848633
5.82,4.724628448486328,-12.604192733764648,-6.076572895050049,0.8892670273780823,-1.2834279537200928,1.119715929031372,-13.227126121520996,45.4837760925293,-32.70973205566406
5.839,4.194617748260498,-14.163116455078125,-5.5453667640686035,0.38576140999794006,-1.0760390758514404,1.0013607740402222,-12.101724624633789,44.88453674316406,-33.352821350097656
5.843,3.9972100257873535,-14.218152046203613,-5.453242301940918,0.31551188230514526,-1.0175487995147705,0.9799805283546448,-12.247880935668945,44.66530227661133,-32.51972961425781
5.85,3.339184045791626,-14.146368026733398,-5.430510520935059,0.02886338159441948,-0.7261660695075989,0.8446739315986633,-11.882491111755371,44.84069061279297,-33.045894622802734
5.86,2.502892255783081,-13.097114562988281,-5.830111980438232,-0.2015855312347412,-0.3868303894996643,0.6149886250495911,-11.137094497680664,44.88453674316406,-33.367435455322266
5.87,2.1858434677124023,-12.118450164794922,-5.62672233581543,-0.38576140999794006,-0.0044287727214396,0.33337968587875366,-10.903244018554688,44.95761489868164,-33.542823791503906
5.88,2.043470621109009,-11.297711372375488,-5.698506832122803,-0.5277875661849976,0.36254850029945374,0.030085112899541855,-11.005553245544434,44.6799201965332,-33.08974075317383
5.899,2.197807550430298,-10.914859771728516,-5.048855781555176,-0.7570146918296814,0.7858781218528748,-0.6861543655395508,-11.23940372467041,44.46068572998047,-32.53434753417969
5.903,2.386840581893921,-11.041679382324219,-4.766502380371094,-0.8309293985366821,0.8136724829673767,-0.8823947906494141,-11.707103729248047,44.41683578491211,-32.25665283203125
5.91,3.0209386348724365,-11.363513946533203,-4.317848205566406,-0.9560041427612305,0.829707682132721,-1.1575895547866821,-11.955568313598633,44.182987213134766,-32.09587860107422
5.92,4.149154186248779,-11.782258987426758,-4.071387767791748,-1.145830512046814,0.8000807762145996,-1.4184290170669556,-12.627885818481445,44.431453704833984,-32.28588104248047
5.93,4.730610370635986,-12.058629989624023,-4.013959884643555,-1.321759581565857,0.6969972848892212,-1.560302495956421,-13.080970764160156,44.53376388549805,-31.65740966796875
5.94,4.5714874267578125,-12.161520957946777,-4.2281174659729,-1.4706579446792603,0.5537493228912354,-1.6661349534988403,-14.220989227294922,45.04530715942383,-30.57585334777832
5.958,3.9661033153533936,-12.589836120605469,-4.503292083740234,-1.6337590217590332,0.2779436707496643,-1.8301522731781006,-15.14177131652832,44.53376388549805,-29.28968048095703
5.961,3.7842490673065186,-12.721442222595215,-4.552344799041748,-1.6439909934997559,0.24862214922904968,-1.8391624689102173,-16.018707275390625,44.31452941894531,-28.398128509521484
5.97,3.4576287269592285,-12.999009132385254,-4.463810443878174,-1.6627751588821411,0.16004669666290283,-1.8637498617172241,-16.23794174194336,44.13914108276367,-29.128910064697266
5.98,3.122633457183838,-13.371092796325684,-4.356133460998535,-1.6853772401809692,0.13866640627384186,-1.8596265316009521,-17.290266036987305,43.75913619995117,-27.945045471191406
5.99,2.853440999984741,-13.554143905639648,-4.0247273445129395,-1.7197383642196655,0.19654588401317596,-1.841147780418396,-17.757965087890625,43.817596435546875,-27.06810760498047
6.009,2.6727828979492188,-13.897513389587402,-3.3308091163635254,-1.761582612991333,0.3634648323059082,-1.7828102111816406,-18.050277709960938,43.27682113647461,-26.907337188720703
6.013,2.018345832824707,-14.731411933898926,-2.740978240966797,-1.8109099864959717,0.624609649181366,-1.7385224103927612,-19.74568748474121,43.48143768310547,-25.913476943969727
6.02,1.7036895751953125,-14.714662551879883,-2.6967110633850098,-1.8425222635269165,0.8049676418304443,-1.7657060623168945,-20.286466598510742,43.17451095581055,-25.036537170410156
6.03,1.7898313999176025,-14.018350601196289,-2.8007986545562744,-1.8536704778671265,1.0529789924621582,-1.8446604013442993,-21.967260360717773,42.282955169677734,-23.706518173217773
6.04,2.486142635345459,-13.26580810546875,-2.9623141288757324,-1.829999566078186,1.215621829032898,-1.917811393737793,-22.259572982788086,42.619117736816406,-23.545745849609375
6.05,3.2434709072113037,-12.966705322265625,-3.064009428024292,-1.7965545654296875,1.2208142280578613,-1.9911152124404907,-23.370359420776367,42.078338623046875,-22.975738525390625
6.06,4.1144585609436035,-12.854243278503418,-3.2650065422058105,-1.7644842863082886,1.0531316995620728,-2.0917551517486572,-24.729610443115234,41.80064392089844,-21.748027801513672
6.076,4.697110652923584,-12.611371994018555,-3.379861831665039,-1.7156150341033936,0.6878342628479004,-2.1644482612609863,-25.7088565826416,41.2014045715332,-21.411867141723633
6.08,4.486542224884033,-12.696316719055176,-3.1860432624816895,-1.710117220878601,0.5826126933097839,-2.171625852584839,-26.52733039855957,40.66062545776367,-20.754165649414062
6.09,3.9900314807891846,-12.879366874694824,-2.6596221923828125,-1.7244725227355957,0.4524984359741211,-2.186439275741577,-27.272727966308594,40.25138854980469,-19.83338165283203
6.1,3.5533413887023926,-12.757332801818848,-2.444268226623535,-1.7689130306243896,0.39706239104270935,-2.188271999359131,-28.354280471801758,40.207542419433594,-20.140310287475586
6.11,3.049652338027954,-12.173484802246094,-2.6273193359375,-1.8026633262634277,0.40256020426750183,-2.2102630138397217,-28.80736541748047,39.27214050292969,-19.05875587463379
6.129,2.662015199661255,-11.334800720214844,-2.7661027908325195,-1.7860172986984253,0.43967023491859436,-2.252718210220337,-29.567378997802734,38.61444091796875,-18.035661697387695
6.133,2.5950162410736084,-10.663613319396973,-2.640479564666748,-1.7353153228759766,0.5193881988525391,-2.3157901763916016,-31.379714965820312,37.56211853027344,-16.939491271972656
6.14,2.5471596717834473,-10.347761154174805,-2.599801778793335,-1.6966781616210938,0.5748242139816284,-2.34786057472229,-31.949722290039062,37.1236457824707,-16.164865493774414
6.15,2.4466609954833984,-9.865607261657715,-2.6045873165130615,-1.6499470472335815,0.6380487084388733,-2.398562431335449,-32.70973205566406,36.12978744506836,-15.974861145019531
6.16,2.4909281730651855,-9.152545928955078,-2.7912275791168213,-1.5810719728469849,0.7096726894378662,-2.47873854637146,-33.820518493652344,36.21747970581055,-15.682548522949219
6.17,2.950350046157837,-8.507680892944336,-2.888136863708496,-1.5036447048187256,0.6766859889030457,-2.554791212081909,-34.9459228515625,35.67670440673828,-15.638701438903809
6.189,3.214756965637207,-8.411967277526855,-2.7361927032470703,-1.4401147365570068,0.5926920175552368,-2.601522207260132,-35.6474723815918,34.551300048828125,-15.361004829406738
6.193,3.291327476501465,-8.513663291931152,-2.4598214626312256,-1.4103351831436157,0.4761694371700287,-2.643519163131714,-36.80210494995117,33.39666748046875,-14.206372261047363
6.2,3.355933427810669,-8.408378601074219,-2.423929214477539,-1.4110987186431885,0.3845396637916565,-2.671924352645874,-37.8251953125,33.045894622802734,-14.060215950012207
6.21,3.510270595550537,-8.170292854309082,-2.3186450004577637,-1.41384756565094,0.194713294506073,-2.6789493560791016,-38.395206451416016,32.02280044555664,-14.147910118103027
6.22,3.253042459487915,-7.745566368103027,-2.30069899559021,-1.4285084009170532,0.03741549327969551,-2.6563472747802734,-38.54136276245117,31.248172760009766,-13.358667373657227
6.23,2.8390841484069824,-7.2705912590026855,-2.352144718170166,-1.4372131824493408,-0.07070764899253845,-2.621833562850952,-39.00905990600586,30.400466918945312,-14.206372261047363
6.25,2.5639095306396484,-6.949953079223633,-2.376072883605957,-1.444390892982483,-0.15974126756191254,-2.5885415077209473,-39.447532653808594,29.538145065307617,-13.460975646972656
6.253,2.3437697887420654,-6.754938125610352,-2.4155545234680176,-1.4634803533554077,-0.23518311977386475,-2.524095058441162,-40.572933197021484,27.97427749633789,-13.124817848205566
6.26,2.242074728012085,-6.687938690185547,-2.506481647491455,-1.4695889949798584,-0.26190847158432007,-2.48988676071167,-40.558319091796875,27.565038681030273,-13.314821243286133
6.27,2.0673987865448,-6.954739093780518,-2.2743778228759766,-1.4772248268127441,-0.26679539680480957,-2.428494691848755,-41.02601623535156,26.79041290283203,-12.525577545166016
6.28,1.8388842344284058,-7.123432636260986,-2.1535403728485107,-1.4972307682037354,-0.20005835592746735,-2.3498456478118896,-41.21601867675781,25.445777893066406,-12.218649864196777
6.29,1.753938913345337,-6.949953079223633,-2.183450698852539,-1.5008959770202637,-0.1010981947183609,-2.278221845626831,-41.698333740234375,24.817304611206055,-12.116340637207031
6.31,1.8628122806549072,-6.668796539306641,-2.0721843242645264,-1.4850133657455444,0.0009162978385575116,-2.1922426223754883,-41.80064392089844,23.50189971923828,-11.663256645202637
6.314,1.8664016723632812,-6.309872627258301,-2.1678972244262695,-1.448972225189209,0.12950342893600464,-2.0645718574523926,-42.45834732055664,21.938030242919922,-11.254019737243652
6.32,1.8113667964935303,-6.1328043937683105,-2.197807550430298,-1.4173600673675537,0.18020524084568024,-2.0280725955963135,-42.443729400634766,21.353404998779297,-11.824028015136719
6.33,1.8771692514419556,-5.485545635223389,-2.47896409034729,-1.373377799987793,0.22372940182685852,-1.9825631380081177,-43.04296875,20.593395233154297,-12.262495994567871
6.34,2.0518453121185303,-5.119443893432617,-2.605783700942993,-1.3164145946502686,0.19792033731937408,-1.9500346183776855,-43.393741607666016,19.935691833496094,-11.23940372467041
6.35,2.210968017578125,-4.971088886260986,-2.5292134284973145,-1.2589932680130005,0.13439035415649414,-1.9115500450134277,-43.40835952758789,18.517976760864258,-11.458637237548828
6.37,2.4598214626312256,-5.054837703704834,-2.63449764251709,-1.2047789096832275,0.07696902006864548,-1.8277088403701782,-43.67144012451172,17.641040802001953,-11.151710510253906
6.373,2.8342983722686768,-5.589633464813232,-2.6189444065093994,-1.126282811164856,0.008704829961061478,-1.5968016386032104,-43.686058044433594,16.23794174194336,-11.736333847045898
6.38,2.8043882846832275,-5.871986389160156,-2.506481647491455,-1.0923796892166138,-0.0429132841527462,-1.4506522417068481,-44.051448822021484,15.697164535522461,-11.254019737243652
6.39,2.6392831802368164,-6.168696403503418,-2.7326035499572754,-1.0545060634613037,-0.1235474944114685,-1.2956451177597046,-44.09529113769531,15.624086380004883,-11.838644027709961
6.4,3.0101706981658936,-6.157928943634033,-3.091526985168457,-0.9793696999549866,-0.2583959996700287,-1.1398744583129883,-43.56913375854492,14.089447021484375,-10.567085266113281
6.41,3.211167812347412,-6.123232841491699,-3.286541700363159,-0.8784242272377014,-0.37629297375679016,-0.9063712954521179,-43.802982330322266,13.753289222717285,-11.400175094604492
6.43,3.0281169414520264,-6.168696403503418,-3.425325632095337,-0.7111998200416565,-0.5267185568809509,-0.621097207069397,-43.48143768310547,13.44636058807373,-11.210172653198242
6.434,2.6428725719451904,-6.138786315917969,-3.5270204544067383,-0.48976120352745056,-0.6018549799919128,-0.3627012372016907,-43.61297607421875,12.861736297607422,-11.093247413635254
6.44,2.4526431560516357,-6.22373104095459,-3.298506021499634,-0.35643988847732544,-0.5729916095733643,-0.20143280923366547,-43.29143524169922,12.671732902526855,-11.064016342163086
6.45,2.2396819591522217,-6.382853984832764,-3.291327476501465,-0.20234911143779755,-0.4821254014968872,0.015118913725018501,-43.08681869506836,12.554807662963867,-11.385560035705566
6.46,1.9178473949432373,-6.2428741455078125,-3.4995031356811523,-0.06291911751031876,-0.33399054408073425,0.19822576642036438,-43.01374053955078,12.408652305603027,-11.780181884765625
6.47,1.746760368347168,-5.747560024261475,-3.5401811599731445,0.10170906037092209,-0.13545936346054077,0.37201693654060364,-42.45834732055664,12.262495994567871,-11.180940628051758
6.49,1.8508483171463013,-5.531009197235107,-3.390629768371582,0.21410825848579407,0.03191770985722542,0.5306891798973083,-42.633731842041016,12.306343078613281,-10.932476043701172
6.493,2.1607186794281006,-6.005984783172607,-3.950549840927124,0.284052312374115,0.16172656416893005,0.7144068479537964,-42.77988815307617,12.320959091186523,-12.072493553161621
6.5,2.7278177738189697,-6.308676719665527,-4.680360794067383,0.346818745136261,0.1915062516927719,0.817337691783905,-42.838348388671875,12.847121238708496,-11.546331405639648
6.51,3.710071325302124,-6.794419765472412,-5.227120876312256,0.46547931432724,0.15714508295059204,0.9724974632263184,-42.9406623840332,12.788658142089844,-11.47325325012207
6.52,4.271188259124756,-7.433303356170654,-5.319244384765625,0.6160575747489929,-0.05345070734620094,1.1913399696350098,-42.312191009521484,13.417129516601562,-11.56094741821289
6.53,4.325026512145996,-8.499305725097656,-5.227120876312256,0.7544185519218445,-0.24953843653202057,1.3799445629119873,-42.3414192199707,14.016368865966797,-11.648640632629395
6.55,4.041477203369141,-9.393025398254395,-5.255834579467773,0.869719386100769,-0.37751469016075134,1.5810719728469849,-42.73604202270508,14.557147026062012,-11.370944023132324
6.554,3.600001335144043,-9.749555587768555,-5.836094379425049,1.064890742301941,-0.3933972120285034,1.8191567659378052,-41.85910415649414,15.331774711608887,-12.1455717086792
6.56,3.583251953125,-9.463613510131836,-5.994020938873291,1.1355985403060913,-0.36224305629730225,1.8949038982391357,-42.37065124511719,15.346389770507812,-12.014030456542969
6.57,3.5952160358428955,-9.10110092163086,-5.938985824584961,1.3264938592910767,-0.2600758671760559,2.10198712348938,-41.66910171508789,16.384098052978516,-12.394037246704102
6.58,3.0448665618896484,-9.20758056640625,-5.649453639984131,1.4607315063476562,-0.11026117950677872,2.2844831943511963,-41.712947845458984,17.363344192504883,-12.394037246704102
6.59,2.612962245941162,-9.854839324951172,-5.48674201965332,1.563051462173462,0.07391469925642014,2.445446252822876,-41.39140701293945,18.035661697387695,-13.022507667541504
6.611,2.620140552520752,-10.664810180664062,-5.278566360473633,1.6154332160949707,0.260992169380188,2.573117256164551,-41.084476470947266,20.388774871826172,-13.183279037475586
6.615,3.2374887466430664,-11.721240997314453,-5.127819061279297,1.6183346509933472,0.4847215414047241,2.763401746749878,-40.499855041503906,20.798011779785156,-12.89096736907959
6.62,3.4683964252471924,-11.901899337768555,-5.03449821472168,1.5916093587875366,0.5616905689239502,2.858085870742798,-40.543701171875,21.38263702392578,-13.095585823059082
6.63,3.7016966342926025,-11.822936058044434,-5.08953332901001,1.5493069887161255,0.6090326309204102,2.9518535137176514,-40.61677932739258,22.142648696899414,-13.797135353088379
6.64,3.806980848312378,-11.179266929626465,-5.084747791290283,1.5254831314086914,0.64217209815979,3.023324728012085,-39.944461822509766,22.698041915893555,-13.007892608642578
6.65,3.7435710430145264,-10.53799057006836,-5.0285162925720215,1.5150984525680542,0.6670648455619812,3.082426071166992,-39.68138122558594,24.013446807861328,-14.07483196258545
6.67,3.733999490737915,-10.074979782104492,-4.9639105796813965,1.5233452320098877,0.688292384147644,3.109609365463257,-39.593685150146484,25.080385208129883,-14.557147026062012
6.673,3.830909013748169,-9.512666702270508,-4.637290000915527,1.557706356048584,0.7515169382095337,3.1480939388275146,-38.7459831237793,26.775794982910156,-14.893306732177734
6.68,3.88594388961792,-9.275776863098145,-4.490131378173828,1.5825990438461304,0.7880162000656128,3.177262783050537,-38.833675384521484,26.907337188720703,-14.264835357666016
6.69,3.9601213932037354,-8.684749603271484,-4.2795634269714355,1.6279559135437012,0.8321511745452881,3.2085695266723633,-38.1467399597168,28.33966636657715,-15.068693161010742
6.7,3.9361932277679443,-8.286344528198242,-4.1551361083984375,1.6995798349380493,0.8257370591163635,3.218496084213257,-38.38058853149414,28.89505958557129,-15.56562328338623
6.71,4.023531436920166,-8.118846893310547,-4.48414945602417,1.7788394689559937,0.7623597979545593,3.1809279918670654,-37.32826614379883,30.63431739807129,-15.667933464050293
