time,accel_x,accel_y,accel_z,gyro_x,gyro_y,gyro_z,mag_x,mag_y,mag_z
0.0,77.38059997558594,-1.6089035272598267,-10.036493301391602,-4.663093090057373,0.6661561727523804,-1.4655436277389526,-34.95000076293945,-18.30000114440918,-23.25
0.01,77.22737121582031,0.689530074596405,-12.066776275634766,-5.196018218994141,-4.529861927032471,11.191424369812012,-34.95000076293945,-18.75,-25.500001907348633
0.02,78.3382797241211,1.0342950820922852,-11.875240325927734,-7.9938740730285645,7.06125545501709,0.2664624750614166,-34.650001525878906,-19.05000114440918,-23.25
0.03,78.26166534423828,1.6089035272598267,-11.72201156616211,-7.460949420928955,6.128636837005615,-4.130168437957764,-34.650001525878906,-19.05000114440918,-23.25
0.04,77.07414245605469,3.5242648124694824,-11.951854705810547,1.1990811824798584,-3.3307809829711914,-0.39969372749328613,-33.0,-18.900001525878906,-24.600000381469727
0.06,77.41890716552734,2.451662540435791,-12.105083465576172,-7.460949420928955,-1.5987749099731445,-3.4640121459960938,-34.650001525878906,-18.75,-25.200000762939453
0.063,76.537841796875,1.8387469053268433,-13.10107135772705,2.531393527984619,2.398162364959717,13.056661605834961,-35.70000076293945,-19.05000114440918,-24.450000762939453
0.07,77.49552154541016,1.0342950820922852,-12.29662036895752,5.329249382019043,1.5987749099731445,11.724349021911621,-36.0,-19.650001525878906,-24.900001525878906
0.08,78.45320129394531,1.4173674583435059,-11.875240325927734,1.0658499002456665,-1.7320060729980469,9.192955017089844,-36.0,-19.650001525878906,-24.900001525878906
0.09,77.84028625488281,0.8427590131759644,-11.530475616455078,-6.128636837005615,5.728943347930908,-2.531393527984619,-34.5,-18.450000762939453,-24.150001525878906
0.1,77.84028625488281,-0.3064578175544739,-12.02846908569336,-5.595712184906006,3.197549819946289,-2.131699800491333,-35.70000076293945,-18.75,-23.700000762939453
0.12,77.99351501464844,0.8427590131759644,-11.492168426513672,-6.395099639892578,4.796324729919434,9.992342948913574,-34.80000305175781,-19.200000762939453,-23.850000381469727
0.123,79.33426666259766,0.5746083855628967,-11.951854705810547,-10.125574111938477,2.6646246910095215,-4.396630764007568,-34.80000305175781,-19.200000762939453,-23.850000381469727
0.13,78.29997253417969,0.38307225704193115,-11.377246856689453,-10.525267601013184,7.594180583953857,-8.127105712890625,-34.80000305175781,-19.200000762939453,-23.850000381469727
0.14,78.45320129394531,0.9576807022094727,-11.377246856689453,-6.9280242919921875,-2.2649309635162354,2.9310872554779053,-34.80000305175781,-19.200000762939453,-24.150001525878906
0.15,77.57213592529297,1.6089035272598267,-12.143390655517578,3.0643184185028076,-3.597243309020996,3.7304747104644775,-34.05000305175781,-20.100000381469727,-24.150001525878906
0.16,77.7253646850586,2.8347349166870117,-12.449849128723145,-5.595712184906006,1.7320060729980469,-0.5329249501228333,-34.80000305175781,-20.100000381469727,-24.150001525878906
0.179,76.34630584716797,2.9496564865112305,-13.024456977844238,-1.7320060729980469,6.661561965942383,-3.4640121459960938,-34.80000305175781,-20.100000381469727,-24.150001525878906
0.183,75.23539733886719,1.7621324062347412,-13.292608261108398,0.1332312375307083,7.9938740730285645,-9.326186180114746,-35.25,-20.100000381469727,-24.600000381469727
0.19,77.30398559570312,1.9153614044189453,-13.905523300170898,1.0658499002456665,6.9280242919921875,-1.0658499002456665,-34.20000076293945,-20.25,-23.25
0.2,77.64875030517578,0.4596867263317108,-12.449849128723145,8.926492691040039,-1.1990811824798584,5.062787055969238,-34.80000305175781,-19.200000762939453,-25.350000381469727
0.21,78.10843658447266,-0.8427590131759644,-11.683704376220703,-0.5329249501228333,4.796324729919434,3.597243309020996,-33.75,-17.700000762939453,-22.80000114440918
0.22,77.41890716552734,-1.1875240802764893,-11.60708999633789,0.2664624750614166,1.8652373552322388,5.8621745109558105,-33.75,-17.700000762939453,-22.80000114440918
0.24,78.52981567382812,-1.8387469053268433,-10.955866813659668,-7.06125545501709,6.9280242919921875,-3.9969370365142822,-34.5,-19.200000762939453,-23.850000381469727
0.244,77.45721435546875,-1.4939818382263184,-11.990161895751953,-3.86370587348938,-0.2664624750614166,3.597243309020996,-35.25,-19.200000762939453,-24.150001525878906
0.25,77.763671875,0.15322890877723694,-11.377246856689453,-6.261868000030518,-1.8652373552322388,3.4640121459960938,-33.150001525878906,-19.05000114440918,-25.200000762939453
0.26,77.30398559570312,0.19153612852096558,-11.60708999633789,-14.12251091003418,-1.3323123455047607,-7.327718257904053,-33.30000305175781,-19.650001525878906,-23.55000114440918
0.27,77.26567840576172,1.3407529592514038,-11.72201156616211,-15.055130004882812,2.9310872554779053,-3.9969370365142822,-33.30000305175781,-19.650001525878906,-23.55000114440918
0.28,77.1507568359375,2.873042106628418,-11.72201156616211,-2.6646246910095215,-3.0643184185028076,3.9969370365142822,-35.400001525878906,-18.30000114440918,-22.5
0.299,77.99351501464844,3.4093432426452637,-11.60708999633789,-0.1332312375307083,-2.9310872554779053,1.5987749099731445,-34.95000076293945,-19.5,-22.5
0.304,76.69107055664062,2.451662540435791,-11.951854705810547,-5.462480545043945,7.327718257904053,-3.7304747104644775,-34.20000076293945,-19.05000114440918,-22.950000762939453
0.31,76.92091369628906,2.030282974243164,-12.679692268371582,-1.7320060729980469,10.258805274963379,3.197549819946289,-33.900001525878906,-20.55000114440918,-24.750001907348633
0.32,77.53382873535156,1.3024457693099976,-12.679692268371582,5.196018218994141,-0.1332312375307083,13.323123931884766,-33.900001525878906,-20.55000114440918,-24.750001907348633
0.33,78.45320129394531,-0.6129156351089478,-12.832921028137207,-6.395099639892578,11.191424369812012,6.261868000030518,-34.650001525878906,-19.05000114440918,-24.750001907348633
0.34,78.26166534423828,-1.37906014919281,-11.568782806396484,-5.995405673980713,4.796324729919434,-0.9326186776161194,-34.5,-18.900001525878906,-23.850000381469727
0.36,78.60643005371094,-0.6512228846549988,-11.568782806396484,-0.7993874549865723,1.4655436277389526,1.8652373552322388,-34.650001525878906,-18.75,-24.450000762939453
0.364,78.49150848388672,0.0,-11.224017143249512,-5.462480545043945,-1.3323123455047607,3.0643184185028076,-35.55000305175781,-19.200000762939453,-24.150001525878906
0.37,77.8019790649414,0.9576807022094727,-11.760318756103516,-10.258805274963379,9.059723854064941,4.396630764007568,-35.55000305175781,-19.200000762939453,-24.150001525878906
0.38,77.64875030517578,1.3024457693099976,-12.22000503540039,-10.125574111938477,1.0658499002456665,0.2664624750614166,-34.95000076293945,-18.75,-23.700000762939453
0.39,77.45721435546875,1.9153614044189453,-11.568782806396484,-4.796324729919434,1.7320060729980469,17.32006072998047,-34.05000305175781,-19.650001525878906,-23.850000381469727
0.401,77.87859344482422,0.8427590131759644,-11.262324333190918,-9.859111785888672,8.260336875915527,18.119447708129883,-34.650001525878906,-18.75,-22.950000762939453
0.42,77.61044311523438,0.9193734526634216,-12.29662036895752,2.131699800491333,2.398162364959717,16.25421142578125,-31.80000114440918,-20.100000381469727,-23.55000114440918
0.424,78.989501953125,0.38307225704193115,-12.832921028137207,-6.395099639892578,1.9984685182571411,24.248085021972656,-31.80000114440918,-20.100000381469727,-23.55000114440918
0.43,78.52981567382812,0.7661445140838623,-11.338939666748047,-3.4640121459960938,0.2664624750614166,19.85145378112793,-33.45000076293945,-19.80000114440918,-24.450000762939453
0.44,77.64875030517578,-0.38307225704193115,-13.024456977844238,-6.261868000030518,7.594180583953857,20.91730499267578,-34.5,-18.150001525878906,-23.100000381469727
0.45,78.9511947631836,-1.4939818382263184,-12.373234748840332,-6.5283308029174805,14.12251091003418,16.920366287231445,-34.80000305175781,-19.650001525878906,-24.150001525878906
0.46,78.72135162353516,-1.4939818382263184,-12.449849128723145,-7.460949420928955,7.9938740730285645,27.978559494018555,-34.05000305175781,-20.400001525878906,-24.600000381469727
0.479,78.3382797241211,-2.9496564865112305,-12.679692268371582,-8.39356803894043,16.920366287231445,23.315465927124023,-34.05000305175781,-20.400001525878906,-24.600000381469727
0.483,78.83627319335938,-3.4093432426452637,-12.22000503540039,-11.591117858886719,13.323123931884766,31.842266082763672,-35.55000305175781,-18.900001525878906,-22.350000381469727
0.49,79.5641098022461,-4.9799394607543945,-12.29662036895752,-11.591117858886719,11.058192253112793,34.906585693359375,-35.55000305175781,-18.900001525878906,-22.350000381469727
0.5,78.29997253417969,-6.052541732788086,-12.871228218078613,-23.182235717773438,16.520673751831055,19.584991455078125,-33.45000076293945,-19.05000114440918,-21.75
0.51,78.07012939453125,-4.290409564971924,-13.867216110229492,-26.513015747070312,14.788667678833008,27.045940399169922,-34.95000076293945,-18.75,-24.0
0.52,78.87458038330078,-4.6734819412231445,-13.48414421081543,-30.110260009765625,18.119447708129883,26.912710189819336,-34.95000076293945,-18.75,-24.0
0.54,78.83627319335938,-4.788403511047363,-14.250288963317871,-27.31240463256836,8.260336875915527,30.643184661865234,-35.400001525878906,-19.80000114440918,-24.0
0.543,78.87458038330078,-4.022258758544922,-14.020444869995117,-35.705970764160156,6.395099639892578,29.044410705566406,-35.25,-20.850000381469727,-24.900001525878906
0.55,78.79796600341797,-4.558559894561768,-12.871228218078613,-40.76875686645508,16.520673751831055,32.64165496826172,-35.25,-20.850000381469727,-24.900001525878906
0.56,77.68705749511719,-2.75812029838562,-13.713987350463867,-34.373661041259766,5.196018218994141,40.36906433105469,-33.75,-21.150001525878906,-23.55000114440918
0.57,78.75965881347656,-2.6431987285614014,-13.713987350463867,-36.5053596496582,5.995405673980713,47.430320739746094,-33.75,-21.150001525878906,-23.55000114440918
0.58,77.64875030517578,-1.1875240802764893,-13.369222640991211,-47.56355285644531,13.989279747009277,38.10413360595703,-33.30000305175781,-20.850000381469727,-24.600000381469727
0.599,77.763671875,-1.647210717201233,-14.824896812438965,-45.69831466674805,13.456355094909668,37.17151641845703,-33.900001525878906,-21.0,-23.25
0.604,76.84429931640625,0.038307227194309235,-15.054739952087402,-39.43644714355469,14.255742073059082,41.30168533325195,-34.20000076293945,-20.25,-23.700000762939453
0.61,75.81000518798828,-0.5746083855628967,-16.203956604003906,-35.839202880859375,18.385910034179688,38.37059783935547,-34.20000076293945,-20.25,-23.700000762939453
0.62,77.1890640258789,1.1492167711257935,-15.284584045410156,-37.4379768371582,17.186830520629883,39.569679260253906,-34.20000076293945,-20.25,-23.700000762939453
0.63,76.99752807617188,1.4939818382263184,-15.552734375,-25.447166442871094,8.793261528015137,43.56661605834961,-33.45000076293945,-21.450000762939453,-24.0
0.64,76.00154113769531,-0.038307227194309235,-16.395492553710938,-23.98162269592285,10.525267601013184,41.30168533325195,-33.900001525878906,-21.450000762939453,-24.450000762939453
0.66,75.38862609863281,-0.2298433631658554,-16.625335693359375,-25.447166442871094,10.525267601013184,35.972434997558594,-35.25,-21.150001525878906,-23.850000381469727
0.664,75.69508361816406,-0.7661445140838623,-15.974113464355469,-16.520673751831055,13.456355094909668,36.5053596496582,-34.5,-22.350000381469727,-24.600000381469727
0.67,76.537841796875,-1.3024457693099976,-16.1656494140625,-17.453292846679688,9.326186180114746,38.63705825805664,-34.5,-22.350000381469727,-24.600000381469727
0.68,76.5761489868164,-1.37906014919281,-16.012420654296875,-9.459418296813965,5.062787055969238,29.31087303161621,-34.5,-20.850000381469727,-23.100000381469727
0.69,76.30799865722656,-1.072602391242981,-15.974113464355469,-14.255742073059082,13.58958625793457,24.51454734802246,-33.75,-21.600000381469727,-23.55000114440918
0.7,75.00555419921875,0.6129156351089478,-16.510414123535156,-4.663093090057373,9.326186180114746,39.569679260253906,-34.650001525878906,-20.55000114440918,-23.25
0.72,76.99752807617188,-0.9193734526634216,-15.169661521911621,-0.7993874549865723,6.128636837005615,21.45022964477539,-34.650001525878906,-20.55000114440918,-23.25
0.723,76.84429931640625,0.038307227194309235,-15.399505615234375,7.9938740730285645,7.460949420928955,17.986217498779297,-34.80000305175781,-22.350000381469727,-24.150001525878906
0.73,76.5761489868164,1.5322890281677246,-16.203956604003906,9.459418296813965,14.12251091003418,16.387441635131836,-34.20000076293945,-21.450000762939453,-22.200000762939453
0.74,77.7253646850586,2.5665841102600098,-15.169661521911621,25.313934326171875,7.860642910003662,16.520673751831055,-35.25,-21.600000381469727,-22.80000114440918
0.75,75.50354766845703,2.030282974243164,-16.318878173828125,24.781009674072266,13.189892768859863,29.31087303161621,-34.80000305175781,-20.850000381469727,-23.850000381469727
0.76,76.23138427734375,2.873042106628418,-16.625335693359375,29.044410705566406,17.586523056030273,16.65390396118164,-34.80000305175781,-20.850000381469727,-23.850000381469727
0.78,74.7374038696289,2.3367409706115723,-15.744270324707031,47.0306282043457,12.25727367401123,27.17917251586914,-35.55000305175781,-22.80000114440918,-23.55000114440918
0.784,74.46924591064453,2.3750481605529785,-14.786589622497559,51.960182189941406,25.313934326171875,22.382848739624023,-34.95000076293945,-22.200000762939453,-22.5
0.79,71.28974914550781,2.5282769203186035,-13.254301071166992,52.75957107543945,33.57427215576172,20.784072875976562,-35.70000076293945,-23.25,-23.25
0.8,70.48529815673828,2.4133553504943848,-11.453861236572266,63.018375396728516,29.577335357666016,24.381317138671875,-34.80000305175781,-22.350000381469727,-22.80000114440918
0.81,68.87639617919922,1.455674648284912,-9.232041358947754,65.15007781982422,26.64624786376953,18.385910034179688,-34.80000305175781,-22.350000381469727,-22.80000114440918
0.82,68.34009552001953,0.1149216815829277,-7.469909191131592,67.5482406616211,20.117916107177734,3.3307809829711914,-34.95000076293945,-22.950000762939453,-21.75
0.84,69.18285369873047,1.8770540952682495,-5.094861030578613,69.67993927001953,17.186830520629883,-0.9326186776161194,-33.900001525878906,-24.150001525878906,-22.200000762939453
0.844,71.2514419555664,2.5665841102600098,-3.1028854846954346,77.00765228271484,10.392036437988281,-12.923430442810059,-36.0,-22.80000114440918,-22.05000114440918
0.85,73.43495178222656,3.8307228088378906,-3.332728862762451,82.86982727050781,-3.9969370365142822,-11.591117858886719,-35.400001525878906,-24.150001525878906,-21.75
0.86,75.58016204833984,2.873042106628418,-4.060565948486328,88.46553802490234,7.860642910003662,-29.977027893066406,-35.400001525878906,-24.150001525878906,-21.75
0.87,80.67501831054688,2.4133553504943848,-5.286397457122803,87.79938507080078,3.7304747104644775,-36.372127532958984,-34.80000305175781,-23.55000114440918,-21.30000114440918
0.88,84.77389526367188,0.26815059781074524,-5.2480902671813965,93.2618637084961,-7.9938740730285645,-49.02909469604492,-35.55000305175781,-24.30000114440918,-22.05000114440918
0.9,87.99169921875,-0.689530074596405,-4.9799394607543945,87.39968872070312,-6.395099639892578,-65.949462890625,-35.400001525878906,-22.950000762939453,-21.75
0.904,89.48567962646484,-2.604891538619995,-6.244078159332275,71.14547729492188,-13.056661605834961,-74.74272155761719,-35.55000305175781,-23.55000114440918,-21.600000381469727
0.91,91.24781799316406,-0.3064578175544739,-9.27034854888916,63.28483963012695,-17.719755172729492,-75.00918579101562,-35.55000305175781,-23.55000114440918,-21.600000381469727
0.92,90.59659576416016,2.5665841102600098,-11.1474027633667,62.75191116333008,-13.58958625793457,-85.26799011230469,-36.45000076293945,-22.5,-22.200000762939453
0.93,89.2558364868164,6.129156112670898,-13.024456977844238,53.159263610839844,-9.192955017089844,-95.9264907836914,-34.5,-23.850000381469727,-22.05000114440918
0.94,87.11063385009766,9.84495735168457,-14.939818382263184,63.950992584228516,-9.192955017089844,-85.93415069580078,-35.25,-23.55000114440918,-21.600000381469727
0.96,84.8888168334961,11.492168426513672,-15.093047142028809,82.20367431640625,-12.790199279785156,-81.93721008300781,-35.400001525878906,-23.700000762939453,-21.150001525878906
0.963,83.16499328613281,12.449849128723145,-15.629348754882812,90.59724426269531,-16.78713607788086,-86.0673828125,-35.400001525878906,-23.700000762939453,-21.150001525878906
0.97,80.06210327148438,10.84094524383545,-13.752294540405273,95.79325866699219,-22.51607894897461,-82.20367431640625,-35.400001525878906,-23.25,-21.150001525878906
0.981,80.40686798095703,9.691728591918945,-13.522451400756836,99.12403869628906,-27.045940399169922,-71.41194152832031,-34.95000076293945,-21.75,-19.950000762939453
0.991,79.71733856201172,8.159439086914062,-11.72201156616211,101.65543365478516,-38.90352249145508,-83.66921997070312,-34.20000076293945,-24.450000762939453,-21.150001525878906
1.0,77.49552154541016,5.363011837005615,-10.572794914245605,105.78560638427734,-50.62786865234375,-61.9525260925293,-33.0,-21.600000381469727,-21.30000114440918
1.02,76.03984832763672,6.665457725524902,-9.959878921508789,97.5252685546875,-50.89433288574219,-95.39356231689453,-33.0,-21.600000381469727,-21.30000114440918
1.024,75.2737045288086,7.546523571014404,-9.461885452270508,98.05818939208984,-61.41960144042969,-95.12710571289062,-35.55000305175781,-23.100000381469727,-22.05000114440918
1.03,73.74140930175781,8.65743350982666,-8.312667846679688,100.9892807006836,-66.74884796142578,-92.06278228759766,-34.80000305175781,-21.600000381469727,-22.05000114440918
1.04,73.16680145263672,7.967903137207031,-8.08282470703125,88.865234375,-69.54670715332031,-110.31546783447266,-35.55000305175781,-21.600000381469727,-23.55000114440918
1.05,73.0518798828125,8.236053466796875,-8.197746276855469,93.66156005859375,-82.33690643310547,-119.64165496826172,-34.80000305175781,-21.600000381469727,-22.80000114440918
1.06,73.6264877319336,7.891288757324219,-7.5848307609558105,82.33690643310547,-76.34149932861328,-115.51148223876953,-34.80000305175781,-21.600000381469727,-22.80000114440918
1.08,73.16680145263672,7.4316020011901855,-8.006210327148438,69.94640350341797,-71.14547729492188,-133.49769592285156,-34.95000076293945,-21.0,-23.700000762939453
1.084,72.66880798339844,6.550535678863525,-8.848969459533691,65.54976654052734,-83.26952362060547,-143.09034729003906,-34.80000305175781,-21.150001525878906,-23.55000114440918
1.09,72.32404327392578,5.937620162963867,-10.955866813659668,58.754974365234375,-83.26952362060547,-143.4900360107422,-34.95000076293945,-22.200000762939453,-23.700000762939453
1.1,72.59219360351562,6.550535678863525,-10.41956615447998,38.50382614135742,-71.14547729492188,-156.14700317382812,-34.95000076293945,-22.200000762939453,-23.700000762939453
1.11,73.0901870727539,7.891288757324219,-11.875240325927734,39.30321502685547,-68.88054656982422,-158.67840576171875,-34.95000076293945,-22.200000762939453,-23.700000762939453
1.12,73.0135726928711,10.72602367401123,-13.828908920288086,30.37672233581543,-66.21592712402344,-154.54823303222656,-34.80000305175781,-20.100000381469727,-23.55000114440918
1.14,73.0901870727539,11.568782806396484,-13.905523300170898,34.24042892456055,-70.3460922241211,-150.55130004882812,-33.75,-17.700000762939453,-24.600000381469727
1.144,72.78372955322266,14.441824913024902,-14.09705924987793,25.18070411682129,-65.81623077392578,-153.882080078125,-33.900001525878906,-19.05000114440918,-22.5
1.15,72.78372955322266,17.468095779418945,-15.782577514648438,29.577335357666016,-61.01990509033203,-152.28330993652344,-33.900001525878906,-19.05000114440918,-22.5
1.16,73.51156616210938,19.421764373779297,-16.1656494140625,39.16998291015625,-69.67993927001953,-147.35374450683594,-33.45000076293945,-17.850000381469727,-24.0
1.17,73.24341583251953,21.030668258666992,-16.47210693359375,51.027565002441406,-60.35375213623047,-147.35374450683594,-33.150001525878906,-18.30000114440918,-25.200000762939453
1.18,75.3503189086914,21.56696891784668,-18.387468338012695,48.09647750854492,-51.560489654541016,-147.35374450683594,-34.20000076293945,-17.850000381469727,-25.80000114440918
1.2,76.84429931640625,21.183897018432617,-17.468095779418945,51.82695007324219,-47.9632453918457,-136.0290985107422,-33.30000305175781,-16.5,-26.850000381469727
1.204,76.03984832763672,21.337125778198242,-18.502389907836914,49.96171569824219,-52.75957107543945,-135.62939453125,-33.30000305175781,-16.5,-26.850000381469727
1.21,73.89463806152344,18.157625198364258,-20.187908172607422,51.4272575378418,-49.96171569824219,-140.6921844482422,-34.95000076293945,-15.15000057220459,-26.55000114440918
1.22,73.0135726928711,18.962078094482422,-18.962078094482422,46.364471435546875,-48.76263427734375,-128.03521728515625,-32.70000076293945,-15.90000057220459,-26.55000114440918
1.23,73.39664459228516,20.226215362548828,-19.919757843017578,45.43185043334961,-53.82542037963867,-116.71056365966797,-33.45000076293945,-15.90000057220459,-25.80000114440918
1.24,73.16680145263672,18.88546371459961,-19.230228424072266,39.16998291015625,-58.355281829833984,-117.24349212646484,-33.900001525878906,-15.600000381469727,-27.000001907348633
1.26,73.7031021118164,21.643583297729492,-18.693927764892578,24.11485481262207,-51.960182189941406,-111.38131713867188,-33.900001525878906,-15.600000381469727,-27.000001907348633
1.264,73.81802368164062,21.643583297729492,-17.085023880004883,26.379785537719727,-56.09035110473633,-99.25727081298828,-33.0,-13.050000190734863,-26.850000381469727
1.27,74.04786682128906,24.746469497680664,-17.544710159301758,15.721285820007324,-54.22511291503906,-94.72740936279297,-33.75,-13.500000953674316,-28.650001525878906
1.28,74.6607894897461,24.516624450683594,-18.77054214477539,-1.4655436277389526,-48.76263427734375,-89.66461944580078,-32.400001525878906,-13.65000057220459,-28.05000114440918
1.29,73.47325897216797,26.623523712158203,-20.226215362548828,-11.857580184936523,-42.76722717285156,-77.14088439941406,-32.400001525878906,-14.100000381469727,-26.55000114440918
1.3,74.3160171508789,27.849353790283203,-22.256498336791992,-7.194486618041992,-44.23276901245117,-60.88667678833008,-32.400001525878906,-14.100000381469727,-26.55000114440918
1.321,73.89463806152344,29.381643295288086,-22.562957763671875,-9.72588062286377,-38.37059783935547,-64.48391723632812,-31.80000114440918,-13.500000953674316,-28.200000762939453
1.325,72.82203674316406,30.79901123046875,-23.980323791503906,-9.859111785888672,-24.381317138671875,-58.62174606323242,-32.400001525878906,-12.90000057220459,-28.05000114440918
1.33,73.51156616210938,32.52283477783203,-23.252487182617188,0.39969372749328613,-32.108726501464844,-52.626338958740234,-32.400001525878906,-12.90000057220459,-28.05000114440918
1.34,74.16278839111328,32.905906677246094,-23.52063751220703,9.592649459838867,-19.98468589782715,-45.16539001464844,-32.25,-11.850000381469727,-27.900001525878906
1.35,77.07414245605469,33.365596771240234,-23.405715942382812,12.656967163085938,-15.588054656982422,-27.578866958618164,-32.25,-11.850000381469727,-27.900001525878906
1.36,80.98147583007812,33.44221115112305,-23.82709503173828,7.06125545501709,-5.462480545043945,-18.519142150878906,-30.150001525878906,-12.90000057220459,-28.500001907348633
1.38,82.66699981689453,33.05913543701172,-26.700138092041016,6.794793128967285,5.329249382019043,-3.197549819946289,-32.25,-12.750000953674316,-27.900001525878906
1.383,82.55207824707031,34.3998908996582,-29.496564865112305,3.0643184185028076,20.117916107177734,22.782541275024414,-31.950000762939453,-12.15000057220459,-28.80000114440918
1.39,82.16899871826172,35.702335357666016,-27.58120346069336,-2.398162364959717,32.64165496826172,26.912710189819336,-31.950000762939453,-12.15000057220459,-28.80000114440918
1.4,83.31822204589844,34.74465560913086,-24.286781311035156,15.45482349395752,23.581928253173828,48.362937927246094,-31.950000762939453,-12.15000057220459,-28.80000114440918
1.41,84.42913055419922,31.373619079589844,-22.103269577026367,26.64624786376953,15.854516983032227,55.95711898803711,-31.950000762939453,-12.450000762939453,-28.80000114440918
1.42,84.9271240234375,27.389667510986328,-19.49837875366211,32.5084228515625,7.594180583953857,70.61255645751953,-33.30000305175781,-13.500000953674316,-27.150001525878906
1.44,86.57433319091797,22.409727096557617,-19.421764373779297,24.248085021972656,13.989279747009277,64.084228515625,-32.70000076293945,-12.450000762939453,-29.250001907348633
1.444,85.11865997314453,19.843143463134766,-19.766529083251953,13.323123931884766,21.84992218017578,83.93567657470703,-32.25,-13.050000190734863,-27.900001525878906
1.45,85.27188873291016,13.062764167785645,-18.77054214477539,9.859111785888672,5.995405673980713,94.86064147949219,-32.25,-13.050000190734863,-27.900001525878906
1.46,84.314208984375,10.994174003601074,-17.774553298950195,-8.127105712890625,21.716691970825195,92.46247863769531,-33.150001525878906,-14.100000381469727,-28.05000114440918
1.47,82.4371566772461,6.512228488922119,-16.433799743652344,-14.12251091003418,26.246553421020508,100.3231201171875,-33.150001525878906,-14.40000057220459,-29.55000114440918
1.48,78.75965881347656,2.604891538619995,-15.591041564941406,-16.78713607788086,17.586523056030273,111.24808502197266,-31.950000762939453,-13.200000762939453,-28.80000114440918
1.5,74.08617401123047,0.0,-13.867216110229492,-32.64165496826172,15.854516983032227,114.17916870117188,-32.55000305175781,-13.500000953674316,-27.450000762939453
1.504,70.29376220703125,-2.5282769203186035,-11.30063247680664,-59.02143859863281,19.45176124572754,111.11485290527344,-31.500001907348633,-15.000000953674316,-27.900001525878906
1.51,66.84611511230469,-3.332728862762451,-9.84495735168457,-70.47932434082031,9.859111785888672,122.70597076416016,-31.500001907348633,-15.000000953674316,-27.900001525878906
1.52,67.76548767089844,-4.213795185089111,-9.959878921508789,-75.94180297851562,14.255742073059082,121.90658569335938,-32.25,-14.550000190734863,-29.400001525878906
1.53,64.93074798583984,-4.367023944854736,-12.181697845458984,-93.12863159179688,31.176109313964844,116.17764282226562,-31.500001907348633,-14.250000953674316,-27.900001525878906
1.54,64.50936889648438,-5.056553840637207,-13.79060173034668,-100.18988800048828,27.71209716796875,119.5084228515625,-32.55000305175781,-16.5,-28.200000762939453
1.56,64.0879898071289,-5.439626216888428,-12.832921028137207,-98.4578857421875,34.64012145996094,110.71515655517578,-32.55000305175781,-16.5,-28.200000762939453
1.564,64.54767608642578,-5.363011837005615,-15.24627685546875,-116.44409942626953,42.500762939453125,107.11791229248047,-31.500001907348633,-15.000000953674316,-28.650001525878906
1.57,67.38241577148438,-5.975927352905273,-16.089035034179688,-115.51148223876953,52.3598747253418,104.7197494506836,-31.500001907348633,-15.000000953674316,-28.650001525878906
1.58,69.52761840820312,-7.814674377441406,-16.81687355041504,-111.64777374267578,44.09954071044922,110.848388671875,-32.400001525878906,-15.90000057220459,-28.500001907348633
1.59,73.74140930175781,-7.354987621307373,-16.318878173828125,-114.04593658447266,44.49923324584961,104.18682861328125,-32.70000076293945,-16.80000114440918,-27.000001907348633
1.6,74.96724700927734,-8.65743350982666,-14.97812557220459,-121.24042510986328,46.497703552246094,105.91883087158203,-32.70000076293945,-16.80000114440918,-27.000001907348633
1.62,79.21934509277344,-9.078812599182129,-16.58702850341797,-130.83306884765625,52.226646423339844,94.0612564086914,-33.45000076293945,-15.15000057220459,-29.250001907348633
1.623,80.21533203125,-8.006210327148438,-17.046716690063477,-137.3614044189453,47.696781158447266,93.79479217529297,-33.150001525878906,-17.100000381469727,-27.000001907348633
1.63,80.2536392211914,-7.240066051483154,-17.50640296936035,-136.82847595214844,45.03215789794922,94.0612564086914,-33.45000076293945,-16.80000114440918,-27.000001907348633
1.64,80.63671112060547,-5.861005783081055,-17.62132453918457,-152.68299865722656,49.02909469604492,93.92802429199219,-33.45000076293945,-16.80000114440918,-26.55000114440918
1.65,81.24962615966797,-3.5625722408294678,-18.54069709777832,-145.88819885253906,40.9019889831543,109.64930725097656,-33.45000076293945,-16.80000114440918,-26.55000114440918
1.66,80.7899398803711,-3.141192674636841,-18.54069709777832,-159.3445587158203,41.701377868652344,113.24655151367188,-34.5,-15.750000953674316,-25.650001525878906
1.68,79.33426666259766,-1.1109095811843872,-18.195932388305664,-169.0704345703125,49.96171569824219,113.3797836303711,-33.0,-14.550000190734863,-27.450000762939453
1.684,79.48749542236328,0.6512228846549988,-18.157625198364258,-163.6079559326172,47.9632453918457,117.11026000976562,-33.75,-16.200000762939453,-27.450000762939453
1.69,79.71733856201172,1.800439715385437,-18.808849334716797,-160.8101043701172,44.89892578125,128.43490600585938,-33.75,-16.200000762939453,-27.450000762939453
1.804,68.7997817993164,-2.2601263523101807,-15.744270324707031,-107.25114440917969,41.568145751953125,142.5574188232422,-34.20000076293945,-15.90000057220459,-25.200000762939453
1.81,69.18285369873047,-5.1331682205200195,-15.552734375,-120.57427215576172,38.90352249145508,128.3016815185547,-34.650001525878906,-17.55000114440918,-25.200000762939453
1.82,70.06391906738281,-7.929595947265625,-14.441824913024902,-125.90351867675781,39.30321502685547,107.51760864257812,-34.05000305175781,-18.450000762939453,-26.400001525878906
1.83,71.36636352539062,-7.240066051483154,-15.476119995117188,-113.51301574707031,31.975496292114258,125.37059783935547,-35.70000076293945,-19.05000114440918,-24.750001907348633
1.84,72.20912170410156,-7.316680431365967,-16.47210693359375,-123.2388916015625,40.36906433105469,123.37212371826172,-35.70000076293945,-19.05000114440918,-24.750001907348633
1.86,73.74140930175781,-7.393294811248779,-16.089035034179688,-130.83306884765625,48.76263427734375,108.983154296875,-35.25,-19.200000762939453,-25.350000381469727
1.864,73.93294525146484,-6.205770969390869,-15.744270324707031,-129.6339874267578,35.03981399536133,111.64777374267578,-34.95000076293945,-18.30000114440918,-24.0
1.87,76.00154113769531,-5.056553840637207,-15.514427185058594,-130.03369140625,41.168453216552734,118.17610931396484,-35.25,-20.100000381469727,-24.900001525878906
1.88,75.81000518798828,-1.9153614044189453,-14.709975242614746,-136.9617156982422,46.63093185424805,106.85145568847656,-36.75,-19.200000762939453,-24.150001525878906
1.89,75.46524047851562,-1.4939818382263184,-15.322891235351562,-136.82847595214844,41.168453216552734,101.9218978881836,-36.75,-19.200000762939453,-24.150001525878906
1.9,74.62248229980469,-0.6512228846549988,-16.089035034179688,-120.84072875976562,37.03828430175781,110.18223571777344,-36.45000076293945,-19.05000114440918,-24.450000762939453
1.919,74.81401824951172,0.8810662031173706,-15.552734375,-109.915771484375,42.36753463745117,109.11638641357422,-36.30000305175781,-18.900001525878906,-23.850000381469727
1.923,75.08216857910156,-0.07661445438861847,-15.629348754882812,-110.98162078857422,39.9693717956543,95.26033782958984,-35.70000076293945,-17.100000381469727,-25.200000762939453
1.93,74.62248229980469,-1.3024457693099976,-16.28057098388672,-89.39816284179688,31.709033966064453,96.99234008789062,-35.400001525878906,-18.30000114440918,-24.0
1.94,72.89865112304688,-0.2298433631658554,-16.127342224121094,-82.6033706665039,37.03828430175781,93.79479217529297,-35.400001525878906,-18.30000114440918,-24.0
1.95,74.62248229980469,-1.4939818382263184,-15.552734375,-83.13629150390625,39.9693717956543,76.4747314453125,-34.80000305175781,-18.900001525878906,-24.150001525878906
1.96,72.28573608398438,-0.4596867263317108,-16.28057098388672,-70.3460922241211,37.83767318725586,75.8085708618164,-36.30000305175781,-20.850000381469727,-23.55000114440918
1.98,74.50755310058594,-1.9153614044189453,-17.966089248657227,-64.48391723632812,26.113323211669922,75.00918579101562,-34.95000076293945,-19.5,-24.0
1.983,74.16278839111328,-2.8347349166870117,-18.88546371459961,-72.61102294921875,35.972434997558594,75.67534637451172,-35.25,-19.200000762939453,-23.850000381469727
1.99,73.85633087158203,-2.1068975925445557,-18.502389907836914,-77.54058074951172,40.9019889831543,71.01225280761719,-35.25,-19.200000762939453,-23.850000381469727
2.0,74.54586791992188,-4.788403511047363,-19.613300323486328,-74.74272155761719,36.5053596496582,49.69525146484375,-35.70000076293945,-19.80000114440918,-23.25
2.01,78.14674377441406,-2.183511972427368,-18.502389907836914,-74.20980072021484,35.972434997558594,51.82695007324219,-35.70000076293945,-21.450000762939453,-24.0
2.02,81.51777648925781,0.9193734526634216,-18.464082717895508,-79.13935852050781,40.23583221435547,45.298622131347656,-36.0,-20.400001525878906,-23.850000381469727
2.039,82.59038543701172,5.784391403198242,-15.935806274414062,-70.3460922241211,37.70444107055664,43.03369140625,-34.20000076293945,-20.25,-22.200000762939453
2.043,84.39082336425781,9.921571731567383,-14.173673629760742,-50.76110076904297,31.44257164001465,43.96630859375,-34.20000076293945,-20.25,-22.200000762939453
2.05,84.9654312133789,11.377246856689453,-14.135366439819336,-44.09954071044922,25.580398559570312,37.17151641845703,-36.150001525878906,-19.80000114440918,-22.200000762939453
2.06,84.04605865478516,11.185709953308105,-14.786589622497559,-32.37519073486328,24.914241790771484,22.249616622924805,-35.70000076293945,-19.05000114440918,-21.450000762939453
2.07,83.58637237548828,12.22000503540039,-14.441824913024902,-18.652372360229492,18.2526798248291,22.782541275024414,-35.55000305175781,-20.850000381469727,-22.05000114440918
2.08,83.50975799560547,13.330915451049805,-14.67166805267334,11.724349021911621,15.854516983032227,17.586523056030273,-36.150001525878906,-20.55000114440918,-22.5
2.1,83.0500717163086,11.60708999633789,-16.548721313476562,26.779478073120117,18.652372360229492,11.058192253112793,-36.150001525878906,-20.55000114440918,-22.5
2.104,83.96944427490234,10.994174003601074,-17.583017349243164,54.75803756713867,17.453292846679688,10.258805274963379,-36.0,-20.400001525878906,-21.600000381469727
2.11,87.87677764892578,5.51624059677124,-15.476119995117188,70.3460922241211,10.525267601013184,-27.84532928466797,-36.0,-18.900001525878906,-22.80000114440918
2.12,88.33646392822266,4.520252704620361,-14.824896812438965,87.66615295410156,7.06125545501709,9.859111785888672,-36.75,-19.650001525878906,-22.05000114440918
2.13,91.05628204345703,-0.4596867263317108,-10.457873344421387,86.73353576660156,2.9310872554779053,-17.32006072998047,-36.45000076293945,-21.450000762939453,-24.0
2.14,91.66919708251953,-4.596867084503174,-11.338939666748047,101.2557373046875,-0.39969372749328613,-17.986217498779297,-36.45000076293945,-21.450000762939453,-24.0
2.16,92.01396179199219,-8.619126319885254,-12.22000503540039,110.848388671875,-14.522205352783203,-18.2526798248291,-36.45000076293945,-21.0,-22.950000762939453
2.163,89.98367309570312,-10.955866813659668,-16.855180740356445,99.52373504638672,-9.059723854064941,-32.77488327026367,-36.45000076293945,-21.0,-23.700000762939453
2.17,88.6046142578125,-12.48815631866455,-16.66364288330078,101.38896942138672,-6.9280242919921875,-37.83767318725586,-35.70000076293945,-20.55000114440918,-22.5
2.18,87.64693450927734,-11.951854705810547,-16.855180740356445,116.9770278930664,-8.793261528015137,-33.4410400390625,-36.0,-21.900001525878906,-21.30000114440918
2.19,88.45138549804688,-13.177685737609863,-13.943830490112305,118.57579803466797,-10.791729927062988,-41.30168533325195,-36.0,-21.900001525878906,-21.30000114440918
2.2,88.33646392822266,-13.560758590698242,-12.832921028137207,126.30321502685547,-19.052066802978516,-49.02909469604492,-36.75,-21.600000381469727,-23.55000114440918
2.22,88.5663070678711,-14.326903343200684,-9.806650161743164,122.83920288085938,-16.12097930908203,-57.689125061035156,-35.400001525878906,-21.450000762939453,-21.450000762939453
2.223,90.2901382446289,-15.744270324707031,-8.274360656738281,133.09800720214844,-32.108726501464844,-77.00765228271484,-36.900001525878906,-22.5,-22.950000762939453
2.23,89.48567962646484,-13.752294540405273,-7.891288757324219,139.89280700683594,-30.110260009765625,-84.20214080810547,-36.150001525878906,-21.75,-22.950000762939453
2.24,88.22154235839844,-12.564770698547363,-6.856993675231934,155.34762573242188,-35.57273864746094,-90.73047637939453,-36.150001525878906,-21.75,-22.950000762939453
2.25,84.9271240234375,-9.461885452270508,-8.925583839416504,181.46095275878906,-48.49617004394531,-78.87289428710938,-36.150001525878906,-22.200000762939453,-21.75
2.26,81.78592681884766,-6.856993675231934,-7.4316020011901855,196.78253173828125,-53.159263610839844,-82.47013854980469,-36.0,-20.850000381469727,-22.05000114440918
2.28,78.52981567382812,-5.937620162963867,-5.631162166595459,206.6416473388672,-44.76569747924805,-85.93415069580078,-34.80000305175781,-23.850000381469727,-22.350000381469727
2.284,74.54586791992188,-4.750096321105957,-3.7924153804779053,237.81776428222656,-61.9525260925293,-75.14241790771484,-34.80000305175781,-23.850000381469727,-22.350000381469727
2.29,71.13652038574219,-4.481945514678955,-0.8427590131759644,253.2725830078125,-65.81623077392578,-65.15007781982422,-34.80000305175781,-23.850000381469727,-22.350000381469727
2.3,70.25545501708984,-5.822698593139648,1.1109095811843872,266.1960144042969,-66.61561584472656,-71.81163787841797,-36.150001525878906,-21.75,-23.700000762939453
2.31,70.6385269165039,-9.653421401977539,5.171475887298584,278.7197570800781,-70.21286010742188,-77.00765228271484,-34.05000305175781,-22.350000381469727,-23.100000381469727
2.32,70.75344848632812,-13.024456977844238,7.2783732414245605,290.0444030761719,-85.93415069580078,-75.5421142578125,-34.95000076293945,-22.5,-22.5
2.339,72.4772720336914,-16.47210693359375,11.568782806396484,294.174560546875,-94.46094512939453,-84.86830139160156,-34.95000076293945,-22.5,-22.5
2.343,77.45721435546875,-25.014619827270508,15.016432762145996,285.1148376464844,-96.19295501708984,-104.98621368408203,-35.70000076293945,-23.25,-24.0
2.35,78.3382797241211,-25.857378005981445,14.480132102966309,273.25726318359375,-107.91730499267578,-117.11026000976562,-33.0,-23.850000381469727,-24.150001525878906
2.36,81.36454772949219,-29.53487205505371,15.169661521911621,259.8009033203125,-114.57886505126953,-134.83001708984375,-34.650001525878906,-24.900001525878906,-24.750001907348633
2.37,83.58637237548828,-33.365596771240234,13.752294540405273,233.42112731933594,-122.3062744140625,-159.3445587158203,-33.30000305175781,-25.500001907348633,-23.55000114440918
2.38,83.16499328613281,-33.90189743041992,9.040505409240723,191.0535888671875,-121.3736572265625,-188.38897705078125,-33.30000305175781,-25.500001907348633,-23.55000114440918
2.4,80.52178955078125,-34.05512619018555,6.512228488922119,161.47625732421875,-122.83920288085938,-192.51913452148438,-34.650001525878906,-26.850000381469727,-24.750001907348633
2.404,80.29194641113281,-33.44221115112305,2.5665841102600098,106.71822357177734,-108.45022583007812,-210.90504455566406,-34.95000076293945,-24.450000762939453,-25.500001907348633
2.41,77.1124496459961,-28.53888511657715,-2.2601263523101807,91.26339721679688,-97.39203643798828,-199.44715881347656,-34.95000076293945,-24.450000762939453,-25.500001907348633
2.42,76.34630584716797,-26.12552833557129,-3.44765043258667,63.28483963012695,-94.46094512939453,-213.56967163085938,-35.25,-23.850000381469727,-27.450000762939453
2.43,76.5761489868164,-22.218191146850586,-2.873042106628418,40.635528564453125,-85.93415069580078,-207.84072875976562,-35.25,-23.850000381469727,-27.450000762939453
2.441,76.19307708740234,-18.808849334716797,-2.604891538619995,38.63705825805664,-99.65696716308594,-206.77488708496094,-31.950000762939453,-22.200000762939453,-27.30000114440918
2.46,74.2777099609375,-13.675680160522461,-3.5242648124694824,32.24195861816406,-100.85604858398438,-209.4394989013672,-32.55000305175781,-21.900001525878906,-27.150001525878906
2.463,73.89463806152344,-9.691728591918945,-4.865017890930176,30.643184661865234,-104.32006072998047,-184.79173278808594,-34.20000076293945,-22.200000762939453,-27.000001907348633
2.471,71.90266418457031,-5.51624059677124,-6.090848922729492,27.045940399169922,-100.18988800048828,-189.9877471923828,-34.20000076293945,-22.200000762939453,-27.000001907348633
2.48,72.13250732421875,-2.604891538619995,-6.703764915466309,34.906585693359375,-91.79632568359375,-175.7320098876953,-34.20000076293945,-22.200000762939453,-27.000001907348633
2.49,71.28974914550781,-2.873042106628418,-7.814674377441406,28.77794647216797,-78.47319793701172,-175.0658416748047,-34.05000305175781,-20.850000381469727,-28.650001525878906
2.5,71.55789947509766,-0.26815059781074524,-8.427590370178223,36.771820068359375,-71.01225280761719,-160.2771759033203,-33.0,-19.650001525878906,-27.900001525878906
2.52,70.0256118774414,-0.6129156351089478,-8.312667846679688,53.95865249633789,-67.5482406616211,-154.28176879882812,-32.55000305175781,-19.200000762939453,-30.150001525878906
2.524,69.22116088867188,-0.5746083855628967,-6.703764915466309,53.42572784423828,-67.14854431152344,-154.0153045654297,-32.55000305175781,-19.200000762939453,-30.150001525878906
2.53,69.45100402832031,0.2298433631658554,-5.631162166595459,58.754974365234375,-62.485450744628906,-146.9540557861328,-32.55000305175781,-19.200000762939453,-30.150001525878906
2.54,68.56993865966797,-1.3407529592514038,-5.822698593139648,53.29249572753906,-55.69065856933594,-144.1562042236328,-32.25,-18.450000762939453,-28.950000762939453
2.55,71.213134765625,-1.8387469053268433,-6.550535678863525,47.430320739746094,-56.756507873535156,-141.0918731689453,-31.80000114440918,-18.450000762939453,-29.400001525878906
2.56,70.52360534667969,-2.4899697303771973,-4.252102375030518,37.70444107055664,-54.091880798339844,-137.09494018554688,-32.25,-17.400001525878906,-30.450000762939453
2.579,70.0256118774414,-4.63517427444458,-3.332728862762451,28.77794647216797,-66.21592712402344,-127.63552856445312,-30.450000762939453,-17.100000381469727,-29.850000381469727
2.583,68.91470336914062,-2.4899697303771973,-4.711789131164551,0.7993874549865723,-68.74732208251953,-126.43644714355469,-30.750001907348633,-18.150001525878906,-30.450000762939453
2.59,67.84210205078125,-0.4213795065879822,-5.286397457122803,-17.453292846679688,-59.95405578613281,-127.10260009765625,-30.750001907348633,-18.150001525878906,-30.450000762939453
2.6,63.13031005859375,-0.5746083855628967,-6.244078159332275,-24.248085021972656,-59.55436325073242,-113.51301574707031,-31.80000114440918,-14.250000953674316,-31.950000762939453
2.61,59.29958724975586,0.19153612852096558,-9.27034854888916,-29.31087303161621,-61.01990509033203,-114.57886505126953,-31.200000762939453,-14.850000381469727,-30.30000114440918
2.62,54.97087097167969,1.800439715385437,-8.427590370178223,-27.84532928466797,-48.49617004394531,-120.70750427246094,-31.200000762939453,-14.850000381469727,-30.30000114440918
2.639,54.97087097167969,2.3750481605529785,-8.006210327148438,-21.84992218017578,-58.4885139465332,-104.5865249633789,-31.200000762939453,-14.850000381469727,-31.350000381469727
2.643,53.13212585449219,3.6774938106536865,-9.423578262329102,-27.84532928466797,-58.754974365234375,-113.11331939697266,-30.450000762939453,-15.15000057220459,-30.600000381469727
2.65,53.476890563964844,4.175487995147705,-9.461885452270508,-29.7105655670166,-56.356815338134766,-103.38744354248047,-31.500001907348633,-13.800000190734863,-31.500001907348633
2.66,55.009178161621094,5.822698593139648,-9.500192642211914,-44.23276901245117,-46.63093185424805,-104.5865249633789,-30.150001525878906,-13.65000057220459,-32.55000305175781
2.67,55.85193634033203,6.742072105407715,-10.228029251098633,-62.21898651123047,-48.22970962524414,-93.12863159179688,-30.150001525878906,-13.65000057220459,-32.55000305175781
2.68,56.50315856933594,7.469909191131592,-9.768342971801758,-61.15313720703125,-62.21898651123047,-88.865234375,-32.70000076293945,-11.700000762939453,-33.30000305175781
2.699,56.46485137939453,8.580819129943848,-9.615114212036133,-68.88054656982422,-52.89280319213867,-89.7978515625,-29.400001525878906,-12.90000057220459,-31.80000114440918
2.704,60.60203170776367,14.403517723083496,-9.461885452270508,-64.61714935302734,-59.68759536743164,-77.14088439941406,-28.80000114440918,-11.550000190734863,-31.950000762939453
2.71,61.636329650878906,15.476119995117188,-8.734047889709473,-67.94792938232422,-55.95711898803711,-78.47319793701172,-29.700000762939453,-10.950000762939453,-33.30000305175781
2.72,62.74723815917969,17.161638259887695,-12.48815631866455,-63.81776428222656,-55.02450180053711,-70.61255645751953,-29.700000762939453,-10.950000762939453,-33.30000305175781
2.73,64.96905517578125,18.387468338012695,-13.560758590698242,-58.222049713134766,-39.83613967895508,-77.27411651611328,-29.400001525878906,-10.950000762939453,-33.30000305175781
2.74,68.7231674194336,18.579004287719727,-17.238252639770508,-53.026031494140625,-37.03828430175781,-75.00918579101562,-28.500001907348633,-10.050000190734863,-33.45000076293945
2.76,70.17884063720703,18.310853958129883,-18.387468338012695,-47.830013275146484,-40.102603912353516,-69.94640350341797,-28.80000114440918,-9.600000381469727,-34.5
2.764,69.9489974975586,19.38345718383789,-19.19192123413086,-50.89433288574219,-35.705970764160156,-61.15313720703125,-28.80000114440918,-9.600000381469727,-34.5
2.77,68.1102523803711,20.072986602783203,-20.226215362548828,-56.356815338134766,-25.313934326171875,-71.94486999511719,-28.80000114440918,-9.600000381469727,-34.5
2.78,67.84210205078125,21.298818588256836,-20.532672882080078,-56.356815338134766,-30.37672233581543,-48.22970962524414,-28.200000762939453,-7.800000190734863,-33.60000228881836
2.79,63.589996337890625,22.17988395690918,-17.73624610900879,-56.889739990234375,-29.977027893066406,-41.568145751953125,-29.55000114440918,-9.15000057220459,-35.55000305175781
2.8,63.398460388183594,25.052927017211914,-17.889474868774414,-67.41500854492188,-23.315465927124023,-45.69831466674805,-27.30000114440918,-9.600000381469727,-35.55000305175781
2.814,62.74723815917969,27.006595611572266,-18.579004287719727,-64.21745300292969,-19.98468589782715,-25.980091094970703,-28.650001525878906,-8.700000762939453,-33.60000228881836
2.82,64.31783294677734,30.4925537109375,-19.613300323486328,-56.756507873535156,-22.249616622924805,-18.78560447692871,-28.650001525878906,-8.700000762939453,-33.60000228881836
2.83,65.50535583496094,31.565155029296875,-21.183897018432617,-58.62174606323242,-13.323123931884766,-13.989279747009277,-28.80000114440918,-8.100000381469727,-34.5
2.84,66.07996368408203,31.83330535888672,-21.37543296813965,-57.955589294433594,-19.185298919677734,-7.194486618041992,-29.55000114440918,-8.850000381469727,-34.20000076293945
2.85,66.80780792236328,30.952239990234375,-21.528661727905273,-46.497703552246094,-21.183767318725586,4.929555892944336,-28.500001907348633,-7.650000095367432,-34.20000076293945
2.86,68.60824584960938,32.369606018066406,-22.2948055267334,-45.56508255004883,-25.7136287689209,8.526799201965332,-27.150001525878906,-7.500000476837158,-33.30000305175781
2.88,68.45501708984375,33.13574981689453,-20.76251792907715,-52.493106842041016,-21.183767318725586,14.655436515808105,-28.200000762939453,-6.750000476837158,-34.35000228881836
2.884,69.45100402832031,31.641769409179688,-23.482330322265625,-49.29555892944336,-29.044410705566406,28.77794647216797,-28.200000762939453,-6.750000476837158,-34.35000228881836
2.89,69.9873046875,30.415939331054688,-24.13355255126953,-50.09494400024414,-30.509952545166016,19.052066802978516,-27.750001907348633,-6.150000095367432,-32.70000076293945
2.9,71.09821319580078,29.688100814819336,-25.129541397094727,-59.95405578613281,-21.45022964477539,12.790199279785156,-28.200000762939453,-6.750000476837158,-34.35000228881836
2.91,74.08617401123047,28.998571395874023,-26.393678665161133,-70.87902069091797,-17.986217498779297,31.842266082763672,-27.900001525878906,-6.750000476837158,-34.650001525878906
2.92,73.97125244140625,30.760704040527344,-28.692113876342773,-77.00765228271484,-14.92189884185791,34.773353576660156,-27.900001525878906,-6.750000476837158,-34.650001525878906
2.934,77.1890640258789,31.450233459472656,-32.21637725830078,-84.33537292480469,2.797856092453003,45.16539001464844,-28.200000762939453,-8.25,-35.85000228881836
2.94,79.83226013183594,34.13174057006836,-34.3998908996582,-88.46553802490234,21.316997528076172,52.3598747253418,-28.500001907348633,-8.40000057220459,-34.95000076293945
2.95,80.33025360107422,35.089420318603516,-34.70634841918945,-75.27565002441406,30.37672233581543,74.74272155761719,-27.30000114440918,-7.650000095367432,-33.75
2.96,79.10442352294922,37.73262023925781,-34.66804122924805,-60.08728790283203,42.23430252075195,90.59724426269531,-27.750001907348633,-6.450000286102295,-35.25
2.97,75.12047576904297,39.30321502685547,-32.52283477783203,-46.09800720214844,54.22511291503906,98.32465362548828,-27.750001907348633,-6.450000286102295,-35.25
2.98,76.95922088623047,33.63374710083008,-30.186094284057617,-23.448698043823242,57.55589294433594,110.44869232177734,-28.950000762939453,-7.050000190734863,-33.60000228881836
3.0,81.17301177978516,28.960264205932617,-25.627534866333008,2.797856092453003,45.298622131347656,118.30934143066406,-29.400001525878906,-7.500000476837158,-33.900001525878906
3.005,92.01396179199219,13.713987350463867,-25.052927017211914,-2.531393527984619,35.972434997558594,119.64165496826172,-29.400001525878906,-7.500000476837158,-33.900001525878906
3.01,94.00593566894531,11.990161895751953,-27.427974700927734,-16.920366287231445,37.70444107055664,126.43644714355469,-30.000001907348633,-8.40000057220459,-34.20000076293945
3.02,95.99790954589844,8.848969459533691,-31.41192626953125,-44.49923324584961,51.027565002441406,110.71515655517578,-30.000001907348633,-8.40000057220459,-34.20000076293945
3.03,98.52619171142578,5.056553840637207,-38.843528747558594,-57.15620040893555,63.418067932128906,117.64318084716797,-29.700000762939453,-9.0,-32.10000228881836
3.04,95.53822326660156,4.788403511047363,-41.60165023803711,-57.289432525634766,84.06890869140625,123.9050521850586,-30.450000762939453,-7.500000476837158,-32.85000228881836
3.054,91.59258270263672,6.703764915466309,-39.26490783691406,-59.4211311340332,107.65084075927734,119.90811157226562,-31.05000114440918,-8.40000057220459,-32.70000076293945
3.06,87.45539855957031,11.224017143249512,-31.90991973876953,-47.9632453918457,98.72434997558594,127.23583221435547,-31.500001907348633,-9.15000057220459,-32.25
3.07,88.25984954833984,11.683704376220703,-29.075185775756836,-36.905052185058594,101.78866577148438,128.43490600585938,-31.500001907348633,-9.15000057220459,-32.25
3.08,90.51998138427734,10.764330863952637,-21.14558982849121,-39.83613967895508,84.73506927490234,120.17457580566406,-32.55000305175781,-8.100000381469727,-31.200000762939453
3.09,91.89904022216797,8.121131896972656,-16.548721313476562,-54.75803756713867,67.14854431152344,126.43644714355469,-30.900001525878906,-8.700000762939453,-32.10000228881836
3.11,90.63490295410156,2.7964274883270264,-17.50640296936035,-79.13935852050781,53.82542037963867,103.65390014648438,-31.950000762939453,-9.450000762939453,-30.600000381469727
3.113,90.67321014404297,0.49799394607543945,-18.847156524658203,-109.78253936767578,46.764163970947266,125.10413360595703,-31.500001907348633,-9.15000057220459,-31.200000762939453
3.12,87.91508483886719,1.8387469053268433,-23.597251892089844,-124.30474090576172,51.960182189941406,131.7657012939453,-31.500001907348633,-9.15000057220459,-31.200000762939453
3.13,85.96141815185547,3.9456443786621094,-24.746469497680664,-135.4961700439453,53.69218826293945,147.35374450683594,-32.55000305175781,-10.800000190734863,-31.500001907348633
3.14,83.81621551513672,8.96389102935791,-24.286781311035156,-141.89126586914062,56.356815338134766,163.6079559326172,-32.55000305175781,-10.800000190734863,-30.900001525878906
3.15,82.32222747802734,13.292608261108398,-22.754493713378906,-144.02296447753906,65.016845703125,170.13629150390625,-33.30000305175781,-10.350000381469727,-30.900001525878906
3.16,80.98147583007812,17.697938919067383,-21.14558982849121,-131.36599731445312,64.48391723632812,192.51913452148438,-33.30000305175781,-10.350000381469727,-30.900001525878906
3.173,79.87056732177734,18.923770904541016,-20.64759635925293,-113.91270446777344,65.68299865722656,211.83766174316406,-33.30000305175781,-10.350000381469727,-30.900001525878906
3.18,78.68304443359375,15.744270324707031,-18.502389907836914,-95.39356231689453,59.4211311340332,211.43797302246094,-32.400001525878906,-11.700000762939453,-29.55000114440918
3.19,79.14273071289062,13.177685737609863,-19.536685943603516,-90.99693298339844,67.68146514892578,206.5084228515625,-31.80000114440918,-11.550000190734863,-29.700000762939453
3.2,76.26969146728516,9.615114212036133,-18.579004287719727,-75.00918579101562,61.552833557128906,208.24041748046875,-34.20000076293945,-10.950000762939453,-28.05000114440918
3.21,75.15878295898438,8.044517517089844,-17.62132453918457,-64.48391723632812,60.48698043823242,210.77182006835938,-34.20000076293945,-10.950000762939453,-28.05000114440918
3.23,73.28172302246094,6.244078159332275,-17.42978858947754,-60.22052001953125,68.34762573242188,211.30474853515625,-34.20000076293945,-10.950000762939453,-28.05000114440918
3.233,70.83006286621094,6.01423454284668,-15.782577514648438,-54.4915771484375,54.4915771484375,232.88819885253906,-33.45000076293945,-14.40000057220459,-29.850000381469727
3.24,69.75746154785156,6.01423454284668,-11.070788383483887,-48.49617004394531,49.82848358154297,236.88514709472656,-35.55000305175781,-11.850000381469727,-28.650001525878906
3.25,68.95301055908203,4.137180328369141,-10.304644584655762,-38.77029037475586,43.16691970825195,241.68145751953125,-34.95000076293945,-15.600000381469727,-28.500001907348633
3.26,66.73119354248047,-0.689530074596405,-12.564770698547363,-35.972434997558594,43.43338394165039,229.15773010253906,-35.25,-16.5,-28.650001525878906
3.27,63.781532287597656,-8.006210327148438,-14.633360862731934,-28.77794647216797,38.77029037475586,218.0995330810547,-35.25,-16.5,-28.650001525878906
3.28,62.670623779296875,-13.48414421081543,-17.92778205871582,-34.64012145996094,50.09494400024414,210.63858032226562,-35.70000076293945,-17.100000381469727,-29.55000114440918
3.293,62.63231658935547,-16.318878173828125,-18.808849334716797,-57.955589294433594,53.69218826293945,202.511474609375,-35.400001525878906,-17.850000381469727,-28.05000114440918
3.3,62.32585906982422,-17.50640296936035,-16.778566360473633,-74.74272155761719,59.15467071533203,191.0535888671875,-35.55000305175781,-18.450000762939453,-28.200000762939453
3.31,61.36817932128906,-15.705963134765625,-16.35718536376953,-88.99846649169922,49.42878723144531,203.57733154296875,-34.95000076293945,-19.05000114440918,-27.750001907348633
3.32,61.17664337158203,-13.48414421081543,-15.591041564941406,-98.05818939208984,42.76722717285156,204.50994873046875,-34.95000076293945,-19.05000114440918,-27.750001907348633
3.33,59.29958724975586,-10.15141487121582,-16.395492553710938,-112.4471664428711,43.30015182495117,199.44715881347656,-34.95000076293945,-19.5,-28.05000114440918
3.35,60.60203170776367,-5.70777702331543,-15.974113464355469,-102.05513000488281,38.50382614135742,203.97702026367188,-35.400001525878906,-21.0,-27.750001907348633
3.354,59.10805130004883,-3.9839515686035156,-14.633360862731934,-77.94027709960938,30.110260009765625,195.1837615966797,-33.900001525878906,-22.5,-29.250001907348633
3.36,59.26128005981445,-3.869029998779297,-15.974113464355469,-66.61561584472656,28.77794647216797,200.77947998046875,-33.900001525878906,-22.5,-29.250001907348633
3.37,58.418521881103516,-5.592854976654053,-15.016432762145996,-45.298622131347656,18.2526798248291,192.25267028808594,-33.900001525878906,-22.5,-29.250001907348633
3.38,58.68667221069336,-8.848969459533691,-14.901511192321777,-29.977027893066406,8.39356803894043,189.1883544921875,-33.75,-23.55000114440918,-26.850000381469727
3.39,58.9548225402832,-8.96389102935791,-14.173673629760742,-25.447166442871094,3.597243309020996,184.1255645751953,-34.95000076293945,-23.25,-26.250001907348633
3.41,57.65237808227539,-10.342951774597168,-13.48414421081543,-20.91730499267578,12.25727367401123,175.0658416748047,-35.70000076293945,-22.5,-28.05000114440918
3.414,59.337894439697266,-9.078812599182129,-13.713987350463867,-24.914241790771484,2.797856092453003,165.87289428710938,-34.95000076293945,-25.650001525878906,-28.500001907348633
3.42,61.17664337158203,-7.738059997558594,-16.548721313476562,-16.387441635131836,1.5987749099731445,166.1393585205078,-34.95000076293945,-25.650001525878906,-28.500001907348633
3.43,60.33388137817383,-6.665457725524902,-16.778566360473633,-28.911178588867188,16.920366287231445,150.95098876953125,-35.70000076293945,-25.650001525878906,-27.750001907348633
3.44,60.48711013793945,-6.550535678863525,-19.038692474365234,-21.316997528076172,16.65390396118164,163.20826721191406,-34.650001525878906,-27.600000381469727,-25.200000762939453
3.45,61.29156494140625,-8.044517517089844,-18.04270362854004,-11.058192253112793,9.326186180114746,146.82083129882812,-36.30000305175781,-27.450000762939453,-26.850000381469727
3.47,65.69689178466797,-9.385271072387695,-15.24627685546875,0.2664624750614166,5.995405673980713,121.3736572265625,-36.30000305175781,-27.450000762939453,-26.850000381469727
3.473,66.8844223022461,-9.921571731567383,-13.867216110229492,9.192955017089844,4.529861927032471,69.94640350341797,-34.20000076293945,-27.600000381469727,-27.750001907348633
3.48,65.9267349243164,-4.290409564971924,-12.258312225341797,19.584991455078125,-1.3323123455047607,65.41653442382812,-34.20000076293945,-27.600000381469727,-27.750001907348633
3.49,65.96504211425781,-3.7158010005950928,-12.48815631866455,24.64777946472168,13.189892768859863,24.64777946472168,-34.95000076293945,-28.80000114440918,-27.000001907348633
3.5,64.0496826171875,-0.8810662031173706,-10.764330863952637,42.633995056152344,17.186830520629883,22.116384506225586,-34.20000076293945,-28.350000381469727,-27.000001907348633
3.51,61.253257751464844,3.44765043258667,-11.990161895751953,57.289432525634766,27.445634841918945,-0.9326186776161194,-34.20000076293945,-28.350000381469727,-27.000001907348633
3.531,66.27149963378906,3.6774938106536865,-5.20978307723999,90.33078002929688,25.7136287689209,-2.2649309635162354,-34.5,-29.700000762939453,-25.650001525878906
3.535,67.99533081054688,0.19153612852096558,0.1149216815829277,124.30474090576172,29.977027893066406,-28.77794647216797,-34.5,-30.150001525878906,-25.650001525878906
3.54,72.78372955322266,-10.113107681274414,1.4939818382263184,143.2235870361328,15.188361167907715,-48.22970962524414,-35.55000305175781,-29.250001907348633,-24.150001525878906
3.55,76.07815551757812,-15.974113464355469,0.3447650372982025,167.0719757080078,18.78560447692871,-72.0781021118164,-35.55000305175781,-29.250001907348633,-24.150001525878906
3.56,81.97746276855469,-27.849353790283203,-4.022258758544922,162.80857849121094,14.255742073059082,-81.93721008300781,-35.55000305175781,-29.250001907348633,-24.150001525878906
3.57,83.01176452636719,-35.31926345825195,-6.703764915466309,147.8866729736328,25.580398559570312,-112.04747009277344,-34.95000076293945,-29.55000114440918,-25.500001907348633
3.59,85.92311096191406,-42.21456527709961,-10.572794914245605,130.03369140625,35.705970764160156,-122.43950653076172,-36.150001525878906,-31.500001907348633,-26.250001907348633
3.593,88.37477111816406,-45.08760452270508,-10.611102104187012,98.85757446289062,44.63246536254883,-145.35528564453125,-34.80000305175781,-31.200000762939453,-24.150001525878906
3.6,91.01797485351562,-41.25688552856445,-11.377246856689453,96.8591079711914,30.110260009765625,-140.42572021484375,-34.80000305175781,-31.200000762939453,-24.150001525878906
3.61,93.8910140991211,-36.54509353637695,-10.457873344421387,85.80091857910156,38.50382614135742,-153.48239135742188,-36.150001525878906,-31.500001907348633,-24.750001907348633
3.62,96.87897491455078,-28.807035446166992,-9.423578262329102,91.52986145019531,32.37519073486328,-151.6171417236328,-36.30000305175781,-30.150001525878906,-24.600000381469727
3.63,100.93954467773438,-21.528661727905273,-6.971915245056152,108.050537109375,9.059723854064941,-138.16079711914062,-36.45000076293945,-29.850000381469727,-24.450000762939453
3.65,101.82061004638672,-14.939818382263184,-3.2561142444610596,123.9050521850586,2.131699800491333,-142.4241943359375,-36.150001525878906,-28.80000114440918,-24.0
3.653,103.77427673339844,-11.30063247680664,0.3447650372982025,154.41500854492188,-21.316997528076172,-144.2894287109375,-36.150001525878906,-28.80000114440918,-24.0
3.66,104.31057739257812,-9.576807022094727,4.596867084503174,177.33078002929688,-37.4379768371582,-142.15773010253906,-36.75,-28.200000762939453,-23.55000114440918
3.67,105.15333557128906,-11.798625946044922,7.010222434997559,204.11026000976562,-51.560489654541016,-147.22052001953125,-35.70000076293945,-29.100000381469727,-23.700000762939453
3.68,107.22193145751953,-13.713987350463867,9.155426979064941,210.50535583496094,-62.085758209228516,-154.41500854492188,-36.75,-27.750001907348633,-23.55000114440918
3.69,105.91948699951172,-18.387468338012695,9.232041358947754,210.63858032226562,-76.60796356201172,-158.27871704101562,-37.5,-28.200000762939453,-23.55000114440918
3.71,107.79653930664062,-22.83110809326172,9.27034854888916,209.03981018066406,-96.99234008789062,-180.12863159179688,-37.5,-28.200000762939453,-23.55000114440918
3.714,110.01835632324219,-28.807035446166992,7.508216381072998,185.4578857421875,-94.86064147949219,-196.915771484375,-36.0,-27.450000762939453,-22.350000381469727
3.72,111.58895111083984,-32.9442138671875,7.7763671875,175.33230590820312,-108.84992218017578,-214.10260009765625,-36.45000076293945,-28.80000114440918,-23.700000762939453
3.73,113.08293151855469,-32.40791320800781,6.856993675231934,150.95098876953125,-122.3062744140625,-222.4961700439453,-37.5,-27.000001907348633,-23.850000381469727
3.74,110.47804260253906,-30.26270866394043,4.098873138427734,112.84685516357422,-118.04287719726562,-239.5497589111328,-37.20000076293945,-26.400001525878906,-23.25
3.75,108.56268310546875,-29.4582576751709,2.3750481605529785,70.61255645751953,-107.65084075927734,-265.3966369628906,-37.20000076293945,-26.400001525878906,-23.25
3.77,107.14531707763672,-23.52063751220703,-0.3447650372982025,40.502296447753906,-107.11791229248047,-266.3292541503906,-37.05000305175781,-25.500001907348633,-25.350000381469727
3.774,106.14933013916016,-17.276559829711914,-4.596867084503174,12.390504837036133,-98.85757446289062,-258.8682861328125,-36.900001525878906,-24.150001525878906,-25.200000762939453
3.78,101.6673812866211,-8.197746276855469,-7.546523571014404,-5.995405673980713,-84.86830139160156,-253.2725830078125,-37.5,-23.55000114440918,-24.150001525878906
3.79,100.90123748779297,-2.7964274883270264,-9.768342971801758,-6.128636837005615,-81.40428924560547,-243.28024291992188,-37.05000305175781,-23.55000114440918,-25.350000381469727
3.8,96.03621673583984,4.137180328369141,-11.60708999633789,0.0,-69.67993927001953,-226.09341430664062,-37.05000305175781,-23.55000114440918,-25.350000381469727
3.81,91.32443237304688,8.504204750061035,-14.441824913024902,19.052066802978516,-63.950992584228516,-210.50535583496094,-36.0,-21.150001525878906,-27.900001525878906
3.83,89.02599334716797,10.113107681274414,-13.254301071166992,26.113323211669922,-54.35834503173828,-200.91270446777344,-36.45000076293945,-21.0,-25.500001907348633
3.834,85.19527435302734,9.768342971801758,-13.867216110229492,56.756507873535156,-54.89126968383789,-186.3905029296875,-36.45000076293945,-21.450000762939453,-25.80000114440918
3.84,78.79796600341797,11.875240325927734,-14.135366439819336,77.54058074951172,-61.41960144042969,-175.33230590820312,-35.55000305175781,-20.400001525878906,-23.850000381469727
3.85,76.15476989746094,13.10107135772705,-13.675680160522461,92.3292465209961,-69.14701080322266,-158.14547729492188,-35.55000305175781,-20.400001525878906,-23.850000381469727
3.86,72.24742889404297,10.5344877243042,-12.48815631866455,98.05818939208984,-71.01225280761719,-160.2771759033203,-35.25,-18.900001525878906,-25.650001525878906
3.87,66.84611511230469,8.121131896972656,-9.615114212036133,102.05513000488281,-77.80704498291016,-145.6217498779297,-36.150001525878906,-20.55000114440918,-26.55000114440918
3.89,62.057708740234375,6.627150535583496,-8.312667846679688,104.7197494506836,-87.39968872070312,-136.82847595214844,-36.45000076293945,-17.100000381469727,-26.55000114440918
3.894,58.112064361572266,4.903325080871582,-7.010222434997559,89.5313949584961,-79.80551147460938,-134.43031311035156,-35.70000076293945,-16.80000114440918,-26.55000114440918
3.9,54.62610626220703,4.405331134796143,-6.244078159332275,77.4073486328125,-81.8039779663086,-147.35374450683594,-35.70000076293945,-16.80000114440918,-26.55000114440918
3.91,54.281341552734375,3.8307228088378906,-5.20978307723999,76.20826721191406,-94.19448852539062,-126.96936798095703,-35.55000305175781,-16.5,-27.150001525878906
3.92,52.51920700073242,4.9799394607543945,-5.324704647064209,54.4915771484375,-90.33078002929688,-117.77641296386719,-35.70000076293945,-17.55000114440918,-27.30000114440918
3.93,51.52322006225586,5.094861030578613,-4.596867084503174,33.97396469116211,-90.73047637939453,-133.89739990234375,-35.400001525878906,-16.350000381469727,-28.05000114440918
3.95,51.02522659301758,5.094861030578613,-3.600879430770874,27.978559494018555,-98.99080657958984,-130.03369140625,-35.25,-17.700000762939453,-27.450000762939453
3.953,51.29337692260742,4.022258758544922,-3.179499864578247,20.650842666625977,-97.65850067138672,-130.43338012695312,-35.25,-17.700000762939453,-27.450000762939453
3.96,50.37400436401367,2.604891538619995,-2.5282769203186035,3.9969370365142822,-92.99540710449219,-138.16079711914062,-34.650001525878906,-16.80000114440918,-28.80000114440918
3.97,50.029239654541016,1.1492167711257935,-0.49799394607543945,-9.326186180114746,-98.4578857421875,-145.6217498779297,-33.900001525878906,-15.90000057220459,-31.350000381469727
3.98,48.4969482421875,1.4939818382263184,-2.5665841102600098,-7.06125545501709,-107.11791229248047,-139.35987854003906,-33.75,-15.450000762939453,-29.700000762939453
3.99,47.845726013183594,3.026270866394043,-2.3367409706115723,-20.117916107177734,-105.25267791748047,-138.2940216064453,-34.650001525878906,-14.100000381469727,-29.55000114440918
4.01,46.35174560546875,5.822698593139648,-2.6815059185028076,-24.781009674072266,-108.18376159667969,-138.2940216064453,-34.650001525878906,-14.100000381469727,-29.55000114440918
4.014,45.04929733276367,5.70777702331543,-2.9879636764526367,-23.04900360107422,-110.58192443847656,-151.6171417236328,-33.150001525878906,-14.100000381469727,-30.30000114440918
4.02,44.704532623291016,8.197746276855469,-5.018246650695801,-24.248085021972656,-107.91730499267578,-151.2174530029297,-32.55000305175781,-12.750000953674316,-31.200000762939453
4.03,46.313438415527344,8.65743350982666,-4.63517427444458,-38.10413360595703,-100.58958435058594,-156.14700317382812,-32.70000076293945,-12.450000762939453,-31.05000114440918
4.04,49.18648147583008,9.998186111450195,-4.290409564971924,-42.500762939453125,-92.19601440429688,-152.1500701904297,-33.0,-12.300000190734863,-31.950000762939453
4.05,53.055511474609375,11.760318756103516,-6.703764915466309,-53.159263610839844,-92.3292465209961,-140.5589599609375,-33.0,-12.300000190734863,-31.950000762939453
4.07,55.54547882080078,13.522451400756836,-8.121131896972656,-57.422664642333984,-90.86370086669922,-146.42112731933594,-33.150001525878906,-9.75,-32.55000305175781
4.073,59.41450881958008,15.24627685546875,-8.465897560119629,-65.81623077392578,-90.99693298339844,-132.56507873535156,-31.05000114440918,-10.050000190734863,-33.75
4.08,61.023414611816406,18.004396438598633,-12.832921028137207,-69.94640350341797,-88.46553802490234,-124.8376693725586,-30.900001525878906,-9.450000762939453,-32.55000305175781
4.09,61.48310089111328,19.460071563720703,-16.35718536376953,-69.14701080322266,-71.67840576171875,-116.84379577636719,-30.750001907348633,-9.15000057220459,-33.45000076293945
4.1,62.13432312011719,23.367408752441406,-19.613300323486328,-77.67381286621094,-59.95405578613281,-129.36753845214844,-30.750001907348633,-9.15000057220459,-33.45000076293945
4.11,62.74723815917969,25.321077346801758,-22.103269577026367,-77.94027709960938,-38.23736572265625,-94.32771301269531,-29.55000114440918,-7.650000095367432,-33.75
4.13,63.398460388183594,28.040889739990234,-24.631547927856445,-65.15007781982422,-39.43644714355469,-78.3399658203125,-29.55000114440918,-6.450000286102295,-33.45000076293945
4.134,66.61626434326172,27.925968170166016,-25.81907081604004,-57.15620040893555,-22.382848739624023,-66.21592712402344,-30.150001525878906,-5.100000381469727,-33.60000228881836
4.14,73.77971649169922,31.60346221923828,-27.044902801513672,-58.62174606323242,-15.188361167907715,-66.74884796142578,-29.400001525878906,-5.550000190734863,-32.85000228881836
4.15,76.38461303710938,32.982521057128906,-26.891674041748047,-57.822357177734375,-13.456355094909668,-54.22511291503906,-29.400001525878906,-5.550000190734863,-32.85000228881836
4.16,80.44517517089844,35.47249221801758,-29.803022384643555,-53.69218826293945,-13.989279747009277,-30.24349021911621,-28.650001525878906,-5.550000190734863,-33.900001525878906
4.17,78.989501953125,38.613685607910156,-33.44221115112305,-52.626338958740234,-1.7320060729980469,-11.857580184936523,-30.150001525878906,-3.6000001430511475,-34.35000228881836
4.19,77.68705749511719,39.762901306152344,-35.702335357666016,-40.36906433105469,10.658498764038086,16.78713607788086,-29.250001907348633,-4.200000286102295,-34.5
4.193,81.21131896972656,37.617698669433594,-39.226600646972656,-31.575803756713867,26.246553421020508,33.84073257446289,-29.400001525878906,-4.800000190734863,-33.30000305175781
4.2,85.46342468261719,36.8132438659668,-40.60565948486328,-19.31852912902832,23.182235717773438,49.82848358154297,-29.400001525878906,-4.800000190734863,-33.30000305175781
4.21,84.81220245361328,35.28095626831055,-40.22258758544922,-19.584991455078125,35.839202880859375,67.41500854492188,-28.650001525878906,-5.100000381469727,-32.55000305175781
4.22,79.37257385253906,34.20835494995117,-37.694313049316406,-17.852985382080078,36.905052185058594,96.72587585449219,-28.950000762939453,-4.800000190734863,-33.30000305175781
4.23,76.537841796875,33.365596771240234,-34.62973403930664,-1.3323123455047607,36.771820068359375,115.11178588867188,-29.700000762939453,-4.350000381469727,-33.60000228881836
4.25,78.64473724365234,32.75267791748047,-28.38565444946289,0.1332312375307083,33.57427215576172,121.64012145996094,-29.700000762939453,-4.350000381469727,-33.60000228881836
4.253,81.74761962890625,29.84132957458496,-26.85336685180664,-5.062787055969238,34.10719680786133,143.62327575683594,-28.80000114440918,-6.900000095367432,-33.75
4.26,84.42913055419922,23.02264404296875,-28.38565444946289,0.1332312375307083,32.5084228515625,144.82235717773438,-28.80000114440918,-6.900000095367432,-33.75
4.27,84.16098022460938,17.8128604888916,-28.423961639404297,-6.794793128967285,44.89892578125,154.9479217529297,-30.000001907348633,-6.450000286102295,-32.70000076293945
4.28,83.96944427490234,12.02846908569336,-27.849353790283203,-26.113323211669922,58.222049713134766,151.35069274902344,-29.400001525878906,-6.300000190734863,-32.85000228881836
4.29,89.40906524658203,4.8267107009887695,-26.891674041748047,-33.97396469116211,65.68299865722656,147.8866729736328,-29.400001525878906,-6.300000190734863,-32.85000228881836
4.31,97.98988342285156,2.1068975925445557,-24.861391067504883,-47.830013275146484,72.47779083251953,147.8866729736328,-30.750001907348633,-6.900000095367432,-32.70000076293945
4.314,104.46380615234375,1.4939818382263184,-24.823083877563477,-99.92343139648438,89.5313949584961,155.34762573242188,-32.25,-7.650000095367432,-32.25
4.32,98.29634857177734,3.6774938106536865,-28.040889739990234,-118.17610931396484,91.26339721679688,158.81163024902344,-32.25,-7.650000095367432,-32.25
4.33,92.0522689819336,8.044517517089844,-30.224401473999023,-129.50076293945312,98.99080657958984,164.00765991210938,-31.80000114440918,-8.40000057220459,-33.0
4.34,85.5400390625,11.836933135986328,-29.879636764526367,-131.23277282714844,109.38284301757812,182.92648315429688,-31.80000114440918,-8.40000057220459,-33.0
4.35,86.91909790039062,15.169661521911621,-22.562957763671875,-142.95712280273438,118.57579803466797,195.5834503173828,-32.70000076293945,-9.450000762939453,-29.850000381469727
4.37,93.69947814941406,17.851167678833008,-17.391481399536133,-151.75038146972656,106.4517593383789,214.63552856445312,-31.950000762939453,-7.800000190734863,-30.30000114440918
4.374,97.33866119384766,17.31486701965332,-18.310853958129883,-152.81622314453125,100.45635223388672,215.7013702392578,-33.900001525878906,-8.700000762939453,-29.55000114440918
4.38,95.95960235595703,8.389283180236816,-18.962078094482422,-150.151611328125,90.59724426269531,195.1837615966797,-33.900001525878906,-8.700000762939453,-29.55000114440918
4.39,96.3809814453125,4.175487995147705,-20.76251792907715,-159.3445587158203,76.87442779541016,207.30780029296875,-33.900001525878906,-8.700000762939453,-29.55000114440918
4.4,95.1934585571289,0.8044517636299133,-23.175872802734375,-172.00152587890625,82.7365951538086,218.36599731445312,-33.75,-11.550000190734863,-28.650001525878906
4.41,94.15916442871094,1.5322890281677246,-25.052927017211914,-179.595703125,78.87289428710938,239.1500701904297,-33.75,-9.600000381469727,-31.500001907348633
4.43,91.4776611328125,4.022258758544922,-24.095245361328125,-192.25267028808594,85.80091857910156,243.81317138671875,-33.30000305175781,-10.350000381469727,-28.650001525878906
4.433,85.5783462524414,8.772355079650879,-23.712173461914062,-183.85910034179688,77.14088439941406,263.66461181640625,-34.95000076293945,-10.5,-28.80000114440918
4.44,78.14674377441406,10.879252433776855,-23.482330322265625,-172.2679901123047,67.814697265625,280.4517517089844,-34.95000076293945,-10.5,-28.80000114440918
4.45,75.46524047851562,9.576807022094727,-20.83913230895996,-170.26951599121094,63.950992584228516,278.4532775878906,-34.80000305175781,-11.100000381469727,-28.200000762939453
4.46,69.71915435791016,12.143390655517578,-19.306842803955078,-147.75344848632812,63.950992584228516,280.3185119628906,-36.0,-13.800000190734863,-26.400001525878906
4.47,64.0879898071289,10.113107681274414,-18.310853958129883,-115.11178588867188,54.22511291503906,286.9800720214844,-35.25,-14.550000190734863,-26.850000381469727
4.49,59.83588790893555,10.84094524383545,-17.391481399536133,-87.53292083740234,43.03369140625,275.9219055175781,-35.25,-14.550000190734863,-26.850000381469727
4.494,55.315635681152344,12.258312225341797,-16.66364288330078,-52.626338958740234,37.97090148925781,271.9249572753906,-34.650001525878906,-16.350000381469727,-25.80000114440918
4.5,51.94459915161133,9.155426979064941,-15.131354331970215,-42.633995056152344,45.96477508544922,273.1240234375,-36.900001525878906,-16.350000381469727,-27.000001907348633
4.51,50.642154693603516,9.117119789123535,-13.445837020874023,-27.17917251586914,41.967838287353516,269.2603454589844,-36.30000305175781,-16.5,-27.150001525878906
4.52,47.99895477294922,5.5545477867126465,-10.15141487121582,-22.649311065673828,48.76263427734375,265.2633972167969,-34.95000076293945,-19.5,-26.55000114440918
4.53,45.81544494628906,3.6774938106536865,-9.078812599182129,-7.460949420928955,51.027565002441406,254.33843994140625,-34.95000076293945,-19.5,-26.55000114440918
4.55,47.46265411376953,1.4173674583435059,-10.457873344421387,5.995405673980713,49.69525146484375,243.28024291992188,-37.05000305175781,-19.650001525878906,-25.350000381469727
4.554,50.757076263427734,-3.2178070545196533,-10.304644584655762,1.9984685182571411,55.82388687133789,217.03369140625,-36.900001525878906,-20.25,-25.200000762939453
4.561,57.499149322509766,-6.856993675231934,-9.576807022094727,2.2649309635162354,51.693721771240234,193.05206298828125,-35.400001525878906,-20.55000114440918,-24.450000762939453
4.57,57.307613372802734,-7.661445617675781,-8.427590370178223,-14.388973236083984,41.568145751953125,182.92648315429688,-36.150001525878906,-21.450000762939453,-26.250001907348633
4.58,59.452816009521484,-12.143390655517578,-9.461885452270508,-22.915773391723633,34.24042892456055,150.81776428222656,-36.150001525878906,-21.450000762939453,-26.250001907348633
4.59,60.87018585205078,-12.066776275634766,-7.4316020011901855,-52.226646423339844,37.70444107055664,145.35528564453125,-36.0,-23.100000381469727,-26.100000381469727
4.612,61.40648651123047,-11.760318756103516,-10.611102104187012,-72.0781021118164,25.980091094970703,128.16845703125,-36.150001525878906,-24.900001525878906,-25.80000114440918
4.615,61.36817932128906,-5.746084213256836,-12.334927558898926,-88.06584930419922,29.7105655670166,144.95558166503906,-36.0,-21.900001525878906,-24.150001525878906
4.62,62.862159729003906,-0.6512228846549988,-18.081010818481445,-91.3966293334961,37.57120895385742,126.83613586425781,-35.400001525878906,-23.25,-24.750001907348633
4.63,62.2109375,2.0685901641845703,-18.387468338012695,-66.882080078125,49.16232681274414,124.17151641845703,-35.400001525878906,-23.25,-24.750001907348633
4.64,60.678646087646484,-0.2298433631658554,-19.19192123413086,-43.69984436035156,50.4946403503418,119.5084228515625,-36.150001525878906,-23.700000762939453,-24.750001907348633
4.65,62.8238525390625,-4.367023944854736,-17.889474868774414,-15.588054656982422,45.831546783447266,104.7197494506836,-35.55000305175781,-24.30000114440918,-24.150001525878906
4.67,65.04566955566406,-8.006210327148438,-17.31486701965332,-4.396630764007568,33.17457962036133,109.64930725097656,-36.0,-25.05000114440918,-24.150001525878906
4.674,66.76950073242188,-10.228029251098633,-14.901511192321777,-12.124042510986328,25.04747200012207,73.67687225341797,-36.45000076293945,-24.900001525878906,-23.25
4.68,66.5013427734375,-6.703764915466309,-13.713987350463867,1.4655436277389526,20.784072875976562,89.39816284179688,-36.45000076293945,-24.900001525878906,-23.25
4.69,65.42874145507812,-0.689530074596405,-11.951854705810547,5.8621745109558105,4.130168437957764,87.39968872070312,-35.25,-25.80000114440918,-24.600000381469727
4.7,63.51338195800781,5.937620162963867,-10.572794914245605,19.052066802978516,1.7320060729980469,94.19448852539062,-36.900001525878906,-25.200000762939453,-23.700000762939453
4.71,64.6242904663086,10.189722061157227,-8.08282470703125,38.77029037475586,3.4640121459960938,89.5313949584961,-35.55000305175781,-26.55000114440918,-24.900001525878906
4.73,68.22517395019531,8.542511940002441,-5.439626216888428,78.3399658203125,-2.2649309635162354,94.19448852539062,-34.05000305175781,-25.05000114440918,-23.55000114440918
4.733,70.29376220703125,-1.723825216293335,-3.5625722408294678,95.79325866699219,-3.3307809829711914,65.016845703125,-34.05000305175781,-25.05000114440918,-23.55000114440918
4.74,74.96724700927734,-20.494365692138672,2.0685901641845703,112.58039855957031,0.6661561727523804,52.89280319213867,-36.150001525878906,-26.400001525878906,-22.950000762939453
4.75,77.30398559570312,-28.768728256225586,4.63517427444458,126.16998291015625,-13.056661605834961,15.45482349395752,-34.95000076293945,-27.150001525878906,-24.0
4.76,79.52580261230469,-38.19230651855469,4.520252704620361,120.30780792236328,-13.58958625793457,-17.186830520629883,-36.150001525878906,-27.900001525878906,-23.25
4.77,85.27188873291016,-42.71255874633789,5.70777702331543,90.19754791259766,-4.263399600982666,-38.77029037475586,-34.05000305175781,-28.950000762939453,-23.100000381469727
4.79,89.29414367675781,-48.42033386230469,7.4316020011901855,66.61561584472656,-7.72741174697876,-79.2725830078125,-34.05000305175781,-28.950000762939453,-23.100000381469727
4.794,91.86073303222656,-50.83369064331055,6.090848922729492,26.779478073120117,-25.18070411682129,-112.98008728027344,-34.650001525878906,-28.350000381469727,-24.0
4.8,92.43534088134766,-48.956634521484375,0.9959878921508789,8.260336875915527,-20.517610549926758,-132.0321502685547,-34.650001525878906,-27.900001525878906,-22.200000762939453
4.81,92.55026245117188,-45.470680236816406,-1.9919757843017578,-25.846860885620117,-17.186830520629883,-151.48391723632812,-35.400001525878906,-27.150001525878906,-22.950000762939453
4.82,93.50794219970703,-34.20835494995117,-5.056553840637207,-24.51454734802246,-25.04747200012207,-160.94332885742188,-36.30000305175781,-26.55000114440918,-22.80000114440918
4.83,95.88298797607422,-23.865402221679688,-6.435614109039307,-17.186830520629883,-23.581928253173828,-139.09341430664062,-36.30000305175781,-26.55000114440918,-22.80000114440918
4.85,98.33465576171875,-11.72201156616211,-5.631162166595459,2.398162364959717,-13.856048583984375,-148.55282592773438,-35.400001525878906,-24.900001525878906,-23.700000762939453
4.854,99.75202178955078,-2.4899697303771973,-6.933608055114746,59.15467071533203,-11.191424369812012,-149.61868286132812,-34.05000305175781,-23.100000381469727,-23.850000381469727
4.86,104.1190414428711,3.754108190536499,-5.056553840637207,101.65543365478516,-21.316997528076172,-140.82542419433594,-35.25,-25.500001907348633,-23.850000381469727
4.87,106.80055236816406,5.094861030578613,-3.2178070545196533,150.81776428222656,-35.306278228759766,-149.88514709472656,-34.5,-25.80000114440918,-22.80000114440918
4.88,109.67359161376953,3.2178070545196533,-0.7661445140838623,178.26339721679688,-35.57273864746094,-160.6768798828125,-34.5,-25.80000114440918,-22.80000114440918
4.89,111.24418640136719,-1.8770540952682495,-0.5363011956214905,211.83766174316406,-49.56201934814453,-165.07350158691406,-35.55000305175781,-24.750001907348633,-23.850000381469727
4.91,111.09095764160156,-7.814674377441406,-1.4173674583435059,226.89279174804688,-55.55742645263672,-163.34149169921875,-36.0,-23.100000381469727,-23.55000114440918
4.914,113.08293151855469,-14.748282432556152,-0.5746083855628967,221.03062438964844,-55.4241943359375,-169.73660278320312,-34.5,-25.05000114440918,-23.100000381469727
4.92,113.23616027832031,-24.36339569091797,-0.9193734526634216,213.9693603515625,-53.29249572753906,-194.51760864257812,-34.95000076293945,-24.900001525878906,-22.5
4.93,112.5083236694336,-28.07919692993164,-0.8810662031173706,203.97702026367188,-70.07962799072266,-195.983154296875,-34.95000076293945,-24.900001525878906,-22.5
4.94,111.70387268066406,-30.722396850585938,0.7661445140838623,178.39662170410156,-78.87289428710938,-222.62939453125,-34.95000076293945,-24.450000762939453,-23.25
4.95,109.82682037353516,-31.7183837890625,1.4939818382263184,142.4241943359375,-80.33843994140625,-240.0826873779297,-36.30000305175781,-24.750001907348633,-23.100000381469727
4.97,108.2179183959961,-27.811046600341797,2.2218191623687744,106.31852722167969,-98.05818939208984,-237.2848358154297,-34.95000076293945,-22.200000762939453,-24.450000762939453
4.974,104.65534210205078,-23.482330322265625,0.1149216815829277,63.551300048828125,-101.12251281738281,-251.67381286621094,-36.0,-23.100000381469727,-24.900001525878906
4.98,97.87496185302734,-14.786589622497559,-5.51624059677124,45.69831466674805,-90.86370086669922,-251.67381286621094,-36.0,-23.100000381469727,-24.900001525878906
4.99,94.12085723876953,-11.185709953308105,-7.661445617675781,31.042879104614258,-84.06890869140625,-241.68145751953125,-33.900001525878906,-21.450000762939453,-24.750001907348633
5.0,87.91508483886719,-5.669469833374023,-9.768342971801758,20.650842666625977,-76.07503509521484,-233.68759155273438,-35.25,-21.150001525878906,-24.600000381469727
5.01,82.5137710571289,0.1149216815829277,-12.22000503540039,21.983154296875,-67.28177642822266,-216.2342987060547,-33.45000076293945,-19.05000114440918,-24.450000762939453
5.031,78.29997253417969,5.822698593139648,-12.411541938781738,27.445634841918945,-57.422664642333984,-205.5758056640625,-35.400001525878906,-19.5,-25.500001907348633
5.035,73.93294525146484,11.683704376220703,-12.373234748840332,60.22052001953125,-55.69065856933594,-183.5926513671875,-33.75,-19.5,-25.500001907348633
5.041,70.14053344726562,14.441824913024902,-9.730035781860352,74.8759536743164,-60.35375213623047,-178.92955017089844,-33.75,-18.900001525878906,-24.600000381469727
5.05,67.38241577148438,14.36521053314209,-9.385271072387695,92.59571075439453,-59.02143859863281,-170.8024444580078,-34.95000076293945,-17.100000381469727,-26.250001907348633
5.06,66.11827087402344,12.143390655517578,-5.056553840637207,104.5865249633789,-68.34762573242188,-169.20367431640625,-33.900001525878906,-17.100000381469727,-26.250001907348633
5.07,63.24523162841797,9.155426979064941,-2.6815059185028076,128.83460998535156,-86.46707153320312,-158.9448699951172,-34.650001525878906,-15.90000057220459,-27.000001907348633
5.09,60.44880294799805,7.240066051483154,-1.7621324062347412,129.90045166015625,-98.99080657958984,-164.4073486328125,-34.650001525878906,-15.90000057220459,-27.000001907348633
5.093,55.507171630859375,4.175487995147705,-1.0342950820922852,121.77335357666016,-101.9218978881836,-160.6768798828125,-34.95000076293945,-16.80000114440918,-27.000001907348633
5.1,51.44660568237305,-0.9576807022094727,-0.9576807022094727,122.57273864746094,-104.85298156738281,-164.4073486328125,-34.650001525878906,-14.850000381469727,-27.750001907348633
5.11,49.837703704833984,-1.6855180263519287,-0.9959878921508789,108.3169937133789,-108.58345794677734,-167.2052001953125,-33.30000305175781,-15.750000953674316,-27.150001525878906
5.12,47.50096130371094,-2.6815059185028076,-0.1149216815829277,89.93108367919922,-102.05513000488281,-175.865234375,-33.30000305175781,-15.750000953674316,-27.150001525878906
5.13,45.66221618652344,-2.9496564865112305,-0.49799394607543945,73.14395141601562,-106.05206298828125,-176.9310760498047,-33.30000305175781,-15.750000953674316,-27.150001525878906
5.15,44.35976791381836,-3.179499864578247,0.38307225704193115,68.88054656982422,-111.64777374267578,-175.7320098876953,-31.80000114440918,-14.250000953674316,-28.200000762939453
5.153,43.24885940551758,-1.800439715385437,-0.3447650372982025,47.0306282043457,-117.50994873046875,-179.86216735839844,-32.55000305175781,-13.800000190734863,-30.150001525878906
5.16,42.40610122680664,-2.604891538619995,2.5282769203186035,34.10719680786133,-119.24195861816406,-194.117919921875,-32.55000305175781,-13.800000190734863,-30.150001525878906
5.17,41.90810775756836,-3.600879430770874,2.3750481605529785,6.5283308029174805,-122.57273864746094,-191.9862060546875,-32.55000305175781,-13.800000190734863,-30.150001525878906
5.18,40.79719543457031,-1.9153614044189453,2.451662540435791,-23.182235717773438,-136.9617156982422,-187.4563446044922,-30.000001907348633,-13.800000190734863,-30.150001525878906
5.19,38.2689208984375,-0.8427590131759644,-0.4213795065879822,-63.551300048828125,-133.49769592285156,-184.92495727539062,-31.500001907348633,-12.300000190734863,-30.150001525878906
5.21,37.46446990966797,-0.8427590131759644,-1.9536685943603516,-93.52832794189453,-137.49464416503906,-168.40428161621094,-29.400001525878906,-10.950000762939453,-31.05000114440918
5.213,36.88985824584961,2.8347349166870117,-4.596867084503174,-123.50535583496094,-123.2388916015625,-179.4624786376953,-31.05000114440918,-10.350000381469727,-31.200000762939453
5.22,40.29920196533203,8.772355079650879,-2.3750481605529785,-122.3062744140625,-133.36447143554688,-175.46554565429688,-31.05000114440918,-10.350000381469727,-31.200000762939453
5.23,43.93838882446289,11.262324333190918,-0.49799394607543945,-134.29708862304688,-135.22970581054688,-172.93414306640625,-30.000001907348633,-9.15000057220459,-31.500001907348633
5.24,47.50096130371094,17.966089248657227,-2.1068975925445557,-138.02755737304688,-127.90198516845703,-170.53598022460938,-28.950000762939453,-7.500000476837158,-32.85000228881836
5.25,49.224788665771484,23.865402221679688,-5.51624059677124,-114.84532928466797,-134.43031311035156,-153.0826873779297,-28.200000762939453,-5.850000381469727,-33.900001525878906
5.27,51.59983444213867,29.190107345581055,-7.546523571014404,-105.25267791748047,-126.03675079345703,-152.41653442382812,-28.950000762939453,-5.550000190734863,-31.05000114440918
5.274,55.507171630859375,31.258697509765625,-11.568782806396484,-74.60948944091797,-125.63705444335938,-136.29556274414062,-26.250001907348633,-4.950000286102295,-34.95000076293945
5.28,65.77350616455078,33.90189743041992,-18.004396438598633,-72.61102294921875,-118.57579803466797,-134.96324157714844,-26.250001907348633,-4.950000286102295,-34.95000076293945
5.29,71.74943542480469,34.09343338012695,-22.524648666381836,-65.15007781982422,-103.92036437988281,-124.57120513916016,-24.900001525878906,-5.850000381469727,-32.10000228881836
5.3,78.3382797241211,34.93619155883789,-32.369606018066406,-60.88667678833008,-68.88054656982422,-110.98162078857422,-24.750001907348633,-3.750000238418579,-33.45000076293945
5.31,85.42511749267578,35.16603469848633,-42.44440841674805,-63.28483963012695,-24.381317138671875,-95.12710571289062,-25.80000114440918,-2.700000047683716,-34.95000076293945
5.331,88.25984954833984,36.58340072631836,-44.78114700317383,-40.23583221435547,-14.255742073059082,-77.27411651611328,-25.80000114440918,-2.700000047683716,-34.95000076293945
5.335,84.85050964355469,37.77092742919922,-42.7508659362793,15.321592330932617,12.656967163085938,-37.83767318725586,-22.5,-3.450000047683716,-34.5
5.341,79.48749542236328,40.107666015625,-46.46666717529297,39.03675079345703,24.381317138671875,-30.110260009765625,-22.5,-3.450000047683716,-34.5
5.35,81.4028549194336,40.52904510498047,-45.62390899658203,82.6033706665039,39.16998291015625,-4.796324729919434,-23.55000114440918,-0.30000001192092896,-34.20000076293945
5.36,86.91909790039062,40.03105163574219,-38.57537841796875,94.72740936279297,36.5053596496582,13.056661605834961,-24.900001525878906,-2.8500001430511475,-33.30000305175781
5.37,94.84869384765625,36.66001510620117,-32.82929229736328,89.39816284179688,31.575803756713867,20.251148223876953,-24.900001525878906,-2.8500001430511475,-33.30000305175781
5.39,100.70970153808594,29.305028915405273,-31.335311889648438,58.355281829833984,20.91730499267578,36.372127532958984,-23.400001525878906,-2.4000000953674316,-33.60000228881836
5.393,108.67760467529297,20.034679412841797,-35.74064254760742,-17.186830520629883,16.78713607788086,67.28177642822266,-24.750001907348633,-3.750000238418579,-33.75
5.4,105.11502838134766,13.139378547668457,-43.24885940551758,-52.89280319213867,24.381317138671875,71.14547729492188,-25.200000762939453,-3.750000238418579,-33.75
5.41,95.88298797607422,13.675680160522461,-47.38603973388672,-83.00305938720703,36.238895416259766,95.79325866699219,-25.200000762939453,-3.6000001430511475,-32.85000228881836
5.42,90.55828857421875,15.552734375,-51.33168411254883,-68.61408996582031,53.82542037963867,115.64471435546875,-25.200000762939453,-3.6000001430511475,-32.85000228881836
5.43,92.93333435058594,19.919757843017578,-47.19450378417969,-69.54670715332031,56.49004364013672,132.43185424804688,-24.900001525878906,-4.800000190734863,-33.60000228881836
5.45,100.4798583984375,26.31706428527832,-41.180267333984375,-77.54058074951172,69.94640350341797,145.2220458984375,-26.700000762939453,-4.050000190734863,-32.55000305175781
5.454,104.1573486328125,27.657817840576172,-41.71657180786133,-93.39509582519531,72.61102294921875,146.9540557861328,-25.80000114440918,-5.400000095367432,-32.25
5.46,105.57471466064453,22.256498336791992,-40.22258758544922,-103.92036437988281,78.60643005371094,156.81317138671875,-25.80000114440918,-5.400000095367432,-32.25
5.47,103.08474731445312,19.574993133544922,-39.18829345703125,-118.17610931396484,86.46707153320312,151.75038146972656,-26.400001525878906,-4.800000190734863,-31.350000381469727
5.48,97.18543243408203,18.310853958129883,-39.341522216796875,-118.8422622680664,91.3966293334961,153.882080078125,-27.900001525878906,-5.100000381469727,-32.85000228881836
5.49,89.1792221069336,16.242263793945312,-34.897884368896484,-108.18376159667969,92.46247863769531,168.67074584960938,-27.150001525878906,-3.1500000953674316,-31.350000381469727
5.51,85.61665344238281,16.931795120239258,-29.573179244995117,-100.45635223388672,100.72281646728516,181.99386596679688,-27.000001907348633,-4.5,-31.950000762939453
5.514,85.08035278320312,17.966089248657227,-23.82709503173828,-107.3843765258789,112.18070220947266,184.25880432128906,-27.000001907348633,-4.5,-31.950000762939453
5.52,88.37477111816406,17.851167678833008,-15.591041564941406,-116.0444107055664,104.05359649658203,187.85604858398438,-26.700000762939453,-6.300000190734863,-30.30000114440918
5.53,90.97966766357422,15.054739952087402,-14.97812557220459,-126.5696792602539,97.92495727539062,188.1225128173828,-30.000001907348633,-5.400000095367432,-29.400001525878906
5.54,93.43132781982422,11.262324333190918,-15.744270324707031,-155.08116149902344,94.72740936279297,162.94180297851562,-28.950000762939453,-5.550000190734863,-29.850000381469727
5.55,90.17520904541016,8.734047889709473,-21.56696891784668,-184.79173278808594,112.31393432617188,186.92343139648438,-29.250001907348633,-6.450000286102295,-28.200000762939453
5.57,87.30216979980469,8.465897560119629,-26.776752471923828,-197.9816131591797,110.44869232177734,207.4410400390625,-29.250001907348633,-6.450000286102295,-28.200000762939453
5.574,87.72354888916016,9.308655738830566,-31.641769409179688,-227.1592559814453,122.83920288085938,228.4915771484375,-30.450000762939453,-5.850000381469727,-27.750001907348633
5.58,86.99571228027344,12.90953540802002,-30.837318420410156,-239.81622314453125,132.0321502685547,242.747314453125,-33.45000076293945,-6.300000190734863,-27.30000114440918
5.59,86.07633972167969,14.326903343200684,-29.34333610534668,-239.1500701904297,127.23583221435547,257.0030517578125,-32.55000305175781,-5.400000095367432,-26.400001525878906
5.6,81.13470458984375,16.931795120239258,-27.121517181396484,-218.89892578125,119.7748794555664,274.5895690917969,-29.700000762939453,-4.800000190734863,-25.80000114440918
5.61,76.15476989746094,17.92778205871582,-24.24847412109375,-197.71514892578125,98.85757446289062,281.7840576171875,-29.700000762939453,-4.800000190734863,-25.80000114440918
5.631,70.98329162597656,18.464082717895508,-21.950040817260742,-172.2679901123047,95.79325866699219,284.3154602050781,-33.45000076293945,-7.800000190734863,-25.200000762939453
5.635,65.46704864501953,17.238252639770508,-19.07699966430664,-121.64012145996094,67.94792938232422,288.9785461425781,-32.70000076293945,-8.25,-25.80000114440918
5.641,59.06974411010742,13.713987350463867,-16.778566360473633,-102.05513000488281,57.422664642333984,298.8376770019531,-32.55000305175781,-9.15000057220459,-24.900001525878906
5.65,55.27732849121094,11.41555404663086,-16.970102310180664,-85.4012222290039,56.09035110473633,286.1806945800781,-32.400001525878906,-10.5,-24.450000762939453
5.661,49.60786056518555,9.423578262329102,-16.931795120239258,-63.81776428222656,50.36140823364258,288.8453369140625,-32.400001525878906,-10.5,-24.450000762939453
5.67,45.12591552734375,8.887276649475098,-17.659631729125977,-38.90352249145508,49.69525146484375,305.76568603515625,-34.650001525878906,-10.5,-24.0
5.69,42.674251556396484,9.078812599182129,-16.433799743652344,-13.989279747009277,40.36906433105469,299.1041259765625,-31.650001525878906,-11.700000762939453,-23.700000762939453
5.694,39.72459411621094,7.623138427734375,-14.36521053314209,14.12251091003418,43.30015182495117,298.5711975097656,-33.150001525878906,-13.200000762939453,-22.950000762939453
5.7,38.49876403808594,5.4013190269470215,-12.641385078430176,15.321592330932617,47.0306282043457,294.7074890136719,-34.05000305175781,-12.750000953674316,-23.55000114440918
5.71,39.37982940673828,3.5242648124694824,-10.036493301391602,19.185298919677734,41.035221099853516,276.98773193359375,-34.05000305175781,-12.750000953674316,-23.55000114440918
5.72,40.52904510498047,1.723825216293335,-9.730035781860352,18.385910034179688,44.89892578125,277.387451171875,-34.80000305175781,-15.000000953674316,-23.55000114440918
5.73,43.05732345581055,-0.9959878921508789,-8.197746276855469,4.529861927032471,35.03981399536133,281.6508483886719,-34.5,-15.750000953674316,-22.350000381469727
5.75,44.47468948364258,-5.2480902671813965,-8.35097599029541,7.327718257904053,22.915773391723633,286.58038330078125,-33.45000076293945,-17.55000114440918,-21.75
5.753,46.16020965576172,-8.504204750061035,-11.03248119354248,-25.846860885620117,23.182235717773438,269.2603454589844,-34.5,-18.900001525878906,-23.100000381469727
5.76,47.117889404296875,-12.181697845458984,-11.30063247680664,-40.76875686645508,16.12097930908203,260.6003112792969,-34.5,-18.900001525878906,-23.100000381469727
5.77,49.416324615478516,-11.30063247680664,-10.572794914245605,-48.8958625793457,8.526799201965332,256.0704345703125,-33.30000305175781,-19.650001525878906,-23.100000381469727
5.78,49.109867095947266,-9.423578262329102,-9.27034854888916,-41.30168533325195,13.189892768859863,243.81317138671875,-33.0,-21.150001525878906,-22.80000114440918
5.79,46.23682403564453,-6.742072105407715,-9.998186111450195,-45.298622131347656,17.852985382080078,216.50076293945312,-33.45000076293945,-21.75,-21.150001525878906
5.81,44.55130386352539,-5.5545477867126465,-10.72602367401123,-38.10413360595703,18.2526798248291,205.44256591796875,-32.70000076293945,-21.75,-21.150001525878906
5.813,47.04127502441406,-2.9879636764526367,-8.65743350982666,-29.977027893066406,10.525267601013184,192.65237426757812,-32.70000076293945,-21.75,-21.150001525878906
5.82,53.93657684326172,-4.32871675491333,-6.512228488922119,-27.978559494018555,8.39356803894043,189.9877471923828,-32.55000305175781,-23.55000114440918,-21.600000381469727
5.83,57.307613372802734,-6.742072105407715,-3.5625722408294678,-30.110260009765625,12.656967163085938,172.53445434570312,-34.05000305175781,-25.500001907348633,-22.350000381469727
5.84,63.74322509765625,-10.41956615447998,-2.5282769203186035,-32.37519073486328,11.990811347961426,147.0872802734375,-33.75,-25.05000114440918,-21.600000381469727
5.85,68.83808898925781,-14.135366439819336,-2.145204782485962,-23.581928253173828,9.72588062286377,134.29708862304688,-33.150001525878906,-25.650001525878906,-21.75
5.87,72.97526550292969,-17.8128604888916,-3.7924153804779053,-24.64777946472168,15.987748146057129,108.58345794677734,-33.150001525878906,-25.650001525878906,-21.75
5.874,80.75163269042969,-18.617311477661133,-4.8267107009887695,-28.911178588867188,14.388973236083984,65.68299865722656,-31.950000762939453,-25.200000762939453,-22.950000762939453
5.88,97.49188995361328,-17.966089248657227,-4.098873138427734,-24.248085021972656,6.395099639892578,65.81623077392578,-34.650001525878906,-26.100000381469727,-21.150001525878906
5.89,102.77828979492188,-17.544710159301758,-4.941632270812988,-7.194486618041992,17.32006072998047,37.17151641845703,-33.150001525878906,-24.450000762939453,-20.700000762939453
5.9,108.37114715576172,-17.391481399536133,-2.0685901641845703,23.715160369873047,19.185298919677734,-2.531393527984619,-32.400001525878906,-27.600000381469727,-19.950000762939453
5.91,106.64732360839844,-13.828908920288086,-1.0342950820922852,72.21133422851562,19.718223571777344,-11.058192253112793,-32.400001525878906,-27.600000381469727,-19.950000762939453
5.93,101.62907409667969,-14.518439292907715,-5.51624059677124,131.63246154785156,16.387441635131836,-27.17917251586914,-32.25,-26.55000114440918,-20.850000381469727
5.933,97.33866119384766,-19.843143463134766,-11.683704376220703,165.60643005371094,24.64777946472168,-46.364471435546875,-32.70000076293945,-26.850000381469727,-18.900001525878906
5.94,92.32041931152344,-29.95625114440918,-14.824896812438965,178.5298614501953,20.650842666625977,-46.497703552246094,-32.70000076293945,-26.100000381469727,-20.700000762939453
5.95,89.8304443359375,-37.42616271972656,-13.828908920288086,175.19908142089844,9.992342948913574,-37.83767318725586,-31.80000114440918,-27.750001907348633,-19.5
5.96,86.7275619506836,-46.42835998535156,-8.810662269592285,148.55282592773438,-0.39969372749328613,-39.30321502685547,-31.80000114440918,-27.750001907348633,-19.5
5.97,86.49771881103516,-53.208740234375,-2.2218191623687744,108.58345794677734,1.5987749099731445,-57.02296829223633,-32.70000076293945,-27.900001525878906,-19.950000762939453
5.99,85.96141815185547,-54.24303436279297,3.869029998779297,71.14547729492188,-10.658498764038086,-69.67993927001953,-33.150001525878906,-27.900001525878906,-19.650001525878906
5.994,89.37075805664062,-51.94459915161133,5.094861030578613,42.76722717285156,-29.044410705566406,-87.9326171875,-31.80000114440918,-28.200000762939453,-19.05000114440918
6.0,93.9676284790039,-42.7891731262207,5.018246650695801,39.43644714355469,-18.652372360229492,-93.92802429199219,-31.950000762939453,-26.100000381469727,-18.900001525878906
6.01,95.61483764648438,-38.15399932861328,5.4013190269470215,37.83767318725586,-22.249616622924805,-116.71056365966797,-31.950000762939453,-26.100000381469727,-18.900001525878906
6.02,96.91728210449219,-30.837318420410156,3.141192674636841,53.558956146240234,-22.382848739624023,-117.37671661376953,-31.500001907348633,-27.450000762939453,-18.0
6.03,98.71772766113281,-26.31706428527832,1.9919757843017578,68.88054656982422,-24.51454734802246,-137.62786865234375,-32.25,-27.450000762939453,-18.30000114440918
6.05,104.1190414428711,-21.14558982849121,0.9193734526634216,83.66921997070312,-26.113323211669922,-163.20826721191406,-32.70000076293945,-26.850000381469727,-18.450000762939453
6.054,107.94976806640625,-15.016432762145996,0.4596867263317108,103.38744354248047,-26.379785537719727,-177.33078002929688,-33.75,-25.80000114440918,-18.30000114440918
6.06,115.87936401367188,-13.407529830932617,2.5665841102600098,123.77182006835938,-34.373661041259766,-179.0627899169922,-33.75,-25.80000114440918,-18.30000114440918
6.07,118.36933135986328,-13.177685737609863,2.9496564865112305,126.30321502685547,-38.77029037475586,-204.2434844970703,-34.5,-25.500001907348633,-19.5
6.08,120.20807647705078,-13.254301071166992,2.3750481605529785,127.5022964477539,-50.4946403503418,-214.90199279785156,-33.900001525878906,-24.150001525878906,-19.200000762939453
6.09,117.94795227050781,-15.361198425292969,1.800439715385437,142.69065856933594,-65.41653442382812,-220.09800720214844,-32.25,-24.30000114440918,-19.05000114440918
6.109,112.12525177001953,-17.238252639770508,-1.9153614044189453,136.0290985107422,-69.4134750366211,-233.28790283203125,-33.75,-23.850000381469727,-19.5
6.113,106.03440856933594,-18.732234954833984,-5.5545477867126465,132.56507873535156,-73.67687225341797,-247.41041564941406,-33.75,-23.850000381469727,-19.5
6.12,99.52217864990234,-19.651607513427734,-5.746084213256836,131.49923706054688,-84.60183715820312,-244.34608459472656,-31.950000762939453,-23.700000762939453,-19.650001525878906
6.13,98.90926361083984,-17.12333106994629,-5.592854976654053,131.23277282714844,-92.46247863769531,-247.01071166992188,-32.70000076293945,-22.950000762939453,-19.650001525878906
6.14,95.84468078613281,-13.445837020874023,-5.4013190269470215,125.63705444335938,-99.65696716308594,-240.61561584472656,-33.150001525878906,-22.950000762939453,-19.200000762939453
6.15,94.00593566894531,-7.967903137207031,-3.294421434402466,120.70750427246094,-87.0,-242.6140899658203,-33.150001525878906,-22.950000762939453,-19.200000762939453
6.17,92.090576171875,-3.2561142444610596,-4.098873138427734,134.43031311035156,-92.59571075439453,-221.03062438964844,-33.150001525878906,-22.950000762939453,-19.200000762939453
6.174,88.10662078857422,1.1492167711257935,-4.8267107009887695,142.5574188232422,-91.52986145019531,-220.23123168945312,-33.150001525878906,-22.200000762939453,-19.950000762939453
6.18,80.52178955078125,0.07661445438861847,-5.324704647064209,147.4869842529297,-88.73200225830078,-212.9035186767578,-33.150001525878906,-22.200000762939453,-19.950000762939453
6.19,77.03583526611328,-0.8044517636299133,-4.443638324737549,158.27871704101562,-95.52679443359375,-214.63552856445312,-33.150001525878906,-17.850000381469727,-18.900001525878906
6.2,70.67683410644531,-2.75812029838562,-3.7158010005950928,159.3445587158203,-94.46094512939453,-210.50535583496094,-33.150001525878906,-17.850000381469727,-18.900001525878906
6.21,64.66259765625,-5.056553840637207,-0.9193734526634216,162.00918579101562,-109.51607513427734,-208.5068817138672,-33.150001525878906,-18.75,-19.200000762939453
6.23,59.759273529052734,-5.975927352905273,0.38307225704193115,149.88514709472656,-117.24349212646484,-211.5712127685547,-34.80000305175781,-19.200000762939453,-19.05000114440918
6.233,53.43858337402344,-8.312667846679688,1.2258312702178955,129.2342987060547,-126.30321502685547,-216.10107421875,-31.650001525878906,-18.75,-22.950000762939453
6.24,47.15619659423828,-10.687716484069824,1.9919757843017578,124.30474090576172,-131.23277282714844,-209.83920288085938,-31.650001525878906,-18.75,-22.950000762939453
6.25,45.54729461669922,-11.453861236572266,3.7924153804779053,100.58958435058594,-125.63705444335938,-223.9617156982422,-31.650001525878906,-18.75,-22.950000762939453
6.26,43.785160064697266,-10.342951774597168,6.742072105407715,89.5313949584961,-138.02755737304688,-226.62632751464844,-33.75,-16.950000762939453,-22.80000114440918
6.27,44.091617584228516,-7.7763671875,10.036493301391602,83.80245208740234,-150.95098876953125,-227.6921844482422,-30.900001525878906,-16.350000381469727,-23.25
6.29,43.74685287475586,-5.975927352905273,11.1474027633667,65.28330993652344,-168.80397033691406,-231.4226531982422,-32.400001525878906,-18.75,-22.5
6.294,44.43638229370117,-4.750096321105957,9.959878921508789,21.716691970825195,-160.2771759033203,-251.27410888671875,-33.150001525878906,-16.80000114440918,-22.200000762939453
6.3,45.73883056640625,-6.3973069190979,4.63517427444458,13.056661605834961,-170.26951599121094,-245.9448699951172,-33.150001525878906,-16.80000114440918,-22.200000762939453
6.31,46.84973907470703,-7.010222434997559,3.1028854846954346,-15.987748146057129,-167.87135314941406,-258.8682861328125,-30.900001525878906,-14.40000057220459,-25.200000762939453
6.32,47.539268493652344,-6.244078159332275,4.060565948486328,-44.76569747924805,-160.01071166992188,-288.1791687011719,-31.500001907348633,-13.500000953674316,-26.100000381469727
6.33,48.458641052246094,-5.746084213256836,2.604891538619995,-76.4747314453125,-159.21133422851562,-295.24041748046875,-30.30000114440918,-12.300000190734863,-26.400001525878906
6.35,49.64616775512695,-3.7158010005950928,2.6431987285614014,-93.2618637084961,-171.60183715820312,-295.3736572265625,-29.55000114440918,-10.350000381469727,-24.900001525878906
6.354,49.64616775512695,1.800439715385437,-2.0685901641845703,-146.82083129882812,-160.8101043701172,-311.36138916015625,-28.650001525878906,-8.700000762939453,-28.05000114440918
6.36,48.91832733154297,10.15141487121582,-8.312667846679688,-159.8774871826172,-146.9540557861328,-292.44256591796875,-28.650001525878906,-8.700000762939453,-28.05000114440918
6.37,49.9143180847168,14.518439292907715,-11.41555404663086,-168.9372100830078,-136.4287872314453,-281.2511291503906,-27.30000114440918,-6.450000286102295,-27.150001525878906
6.38,51.48491287231445,22.17988395690918,-15.322891235351562,-164.94027709960938,-127.76875305175781,-269.7932434082031,-26.700000762939453,-7.500000476837158,-27.750001907348633
6.39,54.81764221191406,27.504589080810547,-16.70195198059082,-154.0153045654297,-109.915771484375,-272.32464599609375,-26.700000762939453,-7.500000476837158,-27.750001907348633
6.409,57.57576370239258,33.863590240478516,-16.81687355041504,-117.9096450805664,-108.3169937133789,-260.6003112792969,-24.750001907348633,-3.0,-27.150001525878906
6.413,58.99312973022461,37.234622955322266,-14.09705924987793,-78.07350158691406,-117.11026000976562,-223.16232299804688,-25.950000762939453,-2.4000000953674316,-28.80000114440918
6.42,57.920528411865234,42.44440841674805,-14.67166805267334,-68.08116149902344,-119.37519073486328,-211.5712127685547,-24.750001907348633,-1.5,-29.400001525878906
6.43,58.18867874145508,44.12992477416992,-17.50640296936035,-59.15467071533203,-104.05359649658203,-194.6508331298828,-24.750001907348633,0.0,-28.650001525878906
6.44,61.82786560058594,44.47468948364258,-20.877439498901367,-35.17304611206055,-99.79019927978516,-162.80857849121094,-24.750001907348633,0.0,-28.650001525878906
6.45,67.03765106201172,42.71255874633789,-26.2021427154541,-23.98162269592285,-82.6033706665039,-143.4900360107422,-22.950000762939453,0.45000001788139343,-29.250001907348633
6.47,73.0135726928711,42.59763717651367,-30.0711727142334,-21.583459854125977,-56.09035110473633,-131.49923706054688,-22.80000114440918,-0.30000001192092896,-29.400001525878906
6.474,75.81000518798828,43.32547378540039,-34.476505279541016,3.4640121459960938,-35.57273864746094,-110.04900360107422,-22.5,0.75,-29.700000762939453
6.48,78.83627319335938,42.1379508972168,-37.73262023925781,20.517610549926758,-33.84073257446289,-87.66615295410156,-22.5,1.5,-28.950000762939453
6.49,78.72135162353516,42.1762580871582,-38.15399932861328,38.50382614135742,-21.583459854125977,-68.61408996582031,-22.5,1.5,-28.950000762939453
6.5,78.26166534423828,41.79318618774414,-38.15399932861328,50.22817611694336,-8.926492691040039,-49.16232681274414,-21.30000114440918,2.25,-30.150001525878906
6.51,75.9632339477539,40.145973205566406,-35.817256927490234,63.81776428222656,-6.395099639892578,-32.24195861816406,-21.75,1.5,-30.150001525878906
6.53,72.82203674316406,37.234622955322266,-33.672054290771484,65.016845703125,-13.722817420959473,-9.326186180114746,-22.200000762939453,-0.45000001788139343,-29.55000114440918
6.533,72.20912170410156,31.83330535888672,-31.60346221923828,42.23430252075195,-8.526799201965332,7.06125545501709,-21.75,1.0500000715255737,-29.700000762939453
6.54,68.56993865966797,25.89568519592285,-32.484527587890625,26.246553421020508,-9.992342948913574,5.062787055969238,-21.75,1.0500000715255737,-29.700000762939453
6.55,68.99131774902344,24.59324073791504,-31.41192626953125,7.9938740730285645,-15.45482349395752,29.31087303161621,-21.0,1.0500000715255737,-30.150001525878906
6.56,71.44297790527344,24.210166931152344,-31.565155029296875,-14.255742073059082,-18.652372360229492,33.04134750366211,-21.900001525878906,0.45000001788139343,-30.30000114440918
6.57,75.2737045288086,24.516624450683594,-32.25468444824219,-38.50382614135742,-2.131699800491333,42.633995056152344,-22.200000762939453,0.15000000596046448,-30.600000381469727
6.59,79.71733856201172,26.54690933227539,-34.897884368896484,-43.43338394165039,12.523736000061035,53.558956146240234,-21.450000762939453,0.45000001788139343,-29.55000114440918
6.594,82.62869262695312,27.964275360107422,-38.728607177734375,-53.95865249633789,26.113323211669922,79.67227935791016,-21.450000762939453,0.45000001788139343,-29.55000114440918
6.6,89.94536590576172,28.07919692993164,-42.32948684692383,-79.80551147460938,51.693721771240234,90.86370086669922,-22.05000114440918,2.25,-29.700000762939453
6.61,92.39703369140625,27.696125030517578,-42.52102279663086,-90.59724426269531,66.882080078125,96.05972290039062,-21.0,0.30000001192092896,-30.150001525878906
6.62,90.71151733398438,27.313053131103516,-41.48672866821289,-97.65850067138672,69.54670715332031,114.44563293457031,-21.450000762939453,0.15000000596046448,-27.750001907348633
6.63,84.00775146484375,28.117504119873047,-39.80120849609375,-109.11638641357422,85.13475799560547,134.96324157714844,-21.75,1.0500000715255737,-28.950000762939453
6.65,78.07012939453125,28.347347259521484,-38.422149658203125,-118.70903015136719,101.38896942138672,144.82235717773438,-21.75,1.0500000715255737,-28.950000762939453
6.653,75.69508361816406,29.64979362487793,-34.43819808959961,-137.09494018554688,112.18070220947266,163.0750274658203,-23.400001525878906,1.350000023841858,-27.750001907348633
6.66,81.90084838867188,29.15180015563965,-31.756690979003906,-140.1592559814453,109.78253936767578,171.20213317871094,-24.30000114440918,1.8000000715255737,-28.200000762939453
6.67,86.1912612915039,29.190107345581055,-29.573179244995117,-164.14088439941406,109.78253936767578,168.27105712890625,-24.150001525878906,-0.15000000596046448,-27.750001907348633
6.68,91.89904022216797,28.653806686401367,-25.81907081604004,-173.2006072998047,104.05359649658203,170.53598022460938,-23.400001525878906,-0.9000000357627869,-27.000001907348633
6.69,93.3547134399414,30.60747528076172,-27.427974700927734,-170.0030517578125,93.12863159179688,191.58651733398438,-23.400001525878906,-0.9000000357627869,-27.000001907348633
6.709,93.04825592041016,32.02484130859375,-30.032865524291992,-162.5421142578125,100.58958435058594,197.9816131591797,-25.500001907348633,0.0,-26.100000381469727
6.713,90.40505981445312,31.680076599121094,-31.680076599121094,-154.814697265625,107.25114440917969,213.4364471435547,-25.500001907348633,0.0,-24.150001525878906
6.721,83.27991485595703,30.186094284057617,-30.415939331054688,-157.87901306152344,113.64624786376953,229.5574188232422,-25.650001525878906,-0.15000000596046448,-25.500001907348633
6.73,80.06210327148438,28.07919692993164,-30.109479904174805,-149.7519073486328,111.24808502197266,261.2664489746094,-25.80000114440918,-0.30000001192092896,-24.150001525878906
6.74,74.00955963134766,25.167848587036133,-26.278757095336914,-153.21592712402344,105.25267791748047,253.2725830078125,-25.80000114440918,-0.30000001192092896,-24.150001525878906
6.75,70.79175567626953,21.413740158081055,-26.508602142333984,-163.20826721191406,111.11485290527344,262.865234375,-25.80000114440918,-1.0500000715255737,-23.850000381469727
6.77,66.4630355834961,18.464082717895508,-23.3291015625,-153.61561584472656,101.52220153808594,275.6554260253906,-28.500001907348633,-0.30000001192092896,-22.350000381469727
6.773,62.74723815917969,10.496180534362793,-17.774553298950195,-174.39968872070312,92.46247863769531,281.117919921875,-28.05000114440918,-1.5,-22.350000381469727
6.78,65.16059112548828,10.304644584655762,-12.90953540802002,-176.13169860839844,92.3292465209961,288.8453369140625,-28.80000114440918,-0.30000001192092896,-22.05000114440918
6.79,65.58197021484375,10.496180534362793,-12.373234748840332,-187.1898956298828,82.47013854980469,287.646240234375,-28.80000114440918,-0.30000001192092896,-22.05000114440918
6.8,67.4973373413086,9.155426979064941,-11.377246856689453,-188.52220153808594,73.9433364868164,293.241943359375,-29.400001525878906,-1.350000023841858,-21.150001525878906
6.81,66.34811401367188,13.369222640991211,-10.189722061157227,-186.12403869628906,59.02143859863281,296.43951416015625,-30.30000114440918,-1.8000000715255737,-19.05000114440918
6.83,65.50535583496094,15.935806274414062,-11.875240325927734,-168.5375213623047,56.889739990234375,291.2434997558594,-31.200000762939453,-3.6000001430511475,-20.700000762939453
6.833,64.0113754272461,19.49837875366211,-13.292608261108398,-143.09034729003906,49.56201934814453,284.1822204589844,-30.150001525878906,-2.8500001430511475,-19.200000762939453
6.84,61.5980224609375,23.175872802734375,-17.238252639770508,-110.71515655517578,46.897396087646484,294.57427978515625,-30.150001525878906,-2.8500001430511475,-19.200000762939453
6.85,60.946800231933594,22.639572143554688,-17.889474868774414,-94.59417724609375,62.35221862792969,282.1837463378906,-31.500001907348633,-6.150000095367432,-20.100000381469727
6.86,59.337894439697266,21.835119247436523,-18.617311477661133,-65.68299865722656,59.55436325073242,287.646240234375,-30.750001907348633,-5.400000095367432,-18.30000114440918
6.87,56.886234283447266,19.38345718383789,-17.583017349243164,-38.37059783935547,58.62174606323242,293.241943359375,-32.25,-6.150000095367432,-19.80000114440918
6.89,58.3036003112793,16.242263793945312,-16.395492553710938,-32.24195861816406,65.28330993652344,292.5758056640625,-32.25,-8.40000057220459,-19.05000114440918
6.894,59.18466567993164,10.764330863952637,-12.334927558898926,-12.923430442810059,50.89433288574219,298.30474853515625,-32.25,-8.40000057220459,-19.05000114440918
6.9,60.44880294799805,7.1251444816589355,-10.496180534362793,-14.655436515808105,52.626338958740234,282.1837463378906,-31.80000114440918,-10.350000381469727,-18.75
6.91,59.18466567993164,4.367023944854736,-10.457873344421387,-0.39969372749328613,41.701377868652344,293.241943359375,-31.950000762939453,-8.700000762939453,-18.150001525878906
6.92,59.5294303894043,2.0685901641845703,-9.615114212036133,-4.529861927032471,53.42572784423828,263.2649230957031,-31.80000114440918,-10.350000381469727,-18.0
6.93,59.18466567993164,1.8387469053268433,-10.879252433776855,-2.6646246910095215,56.889739990234375,261.5329284667969,-31.80000114440918,-12.750000953674316,-16.5
6.951,62.13432312011719,-2.0685901641845703,-11.453861236572266,-2.797856092453003,46.897396087646484,254.60488891601562,-31.80000114440918,-12.750000953674316,-16.5
6.955,65.54366302490234,-3.907337188720703,-10.764330863952637,-22.382848739624023,55.69065856933594,251.94027709960938,-31.80000114440918,-14.250000953674316,-16.80000114440918
6.96,70.14053344726562,-7.048529624938965,-7.929595947265625,-30.24349021911621,56.09035110473633,239.81622314453125,-31.80000114440918,-14.250000953674316,-16.80000114440918
6.97,71.213134765625,-6.205770969390869,-8.465897560119629,-31.975496292114258,61.9525260925293,238.35067749023438,-33.30000305175781,-14.550000190734863,-17.55000114440918
6.98,71.59620666503906,-7.7763671875,-10.113107681274414,-45.96477508544922,62.21898651123047,227.42572021484375,-31.650001525878906,-15.90000057220459,-14.850000381469727
6.99,72.63050079345703,-7.623138427734375,-9.040505409240723,-54.89126968383789,82.33690643310547,217.83306884765625,-31.650001525878906,-15.90000057220459,-14.850000381469727
7.009,73.58818054199219,-7.929595947265625,-7.891288757324219,-55.69065856933594,65.949462890625,192.65237426757812,-32.400001525878906,-17.55000114440918,-16.650001525878906
7.014,73.74140930175781,-6.320692539215088,-7.048529624938965,-62.75191116333008,69.01377868652344,170.26951599121094,-33.0,-17.400001525878906,-16.05000114440918
7.02,77.30398559570312,-3.026270866394043,-4.32871675491333,-58.754974365234375,57.422664642333984,158.0122528076172,-32.70000076293945,-17.55000114440918,-15.15000057220459
7.03,79.94718170166016,-0.15322890877723694,-3.7924153804779053,-42.90045928955078,54.35834503173828,153.61561584472656,-32.55000305175781,-17.700000762939453,-15.450000762939453
7.04,81.59439086914062,-2.3367409706115723,-2.0685901641845703,-13.323123931884766,39.70290756225586,144.95558166503906,-32.55000305175781,-17.700000762939453,-15.450000762939453
7.05,84.65897369384766,-2.75812029838562,0.3064578175544739,8.526799201965332,42.101070404052734,118.70903015136719,-31.05000114440918,-20.400001525878906,-14.700000762939453
7.07,88.83445739746094,-11.951854705810547,0.19153612852096558,20.91730499267578,44.89892578125,89.39816284179688,-31.650001525878906,-19.80000114440918,-15.600000381469727
7.073,90.06028747558594,-20.724210739135742,2.0685901641845703,17.32006072998047,38.37059783935547,48.22970962524414,-31.500001907348633,-21.600000381469727,-14.250000953674316
7.08,92.35872650146484,-34.62973403930664,2.1068975925445557,13.323123931884766,29.31087303161621,39.30321502685547,-31.500001907348633,-21.600000381469727,-14.250000953674316
7.09,93.2780990600586,-38.34553527832031,1.6089035272598267,-19.85145378112793,15.854516983032227,6.395099639892578,-31.500001907348633,-21.600000381469727,-14.250000953674316
7.1,93.43132781982422,-41.98472213745117,1.647210717201233,-53.29249572753906,8.39356803894043,-3.86370587348938,-31.650001525878906,-19.80000114440918,-14.40000057220459
