time,accel_x,accel_y,accel_z,gyro_x,gyro_y,gyro_z,mag_x,mag_y,mag_z
0.0,0.2667997181415558,-9.743573188781738,-1.330409288406372,0.018020525574684143,0.025503622367978096,-0.007024950347840786,-20.286466598510742,49.2984504699707,-20.62262535095215
0.01,0.30508488416671753,-9.762716293334961,-1.3052847385406494,0.01160643994808197,0.03390302136540413,-0.006872233934700489,-19.774919509887695,49.12306213378906,-20.008769989013672
0.02,0.41515469551086426,-9.743573188781738,-1.2765707969665527,0.0012217304902151227,0.034666601568460464,-0.009926560334861279,-19.7310733795166,49.6199951171875,-19.774919509887695
0.03,0.5108676552772522,-9.667003631591797,-1.3040882349014282,-0.0050396379083395,0.028099801391363144,-0.0064140851609408855,-19.64337921142578,48.69921112060547,-20.344928741455078
0.04,0.574277400970459,-9.554540634155273,-1.3411771059036255,-0.0009162978385575116,0.01664607785642147,0.005345070734620094,-19.774919509887695,48.30459213256836,-20.169540405273438
0.06,0.5599204897880554,-9.547362327575684,-1.357926845550537,0.018020525574684143,0.003054326167330146,0.020158551633358,-20.052616119384766,48.465362548828125,-20.35954475402832
0.063,0.4402793347835541,-9.670592308044434,-1.322034478187561,0.03390302136540413,-0.009162978269159794,0.03894266113638878,-19.90645980834961,48.56766891479492,-19.774919509887695
0.07,0.39003005623817444,-9.731609344482422,-1.3112667798995972,0.037110064178705215,-0.009773843921720982,0.050854530185461044,-19.92107582092285,48.56766891479492,-19.891843795776367
0.08,0.3601197898387909,-9.69810962677002,-1.2837493419647217,0.03833179175853729,-0.002138028386980295,0.060475654900074005,-19.54106903076172,48.611515045166016,-20.286466598510742
0.09,0.25244277715682983,-9.719645500183105,-1.2873386144638062,0.040622539818286896,0.003817907767370343,0.05619960278272629,-19.935691833496094,48.87459945678711,-20.65185546875
0.1,0.29312074184417725,-9.77826976776123,-1.2442678213119507,0.03481931984424591,0.01191187184303999,0.03726277872920036,-19.950305938720703,48.78690719604492,-20.257234573364258
0.12,0.2679961323738098,-9.860821723937988,-1.293320655822754,0.027947084978222847,0.01817324012517929,0.021380282938480377,-19.52645492553711,48.93306350708008,-20.09646224975586
0.123,0.2464607208967209,-9.842875480651855,-1.2789636850357056,0.019394971430301666,0.036041051149368286,0.005650503095239401,-19.7310733795166,48.93306350708008,-20.315698623657227
0.13,0.3349951505661011,-9.826126098632812,-1.2490533590316772,0.012980885803699493,0.04841107130050659,-0.0013744467869400978,-19.80415153503418,48.80152130126953,-20.257234573364258
0.14,0.4139583110809326,-9.755537986755371,-1.2562319040298462,0.01160643994808197,0.04963279888033867,-0.00809396430850029,-19.789535522460938,48.78690719604492,-20.871089935302734
0.15,0.5216353535652161,-9.69093132019043,-1.3076776266098022,0.013286319561302662,0.039095375686883926,-0.007177666295319796,-20.228002548217773,48.36305236816406,-21.20724868774414
0.16,0.6089733242988586,-9.627521514892578,-1.3591231107711792,0.020005837082862854,0.015118913725018501,0.0018325956771150231,-20.169540405273438,49.12306213378906,-20.944168090820312
0.179,0.5862414836883545,-9.564111709594727,-1.4009976387023926,0.029168814420700073,-0.0138971833512187,0.01191187184303999,-20.052616119384766,49.07921600341797,-19.80415153503418
0.183,0.41874393820762634,-9.554540634155273,-1.4033904075622559,0.03787364438176155,-0.04764748737215996,0.020311269909143448,-19.847997665405273,49.12306213378906,-20.30108070373535
0.19,0.2907279431819916,-9.611968040466309,-1.3710873126983643,0.04153883829712868,-0.05513058975338936,0.024587325751781464,-19.74568748474121,48.669979095458984,-20.885705947875977
0.2,0.12203395366668701,-9.681360244750977,-1.317248821258545,0.039095375686883926,-0.04642575979232788,0.03176499158143997,-20.140310287475586,48.74305725097656,-20.62262535095215
0.21,-0.007178467698395252,-9.753144264221191,-1.275374412536621,0.033597588539123535,-0.025961771607398987,0.033597588539123535,-19.614147186279297,48.9622917175293,-20.08184814453125
0.22,-0.03349951654672623,-9.755537986755371,-1.2526426315307617,0.022602012380957603,0.0019853119738399982,0.02626720443367958,-19.599531173706055,49.283836364746094,-20.578777313232422
0.24,-0.02512463741004467,-9.732806205749512,-1.2693923711776733,0.017409659922122955,0.026572639122605324,0.012980885803699493,-19.80415153503418,49.00613784790039,-20.91493797302246
0.244,0.10648059844970703,-9.739984512329102,-1.2634103298187256,0.011759155429899693,0.06215553730726242,-0.004123340360820293,-19.482608795166016,48.9622917175293,-20.973400115966797
0.25,0.18305093050003052,-9.760323524475098,-1.2598210573196411,0.009926560334861279,0.06887505203485489,-0.007024950347840786,-19.43876075744629,48.55305480957031,-21.148786544799805
0.26,0.349352091550827,-9.731609344482422,-1.2921241521835327,0.0,0.08155050873756409,-0.016035212203860283,-20.198772430419922,49.210758209228516,-20.286466598510742
0.27,0.5802595019340515,-9.664609909057617,-1.2897313833236694,-0.0004581489192787558,0.07467827200889587,-0.012064589187502861,-19.64337921142578,48.5822868347168,-21.221864700317383
0.28,0.680757999420166,-9.610772132873535,-1.3316056728363037,0.005192354787141085,0.05619960278272629,-0.0044287727214396,-19.687227249145508,48.90382766723633,-20.505699157714844
0.299,0.7046862840652466,-9.56052303314209,-1.361515998840332,0.017562376335263252,0.029168814420700073,0.0073303827084600925,-19.71645736694336,48.36305236816406,-21.075708389282227
0.304,0.5288137793540955,-9.603592872619629,-1.3639088869094849,0.035124752670526505,-0.01038470957428217,0.01924225501716137,-19.497222900390625,48.611515045166016,-20.8126277923584
0.31,0.44745784997940063,-9.645467758178711,-1.3627125024795532,0.04184426739811897,-0.022449297830462456,0.02382374368607998,-19.74568748474121,48.55305480957031,-19.964923858642578
0.32,0.23210379481315613,-9.738787651062012,-1.3435698747634888,0.042760565876960754,-0.021380282938480377,0.027947084978222847,-19.482608795166016,48.479976654052734,-20.73954963684082
0.33,0.1615155190229416,-9.789037704467773,-1.3004990816116333,0.03634648025035858,-0.009162978269159794,0.030237827450037003,-19.7310733795166,48.93306350708008,-20.447237014770508
0.34,0.16749757528305054,-9.790233612060547,-1.2478569746017456,0.025045473128557205,0.00931569468230009,0.02977968007326126,-19.672609329223633,48.99152374267578,-20.958784103393555
0.36,0.22372892498970032,-9.772287368774414,-1.2490533590316772,0.014202617108821869,0.028710665181279182,0.03084869496524334,-19.657995223999023,48.87459945678711,-20.37415885925293
0.364,0.32662028074264526,-9.725627899169922,-1.2789636850357056,0.0088575454428792,0.04444044828414917,0.038179077208042145,-19.55568504333496,48.90382766723633,-21.26571273803711
0.37,0.3924228847026825,-9.730413436889648,-1.294516921043396,0.013744467869400978,0.04505131021142006,0.04306599870324135,-19.62876319885254,48.494590759277344,-21.031862258911133
0.38,0.4211367666721344,-9.714859962463379,-1.3016955852508545,0.01970040239393711,0.04092797264456749,0.05772676318883896,-19.950305938720703,49.19614028930664,-20.871089935302734
0.39,0.37806597352027893,-9.707681655883789,-1.2634103298187256,0.02733621932566166,0.03848451003432274,0.07406741380691528,-19.307220458984375,48.611515045166016,-20.8126277923584
0.401,0.3278166949748993,-9.742377281188965,-1.286142110824585,0.0328340083360672,0.0328340083360672,0.09483683109283447,-19.64337921142578,48.69921112060547,-20.871089935302734
0.42,0.23688943684101105,-9.811769485473633,-1.2897313833236694,0.0328340083360672,0.03039054572582245,0.10552696883678436,-19.26337242126465,48.34843444824219,-21.163402557373047
0.424,0.1543370485305786,-9.832107543945312,-1.3148560523986816,0.039095375686883926,0.03436116874217987,0.12171489745378494,-19.409530639648438,48.77228546142578,-21.01724624633789
0.43,0.1579262912273407,-9.781858444213867,-1.332802176475525,0.03955352306365967,0.033139437437057495,0.12996158003807068,-19.64337921142578,48.33382034301758,-20.973400115966797
0.44,0.16390834748744965,-9.763912200927734,-1.34476637840271,0.04566217586398125,0.029626963660120964,0.15546520054340363,-19.54106903076172,48.9184455871582,-20.958784103393555
0.45,0.02751745842397213,-9.81535816192627,-1.3387842178344727,0.05467243865132332,0.029168814420700073,0.19303342700004578,-19.24875831604004,48.845367431640625,-20.92955207824707
0.46,-0.1663011610507965,-9.774680137634277,-1.3962119817733765,0.06811147183179855,0.03680463135242462,0.23197607696056366,-19.862613677978516,48.87459945678711,-21.26571273803711
0.479,-0.30987051129341125,-9.7124662399292,-1.4344971179962158,0.10293079167604446,0.06719517707824707,0.24113905429840088,-19.52645492553711,48.90382766723633,-21.748027801513672
0.483,-0.43908295035362244,-9.804591178894043,-1.4189437627792358,0.11514809727668762,0.08933904021978378,0.24236077070236206,-19.35106658935547,49.10844802856445,-21.631101608276367
0.49,-0.47258248925209045,-9.864411354064941,-1.4620145559310913,0.11209376901388168,0.10873401165008545,0.24159719049930573,-19.497222900390625,48.87459945678711,-21.148786544799805
0.5,-0.47617167234420776,-9.850053787231445,-1.4847464561462402,0.10491610318422318,0.1420261561870575,0.24633140861988068,-19.33645248413086,49.31306457519531,-21.031862258911133
0.51,-0.468993216753006,-9.834501266479492,-1.5134602785110474,0.09269880503416061,0.1823432743549347,0.2548835277557373,-18.97106170654297,48.78690719604492,-20.666471481323242
0.52,-0.41515469551086426,-9.805787086486816,-1.5361920595169067,0.0809396430850029,0.22449298202991486,0.2655736804008484,-18.72259521484375,48.9622917175293,-21.134170532226562
0.54,-0.3122633397579193,-9.845268249511719,-1.574477195739746,0.07101307809352875,0.2457205355167389,0.2773328125476837,-18.766441345214844,48.684593200683594,-21.38263702392578
0.543,-0.2919243574142456,-9.844072341918945,-1.5792629718780518,0.06230825185775757,0.275347501039505,0.2977968156337738,-18.956445693969727,49.035369873046875,-21.397253036499023
0.55,-0.2751745879650116,-9.858428955078125,-1.5589239597320557,0.06017022579908371,0.29367345571517944,0.30604347586631775,-18.737211227416992,49.42999267578125,-21.09032440185547
0.56,-0.14715859293937683,-9.862017631530762,-1.53858482837677,0.0529925599694252,0.30894508957862854,0.3121521472930908,-18.941829681396484,49.32768249511719,-20.695703506469727
0.57,-0.007178467698395252,-9.824929237365723,-1.574477195739746,0.052228979766368866,0.30711251497268677,0.32650747895240784,-19.00029182434082,49.210758209228516,-21.616485595703125
0.58,0.0849451944231987,-9.738787651062012,-1.6115659475326538,0.06475171446800232,0.31154128909111023,0.3295617997646332,-19.00029182434082,49.19614028930664,-20.91493797302246
0.599,0.2105683833360672,-9.665806770324707,-1.6390833854675293,0.07070764899253845,0.30970868468284607,0.3300199508666992,-18.62028694152832,48.713829040527344,-21.134170532226562
0.604,0.35533416271209717,-9.55095100402832,-1.7048860788345337,0.0858265683054924,0.28191429376602173,0.33368512988090515,-18.6933650970459,48.87459945678711,-21.28032684326172
0.61,0.37088748812675476,-9.53659439086914,-1.7407783269882202,0.09040804952383041,0.2675589621067047,0.3344487249851227,-18.78105926513672,48.75767135620117,-20.856473922729492
0.62,0.3445664644241333,-9.548558235168457,-1.7335999011993408,0.09346237778663635,0.23151792585849762,0.33399054408073425,-18.401052474975586,48.713829040527344,-21.57263946533203
0.63,0.2464607208967209,-9.500701904296875,-1.7682960033416748,0.08918632566928864,0.21105393767356873,0.3283400535583496,-18.649517059326172,48.655364990234375,-21.01724624633789
0.64,0.2069791555404663,-9.452845573425293,-1.8065810203552246,0.08017606288194656,0.1941024363040924,0.32391127943992615,-18.18181800842285,48.845367431640625,-20.958784103393555
0.66,0.14356935024261475,-9.480362892150879,-1.813759446144104,0.07788532227277756,0.17470745742321014,0.3176499307155609,-17.97719955444336,48.87459945678711,-21.338788986206055
0.664,0.09571290761232376,-9.529415130615234,-1.7623138427734375,0.07666358351707458,0.15073098242282867,0.30604347586631775,-17.918737411499023,48.72844314575195,-21.353404998779297
0.67,0.10887342691421509,-9.54377269744873,-1.7647066116333008,0.07299839705228806,0.1411098688840866,0.30146196484565735,-17.933351516723633,49.210758209228516,-20.944168090820312
0.68,0.1698903888463974,-9.615557670593262,-1.7216358184814453,0.06520986557006836,0.12186761200428009,0.28649580478668213,-17.962583541870117,48.83074951171875,-21.046478271484375
0.69,0.22731813788414001,-9.571290016174316,-1.781456470489502,0.06612616032361984,0.09025533497333527,0.26939156651496887,-17.61180877685547,48.5384407043457,-20.90032196044922
0.7,0.23688943684101105,-9.530611991882324,-1.7623138427734375,0.0754418596625328,0.053297992795705795,0.2525927722454071,-18.09412384033203,48.90382766723633,-21.83572006225586
0.72,0.26560330390930176,-9.558130264282227,-1.7862420082092285,0.08124507963657379,0.014508049935102463,0.2307543307542801,-17.670272827148438,49.07921600341797,-22.084184646606445
0.723,0.4402793347835541,-9.591629981994629,-1.8424733877182007,0.09300423413515091,-0.051312681287527084,0.20525072515010834,-17.480268478393555,48.75767135620117,-22.11341667175293
0.73,0.5096712112426758,-9.58205795288086,-1.8029918670654297,0.09987646341323853,-0.09666942805051804,0.19562958180904388,-17.187957763671875,49.07921600341797,-21.26571273803711
0.74,0.5958127975463867,-9.506684303283691,-1.836491346359253,0.1111774668097496,-0.16065755486488342,0.1800525188446045,-17.23180389404297,49.35691452026367,-21.338788986206055
0.75,0.6867400407791138,-9.430113792419434,-1.8448662757873535,0.12202033400535583,-0.2226603776216507,0.17287485301494598,-17.202571868896484,49.06460189819336,-21.031862258911133
0.76,0.6687938570976257,-9.342775344848633,-1.8089739084243774,0.12690724432468414,-0.2768746614456177,0.18387043476104736,-16.939491271972656,48.94767761230469,-21.57263946533203
0.78,0.6448656916618347,-9.184849739074707,-1.7216358184814453,0.13958270847797394,-0.34315353631973267,0.20845776796340942,-16.734872817993164,48.72844314575195,-21.29494285583496
0.784,0.6161518096923828,-8.903693199157715,-1.3938192129135132,0.19135352969169617,-0.42577308416366577,0.21532998979091644,-16.676410675048828,48.93306350708008,-21.938030242919922
0.79,0.5934200286865234,-8.794819831848145,-1.219143033027649,0.2148718386888504,-0.4703662395477295,0.21181751787662506,-16.457176208496094,48.39228439331055,-21.236480712890625
0.8,0.47018963098526,-8.682356834411621,-0.9990034103393555,0.2307543307542801,-0.5032002329826355,0.19624045491218567,-15.974861145019531,49.035369873046875,-22.128032684326172
0.81,0.40677982568740845,-8.583054542541504,-0.8506484627723694,0.23289236426353455,-0.5148066878318787,0.1635591685771942,-15.682548522949219,49.19614028930664,-21.221864700317383
0.82,0.4295116364955902,-8.672784805297852,-0.5024927258491516,0.21868975460529327,-0.5342016220092773,0.1085812970995903,-15.974861145019531,49.31306457519531,-21.981876373291016
0.84,0.5276173949241638,-8.931209564208984,-0.26440688967704773,0.1472185254096985,-0.5725334286689758,0.03176499158143997,-15.477930068969727,48.845367431640625,-22.288803100585938
0.844,0.7381857633590698,-9.241080284118652,-0.19501502811908722,0.07101307809352875,-0.6249151229858398,-0.06322455406188965,-15.18561840057373,48.94767761230469,-22.274188995361328
0.85,0.7621140480041504,-9.433703422546387,-0.28115665912628174,0.044287726283073425,-0.66584312915802,-0.12476921826601028,-15.331774711608887,49.12306213378906,-21.952646255493164
0.86,0.6975077390670776,-9.869196891784668,-0.3756731152534485,0.03130684420466423,-0.7240279912948608,-0.20173825323581696,-15.828704833984375,49.15229415893555,-21.733409881591797
0.87,0.4402793347835541,-10.41476058959961,-0.43190446496009827,0.020005837082862854,-0.7718282341957092,-0.2816088795661926,-15.214850425720215,49.38614273071289,-22.318035125732422
0.88,0.04666003957390785,-10.916056632995605,-0.5144568085670471,-0.0018325956771150231,-0.7722863554954529,-0.3988949954509735,-15.317158699035645,49.649227142333984,-22.771120071411133
0.9,-0.2189432680606842,-11.33360481262207,-0.6448656916618347,-0.03145955875515938,-0.711963415145874,-0.5009095072746277,-15.068693161010742,49.049983978271484,-22.084184646606445
0.904,-0.037088751792907715,-11.418549537658691,-0.98703932762146,-0.06933320313692093,-0.5650503635406494,-0.6201809048652649,-15.375621795654297,49.35691452026367,-22.683425903320312
0.91,0.28115665912628174,-11.364710807800293,-1.109073281288147,-0.07528913766145706,-0.5247332453727722,-0.6464481353759766,-15.448699951171875,49.70768737792969,-23.078046798706055
0.92,0.8327022790908813,-11.161321640014648,-1.3351950645446777,-0.0832303911447525,-0.47708573937416077,-0.675006091594696,-15.872551918029785,49.73691940307617,-22.44957733154297
0.93,1.3543375730514526,-10.945966720581055,-1.5337992906570435,-0.0835358202457428,-0.4915938079357147,-0.6789767146110535,-15.741011619567871,49.51768493652344,-23.341127395629883
0.94,1.7479568719863892,-10.634900093078613,-1.7072789669036865,-0.07880160957574844,-0.5592471361160278,-0.6676757335662842,-15.843321800231934,49.576148986816406,-22.537269592285156
0.96,1.8340984582901,-10.431509971618652,-1.6713865995407104,-0.07483098655939102,-0.6597344279289246,-0.6582072973251343,-15.872551918029785,49.98538589477539,-22.82958221435547
0.963,1.6522438526153564,-10.214959144592285,-1.5493526458740234,-0.11591167747974396,-0.7686211466789246,-0.6366742849349976,-16.208711624145508,49.7223014831543,-22.65419578552246
0.97,1.4763715267181396,-10.181459426879883,-1.4859428405761719,-0.1511891484260559,-0.8051204085350037,-0.6250678896903992,-15.375621795654297,49.51768493652344,-22.639577865600586
0.981,1.2418749332427979,-10.088139533996582,-1.3375877141952515,-0.2324342280626297,-0.8379544019699097,-0.6175847053527832,-15.974861145019531,49.51768493652344,-22.624963760375977
0.991,1.046859860420227,-9.90269660949707,-1.1832507848739624,-0.3003929853439331,-0.8480336666107178,-0.6256787180900574,-16.340251922607422,49.70768737792969,-22.858814239501953
1.0,1.0325030088424683,-9.69212818145752,-1.0683952569961548,-0.361174076795578,-0.8405505418777466,-0.6485861539840698,-16.457176208496094,49.45922088623047,-22.72727394104004
1.02,1.155733346939087,-9.499505043029785,-0.9631110429763794,-0.4161519408226013,-0.8290968537330627,-0.6884450912475586,-16.88102912902832,49.590763092041016,-21.879568099975586
1.024,1.2335000038146973,-9.293722152709961,-0.8769694566726685,-0.479834645986557,-0.8051204085350037,-0.7638869881629944,-16.734872817993164,49.210758209228516,-21.938030242919922
1.03,1.2574282884597778,-9.211170196533203,-0.8793622851371765,-0.50335294008255,-0.7925975918769836,-0.8051204085350037,-17.42180633544922,48.90382766723633,-22.332651138305664
1.04,1.25862455368042,-9.176474571228027,-0.7896314859390259,-0.5335907936096191,-0.769079327583313,-0.8639161586761475,-17.34872817993164,49.45922088623047,-22.814966201782227
1.05,1.176072359085083,-9.23031234741211,-0.7776673436164856,-0.5624541640281677,-0.7409795522689819,-0.9204212427139282,-17.187957763671875,49.210758209228516,-22.084184646606445
1.06,1.0887342691421509,-9.190832138061523,-0.8338987231254578,-0.584139883518219,-0.6841690540313721,-0.9692904353141785,-17.71411895751953,49.45922088623047,-21.236480712890625
1.08,0.9762716293334961,-9.115457534790039,-0.8997012972831726,-0.5977316498756409,-0.6284275650978088,-1.0250318050384521,-17.831043243408203,48.75767135620117,-20.973400115966797
1.084,0.9499505758285522,-9.07717227935791,-1.1306086778640747,-0.5963572263717651,-0.5244278311729431,-1.1012372970581055,-18.137971878051758,49.225372314453125,-21.76264190673828
1.09,1.0277173519134521,-9.049654960632324,-1.1282157897949219,-0.5873469114303589,-0.47769662737846375,-1.1397217512130737,-18.5325927734375,49.049983978271484,-20.564163208007812
1.1,1.172482967376709,-9.109475135803223,-1.2023932933807373,-0.5878050327301025,-0.4210388660430908,-1.1791225671768188,-19.05875587463379,48.94767761230469,-20.491085052490234
1.11,1.4656038284301758,-9.127422332763672,-1.3591231107711792,-0.5804746747016907,-0.3649919927120209,-1.2104294300079346,-19.044137954711914,49.049983978271484,-20.534931182861328
1.12,1.5290136337280273,-9.176474571228027,-1.4895319938659668,-0.5667302012443542,-0.29504790902137756,-1.2205086946487427,-19.90645980834961,48.88921356201172,-19.950305938720703
1.14,1.9920247793197632,-9.141778945922852,-1.4919248819351196,-0.5580253601074219,-0.24755313992500305,-1.220050573348999,-20.768781661987305,48.9622917175293,-19.99415397644043
1.144,2.416750907897949,-9.019744873046875,-1.7001004219055176,-0.5378668308258057,-0.23839014768600464,-1.2043209075927734,-21.26571273803711,48.34843444824219,-19.80415153503418
1.15,2.6500511169433594,-9.06281566619873,-1.7407783269882202,-0.5134322047233582,-0.2698497176170349,-1.1971430778503418,-20.885705947875977,48.55305480957031,-19.862613677978516
1.16,2.851048231124878,-9.20997428894043,-1.798206090927124,-0.48838675022125244,-0.32391127943992615,-1.1856893301010132,-21.324174880981445,48.45074462890625,-19.19029426574707
1.17,3.0388846397399902,-9.30927562713623,-1.9776678085327148,-0.45723262429237366,-0.3825543522834778,-1.157131552696228,-21.26571273803711,47.471500396728516,-19.35106658935547
1.18,3.1728827953338623,-9.479166984558105,-1.975274920463562,-0.43020185828208923,-0.42821651697158813,-1.1288789510726929,-21.674949645996094,48.23151397705078,-19.08798599243164
1.2,2.867797613143921,-9.487541198730469,-2.025524377822876,-0.4208861291408539,-0.46883904933929443,-1.0853548049926758,-22.888044357299805,47.99766159057617,-18.854137420654297
1.204,2.609373092651367,-9.282955169677734,-2.111665964126587,-0.4031710624694824,-0.4645630121231079,-1.0340421199798584,-22.975738525390625,47.96842956542969,-18.079509735107422
1.21,2.4705893993377686,-9.20279598236084,-2.1750757694244385,-0.39767327904701233,-0.44486260414123535,-1.0195341110229492,-22.698041915893555,47.82227325439453,-18.240280151367188
1.22,2.51724910736084,-9.17288589477539,-2.1678972244262695,-0.3917173445224762,-0.42989641427993774,-0.9940304756164551,-23.50189971923828,47.98304748535156,-18.56182289123535
1.23,2.4370899200439453,-9.184849739074707,-2.1296122074127197,-0.3940081000328064,-0.3781256079673767,-0.9587529897689819,-24.232681274414062,47.77842712402344,-17.81642723083496
1.24,2.630908489227295,-9.184849739074707,-2.0446667671203613,-0.4059199392795563,-0.32162055373191833,-0.9088147878646851,-24.59807014465332,47.836891174316406,-17.90412139892578
1.26,2.6739792823791504,-9.195616722106934,-1.97407865524292,-0.41661009192466736,-0.2658790946006775,-0.8645269870758057,-24.188833236694336,47.61765670776367,-17.757965087890625
1.264,3.218346357345581,-9.254240989685059,-1.9501503705978394,-0.42867469787597656,-0.19792033731937408,-0.8032878041267395,-24.70037841796875,47.500728607177734,-17.684886932373047
1.27,3.0687947273254395,-9.227920532226562,-2.049452543258667,-0.4360050857067108,-0.14645493030548096,-0.764955997467041,-24.94884490966797,47.00379943847656,-17.567962646484375
1.28,3.379861831665039,-9.2255277633667,-2.24566388130188,-0.4193589985370636,-0.05910121276974678,-0.7096726894378662,-25.460391998291016,47.39842224121094,-16.69102668762207
1.29,3.500699520111084,-9.18604564666748,-2.4059829711914062,-0.38408151268959045,0.024892758578062057,-0.6378960609436035,-25.50423812866211,47.13534164428711,-17.14410972595215
1.3,3.8045878410339355,-9.139386177062988,-2.54117751121521,-0.3433062732219696,0.059864792972803116,-0.5842925906181335,-25.825780868530273,46.872257232666016,-16.06255531311035
1.321,3.974478244781494,-9.052047729492188,-2.6703901290893555,-0.29275718331336975,0.0754418596625328,-0.5207626223564148,-26.176557540893555,47.237648010253906,-16.588716506958008
1.325,4.1730828285217285,-9.10110092163086,-2.6835503578186035,-0.21074850857257843,0.05161811038851738,-0.4156937897205353,-26.731950759887695,47.41303634643555,-16.910259246826172
1.33,4.311866283416748,-9.181260108947754,-2.6703901290893555,-0.18906280398368835,0.02687807008624077,-0.3839287757873535,-26.54194450378418,47.14995574951172,-16.837182998657227
1.34,4.362115383148193,-9.42054271697998,-2.6428725719451904,-0.1466076523065567,-0.04352414980530739,-0.3124575614929199,-27.097341537475586,47.296112060546875,-15.507162094116211
1.35,4.429114818572998,-9.841679573059082,-2.720639228820801,-0.11453723162412643,-0.09178250283002853,-0.2513710558414459,-26.54194450378418,47.106109619140625,-16.939491271972656
1.36,4.274777412414551,-10.086943626403809,-2.9587249755859375,-0.06276640295982361,-0.10293079167604446,-0.17379117012023926,-27.15580177307129,47.00379943847656,-16.223325729370117
1.38,4.2963128089904785,-10.163514137268066,-3.2482566833496094,0.023060161620378494,-0.08048149198293686,-0.06918048858642578,-27.272727966308594,46.667640686035156,-16.340251922607422
1.383,4.486542224884033,-10.176674842834473,-3.1405797004699707,0.17989981174468994,-0.015882495790719986,0.15836679935455322,-27.24349594116211,47.41303634643555,-15.85793685913086
1.39,4.610969066619873,-10.340582847595215,-2.9036900997161865,0.21181751787662506,-0.014049900695681572,0.2750420570373535,-26.761180877685547,46.682254791259766,-16.88102912902832
1.4,4.284348964691162,-10.596613883972168,-2.5088744163513184,0.20082195103168488,-0.08185594528913498,0.37827828526496887,-26.761180877685547,47.456886291503906,-17.100261688232422
1.41,3.768695592880249,-10.687541961669922,-2.26959228515625,0.14782939851284027,-0.1944078654050827,0.4283692538738251,-26.249635696411133,46.38994216918945,-16.340251922607422
1.42,3.2231318950653076,-10.711469650268555,-2.1786649227142334,0.09743300080299377,-0.2554943859577179,0.47342056035995483,-26.805028915405273,46.95995330810547,-16.559486389160156
1.44,2.693121910095215,-10.734201431274414,-2.1571295261383057,0.08139779418706894,-0.24358251690864563,0.5392412543296814,-25.67962646484375,46.62379455566406,-15.609471321105957
1.444,1.8664016723632812,-10.628917694091797,-2.049452543258667,0.09560041129589081,-0.1463022232055664,0.6551529169082642,-26.191171646118164,47.20841979980469,-16.574100494384766
1.45,1.590030550956726,-10.559525489807129,-2.0003998279571533,0.10583239793777466,-0.08506298810243607,0.7089090943336487,-25.50423812866211,47.529964447021484,-16.574100494384766
1.46,1.0205388069152832,-10.25324535369873,-1.92741858959198,0.12568552792072296,-0.0013744467869400978,0.773202657699585,-25.197309494018555,47.237648010253906,-16.559486389160156
1.47,0.5371886491775513,-9.824929237365723,-1.8293129205703735,0.14584407210350037,0.07238753139972687,0.817337691783905,-24.74422836303711,47.06226348876953,-16.13563346862793
1.48,0.15672987699508667,-9.354740142822266,-1.6067804098129272,0.1670716404914856,0.14935654401779175,0.8491026759147644,-24.75884246826172,47.71996307373047,-15.960245132446289
1.5,-0.19381862878799438,-8.947959899902344,-1.306481122970581,0.1586722582578659,0.23594669997692108,0.8782715201377869,-24.159603118896484,47.70534896850586,-15.594855308532715
1.504,-0.39840495586395264,-8.559126853942871,-1.0791629552841187,0.13408491015434265,0.4231768846511841,0.9282097220420837,-24.378835678100586,47.310726165771484,-16.091785430908203
1.51,-0.4893321990966797,-8.398807525634766,-1.0875378847122192,0.1215621829032898,0.5161811113357544,0.9529497623443604,-24.071908950805664,47.16456985473633,-15.945630073547363
1.52,-0.5084748268127441,-8.127222061157227,-1.2119646072387695,0.13118331134319305,0.6178901791572571,0.9685268402099609,-23.355743408203125,47.39842224121094,-16.296403884887695
1.53,-0.5288137793540955,-8.02074146270752,-1.3543375730514526,0.16752979159355164,0.7008151412010193,0.9706648588180542,-23.823442459106445,47.26688003540039,-16.106401443481445
1.54,-0.5515456199645996,-7.975277900695801,-1.4261221885681152,0.20784689486026764,0.7709118723869324,0.9561567902565002,-22.785736083984375,47.471500396728516,-15.81408977508545
1.56,-0.5443671345710754,-7.966902732849121,-1.5493526458740234,0.2509129047393799,0.8349000811576843,0.9288205504417419,-23.22420310974121,47.5591926574707,-16.778718948364258
1.564,-0.592223584651947,-8.23848819732666,-1.8305093050003052,0.30115655064582825,0.8801040649414062,0.8978191614151001,-23.165740966796875,47.237648010253906,-16.734872817993164
1.57,-0.6329016089439392,-8.548358917236328,-1.867598056793213,0.3326161205768585,0.8961393237113953,0.8813258409500122,-23.092662811279297,47.26688003540039,-17.085647583007812
1.58,-0.7704888582229614,-9.043672561645508,-1.8376877307891846,0.35674530267715454,0.9159923791885376,0.862541675567627,-23.22420310974121,47.71996307373047,-16.70564079284668
1.59,-0.7884350419044495,-9.45763111114502,-1.817348837852478,0.3594941794872284,0.9347765445709229,0.8405505418777466,-23.355743408203125,47.544578552246094,-16.98333740234375
1.6,-0.8315058350563049,-9.744770050048828,-1.852044701576233,0.3530800938606262,0.9564622640609741,0.816726803779602,-23.472667694091797,47.79304122924805,-16.895645141601562
1.62,-0.8147560954093933,-10.000802040100098,-1.88075852394104,0.3428480923175812,0.9853256344795227,0.806036651134491,-23.268049240112305,48.07073974609375,-17.947969436645508
1.623,-0.7752745151519775,-10.132407188415527,-1.9477574825286865,0.33337968587875366,1.0497719049453735,0.8052730560302734,-23.39959144592285,48.085357666015625,-17.071033477783203
1.63,-0.6675975322723389,-10.140782356262207,-1.9860427379608154,0.32849279046058655,1.0954340696334839,0.8026769757270813,-23.531131744384766,47.71996307373047,-17.567962646484375
1.64,-0.5910272002220154,-10.027122497558594,-2.0279171466827393,0.3271183371543884,1.1623238325119019,0.8138251900672913,-23.01958465576172,48.39228439331055,-16.793336868286133
1.65,-0.34217363595962524,-10.013962745666504,-2.0338993072509766,0.33490684628486633,1.2405145168304443,0.8358163237571716,-22.610347747802734,47.99766159057617,-17.056415557861328
1.66,-0.10648059844970703,-10.012765884399414,-2.025524377822876,0.3452915847301483,1.29243803024292,0.8700248003005981,-23.721134185791016,48.845367431640625,-18.488744735717773
1.68,0.15672987699508667,-9.991230964660645,-2.0506489276885986,0.3581197261810303,1.3261884450912476,0.9083565473556519,-23.253435134887695,48.5384407043457,-18.6933650970459
1.684,0.37806597352027893,-9.948159217834473,-2.11405873298645,0.3715587854385376,1.3397800922393799,0.9744827747344971,-23.326513290405273,48.37766647338867,-18.50336265563965
1.69,0.43190446496009827,-9.934999465942383,-2.148754596710205,0.3735440969467163,1.3292428255081177,0.9950994253158569,-22.990352630615234,48.20227813720703,-17.97719955444336
1.804,-0.47138604521751404,-8.724230766296387,-1.7180465459823608,0.27947086095809937,0.8465065360069275,1.1855366230010986,-21.528793334960938,50.17538833618164,-19.877227783203125
1.81,-0.6029912829399109,-8.816354751586914,-1.6450655460357666,0.2782491147518158,0.8662069439888,1.1595749855041504,-21.616485595703125,49.795379638671875,-19.17568016052246
1.82,-0.6975077390670776,-8.943174362182617,-1.6630116701126099,0.2816088795661926,0.9011789560317993,1.1155925989151,-21.411867141723633,49.766151428222656,-20.388774871826172
1.83,-0.6999006271362305,-8.997013092041016,-1.698904037475586,0.2880229651927948,0.9382889866828918,1.0719157457351685,-20.4326229095459,49.50307083129883,-19.80415153503418
1.84,-0.7800601124763489,-9.098708152770996,-1.734796404838562,0.2973386347293854,0.9715811610221863,1.028544306755066,-20.783395767211914,49.795379638671875,-19.99415397644043
1.86,-0.6711867451667786,-9.267401695251465,-1.7180465459823608,0.3078760802745819,1.0074695348739624,0.9824240207672119,-20.213388442993164,50.01461410522461,-20.666471481323242
1.864,-0.5108676552772522,-9.404989242553711,-1.7419748306274414,0.32131510972976685,1.0561859607696533,0.9240863919258118,-19.99415397644043,49.88307571411133,-20.62262535095215
1.87,-0.1663011610507965,-9.479166984558105,-1.6295121908187866,0.32330042123794556,1.0705413818359375,0.90728759765625,-20.418006896972656,49.82461166381836,-20.18415641784668
1.88,-0.05503491684794426,-9.487541198730469,-1.672582983970642,0.3170390725135803,1.0740537643432617,0.8907942175865173,-20.286466598510742,50.08769607543945,-20.388774871826172
1.89,0.10408778488636017,-9.4121675491333,-1.710868239402771,0.313373863697052,1.0548114776611328,0.879493236541748,-19.877227783203125,49.69307327270508,-20.695703506469727
1.9,0.37447673082351685,-9.42772102355957,-1.7001004219055176,0.3107776939868927,1.0128145217895508,0.8713992834091187,-20.09646224975586,49.605377197265625,-20.666471481323242
1.919,0.27397817373275757,-9.385847091674805,-1.8077774047851562,0.290313720703125,0.8721628189086914,0.8277223706245422,-20.286466598510742,50.160770416259766,-21.119556427001953
1.923,0.21296119689941406,-9.31166934967041,-1.8472589254379272,0.28557947278022766,0.8332201838493347,0.8133670687675476,-19.81876564025879,50.01461410522461,-21.236480712890625
1.93,0.5682953596115112,-9.20159912109375,-1.7635102272033691,0.2831360399723053,0.7761042714118958,0.7874053120613098,-19.83338165283203,49.94153594970703,-21.031862258911133
1.94,0.34217363595962524,-9.17288589477539,-1.7730815410614014,0.27458393573760986,0.6881397366523743,0.7542658448219299,-19.964923858642578,50.30692672729492,-21.075708389282227
1.95,0.2225324958562851,-9.243474006652832,-1.7994025945663452,0.2678644061088562,0.628885805606842,0.7289149165153503,-19.80415153503418,49.663841247558594,-21.20724868774414
1.96,0.22971096634864807,-9.214759826660156,-1.8448662757873535,0.2567161023616791,0.5677992701530457,0.693637490272522,-19.599531173706055,50.10231018066406,-20.564163208007812
1.98,-0.10169495642185211,-9.195616722106934,-2.038684844970703,0.2583959996700287,0.5519167184829712,0.6583600044250488,-19.0733699798584,50.21923065185547,-20.871089935302734
1.983,-0.041874393820762634,-9.281758308410645,-2.0853447914123535,0.2727513313293457,0.5601634383201599,0.5994114875793457,-19.146448135375977,49.97077178955078,-21.163402557373047
1.99,-0.23688943684101105,-9.355936050415039,-2.1547367572784424,0.279928982257843,0.5607743263244629,0.5540547966957092,-19.24875831604004,49.98538589477539,-21.66033363342285
2.0,-0.18544374406337738,-9.650253295898438,-2.194218397140503,0.3019201457500458,0.5905539989471436,0.48655417561531067,-18.664133071899414,50.30692672729492,-22.332651138305664
2.01,0.314656138420105,-10.02592658996582,-2.0482561588287354,0.308181494474411,0.6047565937042236,0.40912699699401855,-19.219526290893555,50.336158752441406,-21.54340934753418
2.02,0.8757730722427368,-10.403992652893066,-1.8532410860061646,0.29306259751319885,0.59803706407547,0.36331209540367126,-19.00029182434082,50.20461654663086,-21.587255477905273
2.039,1.4189437627792358,-10.517650604248047,-1.672582983970642,0.25854870676994324,0.5021312236785889,0.30925053358078003,-19.204912185668945,50.65769958496094,-21.29494285583496
2.043,1.813759446144104,-10.53081226348877,-1.550549030303955,0.24648413062095642,0.460286945104599,0.30054569244384766,-19.17568016052246,50.40924072265625,-22.142648696899414
2.05,1.8640087842941284,-10.540384292602539,-1.5074782371520996,0.22418753802776337,0.389426589012146,0.28725937008857727,-19.131834030151367,50.0584602355957,-22.361881256103516
2.06,1.9142580032348633,-10.55115032196045,-1.5792629718780518,0.1895209401845932,0.28557947278022766,0.2522873282432556,-18.985675811767578,50.540775299072266,-22.610347747802734
2.07,2.094916343688965,-10.447062492370605,-1.6450655460357666,0.1492038369178772,0.10659598559141159,0.22098049521446228,-19.55568504333496,50.21923065185547,-21.54340934753418
2.08,2.060220241546631,-10.429117202758789,-1.820937991142273,0.12568552792072296,-0.06658431142568588,0.19425514340400696,-20.1110782623291,51.154632568359375,-21.499561309814453
2.1,1.8317056894302368,-10.48534870147705,-1.978864312171936,0.11209376901388168,-0.22815817594528198,0.17531833052635193,-19.424144744873047,51.06694030761719,-22.37649917602539
2.104,1.2454640865325928,-10.912467002868652,-1.8867405652999878,0.10415252298116684,-0.44348815083503723,0.1385136991739273,-19.54106903076172,50.365386962890625,-22.09880256652832
2.11,1.0683952569961548,-11.11226749420166,-1.7132608890533447,0.10277807712554932,-0.5135849714279175,0.11682797223329544,-19.05875587463379,50.67231750488281,-21.791873931884766
2.12,0.6640082597732544,-11.319247245788574,-1.3040882349014282,0.07192938029766083,-0.682641863822937,0.050854530185461044,-19.24875831604004,51.09617233276367,-21.29494285583496
2.13,-0.0203389935195446,-11.45563793182373,-1.1868400573730469,0.019547687843441963,-0.7906123399734497,-0.012980885803699493,-19.117216110229492,50.42385482788086,-21.777257919311523
2.14,-0.5635097026824951,-11.527421951293945,-1.3543375730514526,-0.03588833287358284,-0.8547531962394714,-0.08292495459318161,-19.029523849487305,50.73078155517578,-21.38263702392578
2.16,-0.9762716293334961,-11.400602340698242,-1.7156537771224976,-0.078343465924263,-0.8790351152420044,-0.15347988903522491,-18.44489860534668,50.5992431640625,-21.879568099975586
2.163,-1.2658032178878784,-11.053643226623535,-1.9537396430969238,-0.08139779418706894,-0.8813258409500122,-0.22999075055122375,-18.474130630493164,50.584625244140625,-21.57263946533203
2.17,-1.306481122970581,-10.993823051452637,-1.9633108377456665,-0.06963863968849182,-0.8885034918785095,-0.2539672255516052,-18.737211227416992,50.70154571533203,-21.514177322387695
2.18,-1.3651052713394165,-11.096714973449707,-1.714457392692566,-0.0507018156349659,-0.9112582206726074,-0.28191429376602173,-18.240280151367188,50.87693786621094,-21.791873931884766
2.19,-1.3722838163375854,-11.1493558883667,-1.4021941423416138,-0.04917465150356293,-0.9416487216949463,-0.3179553747177124,-18.327974319458008,50.43846893310547,-21.616485595703125
2.2,-1.467996597290039,-11.182855606079102,-1.1569297313690186,-0.0780380368232727,-0.9822712540626526,-0.3672827482223511,-18.06489372253418,50.64308547973633,-21.8503360748291
2.22,-1.5361920595169067,-11.320443153381348,-0.9391828775405884,-0.18631389737129211,-1.0783298015594482,-0.5126686692237854,-17.78719711303711,50.24846649169922,-21.57263946533203
2.223,-1.467996597290039,-11.291729927062988,-0.7884350419044495,-0.21930061280727386,-1.1081095933914185,-0.5528330206871033,-17.933351516723633,50.350772857666016,-21.251096725463867
2.23,-1.2095718383789062,-11.144571304321289,-0.8087739944458008,-0.26450464129447937,-1.168585181236267,-0.6055201292037964,-17.860275268554688,50.3215446472168,-21.36802101135254
2.24,-0.8458627462387085,-10.789237022399902,-0.8458627462387085,-0.3147483170032501,-1.275792121887207,-0.6569855809211731,-17.78719711303711,50.350772857666016,-21.251096725463867
2.25,-0.5383850932121277,-10.409974098205566,-0.8051848411560059,-0.3426953852176666,-1.4066699743270874,-0.6794348359107971,-17.61180877685547,50.11692810058594,-20.856473922729492
2.26,-0.33858439326286316,-10.057032585144043,-0.6699903011322021,-0.3646865487098694,-1.546558141708374,-0.6753115057945251,-17.78719711303711,49.86845779418945,-20.841859817504883
2.28,-0.2069791555404663,-9.621540069580078,-0.37926235795021057,-0.4027129113674164,-1.7373007535934448,-0.6417139768600464,-17.275650024414062,50.263084411621094,-21.10494041442871
2.284,-0.22013966739177704,-9.056833267211914,0.02991028130054474,-0.44165557622909546,-1.923156499862671,-0.5977316498756409,-17.407190322875977,50.17538833618164,-20.63724136352539
2.29,-0.35054853558540344,-8.898907661437988,0.2560320198535919,-0.46593746542930603,-2.0285308361053467,-0.5732970237731934,-16.837182998657227,50.19000244140625,-21.01724624633789
2.3,-0.6221339106559753,-8.891729354858398,0.6675975322723389,-0.4967861771583557,-2.163226366043091,-0.5586362481117249,-16.98333740234375,50.08769607543945,-20.63724136352539
2.31,-1.042074203491211,-8.965906143188477,1.098305583000183,-0.5369505286216736,-2.2745566368103027,-0.5632177591323853,-16.32563591003418,49.44460678100586,-21.251096725463867
2.32,-1.5517455339431763,-9.120243072509766,1.4596216678619385,-0.6073527932167053,-2.3658809661865234,-0.5998696684837341,-16.04793930053711,49.6199951171875,-20.052616119384766
2.339,-2.7326035499572754,-9.753144264221191,1.9812570810317993,-0.7231117486953735,-2.3906211853027344,-0.7203628420829773,-15.28792667388916,49.590763092041016,-20.315698623657227
2.343,-3.1034910678863525,-9.948159217834473,2.0123636722564697,-0.7596108913421631,-2.3695461750030518,-0.775340735912323,-15.536393165588379,49.4007568359375,-20.564163208007812
2.35,-3.483949661254883,-10.202995300292969,2.0123636722564697,-0.8127562403678894,-2.3050999641418457,-0.8753698468208313,-14.703303337097168,48.52382278442383,-19.877227783203125
2.36,-4.034298896789551,-10.484152793884277,1.8951154947280884,-0.8767443299293518,-2.1759018898010254,-1.034500241279602,-14.557147026062012,48.90382766723633,-20.228002548217773
2.37,-4.321437358856201,-10.511669158935547,1.5792629718780518,-0.9265298247337341,-1.919338583946228,-1.2528846263885498,-14.527915000915527,48.39228439331055,-19.584917068481445
2.38,-4.448256969451904,-10.346565246582031,1.1258230209350586,-0.9503535628318787,-1.6646077632904053,-1.4121676683425903,-14.513299942016602,48.72844314575195,-19.36568260192871
2.4,-4.329812526702881,-10.013962745666504,0.5347958207130432,-0.9337075352668762,-1.3884966373443604,-1.5416711568832397,-14.016368865966797,48.596900939941406,-18.62028694152832
2.404,-4.01754903793335,-9.695716857910156,0.061016976833343506,-0.8614726662635803,-0.9695958495140076,-1.6618587970733643,-14.425606727600098,48.17304992675781,-17.641040802001953
2.41,-3.6227335929870605,-9.56770133972168,-0.1663011610507965,-0.8298604488372803,-0.8376489877700806,-1.6798794269561768,-14.717918395996094,47.734580993652344,-18.269512176513672
2.42,-3.073580503463745,-9.55214786529541,-0.2799602448940277,-0.7629706859588623,-0.6061310172080994,-1.6888896226882935,-15.682548522949219,48.14381790161133,-17.582576751708984
2.43,-2.4083759784698486,-9.564111709594727,-0.27038896083831787,-0.7257079482078552,-0.4024074673652649,-1.6704108715057373,-15.872551918029785,47.71996307373047,-17.14410972595215
2.441,-1.7407783269882202,-9.461220741271973,-0.29312074184417725,-0.7389942407608032,-0.31383201479911804,-1.6537649631500244,-16.42794418334961,48.041507720947266,-17.100261688232422
2.46,-1.2215359210968018,-9.266205787658691,-0.3732803165912628,-0.7680103182792664,-0.23640485107898712,-1.580461025238037,-17.845659255981445,47.529964447021484,-15.755626678466797
2.463,-0.6771687865257263,-9.036494255065918,-0.5611169338226318,-0.7625125646591187,-0.23686298727989197,-1.5546519756317139,-17.62642478942871,47.14995574951172,-15.81408977508545
2.471,-0.39960137009620667,-8.955138206481934,-0.6185446381568909,-0.7480044364929199,-0.23808471858501434,-1.511891484260559,-17.831043243408203,47.36919021606445,-15.945630073547363
2.48,-0.09930214285850525,-8.849854469299316,-0.7549355626106262,-0.7093672156333923,-0.25335633754730225,-1.4430164098739624,-18.766441345214844,47.281497955322266,-15.945630073547363
2.49,0.16749757528305054,-8.803194046020508,-0.8566304445266724,-0.6569855809211731,-0.2727513313293457,-1.3596333265304565,-19.234142303466797,46.95995330810547,-15.638701438903809
2.5,0.2620140612125397,-8.723034858703613,-0.8506484627723694,-0.5916229486465454,-0.3211624026298523,-1.2861766815185547,-19.43876075744629,46.872257232666016,-14.849458694458008
2.52,0.21774685382843018,-8.61775016784668,-0.6915256977081299,-0.49556440114974976,-0.4369213581085205,-1.1754573583602905,-20.447237014770508,46.62379455566406,-14.484068870544434
2.524,0.16390834748744965,-8.62492847442627,-0.5970092415809631,-0.47968190908432007,-0.460286945104599,-1.1562150716781616,-20.63724136352539,46.82841491699219,-14.39637565612793
2.53,0.13040883839130402,-8.691927909851074,-0.5084748268127441,-0.46822819113731384,-0.48869219422340393,-1.129337191581726,-20.944168090820312,46.316864013671875,-14.717918395996094
2.54,-0.11844471842050552,-8.770891189575195,-0.48813581466674805,-0.45662176609039307,-0.4726569652557373,-1.091310739517212,-20.885705947875977,46.44840621948242,-14.586379051208496
2.55,-0.3158525824546814,-8.854640007019043,-0.43190446496009827,-0.44455718994140625,-0.44104471802711487,-1.0783298015594482,-21.148786544799805,46.25840377807617,-14.381760597229004
2.56,-0.39840495586395264,-8.894121170043945,-0.32662028074264526,-0.4524984359741211,-0.3753766715526581,-1.0684032440185547,-21.777257919311523,46.112247467041016,-14.133294105529785
2.579,-0.380458801984787,-8.691927909851074,-0.45942193269729614,-0.4882340133190155,-0.08368853479623795,-1.0207557678222656,-21.791873931884766,45.98070526123047,-13.460975646972656
2.583,-0.30628129839897156,-8.59621524810791,-0.4342972934246063,-0.4925100803375244,-0.0177150908857584,-1.011745572090149,-22.288803100585938,45.922245025634766,-13.884828567504883
2.59,-0.17347964644432068,-8.146364212036133,-0.5503491759300232,-0.5004513263702393,0.07498370856046677,-0.9873108863830566,-22.011106491088867,45.24992752075195,-13.27097225189209
2.6,-0.0131605239585042,-7.45364236831665,-0.8159525394439697,-0.4781547486782074,0.184939444065094,-0.9547823667526245,-22.917274475097656,46.05378341674805,-13.680211067199707
2.61,0.34695929288864136,-6.969095706939697,-0.9332008361816406,-0.42898011207580566,0.22388210892677307,-0.9271407127380371,-23.10727882385254,45.27915573120117,-13.592517852783203
2.62,0.4402793347835541,-6.719045639038086,-0.8111668825149536,-0.413097620010376,0.20265454053878784,-0.9083565473556519,-23.998830795288086,45.62993240356445,-13.344051361083984
2.639,0.576670229434967,-6.57547664642334,-0.9128617644309998,-0.41431936621665955,0.19120082259178162,-0.873842716217041,-24.276527404785156,45.30839157104492,-12.306343078613281
2.643,0.6699903011322021,-6.605386734008789,-1.0013961791992188,-0.4112650156021118,0.2151772677898407,-0.8596401214599609,-24.451913833618164,45.46916198730469,-12.934814453125
2.65,0.7752745151519775,-6.744170188903809,-0.98703932762146,-0.40653079748153687,0.2532036304473877,-0.840397834777832,-24.627302169799805,44.97222900390625,-12.408652305603027
2.66,0.8793622851371765,-6.870989799499512,-1.0456634759902954,-0.4092797338962555,0.3274237811565399,-0.8052730560302734,-25.05115509033203,44.79684066772461,-11.999415397644043
2.67,0.9846464395523071,-7.036094665527344,-1.077966570854187,-0.4153883457183838,0.4050036370754242,-0.767857551574707,-25.12423324584961,44.21221923828125,-12.554807662963867
2.68,1.168893814086914,-7.1162543296813965,-0.9487541317939758,-0.43279802799224854,0.49006664752960205,-0.722959041595459,-25.650394439697266,44.94300079345703,-11.9847993850708
2.699,1.7958134412765503,-7.430910587310791,-0.9690931439399719,-0.4502076804637909,0.5329799056053162,-0.6597344279289246,-26.86349105834961,44.928382873535156,-11.838644027709961
2.704,1.987239122390747,-7.5565338134765625,-1.015753149986267,-0.4502076804637909,0.5381722450256348,-0.6430883407592773,-27.199649810791016,44.03683090209961,-11.210172653198242
2.71,2.1954145431518555,-7.7802629470825195,-1.1318050622940063,-0.44577890634536743,0.5285511612892151,-0.6269004344940186,-27.272727966308594,44.31452941894531,-11.677871704101562
2.72,2.4406790733337402,-7.977670669555664,-1.451246976852417,-0.4196644127368927,0.5097670555114746,-0.6085745096206665,-27.62350082397461,44.24144744873047,-11.32709789276123
2.73,2.5196421146392822,-8.304290771484375,-1.7682960033416748,-0.3770565688610077,0.4712825417518616,-0.5968153476715088,-27.915815353393555,44.15375518798828,-10.874013900756836
2.74,2.6009981632232666,-8.623732566833496,-1.9609181880950928,-0.3231476843357086,0.40653079748153687,-0.5858197212219238,-28.83659553527832,43.817596435546875,-10.128617286682129
2.76,2.5435705184936523,-8.701499938964844,-2.1092729568481445,-0.27061331272125244,0.38377609848976135,-0.5393940210342407,-28.71967315673828,44.27068328857422,-10.859397888183594
2.764,2.5220348834991455,-8.61775016784668,-2.1714866161346436,-0.2643519341945648,0.38988474011421204,-0.5170974135398865,-29.09967803955078,43.94913864135742,-10.64016342163086
2.77,2.612962245941162,-8.337790489196777,-2.251646041870117,-0.24373522400856018,0.4205807149410248,-0.4911356270313263,-29.421222686767578,43.802982330322266,-10.537854194641113
2.78,2.8905298709869385,-8.066205024719238,-2.15234375,-0.21991148591041565,0.4450153112411499,-0.4352414906024933,-29.97661590576172,43.14527893066406,-10.391697883605957
2.79,3.1920251846313477,-7.846065044403076,-2.038684844970703,-0.2070833146572113,0.4697553813457489,-0.35384368896484375,-29.669687271118164,43.466819763183594,-11.078632354736328
2.8,3.613162040710449,-7.810173034667969,-2.0195422172546387,-0.19624045491218567,0.48517972230911255,-0.284052312374115,-30.312772750854492,43.21835708618164,-9.77784252166748
2.814,3.9074792861938477,-7.960920810699463,-2.149951219558716,-0.1869247555732727,0.48869219422340393,-0.1950187236070633,-30.692779541015625,43.53989791870117,-10.157849311828613
2.82,4.0905303955078125,-8.043473243713379,-2.2851455211639404,-0.17531833052635193,0.4772384762763977,-0.1440114825963974,-30.590471267700195,43.59836196899414,-9.558608055114746
2.83,4.1383867263793945,-8.189435005187988,-2.3401803970336914,-0.1644754558801651,0.4619668424129486,-0.08903361111879349,-30.94124412536621,43.21835708618164,-10.508623123168945
2.84,4.208974838256836,-8.322237014770508,-2.4717857837677,-0.15592335164546967,0.432034432888031,-0.030085112899541855,-31.02893829345703,44.022212982177734,-10.304004669189453
2.85,4.204189300537109,-8.529216766357422,-2.4909281730651855,-0.15454889833927155,0.40424004197120667,0.01191187184303999,-31.350481033325195,43.422977447509766,-10.289388656616211
2.86,4.275973796844482,-8.653642654418945,-2.4155545234680176,-0.16554446518421173,0.3825543522834778,0.05665775015950203,-30.795087814331055,43.34989929199219,-9.880152702331543
2.88,4.185046672821045,-8.608179092407227,-2.603391170501709,-0.22021691501140594,0.35445454716682434,0.15057827532291412,-31.45279312133789,43.56913375854492,-9.50014591217041
2.884,4.137190341949463,-8.668000221252441,-2.699103832244873,-0.22220222651958466,0.35475999116897583,0.16798794269561768,-31.379714965820312,43.34989929199219,-10.201695442199707
2.89,4.042673587799072,-8.745766639709473,-2.7625136375427246,-0.22113321721553802,0.3669773042201996,0.1875356286764145,-31.49663734436035,42.98450469970703,-9.894767761230469
2.9,3.862015724182129,-9.053244590759277,-3.0041887760162354,-0.21090121567249298,0.4153883457183838,0.20784689486026764,-31.584331512451172,43.56913375854492,-9.704765319824219
2.91,3.8153557777404785,-9.235098838806152,-3.1968109607696533,-0.18845191597938538,0.4970915913581848,0.23655755817890167,-31.49663734436035,43.29143524169922,-8.257820129394531
2.92,3.85483717918396,-9.384650230407715,-3.5533413887023926,-0.12721268832683563,0.5850561857223511,0.2820670008659363,-31.920490264892578,43.17451095581055,-9.368605613708496
2.934,4.191028594970703,-9.66102123260498,-3.8117663860321045,0.02977968007326126,0.6696610450744629,0.38270705938339233,-31.379714965820312,42.37065124511719,-9.514761924743652
2.94,4.493720531463623,-9.80817985534668,-3.923032522201538,0.11499537527561188,0.674089789390564,0.4489859640598297,-31.730487823486328,43.189125061035156,-9.54399299621582
2.95,4.919642925262451,-9.728019714355469,-3.950549840927124,0.23167064785957336,0.6241515278816223,0.5583308339118958,-31.81818199157715,43.15989685058594,-9.923998832702637
2.96,5.136193752288818,-9.335597038269043,-3.7746775150299072,0.3309362530708313,0.5209153294563293,0.6998988389968872,-31.949722290039062,43.6422119140625,-10.143233299255371
2.97,4.9292144775390625,-9.270990371704102,-3.469592809677124,0.4050036370754242,0.3588833212852478,0.8341364860534668,-32.03741455078125,43.40835952758789,-10.084770202636719
2.98,4.29033088684082,-9.866804122924805,-3.0616164207458496,0.4265366494655609,0.17409659922122955,0.9159923791885376,-31.993568420410156,44.182987213134766,-10.669394493103027
3.0,2.3198413848876953,-11.37547779083252,-2.888136863708496,0.3078760802745819,-0.0064140851609408855,0.9285151958465576,-30.985092163085938,43.89067459106445,-9.953229904174805
3.005,1.7994025945663452,-11.643473625183105,-3.098705291748047,0.29535335302352905,0.011453723534941673,0.9248499870300293,-30.853551864624023,44.38760757446289,-10.128617286682129
3.01,1.1617152690887451,-11.949755668640137,-3.506681442260742,0.284052312374115,0.09529497474431992,0.9208793640136719,-30.26892852783203,44.636070251464844,-10.45016098022461
3.02,0.7034898400306702,-12.114861488342285,-4.277170181274414,0.3426953852176666,0.2597704529762268,0.9291260242462158,-29.87430763244629,44.48991394042969,-10.260157585144043
3.03,0.6556333899497986,-11.894721984863281,-4.851447582244873,0.49037206172943115,0.4356996417045593,0.9491318464279175,-30.00584602355957,44.69453430175781,-10.245542526245117
3.04,0.97148597240448,-11.406585693359375,-4.6468610763549805,0.6472117304801941,0.5187773108482361,0.9630290865898132,-29.830459594726562,45.33761978149414,-10.800935745239258
3.054,1.6031910181045532,-10.8490571975708,-3.950549840927124,0.8014551401138306,0.46670103073120117,0.9911288022994995,-29.275066375732422,45.790706634521484,-11.79479694366455
3.06,1.782652735710144,-10.969895362854004,-3.427718162536621,0.8287914395332336,0.41462478041648865,1.0123564004898071,-29.37737464904785,45.83454895019531,-11.166325569152832
3.07,1.6941183805465698,-11.411370277404785,-2.6177480220794678,0.794277548789978,0.3390301764011383,1.0299187898635864,-28.938907623291016,45.77608871459961,-11.853259086608887
3.08,1.2658032178878784,-11.633903503417969,-1.97407865524292,0.6742424964904785,0.29565879702568054,1.0264062881469727,-29.055830001831055,46.375328063964844,-11.940953254699707
3.09,0.6125625967979431,-11.6183500289917,-1.9525432586669922,0.5306891798973083,0.35475999116897583,1.007927656173706,-28.588130950927734,46.15609359741211,-12.65711784362793
3.11,0.11964112520217896,-11.490333557128906,-2.111665964126587,0.40744709968566895,0.5433646440505981,0.9778425097465515,-28.427358627319336,46.667640686035156,-12.101724624633789
3.113,0.06939185410737991,-11.164910316467285,-2.581855535507202,0.3620903789997101,0.7898487448692322,1.0033460855484009,-28.325050354003906,46.81379699707031,-12.788658142089844
3.12,0.3720839321613312,-10.893324851989746,-2.792423963546753,0.37751469016075134,0.9301950335502625,1.05099356174469,-28.17889404296875,47.2230339050293,-13.154048919677734
3.13,0.9678966999053955,-10.558329582214355,-2.7553350925445557,0.4121812880039215,1.0653489828109741,1.14873206615448,-27.901199340820312,46.930721282958984,-12.774043083190918
3.14,1.6223337650299072,-10.340582847595215,-2.579462766647339,0.4335615932941437,1.1354458332061768,1.274722933769226,-28.07658576965332,47.67612075805664,-13.314821243286133
3.15,2.2671992778778076,-10.218547821044922,-2.468196392059326,0.46364670991897583,1.1397217512130737,1.4521794319152832,-27.667348861694336,47.98304748535156,-13.110200881958008
3.16,2.5531415939331055,-10.06421184539795,-2.262413740158081,0.48456883430480957,1.0616837739944458,1.5665638446807861,-27.565038681030273,47.80765914916992,-14.104063987731934
3.173,2.358126640319824,-9.974480628967285,-2.15234375,0.4905247688293457,0.9182831645011902,1.6536122560501099,-27.126571655273438,47.71996307373047,-14.294065475463867
3.18,2.135594129562378,-9.839285850524902,-2.091326951980591,0.48915034532546997,0.8324565887451172,1.6814066171646118,-27.15580177307129,48.39228439331055,-13.621747970581055
3.19,1.6223337650299072,-9.665806770324707,-2.073380708694458,0.4893030524253845,0.7177666425704956,1.6920965909957886,-26.96579933166504,48.465362548828125,-14.177140235900879
3.2,1.3076776266098022,-9.455238342285156,-1.9968103170394897,0.48945578932762146,0.5960517525672913,1.6945401430130005,-25.88424301147461,48.30459213256836,-14.615609169006348
3.21,1.0995019674301147,-9.131011009216309,-1.867598056793213,0.4853324294090271,0.5271766781806946,1.7056884765625,-25.621164321899414,48.18766403198242,-14.893306732177734
3.23,0.9846464395523071,-8.93838882446289,-1.7395819425582886,0.4847215414047241,0.48899760842323303,1.7453947067260742,-25.34346580505371,48.78690719604492,-15.171003341674805
3.233,0.9607182741165161,-8.877371788024902,-1.377069354057312,0.46792274713516235,0.44974952936172485,1.8258761167526245,-24.261911392211914,49.093833923339844,-15.507162094116211
3.24,0.9846464395523071,-8.784051895141602,-1.0971091985702515,0.42638394236564636,0.4098905920982361,1.8709274530410767,-23.808828353881836,49.13768005371094,-15.843321800231934
3.25,0.34695929288864136,-8.537590980529785,-1.2167502641677856,0.33368512988090515,0.3419318199157715,1.8961256742477417,-22.785736083984375,49.06460189819336,-15.594855308532715
3.26,-0.6687938570976257,-8.01116943359375,-1.636690616607666,0.289244681596756,0.2733621895313263,1.8364136219024658,-22.990352630615234,49.590763092041016,-15.79947280883789
3.27,-1.3854442834854126,-7.70967435836792,-1.9680966138839722,0.2955060601234436,0.24984388053417206,1.7507396936416626,-22.069570541381836,49.2984504699707,-16.223325729370117
3.28,-1.8077774047851562,-7.6630144119262695,-2.0721843242645264,0.3436116874217987,0.3061962127685547,1.6781994104385376,-20.958784103393555,49.44460678100586,-16.720256805419922
3.293,-2.0027923583984375,-7.819744110107422,-1.9477574825286865,0.41523563861846924,0.4534147381782532,1.6219998598098755,-20.65185546875,49.32768249511719,-16.778718948364258
3.3,-2.0267207622528076,-7.820940971374512,-1.798206090927124,0.432034432888031,0.5873469114303589,1.597107172012329,-19.847997665405273,49.6199951171875,-17.14410972595215
3.31,-1.612762451171875,-7.740781307220459,-1.6977075338363647,0.4054618179798126,0.7290676236152649,1.5978707075119019,-19.409530639648438,49.06460189819336,-16.70564079284668
3.32,-1.1210373640060425,-7.519444942474365,-1.7599210739135742,0.36972618103027344,0.8168795108795166,1.6111570596694946,-18.751827239990234,49.44460678100586,-16.60333251953125
3.33,-0.7920242547988892,-7.660621643066406,-1.7335999011993408,0.3220787048339844,0.8694139719009399,1.631773829460144,-18.766441345214844,49.649227142333984,-16.76410484313965
3.35,-0.26560330390930176,-7.6283183097839355,-1.6941183805465698,0.25503623485565186,0.8199338316917419,1.6453654766082764,-18.09412384033203,49.54691696166992,-16.018707275390625
3.354,-0.05024927482008934,-7.501498699188232,-1.8245272636413574,0.18356500566005707,0.6461427211761475,1.6415475606918335,-17.684886932373047,49.41537857055664,-17.465654373168945
3.36,0.004785645287483931,-7.39860725402832,-1.7670994997024536,0.16310101747512817,0.5215262174606323,1.6271922588348389,-17.056415557861328,49.91230773925781,-17.407190322875977
3.37,-0.503689169883728,-7.369893550872803,-1.7060824632644653,0.12186761200428009,0.38896840810775757,1.585806131362915,-16.501022338867188,49.56153106689453,-16.807950973510742
3.38,-0.8626124858856201,-7.280162334442139,-1.6151552200317383,0.08307767659425735,0.2704605758190155,1.5212072134017944,-15.711779594421387,49.50307083129883,-16.866413116455078
3.39,-1.0145567655563354,-7.304090976715088,-1.5756735801696777,0.05146539583802223,0.21624629199504852,1.4569135904312134,-15.536393165588379,49.10844802856445,-17.304880142211914
3.41,-0.8985048532485962,-7.410571575164795,-1.4656038284301758,0.028099801391363144,0.18188512325286865,1.4077389240264893,-14.966383934020996,49.020755767822266,-16.6325626373291
3.414,-0.7776673436164856,-7.540980339050293,-1.8257235288619995,0.024587325751781464,0.1892155110836029,1.3701707124710083,-14.191757202148438,48.596900939941406,-17.304880142211914
3.42,-0.6795615553855896,-7.5146589279174805,-1.9082759618759155,0.04718933627009392,0.17669276893138885,1.3655892610549927,-14.177140235900879,48.90382766723633,-15.960245132446289
3.43,-0.6448656916618347,-7.546962261199951,-2.137986898422241,0.07788532227277756,0.17287485301494598,1.3434453010559082,-12.803274154663086,48.596900939941406,-17.202571868896484
3.44,-0.6089733242988586,-7.721638202667236,-2.1367905139923096,0.10186177492141724,0.152105450630188,1.2999212741851807,-12.627885818481445,48.56766891479492,-16.734872817993164
3.45,-0.8530412316322327,-8.044669151306152,-1.9501503705978394,0.10506881773471832,0.09575312584638596,1.1968377828598022,-12.452499389648438,48.114585876464844,-17.129493713378906
3.47,-0.7286145091056824,-8.416753768920898,-1.5074782371520996,0.07498370856046677,-0.0019853119738399982,0.9595165848731995,-11.6047945022583,48.2607421875,-16.822566986083984
3.473,-0.35413771867752075,-8.169095993041992,-1.2610174417495728,0.03634648025035858,-0.12140946835279465,0.6872233748435974,-11.034785270690918,48.39228439331055,-16.749486923217773
3.48,-0.08374878764152527,-8.115257263183594,-1.2993026971817017,0.03726277872920036,-0.14798210561275482,0.5352706909179688,-10.815550804138184,48.5822868347168,-17.15872573852539
3.49,0.4785645008087158,-8.000402450561523,-1.2011969089508057,0.0705549344420433,-0.2243402600288391,0.3400992155075073,-10.552470207214355,48.1584358215332,-17.217187881469727
3.5,0.8805586695671082,-7.768298149108887,-1.2514461278915405,0.12018773704767227,-0.3312416672706604,0.17043140530586243,-10.040924072265625,48.50920867919922,-17.187957763671875
3.51,1.0636096000671387,-7.926224708557129,-0.8279166221618652,0.21349740028381348,-0.49953505396842957,0.040317103266716,-10.347851753234863,48.20227813720703,-17.114879608154297
3.531,0.7022933959960938,-8.489734649658203,0.13639087975025177,0.2428189367055893,-0.6675229668617249,-0.04413501173257828,-10.318620681762695,48.596900939941406,-17.480268478393555
3.535,-0.5168496966362,-9.024530410766602,0.348155677318573,0.2298380434513092,-0.9915869832038879,-0.23579397797584534,-10.347851753234863,48.77228546142578,-18.137971878051758
3.54,-1.0755738019943237,-9.375079154968262,0.21655045449733734,0.21349740028381348,-1.111163854598999,-0.31642818450927734,-9.646302223205566,48.75767135620117,-18.517976760864258
3.55,-2.5160529613494873,-10.047462463378906,-0.16749757528305054,0.1797470897436142,-1.2822060585021973,-0.4870122969150543,-9.193218231201172,48.684593200683594,-18.298744201660156
3.56,-3.8811581134796143,-10.468598365783691,-0.5491527915000916,0.18310685455799103,-1.3222178220748901,-0.6942483186721802,-9.339374542236328,48.9184455871582,-17.80181312561035
3.57,-5.033302307128906,-10.729416847229004,-1.0049854516983032,0.22281308472156525,-1.2450960874557495,-0.8280278444290161,-8.959368705749512,49.6784553527832,-17.97719955444336
3.59,-5.550151824951172,-10.898110389709473,-1.2299107313156128,0.27488934993743896,-1.107956886291504,-0.9408851265907288,-9.105524063110352,49.95615005493164,-18.591054916381836
3.593,-5.300102233886719,-11.243873596191406,-1.2562319040298462,0.3347541391849518,-0.8976664543151855,-1.0673342943191528,-9.061677932739258,49.590763092041016,-18.97106170654297
3.6,-4.695914268493652,-11.581260681152344,-1.1904292106628418,0.3478877544403076,-0.7982481718063354,-1.1166616678237915,-9.558608055114746,50.08769607543945,-19.409530639648438
3.61,-3.713660717010498,-12.110074996948242,-1.046859860420227,0.30802878737449646,-0.7304421067237854,-1.151633620262146,-10.01169204711914,49.839229583740234,-20.73954963684082
3.62,-2.5076780319213867,-12.685548782348633,-0.7728817462921143,0.23136521875858307,-0.7512114644050598,-1.1461358070373535,-9.894767761230469,51.213096618652344,-20.958784103393555
3.63,-1.6534403562545776,-12.93200969696045,-0.363709032535553,0.13759739696979523,-0.8400924205780029,-1.12506103515625,-9.792458534240723,51.154632568359375,-20.564163208007812
3.65,-1.0432707071304321,-13.02652645111084,0.009571290574967861,0.03145955875515938,-0.9854783415794373,-1.1107057332992554,-10.552470207214355,50.51154327392578,-20.856473922729492
3.653,-0.7334001660346985,-13.191630363464355,0.5000999569892883,-0.14355333149433136,-1.2709050178527832,-1.1133018732070923,-10.698626518249512,51.03771209716797,-21.324174880981445
3.66,-0.745364248752594,-13.332807540893555,0.8207381367683411,-0.23441952466964722,-1.427744746208191,-1.1261299848556519,-11.034785270690918,51.0815544128418,-21.061092376708984
3.67,-1.0636096000671387,-13.49073314666748,1.1581261157989502,-0.36163219809532166,-1.6129896640777588,-1.150259256362915,-10.815550804138184,50.93539810180664,-22.11341667175293
3.68,-1.798206090927124,-13.524232864379883,1.3076776266098022,-0.47800207138061523,-1.7229453325271606,-1.1792752742767334,-10.654779434204102,51.56386947631836,-22.025724411010742
3.69,-2.5184457302093506,-13.63789176940918,1.262213945388794,-0.569631814956665,-1.7618881464004517,-1.2330315113067627,-11.210172653198242,50.89155578613281,-20.140310287475586
3.71,-3.2039895057678223,-13.864013671875,1.2885348796844482,-0.6491970419883728,-1.7431038618087769,-1.3330607414245605,-11.224788665771484,51.02309036254883,-21.29494285583496
3.714,-3.970889091491699,-14.165509223937988,1.2047861814498901,-0.7660250067710876,-1.5877914428710938,-1.5490015745162964,-11.064016342163086,51.198482513427734,-20.228002548217773
3.72,-4.0666022300720215,-14.20738410949707,1.1270194053649902,-0.8223773241043091,-1.4595097303390503,-1.673770785331726,-11.56094741821289,51.11078643798828,-20.73954963684082
3.73,-4.012763500213623,-14.06860065460205,0.7657032608985901,-0.8856018781661987,-1.2457069158554077,-1.8278615474700928,-11.400175094604492,50.87693786621094,-20.37415885925293
3.74,-3.865604877471924,-13.774283409118652,0.4259223937988281,-0.9004153609275818,-0.9796751141548157,-1.955685019493103,-12.496346473693848,51.06694030761719,-20.18415641784668
3.75,-3.332005262374878,-13.49312686920166,0.1782652735710144,-0.8878926634788513,-0.7102835774421692,-2.0563249588012695,-13.241742134094238,50.570011138916016,-20.125694274902344
3.77,-2.526820659637451,-13.239486694335938,-0.1172483041882515,-0.8549058437347412,-0.43829578161239624,-2.1007654666900635,-13.840982437133789,51.12540054321289,-19.83338165283203
3.774,-1.1892328262329102,-12.725030899047852,-0.6664010882377625,-0.7605272531509399,-0.11178833991289139,-2.074651002883911,-15.024847030639648,51.169246673583984,-19.00029182434082
3.78,-0.4462614059448242,-12.519248008728027,-0.8662018179893494,-0.7057020664215088,-0.015577062964439392,-2.0199787616729736,-15.22946548461914,51.213096618652344,-19.380298614501953
3.79,0.5682953596115112,-12.06221866607666,-1.1629117727279663,-0.6407976150512695,0.018936822190880775,-1.9230037927627563,-16.106401443481445,50.979244232177734,-18.62028694152832
3.8,1.1784651279449463,-11.568100929260254,-1.4500504732131958,-0.5642867684364319,-0.003817907767370343,-1.8156441450119019,-17.085647583007812,51.344635009765625,-19.05875587463379
3.81,1.5421741008758545,-11.156535148620605,-1.5002998113632202,-0.4943426847457886,-0.08796459436416626,-1.7047721147537231,-18.44489860534668,50.789241790771484,-18.28412628173828
3.83,1.7802599668502808,-10.831111907958984,-1.4620145559310913,-0.4537201523780823,-0.25045475363731384,-1.5796974897384644,-18.50336265563965,51.09617233276367,-18.3718204498291
3.834,1.9956140518188477,-10.1276216506958,-1.4931212663650513,-0.45204025506973267,-0.4369213581085205,-1.4674509763717651,-19.43876075744629,50.62847137451172,-17.947969436645508
3.84,1.9465612173080444,-9.718448638916016,-1.4979069232940674,-0.4619668424129486,-0.5557346343994141,-1.3993394374847412,-19.979537963867188,50.90616989135742,-17.81642723083496
3.85,1.7551352977752686,-9.132206916809082,-1.4608181715011597,-0.4743368625640869,-0.6902776956558228,-1.3167200088500977,-20.125694274902344,50.365386962890625,-18.06489372253418
3.86,1.2717852592468262,-8.645268440246582,-1.1102696657180786,-0.5045746564865112,-0.7996225953102112,-1.2536481618881226,-20.418006896972656,51.06694030761719,-16.588716506958008
3.87,1.015753149986267,-8.062615394592285,-0.92482590675354,-0.5668829083442688,-0.854295015335083,-1.178359031677246,-20.973400115966797,50.146156311035156,-17.69950294494629
3.89,0.8111668825149536,-7.457231521606445,-0.6329016089439392,-0.6093380451202393,-0.8471173644065857,-1.1287262439727783,-21.514177322387695,50.336158752441406,-16.749486923217773
3.894,0.576670229434967,-6.977470874786377,-0.468993216753006,-0.6575964689254761,-0.7924449443817139,-1.069472312927246,-21.236480712890625,49.86845779418945,-15.916398048400879
3.9,0.4342972934246063,-6.802794456481934,-0.468993216753006,-0.6685919761657715,-0.7137960195541382,-1.042594313621521,-21.119556427001953,50.02922821044922,-16.311019897460938
3.91,0.5886343717575073,-6.679564476013184,-0.29790639877319336,-0.68325275182724,-0.6221662163734436,-1.0219775438308716,-21.514177322387695,49.98538589477539,-15.974861145019531
3.92,0.5156532526016235,-6.551548480987549,-0.27397817373275757,-0.703411340713501,-0.4946480989456177,-1.0065531730651855,-22.157264709472656,49.853843688964844,-16.42794418334961
3.93,0.4378865361213684,-6.538387298583984,-0.22971096634864807,-0.7142542004585266,-0.3805690407752991,-0.9984592199325562,-22.712656021118164,49.590763092041016,-16.76410484313965
3.95,0.5144568085670471,-6.479763507843018,-0.2620140612125397,-0.7215845584869385,-0.2704605758190155,-1.0038042068481445,-23.10727882385254,49.166908264160156,-15.346389770507812
3.953,0.39481574296951294,-6.467799186706543,-0.19980068504810333,-0.7218900322914124,-0.16783522069454193,-1.0367910861968994,-23.39959144592285,49.020755767822266,-14.73253345489502
3.96,0.3242274522781372,-6.4079790115356445,-0.009571290574967861,-0.7331910133361816,-0.11591167747974396,-1.0693196058273315,-23.57497787475586,49.166908264160156,-14.11867904663086
3.97,0.22372892498970032,-6.299105644226074,-0.015553345903754234,-0.764345109462738,-0.03588833287358284,-1.114065408706665,-23.881906509399414,48.9622917175293,-14.045600891113281
3.98,0.42711883783340454,-6.1435723304748535,-0.0729810893535614,-0.7945829629898071,0.076052725315094,-1.130711555480957,-24.77345848083496,48.669979095458984,-13.972522735595703
3.99,0.7728817462921143,-5.827719688415527,-0.15912269055843353,-0.8084800839424133,0.14294245839118958,-1.1429288387298584,-24.934228897094727,48.56766891479492,-13.183279037475586
4.01,0.8159525394439697,-5.688935279846191,-0.1579262912273407,-0.823599100112915,0.17516560852527618,-1.155909776687622,-25.665008544921875,47.661502838134766,-12.861736297607422
4.014,1.1258230209350586,-5.638686656951904,-0.34217363595962524,-0.8341364860534668,0.19196438789367676,-1.1760683059692383,-25.796550750732422,47.296112060546875,-12.876352310180664
4.02,1.1892328262329102,-5.711667060852051,-0.380458801984787,-0.8263479471206665,0.20204368233680725,-1.1820242404937744,-25.942707061767578,47.60304260253906,-11.6047945022583
4.03,1.325623631477356,-5.996413230895996,-0.363709032535553,-0.8014551401138306,0.2545780837535858,-1.1801916360855103,-26.702720642089844,47.106109619140625,-12.014030456542969
4.04,1.5158531665802002,-6.514459133148193,-0.5228317379951477,-0.7748825550079346,0.31871894001960754,-1.1722503900527954,-27.667348861694336,47.41303634643555,-11.853259086608887
4.05,1.7036895751953125,-6.859025955200195,-0.6795615553855896,-0.7385360598564148,0.39797869324684143,-1.1505646705627441,-27.945045471191406,46.667640686035156,-11.780181884765625
4.07,1.97407865524292,-7.182056903839111,-0.9200402498245239,-0.6991352438926697,0.4622722566127777,-1.1227703094482422,-28.953521728515625,46.81379699707031,-11.692487716674805
4.073,2.251646041870117,-7.585247039794922,-1.2370892763137817,-0.6867652535438538,0.525496780872345,-1.0639744997024536,-29.523530960083008,45.995323181152344,-11.458637237548828
4.08,2.469392776489258,-7.572086811065674,-1.4943177700042725,-0.6591235995292664,0.5485569834709167,-1.0245736837387085,-30.488161087036133,46.112247467041016,-11.707103729248047
4.09,2.946760892868042,-7.531408786773682,-2.0985054969787598,-0.5795583724975586,0.5833762884140015,-0.959058403968811,-30.780473709106445,45.4837760925293,-10.757088661193848
4.1,3.1716861724853516,-7.634300231933594,-2.3736801147460938,-0.4804455041885376,0.5998696684837341,-0.8834638595581055,-31.335866928100586,45.04530715942383,-9.807073593139648
4.11,3.562912940979004,-7.810173034667969,-2.636890411376953,-0.38270705938339233,0.5911648273468018,-0.7984008193016052,-31.45279312133789,45.24992752075195,-10.435544967651367
4.13,3.6849467754364014,-8.060222625732422,-2.860619306564331,-0.3022255599498749,0.5584835410118103,-0.716697633266449,-31.876644134521484,45.0599250793457,-9.997076988220215
4.134,4.128815174102783,-8.993423461914062,-3.087937355041504,-0.2070833146572113,0.47601673007011414,-0.6004804968833923,-32.89973831176758,44.738380432128906,-10.435544967651367
4.14,4.2723846435546875,-9.523433685302734,-3.104687213897705,-0.17577646672725677,0.437226802110672,-0.5371032357215881,-33.11897277832031,44.636070251464844,-10.362466812133789
4.15,4.557130336761475,-9.969695091247559,-3.339184045791626,-0.15577064454555511,0.42577308416366577,-0.4225660264492035,-33.352821350097656,44.09529113769531,-10.727856636047363
4.16,4.863411903381348,-9.937392234802246,-3.7734811305999756,-0.11927143484354019,0.44287729263305664,-0.2658790946006775,-33.922828674316406,44.03683090209961,-10.040924072265625
4.17,5.157729148864746,-9.66102123260498,-4.016352653503418,-0.07009679079055786,0.42149701714515686,-0.08597928285598755,-34.156681060791016,44.358375549316406,-10.68401050567627
4.19,5.137389659881592,-9.656235694885254,-4.462614059448242,0.03145955875515938,0.32589662075042725,0.12553280591964722,-34.50745391845703,44.27068328857422,-10.537854194641113
4.193,4.791627407073975,-10.394421577453613,-4.704289436340332,0.17150041460990906,0.21639901399612427,0.2779436707496643,-34.419761657714844,44.19760513305664,-10.654779434204102
4.2,4.618147850036621,-10.54516887664795,-4.657629013061523,0.22602012753486633,0.17699819803237915,0.36911532282829285,-34.682838439941406,44.48991394042969,-10.68401050567627
4.21,4.494917392730713,-10.124032020568848,-4.478167533874512,0.26282477378845215,0.14966197311878204,0.5224425196647644,-34.2443733215332,44.47529983520508,-10.800935745239258
4.22,4.467399597167969,-9.609575271606445,-4.115654468536377,0.27320948243141174,0.11530081182718277,0.7018841505050659,-34.60976028442383,44.986846923828125,-10.742472648620605
4.23,4.372883319854736,-9.631111145019531,-3.6011979579925537,0.26343563199043274,0.03390302136540413,0.9042332768440247,-34.142066955566406,44.70914840698242,-10.479392051696777
4.25,3.9661033153533936,-10.183852195739746,-3.078366279602051,0.23777928948402405,-0.01664607785642147,1.0293078422546387,-33.67436599731445,45.162235260009766,-10.114001274108887
4.253,3.190828800201416,-10.479366302490234,-3.1860432624816895,0.24465152621269226,-0.013591751456260681,1.140179991722107,-33.13358688354492,44.95761489868164,-10.464776039123535
4.26,2.640479564666748,-10.419546127319336,-3.2434709072113037,0.2719877362251282,-0.006872233934700489,1.1803444623947144,-32.5051155090332,45.62993240356445,-10.713241577148438
4.27,1.856830358505249,-10.378867149353027,-3.2207393646240234,0.33505958318710327,0.03298672288656235,1.2186760902404785,-32.57819366455078,45.33761978149414,-10.698626518249512
4.28,1.0360921621322632,-10.770094871520996,-3.10109806060791,0.4075998365879059,0.09834930300712585,1.2273809909820557,-32.1689567565918,46.03916931152344,-10.64016342163086
4.29,0.4331009089946747,-11.706884384155273,-2.9766714572906494,0.5099197626113892,0.21594086289405823,1.2113457918167114,-31.365097045898438,45.805320739746094,-10.990938186645508
4.31,0.04307080805301666,-12.914063453674316,-2.8701906204223633,0.5754350423812866,0.3926336169242859,1.2073750495910645,-30.692779541015625,46.60917663574219,-12.481730461120605
4.314,0.21655045449733734,-12.537193298339844,-3.0556344985961914,0.6192646622657776,0.6994407176971436,1.2246321439743042,-30.853551864624023,46.50687026977539,-12.320959091186523
4.32,0.6951149702072144,-11.657832145690918,-3.3164520263671875,0.654542088508606,0.8659014701843262,1.253495454788208,-30.780473709106445,46.930721282958984,-12.65711784362793
4.33,1.34476637840271,-10.669595718383789,-3.4851462841033936,0.7498371005058289,1.013272762298584,1.3185526132583618,-30.605087280273438,47.106109619140625,-12.467114448547363
4.34,1.8508483171463013,-10.64447021484375,-2.9036900997161865,0.8765915632247925,1.061989188194275,1.4222469329833984,-30.853551864624023,47.57380676269531,-12.204033851623535
4.35,2.2803597450256348,-11.629117012023926,-1.951346755027771,0.8614726662635803,1.1078040599822998,1.5569428205490112,-30.195850372314453,47.60304260253906,-14.001753807067871
4.37,2.3198413848876953,-12.218948364257812,-1.9680966138839722,0.8049676418304443,1.1720976829528809,1.6995798349380493,-29.684301376342773,47.909969329833984,-14.030985832214355
4.374,1.3543375730514526,-12.233305931091309,-2.166700839996338,0.7249443531036377,1.1707231998443604,1.750586986541748,-29.304296493530273,48.37766647338867,-13.826367378234863
4.38,0.9032905101776123,-12.157931327819824,-2.289931058883667,0.6905831694602966,1.17408287525177,1.7285959720611572,-29.026599884033203,48.56766891479492,-13.972522735595703
4.39,0.29431718587875366,-12.086146354675293,-2.5603203773498535,0.6424775123596191,1.2602150440216064,1.6823228597640991,-29.143524169921875,48.596900939941406,-15.28792667388916
4.4,0.24406790733337402,-11.901899337768555,-2.768495798110962,0.6310237646102905,1.361160397529602,1.715462327003479,-28.82198143005371,49.15229415893555,-14.469453811645508
4.41,0.589830756187439,-11.485548973083496,-2.7529425621032715,0.6200282573699951,1.4309518337249756,1.8124371767044067,-28.120431900024414,49.166908264160156,-15.770242691040039
4.43,1.0923235416412354,-10.975876808166504,-2.7290141582489014,0.5998696684837341,1.4647021293640137,1.957212209701538,-27.258113861083984,50.160770416259766,-16.617948532104492
4.433,1.4787644147872925,-9.960124015808105,-2.662015199661255,0.5583308339118958,1.4425581693649292,2.1531472206115723,-27.41888427734375,49.88307571411133,-16.544870376586914
4.44,1.55413818359375,-9.628718376159668,-2.5627129077911377,0.5352706909179688,1.415374755859375,2.222480535507202,-27.57965660095215,50.29231262207031,-16.369482040405273
4.45,1.7838492393493652,-8.896513938903809,-2.2193429470062256,0.4940372407436371,1.345583438873291,2.2737929821014404,-26.454252243041992,50.350772857666016,-16.647178649902344
4.46,1.8113667964935303,-8.317450523376465,-2.0614166259765625,0.4479169249534607,1.208749532699585,2.2878432273864746,-26.220401763916016,50.350772857666016,-17.407190322875977
4.47,1.9334007501602173,-7.695317268371582,-1.9645073413848877,0.4069889783859253,1.0044151544570923,2.2710442543029785,-25.182693481445312,50.40924072265625,-18.123355865478516
4.49,1.9453648328781128,-7.098308086395264,-1.935793399810791,0.3712533414363861,0.7713701128959656,2.2406537532806396,-24.422683715820312,50.5992431640625,-17.071033477783203
4.494,1.6498512029647827,-6.56710147857666,-1.6618152856826782,0.34895676374435425,0.44974952936172485,2.2067506313323975,-23.22420310974121,50.365386962890625,-17.392576217651367
4.5,1.4620145559310913,-6.349354267120361,-1.4237295389175415,0.3445279896259308,0.34437528252601624,2.196976900100708,-22.917274475097656,50.62847137451172,-17.567962646484375
4.51,1.0205388069152832,-6.027519702911377,-1.215553879737854,0.3423899710178375,0.2292271852493286,2.1876611709594727,-22.084184646606445,50.30692672729492,-17.582576751708984
4.52,0.7393822073936462,-5.827719688415527,-1.042074203491211,0.33536502718925476,0.1394299864768982,2.163532018661499,-21.28032684326172,50.43846893310547,-17.3341121673584
4.53,0.436690092086792,-5.842076301574707,-1.0899306535720825,0.3355177044868469,0.03298672288656235,2.104736089706421,-20.154926300048828,50.46770095825195,-17.933351516723633
4.55,0.06221338361501694,-6.190232276916504,-1.1856435537338257,0.3588833212852478,-0.05604688450694084,1.9908097982406616,-19.55568504333496,51.02309036254883,-17.87489128112793
4.554,-0.5730810165405273,-7.069594383239746,-0.9152546525001526,0.3865249752998352,-0.07040221989154816,1.8102991580963135,-19.102602005004883,50.80385971069336,-19.292604446411133
4.561,-0.7178468108177185,-7.2430739402771,-0.8602197170257568,0.3816380500793457,-0.03481931984424591,1.6855299472808838,-18.415668487548828,50.64308547973633,-19.584917068481445
4.57,-1.2131609916687012,-7.3639116287231445,-0.8985048532485962,0.3614795207977295,0.044745877385139465,1.5004377365112305,-17.071033477783203,50.774627685546875,-19.00029182434082
4.58,-1.4009976387023926,-7.726424217224121,-0.7956134676933289,0.31383201479911804,0.1670716404914856,1.3214542865753174,-16.822566986083984,50.745399475097656,-19.014907836914062
4.59,-1.5493526458740234,-7.721638202667236,-1.0492527484893799,0.2480112910270691,0.38117989897727966,1.1536190509796143,-15.989476203918457,50.570011138916016,-19.102602005004883
4.612,-0.8506484627723694,-7.814958572387695,-1.2610174417495728,0.21410825848579407,0.5557346343994141,1.0839803218841553,-15.638701438903809,49.839229583740234,-18.985675811767578
4.615,0.1495514065027237,-7.7515482902526855,-1.8819550275802612,0.22647827863693237,0.7127270102500916,1.0680978298187256,-15.682548522949219,50.0584602355957,-19.014907836914062
4.62,0.43190446496009827,-7.668996334075928,-2.1092729568481445,0.25702154636383057,0.698066234588623,1.0680978298187256,-15.79947280883789,50.5992431640625,-19.0733699798584
4.63,0.6675975322723389,-7.6151580810546875,-2.1858434677124023,0.32070425152778625,0.5540547966957092,1.0516045093536377,-14.820228576660156,49.80999755859375,-19.19029426574707
4.64,0.2153540402650833,-7.724031448364258,-2.117647886276245,0.34666600823402405,0.34636056423187256,0.986852765083313,-14.90792179107666,50.10231018066406,-19.394912719726562
4.65,-0.35413771867752075,-8.127222061157227,-1.9896320104599,0.34376442432403564,0.12018773704767227,0.8959865570068359,-14.542531967163086,50.64308547973633,-20.140310287475586
4.67,-0.873380184173584,-8.574679374694824,-1.7359927892684937,0.31062498688697815,0.041691552847623825,0.8345946073532104,-13.782519340515137,50.21923065185547,-19.614147186279297
4.674,-0.6364907622337341,-8.541180610656738,-1.4368900060653687,0.18707747757434845,0.02519819140434265,0.7768678665161133,-13.665594100952148,50.13154220581055,-20.403390884399414
4.68,-0.15194423496723175,-8.282755851745605,-1.368694543838501,0.14416420459747314,0.01542434748262167,0.7588472962379456,-13.197896003723145,50.365386962890625,-20.198772430419922
4.69,0.7417749762535095,-8.030312538146973,-1.168893814086914,0.08002334833145142,-0.035124752670526505,0.7283040285110474,-13.022507667541504,50.10231018066406,-20.35954475402832
4.7,1.4955140352249146,-8.134400367736816,-0.9296115636825562,0.03756821155548096,-0.13347405195236206,0.7554876208305359,-12.934814453125,50.540775299072266,-20.388774871826172
4.71,1.7515461444854736,-8.458627700805664,-0.5156532526016235,0.009621127508580685,-0.34895676374435425,0.7832819223403931,-12.803274154663086,50.13154220581055,-20.46185302734375
4.73,0.5395814776420593,-8.70389175415039,-0.28953152894973755,-0.009773843921720982,-0.5693264007568359,0.7623597979545593,-11.677871704101562,49.283836364746094,-21.075708389282227
4.733,-1.4620145559310913,-9.242277145385742,0.24765713512897491,-0.027488935738801956,-0.8269587755203247,0.587652325630188,-11.107863426208496,49.576148986816406,-21.01724624633789
4.74,-2.7625136375427246,-9.489934921264648,0.574277400970459,-0.027947084978222847,-0.8785768747329712,0.49235737323760986,-11.107863426208496,49.473838806152344,-20.564163208007812
4.75,-3.8560335636138916,-9.860821723937988,0.6915256977081299,-0.047800205647945404,-1.0125091075897217,0.1999056488275528,-10.859397888183594,49.45922088623047,-21.031862258911133
4.76,-5.205585479736328,-10.533205032348633,0.7465606331825256,-0.04459316283464432,-1.006095051765442,-0.055436018854379654,-10.552470207214355,49.51768493652344,-20.98801612854004
4.77,-5.972485065460205,-11.11466121673584,1.031306505203247,-0.058184914290905,-0.8503244519233704,-0.2977968156337738,-10.201695442199707,49.020755767822266,-20.403390884399414
4.79,-6.374479293823242,-11.434102058410645,0.9786643981933594,-0.07880160957574844,-0.6235406994819641,-0.5470298528671265,-11.093247413635254,49.166908264160156,-20.798011779785156
4.794,-6.2775702476501465,-11.58006477355957,0.2907279431819916,-0.0988074541091919,-0.256868839263916,-0.9028587937355042,-11.005553245544434,49.48845672607422,-21.806488037109375
4.8,-5.988038063049316,-11.595619201660156,-0.007178467698395252,-0.11362093687057495,-0.0835358202457428,-1.0422887802124023,-10.932476043701172,49.049983978271484,-21.19263458251953
4.81,-4.627718925476074,-11.698509216308594,-0.5419743061065674,-0.1391245573759079,0.11010845750570297,-1.15178644657135,-11.385560035705566,49.19614028930664,-20.038002014160156
4.82,-3.036491870880127,-11.870792388916016,-0.6783652305603027,-0.15714508295059204,0.21273382008075714,-1.179427981376648,-12.306343078613281,49.590763092041016,-20.681087493896484
4.83,-1.4093725681304932,-12.06939697265625,-0.6975077390670776,-0.15882496535778046,0.17638733983039856,-1.1551461219787598,-12.803274154663086,48.93306350708008,-20.71031951904297
4.85,0.007178467698395252,-12.330214500427246,-0.6711867451667786,-0.1459967941045761,0.007024950347840786,-1.1191051006317139,-13.431745529174805,49.590763092041016,-21.4703311920166
4.854,1.2562319040298462,-12.957134246826172,-0.4893321990966797,-0.1411098688840866,-0.470671683549881,-1.098793864250183,-14.001753807067871,49.853843688964844,-21.4703311920166
4.86,1.4105688333511353,-13.336396217346191,-0.25722840428352356,-0.15027284622192383,-0.7657195925712585,-1.1189523935317993,-14.776381492614746,49.6784553527832,-20.856473922729492
4.87,1.1916255950927734,-13.719247817993164,0.016749758273363113,-0.19349156320095062,-1.1427761316299438,-1.1665998697280884,-14.220989227294922,49.82461166381836,-20.666471481323242
4.88,0.5264209508895874,-13.964512825012207,0.15912269055843353,-0.26221391558647156,-1.4453071355819702,-1.21027672290802,-14.966383934020996,49.795379638671875,-20.578777313232422
4.89,-0.24406790733337402,-14.076974868774414,0.1615155190229416,-0.3315471112728119,-1.6615533828735352,-1.25761878490448,-14.615609169006348,49.54691696166992,-21.148786544799805
4.91,-1.1964112520217896,-14.116456985473633,0.19980068504810333,-0.3825543522834778,-1.8087719678878784,-1.3077096939086914,-14.703303337097168,49.576148986816406,-20.71031951904297
4.914,-2.6213371753692627,-14.133206367492676,0.06699903309345245,-0.4031710624694824,-1.8309158086776733,-1.3686436414718628,-14.966383934020996,49.663841247558594,-20.98801612854004
4.92,-3.205185890197754,-14.11406421661377,0.11485548317432404,-0.4021020233631134,-1.792125940322876,-1.4411838054656982,-15.302543640136719,49.56153106689453,-21.324174880981445
4.93,-3.73758864402771,-14.060225486755371,0.27397817373275757,-0.4424191415309906,-1.6829338073730469,-1.5654948949813843,-15.244080543518066,49.210758209228516,-20.666471481323242
4.94,-3.9601213932037354,-13.95254898071289,0.348155677318573,-0.5316054821014404,-1.4993687868118286,-1.708437442779541,-15.068693161010742,49.6784553527832,-21.251096725463867
4.95,-3.7459635734558105,-13.802997589111328,0.31106695532798767,-0.626747727394104,-1.252273678779602,-1.835802674293518,-16.164865493774414,49.4007568359375,-20.491085052490234
4.97,-3.207578659057617,-13.477572441101074,0.23330020904541016,-0.7250970005989075,-0.9161451458930969,-1.9245309829711914,-16.647178649902344,49.41537857055664,-20.65185546875
4.974,-2.1643080711364746,-12.541979789733887,-0.36610186100006104,-0.7605272531509399,-0.6136141419410706,-1.948660135269165,-17.465654373168945,49.663841247558594,-19.672609329223633
4.98,-1.628315806388855,-11.9521484375,-0.6843472719192505,-0.7373143434524536,-0.46441027522087097,-1.9437732696533203,-18.225666046142578,49.766151428222656,-20.447237014770508
4.99,-0.9343971610069275,-11.1493558883667,-0.9320043921470642,-0.6879869699478149,-0.3271183371543884,-1.9188803434371948,-19.146448135375977,49.6199951171875,-19.789535522460938
5.0,-0.14715859293937683,-10.462616920471191,-1.1665010452270508,-0.6265950202941895,-0.2379319965839386,-1.8362609148025513,-19.19029426574707,49.576148986816406,-19.234142303466797
5.01,0.5910272002220154,-9.850053787231445,-1.3124631643295288,-0.53328537940979,-0.19624045491218567,-1.7325665950775146,-20.067232131958008,49.18152618408203,-18.91259765625
5.031,1.5445669889450073,-9.257830619812012,-1.3184452056884766,-0.46303585171699524,-0.24694228172302246,-1.6171129941940308,-21.4703311920166,49.4007568359375,-19.102602005004883
5.035,2.1296122074127197,-8.793622970581055,-1.0791629552841187,-0.4150829017162323,-0.45585817098617554,-1.4610369205474854,-21.938030242919922,49.35691452026367,-18.70798110961914
5.041,2.148754596710205,-8.653642654418945,-1.0145567655563354,-0.41951167583465576,-0.5432119369506836,-1.4204144477844238,-22.04033851623535,48.94767761230469,-18.737211227416992
5.05,2.093719720840454,-8.411967277526855,-0.5706881880760193,-0.45463645458221436,-0.7313584089279175,-1.3726141452789307,-22.215726852416992,48.9622917175293,-17.9918155670166
5.06,1.6977075338363647,-8.120043754577637,-0.2620140612125397,-0.5610796809196472,-0.9169087409973145,-1.3426817655563354,-22.888044357299805,48.78690719604492,-18.401052474975586
5.07,1.171286702156067,-7.668996334075928,-0.004785645287483931,-0.6397286653518677,-1.0137308835983276,-1.3310753107070923,-23.151124954223633,49.093833923339844,-18.225666046142578
5.09,0.7226324677467346,-7.240681171417236,0.08015955239534378,-0.7009678483009338,-1.0473284721374512,-1.3213015794754028,-23.253435134887695,48.596900939941406,-17.860275268554688
5.093,0.13280165195465088,-6.7106709480285645,0.15912269055843353,-0.7658722400665283,-1.0169378519058228,-1.3209960460662842,-23.2095890045166,48.52382278442383,-16.851797103881836
5.1,-0.04785645380616188,-6.459424018859863,0.20937196910381317,-0.7848091125488281,-0.988379955291748,-1.321606993675232,-23.57497787475586,47.99766159057617,-16.98333740234375
5.11,-0.3230310380458832,-6.15433931350708,0.1627119481563568,-0.8184067010879517,-0.8848382830619812,-1.3379476070404053,-23.50189971923828,48.114585876464844,-16.544870376586914
5.12,-0.40677982568740845,-5.783452033996582,0.1411765217781067,-0.8290968537330627,-0.7854200005531311,-1.3651310205459595,-24.714996337890625,47.57380676269531,-16.749486923217773
5.13,-0.4019941985607147,-5.632704257965088,0.2632104754447937,-0.8321511745452881,-0.6779077053070068,-1.401477575302124,-24.364221572875977,46.88687515258789,-16.121017456054688
5.15,-0.29431718587875366,-5.453242301940918,0.19142581522464752,-0.8388707041740417,-0.5589417219161987,-1.4379767179489136,-24.890382766723633,47.13534164428711,-16.07716941833496
5.153,-0.24047866463661194,-5.419743537902832,0.3840480148792267,-0.8712465763092041,-0.38957932591438293,-1.4760030508041382,-25.475008010864258,47.296112060546875,-15.52177619934082
5.16,-0.2967100143432617,-5.38624382019043,0.5443671345710754,-0.9213374853134155,-0.2984076738357544,-1.4871513843536377,-25.855012893676758,46.76995086669922,-15.361004829406738
5.17,-0.4462614059448242,-5.2043890953063965,0.50129634141922,-0.9992228150367737,-0.12003502249717712,-1.4906638860702515,-25.665008544921875,45.746856689453125,-14.95176887512207
5.18,-0.4809573292732239,-4.908875465393066,0.15314064919948578,-1.0560332536697388,0.10537425428628922,-1.4804319143295288,-26.629642486572266,45.60070037841797,-13.782519340515137
5.19,-0.2919243574142456,-4.724628448486328,-0.10169495642185211,-1.0661126375198364,0.37950003147125244,-1.4569135904312134,-27.360422134399414,45.001461029052734,-13.577900886535645
5.21,-0.04666003957390785,-4.59302282333374,-0.3002992272377014,-1.051146388053894,0.6395758986473083,-1.4291192293167114,-28.880443572998047,44.65068435668945,-13.197896003723145
5.213,0.8757730722427368,-5.040481090545654,-0.1698903888463974,-0.9900597929954529,0.9292787909507751,-1.3865114450454712,-29.435836791992188,43.93452072143555,-12.686349868774414
5.22,1.4117653369903564,-5.553741455078125,0.12681959569454193,-1.0076221227645874,0.9865473508834839,-1.3750576972961426,-29.640457153320312,44.13914108276367,-13.183279037475586
5.23,2.2671992778778076,-5.964109897613525,0.02153540402650833,-1.0607675313949585,1.0393872261047363,-1.3570371866226196,-30.53200912475586,43.802982330322266,-12.949429512023926
5.24,3.095116138458252,-6.1196441650390625,-0.3254238963127136,-1.0755809545516968,1.0467175245285034,-1.3145819902420044,-31.701257705688477,43.20374298095703,-12.437883377075195
5.25,3.803391456604004,-6.3182477951049805,-0.605384111404419,-1.0586293935775757,0.9634872078895569,-1.2712105512619019,-31.55510139465332,42.41449737548828,-12.320959091186523
5.27,4.132404327392578,-6.739384651184082,-0.9080761671066284,-1.0444267988204956,0.8272642493247986,-1.2266173362731934,-32.65127182006836,42.502193450927734,-11.765565872192383
5.274,4.431507587432861,-7.872386455535889,-1.7611173391342163,-1.0028879642486572,0.6458372473716736,-1.1365147829055786,-33.352821350097656,41.508331298828125,-11.765565872192383
5.28,4.506881237030029,-8.496912956237793,-2.400001049041748,-0.9511171579360962,0.5868887901306152,-1.0781772136688232,-33.9082145690918,41.46448516845703,-11.677871704101562
5.29,4.666004180908203,-9.279365539550781,-3.445664644241333,-0.8112290501594543,0.535881519317627,-0.9920451641082764,-34.63899612426758,40.90909194946289,-11.195556640625
5.3,4.642076015472412,-9.976874351501465,-4.671986103057861,-0.5789475440979004,0.5035056471824646,-0.8996517658233643,-35.3843879699707,40.207542419433594,-11.122478485107422
5.31,4.742574214935303,-10.583454132080078,-5.19960355758667,-0.3153591752052307,0.4775438904762268,-0.7945829629898071,-35.662086486816406,40.17831039428711,-11.107863426208496
5.331,5.146961212158203,-10.6564359664917,-5.085944175720215,-0.09147706627845764,0.3556762933731079,-0.6178901791572571,-36.14440155029297,39.66676330566406,-12.291727066040039
5.335,5.722434997558594,-9.665806770324707,-5.406582355499268,0.11301006376743317,-0.057421330362558365,-0.3660609722137451,-36.18824768066406,40.002925872802734,-11.56094741821289
5.341,5.617150783538818,-9.756733894348145,-5.408975601196289,0.19807305932044983,-0.23716843128204346,-0.3000875413417816,-36.37825393676758,39.91522979736328,-10.610932350158691
5.35,5.62672233581543,-10.552348136901855,-4.809573173522949,0.3251330256462097,-0.5676465034484863,-0.16539175808429718,-36.20286560058594,39.73984146118164,-10.742472648620605
5.36,5.112265586853027,-11.575279235839844,-4.0905303955078125,0.350789338350296,-0.764955997467041,-0.006872233934700489,-35.866703033447266,39.579071044921875,-11.078632354736328
5.37,4.036691665649414,-12.468997955322266,-3.651447057723999,0.24785856902599335,-0.7950411438941956,0.184939444065094,-35.74978256225586,40.002925872802734,-12.218649864196777
5.39,2.2097716331481934,-13.446465492248535,-4.1036906242370605,0.1459967941045761,-0.5836817622184753,0.31031954288482666,-35.282081604003906,40.002925872802734,-11.180940628051758
5.393,1.171286702156067,-13.351949691772461,-4.920839786529541,0.11285734921693802,-0.05650503188371658,0.48288896679878235,-35.282081604003906,40.36831283569336,-11.838644027709961
5.4,1.2370892763137817,-12.366107940673828,-5.37786865234375,0.12782354652881622,0.28328877687454224,0.6064364910125732,-35.57439422607422,40.19292449951172,-11.721718788146973
5.41,1.8077774047851562,-11.157731056213379,-6.029912948608398,0.2096794992685318,0.5564982295036316,0.7683157920837402,-34.82899475097656,39.82753372192383,-11.6047945022583
5.42,2.472982168197632,-11.241480827331543,-5.8372907638549805,0.3854559361934662,0.5943718552589417,0.906676709651947,-34.799766540527344,40.23677444458008,-11.999415397644043
5.43,3.4205398559570312,-12.354142189025879,-4.977071285247803,0.45891252160072327,0.5597052574157715,1.00502610206604,-34.56591796875,40.79216766357422,-12.262495994567871
5.45,3.6095728874206543,-12.882957458496094,-4.869393825531006,0.49617525935173035,0.6012440919876099,1.1116219758987427,-34.989768981933594,41.142940521240234,-12.671732902526855
5.454,2.912065029144287,-13.087542533874512,-4.78684139251709,0.5664247870445251,0.754571259021759,1.1956160068511963,-34.712074279785156,41.2452507019043,-12.23326587677002
5.46,2.6632113456726074,-12.958330154418945,-4.694717884063721,0.5760459303855896,0.8112290501594543,1.2053898572921753,-34.712074279785156,41.37678909301758,-12.817889213562012
5.47,2.3856441974639893,-12.374482154846191,-4.621737003326416,0.6133086681365967,0.925308108329773,1.257771611213684,-34.361297607421875,41.21601867675781,-13.139432907104492
5.48,2.3234305381774902,-11.198410034179688,-4.2281174659729,0.6754642128944397,0.9308058619499207,1.3142764568328857,-34.39052963256836,42.41449737548828,-13.826367378234863
5.49,2.407179594039917,-10.62532901763916,-3.541377305984497,0.7409795522689819,0.8735372424125671,1.3762794733047485,-34.09821701049805,42.253726959228516,-13.592517852783203
5.51,2.4610180854797363,-10.50568675994873,-2.9623141288757324,0.8042040467262268,0.8252789378166199,1.4417946338653564,-33.67436599731445,42.692195892333984,-14.674072265625
5.514,2.2851455211639404,-10.875378608703613,-1.9704893827438354,0.8361217975616455,0.8144360780715942,1.5132659673690796,-33.33820343017578,43.379127502441406,-14.747150421142578
5.52,1.975274920463562,-11.284550666809082,-1.660618782043457,0.8129088878631592,0.8814785480499268,1.5366315841674805,-33.045894622802734,43.89067459106445,-15.22946548461914
5.53,1.4452649354934692,-11.613564491271973,-1.743171215057373,0.7825183272361755,1.0172432661056519,1.5303701162338257,-33.235897064208984,43.83221435546875,-15.79947280883789
5.54,0.9631110429763794,-11.312068939208984,-2.251646041870117,0.7548767328262329,1.1818714141845703,1.5097534656524658,-32.75358200073242,44.29991149902344,-15.214850425720215
5.55,0.9044869542121887,-10.972288131713867,-2.904886484146118,0.780380368232727,1.3862059116363525,1.5305228233337402,-32.432037353515625,44.38760757446289,-15.448699951171875
5.57,1.0552347898483276,-10.841878890991211,-3.4540393352508545,0.8549058437347412,1.5810719728469849,1.6261231899261475,-32.680503845214844,45.04530715942383,-17.173341751098633
5.574,1.4931212663650513,-10.8969144821167,-3.5676984786987305,0.960280179977417,1.7986927032470703,1.8422167301177979,-32.56357955932617,45.77608871459961,-17.129493713378906
5.58,1.781456470489502,-10.859825134277344,-3.4325039386749268,0.9691376686096191,1.8530596494674683,1.9504926204681396,-32.46126937866211,46.00994110107422,-17.69950294494629
5.59,2.304288148880005,-10.443473815917969,-3.1585259437561035,0.944244921207428,1.8610010147094727,2.074192762374878,-32.25665283203125,46.27302169799805,-18.547208786010742
5.6,2.6009981632232666,-9.856036186218262,-2.8582265377044678,0.8926268219947815,1.7942638397216797,2.1702516078948975,-31.408945083618164,46.550716400146484,-19.014907836914062
5.61,2.7828526496887207,-9.220742225646973,-2.551945447921753,0.8245153427124023,1.6536122560501099,2.2403483390808105,-31.408945083618164,47.19380569458008,-19.131834030151367
5.631,2.7122642993927,-8.6033935546875,-2.24566388130188,0.7368561625480652,1.443474531173706,2.283261299133301,-30.45893096923828,47.734580993652344,-19.482608795166016
5.635,2.286341905593872,-7.7515482902526855,-1.9968103170394897,0.578489363193512,1.0737483501434326,2.3150265216827393,-30.400466918945312,48.56766891479492,-20.30108070373535
5.641,2.0650060176849365,-7.261020183563232,-1.9609181880950928,0.5006040930747986,0.8923214077949524,2.3206770420074463,-29.508914947509766,48.43613052368164,-20.37415885925293
5.65,1.7922240495681763,-6.58265495300293,-1.8867405652999878,0.4150829017162323,0.6786712408065796,2.3218986988067627,-29.28968048095703,48.289974212646484,-20.46185302734375
5.661,1.612762451171875,-5.9952168464660645,-1.8161523342132568,0.36254850029945374,0.4951062798500061,2.3244948387145996,-28.675825119018555,48.87459945678711,-21.54340934753418
5.67,1.4093725681304932,-5.452045917510986,-1.7778671979904175,0.33857205510139465,0.3228422701358795,2.325563907623291,-27.433500289916992,49.00613784790039,-21.689563751220703
5.69,1.3519446849822998,-5.065605640411377,-1.6295121908187866,0.3323107063770294,0.12629638612270355,2.336254119873047,-26.673486709594727,48.81613540649414,-21.64571762084961
5.694,1.0193424224853516,-4.765305995941162,-1.3411771059036255,0.34636056423187256,-0.05100724473595619,2.3356430530548096,-25.591930389404297,49.18152618408203,-22.09880256652832
5.7,0.8063812255859375,-4.8358941078186035,-1.1892328262329102,0.35735616087913513,-0.12751811742782593,2.3267858028411865,-24.87576675415039,49.020755767822266,-21.748027801513672
5.71,0.3672982454299927,-5.120640754699707,-1.0683952569961548,0.3474296033382416,-0.17409659922122955,2.3148739337921143,-23.998830795288086,48.8599853515625,-22.82958221435547
5.72,-0.07537391036748886,-5.389832496643066,-1.0767701864242554,0.31642818450927734,-0.18707747757434845,2.3035728931427,-22.94650650024414,49.41537857055664,-23.151124954223633
5.73,-0.4737788736820221,-5.637490272521973,-1.0301101207733154,0.24465152621269226,-0.1394299864768982,2.2878432273864746,-21.777257919311523,48.976905822753906,-23.50189971923828
5.75,-1.0492527484893799,-5.784648418426514,-1.1653046607971191,0.18341228365898132,-0.06032294034957886,2.2686007022857666,-19.935691833496094,48.56766891479492,-23.01958465576172
5.753,-1.5804593563079834,-6.0538411140441895,-1.2634103298187256,0.13515393435955048,0.10720684379339218,2.1925480365753174,-19.584917068481445,48.74305725097656,-23.194971084594727
5.76,-1.5649060010910034,-6.20937442779541,-1.1665010452270508,0.11636982858181,0.24327708780765533,2.1365010738372803,-18.941829681396484,48.69921112060547,-23.180356979370117
5.77,-1.1186444759368896,-6.168696403503418,-0.9607182741165161,0.09346237778663635,0.365755558013916,2.065793514251709,-18.196434020996094,47.836891174316406,-23.414207458496094
5.78,-0.6759723424911499,-5.854040145874023,-0.9702895283699036,0.08796459436416626,0.3904955983161926,1.9194912910461426,-17.88950538635254,48.114585876464844,-22.961122512817383
5.79,-0.17347964644432068,-5.546562671661377,-1.0277173519134521,0.10491610318422318,0.3367394804954529,1.7858645915985107,-17.34872817993164,47.8807373046875,-22.902660369873047
5.81,-0.0526420958340168,-5.7918267250061035,-0.865005373954773,0.11194105446338654,0.2713768780231476,1.679573893547058,-15.974861145019531,47.96842956542969,-23.29728126525879
5.813,-0.2464607208967209,-6.509673595428467,-0.696311354637146,0.10293079167604446,0.24434609711170197,1.592373013496399,-15.492546081542969,47.924583435058594,-22.917274475097656
5.82,-0.5120640397071838,-7.038487434387207,-0.4019941985607147,0.09117163717746735,0.23518311977386475,1.5436564683914185,-14.878690719604492,47.71996307373047,-23.94036865234375
5.83,-0.8602197170257568,-7.758727073669434,-0.1746760457754135,0.05360342189669609,0.22388210892677307,1.4210251569747925,-14.39637565612793,47.32534408569336,-23.326513290405273
5.84,-1.415354609489441,-8.536395072937012,-0.11126624792814255,0.039095375686883926,0.21823160350322723,1.279762625694275,-14.367143630981445,47.544578552246094,-23.458053588867188
5.85,-1.8221343755722046,-9.087940216064453,-0.2141576111316681,0.04337143152952194,0.19028452038764954,1.1071932315826416,-13.826367378234863,46.65302658081055,-22.888044357299805
5.87,-1.8604196310043335,-9.868000030517578,-0.2991028130054474,0.058184914290905,0.16691893339157104,0.9195048809051514,-12.774043083190918,47.03303146362305,-24.334989547729492
5.874,-1.9992032051086426,-11.7056884765625,-0.3517449200153351,0.09392052888870239,0.16783522069454193,0.6308711171150208,-12.554807662963867,46.930721282958984,-24.364221572875977
5.88,-1.956132411956787,-12.364910125732422,-0.4007977545261383,0.12140946835279465,0.19074267148971558,0.5027421116828918,-12.671732902526855,46.916107177734375,-24.59807014465332
5.89,-1.6450655460357666,-13.371092796325684,-0.19501502811908722,0.16203199326992035,0.11575896292924881,0.34666600823402405,-12.277112007141113,46.901493072509766,-23.83806037902832
5.9,-0.8530412316322327,-13.384252548217773,0.04546362906694412,0.1618792861700058,-0.11850785464048386,0.17959438264369965,-11.955568313598633,46.7991828918457,-24.349605560302734
5.91,-0.7238287925720215,-12.792030334472656,-0.35054853558540344,0.13286319375038147,-0.5253441333770752,-0.012522736564278603,-12.087108612060547,46.360713958740234,-23.823442459106445
5.93,-1.3818550109863281,-12.222537994384766,-1.0241280794143677,0.12782354652881622,-0.9356928467750549,-0.1670716404914856,-11.56094741821289,46.49225616455078,-25.22654151916504
5.933,-3.0580272674560547,-11.540583610534668,-1.6737794876098633,0.16768251359462738,-1.3687962293624878,-0.29657506942749023,-11.75094985961914,46.740718841552734,-25.460391998291016
5.94,-3.7663025856018066,-11.392228126525879,-1.6390833854675293,0.16340644657611847,-1.4683672189712524,-0.31963521242141724,-11.634024620056152,47.01841354370117,-25.22654151916504
5.95,-5.6554365158081055,-11.093125343322754,-1.0480562448501587,0.12370020896196365,-1.4468343257904053,-0.33826664090156555,-11.341712951660156,46.60917663574219,-25.796550750732422
5.96,-6.659224987030029,-10.88853931427002,-0.2787638306617737,0.07360926270484924,-1.2467758655548096,-0.375529408454895,-11.47325325012207,46.974571228027344,-26.001171112060547
5.97,-7.003791332244873,-10.85743236541748,0.38285163044929504,0.0032070425804704428,-0.9538660645484924,-0.43218716979026794,-10.91786003112793,46.62379455566406,-26.30809783935547
5.99,-6.7106709480285645,-11.176874160766602,0.7597211599349976,-0.08399397134780884,-0.6777549982070923,-0.516333818435669,-11.210172653198242,46.7991828918457,-26.132709503173828
5.994,-5.459225177764893,-11.907881736755371,0.8865407705307007,-0.1817324161529541,-0.4101960062980652,-0.6603453159332275,-11.736333847045898,46.550716400146484,-26.293479919433594
6.0,-4.661218643188477,-12.005987167358398,0.7824530005455017,-0.19303342700004578,-0.3436116874217987,-0.7263187766075134,-11.940953254699707,46.7991828918457,-26.717334747314453
6.01,-3.7160534858703613,-12.057433128356934,0.5431707501411438,-0.1725694239139557,-0.3266601860523224,-0.8124507665634155,-12.130955696105957,46.375328063964844,-26.278865814208984
6.02,-2.9276182651519775,-12.305089950561523,0.3397807776927948,-0.14874568581581116,-0.3839287757873535,-0.9315694570541382,-11.867875099182129,46.477638244628906,-26.95118522644043
6.03,-2.2851455211639404,-12.781262397766113,0.25004997849464417,-0.14508049190044403,-0.5004513263702393,-1.080467939376831,-12.262495994567871,46.81379699707031,-26.351943969726562
6.05,-1.6402798891067505,-13.399806022644043,0.26081767678260803,-0.16890422999858856,-0.682641863822937,-1.2528846263885498,-13.373282432556152,47.06226348876953,-26.907337188720703
6.054,-1.1521440744400024,-14.367703437805176,0.4055834412574768,-0.19562958180904388,-0.8596401214599609,-1.3739886283874512,-13.344051361083984,47.529964447021484,-26.96579933166504
6.06,-1.1940184831619263,-14.785250663757324,0.46420758962631226,-0.21899518370628357,-0.9500481486320496,-1.4376713037490845,-13.256357192993164,47.500728607177734,-26.49810028076172
6.07,-1.2574282884597778,-15.093924522399902,0.5347958207130432,-0.2739730477333069,-1.0352638959884644,-1.5247195959091187,-13.373282432556152,47.13534164428711,-26.278865814208984
6.08,-1.4871392250061035,-14.995819091796875,0.4043869972229004,-0.35216379165649414,-1.0971139669418335,-1.6215417385101318,-14.264835357666016,47.836891174316406,-27.185035705566406
6.09,-1.7383856773376465,-14.431112289428711,0.04666003957390785,-0.46899178624153137,-1.1464413404464722,-1.732261061668396,-14.703303337097168,47.734580993652344,-26.512714385986328
6.109,-2.1308083534240723,-13.472787857055664,-0.4785645008087158,-0.5676465034484863,-1.1669052839279175,-1.8741345405578613,-15.244080543518066,47.70534896850586,-26.483484268188477
6.113,-2.2612173557281494,-12.692727088928223,-0.5156532526016235,-0.5904012322425842,-1.164003610610962,-1.902387022972107,-15.258696556091309,47.544578552246094,-26.381174087524414
6.12,-2.2265214920043945,-12.4271240234375,-0.453439861536026,-0.6244570016860962,-1.1330022811889648,-1.9336940050125122,-15.945630073547363,47.734580993652344,-26.220401763916016
6.13,-1.8508483171463013,-12.248858451843262,-0.39481574296951294,-0.6724098920822144,-1.0697777271270752,-1.96133553981781,-16.42794418334961,47.64688491821289,-26.278865814208984
6.14,-1.0827522277832031,-12.000005722045898,-0.30508488416671753,-0.7067710757255554,-1.010523796081543,-1.9370536804199219,-17.114879608154297,47.67612075805664,-25.78193473815918
6.15,-0.19740787148475647,-11.539387702941895,-0.28115665912628174,-0.7148650884628296,-1.020297646522522,-1.8748981952667236,-17.52411651611328,47.70534896850586,-25.635778427124023
6.17,0.40319061279296875,-11.09192943572998,-0.35413771867752075,-0.7121161818504333,-1.0699304342269897,-1.790598750114441,-18.62028694152832,47.8807373046875,-24.59807014465332
6.174,0.3960121273994446,-10.39202880859375,-0.4259223937988281,-0.7133378982543945,-1.1664471626281738,-1.7052302360534668,-18.956445693969727,47.529964447021484,-24.378835678100586
6.18,0.30508488416671753,-9.899106979370117,-0.37806597352027893,-0.7170030474662781,-1.225701093673706,-1.6743816137313843,-19.62876319885254,47.58842468261719,-24.75884246826172
6.19,0.0011964113218709826,-9.18724250793457,-0.24167509377002716,-0.7386887669563293,-1.3130548000335693,-1.6517795324325562,-19.292604446411133,47.39842224121094,-24.831920623779297
6.2,-0.4055834412574768,-8.34736156463623,-0.004785645287483931,-0.7848091125488281,-1.3578007221221924,-1.6630805730819702,-19.614147186279297,47.77842712402344,-23.50189971923828
6.21,-0.6424728631973267,-7.671389579772949,0.15553347766399384,-0.8393288254737854,-1.3490958213806152,-1.6783522367477417,-20.242618560791016,47.44226837158203,-23.151124954223633
6.23,-0.9942178130149841,-7.020541191101074,0.34217363595962524,-0.9053022861480713,-1.2835805416107178,-1.6798794269561768,-20.724933624267578,47.661502838134766,-23.063430786132812
6.233,-1.325623631477356,-6.204588890075684,0.45463627576828003,-0.9905179738998413,-1.1107057332992554,-1.6731598377227783,-21.221864700317383,47.20841979980469,-23.00497055053711
6.24,-1.3423734903335571,-5.8025946617126465,0.5503491759300232,-1.0025825500488281,-1.0493137836456299,-1.6827809810638428,-21.601871490478516,47.39842224121094,-22.72727394104004
6.25,-1.3016955852508545,-5.532205581665039,0.8506484627723694,-1.0250318050384521,-0.9048441052436829,-1.71989107131958,-21.83572006225586,46.98918533325195,-22.639577865600586
6.26,-0.98703932762146,-5.575276851654053,1.34476637840271,-1.0745118856430054,-0.816421389579773,-1.7673858404159546,-22.361881256103516,46.98918533325195,-21.601871490478516
6.27,-0.7884350419044495,-5.760720252990723,1.5792629718780518,-1.1620184183120728,-0.725860595703125,-1.814880609512329,-22.420345306396484,46.63841247558594,-21.64571762084961
6.29,-0.6113661527633667,-5.757131099700928,1.4189437627792358,-1.2463178634643555,-0.5852088928222656,-1.8530596494674683,-23.180356979370117,46.27302169799805,-20.65185546875
6.294,-1.038485050201416,-5.795416355133057,0.9726824164390564,-1.2977831363677979,-0.2922990024089813,-1.9303340911865234,-23.66267204284668,45.615318298339844,-21.251096725463867
6.3,-1.0097711086273193,-5.8025946617126465,0.8039883971214294,-1.2942707538604736,-0.1359175145626068,-1.9814940690994263,-24.656532287597656,45.90762710571289,-20.18415641784668
6.31,-1.0277173519134521,-5.9545392990112305,0.6771687865257263,-1.2782355546951294,0.0832303911447525,-2.0792324542999268,-25.445777893066406,45.60070037841797,-19.83338165283203
6.32,-0.9511469602584839,-6.057430744171143,0.5515456199645996,-1.2855658531188965,0.2762638032436371,-2.1931588649749756,-26.191171646118164,45.29377365112305,-19.672609329223633
6.33,-0.6580261588096619,-6.217749118804932,0.4498506486415863,-1.2976304292678833,0.47937649488449097,-2.2963950634002686,-26.921951293945312,44.358375549316406,-18.664133071899414
6.35,-0.13040883839130402,-6.187839031219482,0.1052841916680336,-1.3193161487579346,0.6992879509925842,-2.3626739978790283,-29.932767868041992,43.91990661621094,-18.81028938293457
6.354,0.8219345808029175,-6.061019420623779,-0.7046862840652466,-1.265865445137024,1.0430524349212646,-2.38405442237854,-30.049694061279297,43.86144256591797,-18.06489372253418
6.36,1.5038889646530151,-6.08494758605957,-1.0229315757751465,-1.2021827697753906,1.2011137008666992,-2.345111608505249,-30.795087814331055,43.33528137207031,-17.757965087890625
6.37,2.499303102493286,-6.246463775634766,-1.451246976852417,-1.0897835493087769,1.3442089557647705,-2.267073631286621,-32.066646575927734,42.41449737548828,-17.567962646484375
6.38,3.5916268825531006,-6.549155235290527,-1.7335999011993408,-0.9673051238059998,1.3596333265304565,-2.1897990703582764,-32.91435241699219,42.18064880371094,-17.275650024414062
6.39,4.341776371002197,-6.942774772644043,-1.8197414875030518,-0.8655960559844971,1.2530372142791748,-2.1287126541137695,-34.08360290527344,41.6252555847168,-16.997953414916992
6.409,4.969892501831055,-7.287341117858887,-1.5972089767456055,-0.8578075170516968,0.8162686824798584,-1.9517143964767456,-36.4074821472168,40.73370361328125,-16.384098052978516
6.413,5.736792087554932,-7.226324081420898,-1.5254243612289429,-0.8743008375167847,0.7076873779296875,-1.8723019361495972,-36.495174407958984,40.558319091796875,-17.69950294494629
6.42,5.729613304138184,-7.176074504852295,-1.743171215057373,-0.883005678653717,0.5607743263244629,-1.7374534606933594,-37.35749816894531,40.002925872802734,-17.114879608154297
6.43,5.691328525543213,-7.396214485168457,-2.1918253898620605,-0.8498662114143372,0.4210388660430908,-1.5522085428237915,-37.8251953125,39.447532653808594,-17.14410972595215
6.44,5.582455158233643,-8.002795219421387,-2.726621150970459,-0.7638869881629944,0.3032945990562439,-1.3862059116363525,-38.33674621582031,39.345218658447266,-16.530254364013672
6.45,5.546562671661377,-8.598608016967773,-3.262613534927368,-0.6152939796447754,0.22999075055122375,-1.1855366230010986,-39.06752395629883,38.49751663208008,-15.945630073547363
6.47,5.54895544052124,-9.117850303649902,-3.9553356170654297,-0.484416127204895,0.1572977900505066,-1.0332785844802856,-39.769073486328125,38.234432220458984,-16.471790313720703
6.474,5.686542987823486,-9.513862609863281,-4.219742774963379,-0.3136793076992035,-0.041233401745557785,-0.8121453523635864,-39.43291473388672,38.38058853149414,-15.960245132446289
6.48,5.596811771392822,-9.658628463745117,-4.353740692138672,-0.26145032048225403,-0.10980302840471268,-0.7374670505523682,-39.81291961669922,38.17597198486328,-15.960245132446289
6.49,5.678168296813965,-9.66221809387207,-4.374079704284668,-0.17608189582824707,-0.2577851414680481,-0.5826126933097839,-39.330604553222656,38.36597442626953,-15.784857749938965
6.5,5.343172550201416,-9.4660062789917,-4.2209391593933105,-0.09498954564332962,-0.43997567892074585,-0.4027129113674164,-39.75445556640625,37.7228889465332,-15.667933464050293
6.51,5.006981372833252,-9.293722152709961,-3.860819101333618,-0.07040221989154816,-0.5201517343521118,-0.25244006514549255,-40.17831039428711,37.81058120727539,-15.974861145019531
6.53,4.19581413269043,-8.939584732055664,-3.724428415298462,-0.07712173461914062,-0.5204571485519409,-0.10384708642959595,-39.69599533081055,37.31365203857422,-15.18561840057373
6.533,3.3846476078033447,-8.650053024291992,-3.675375461578369,-0.09376781433820724,-0.408974289894104,0.05054909735918045,-39.81291961669922,37.45980453491211,-16.033323287963867
6.54,3.0687947273254395,-8.599804878234863,-3.7052857875823975,-0.10201448947191238,-0.29245173931121826,0.12308934330940247,-39.49137496948242,37.19672393798828,-15.507162094116211
6.55,2.906083106994629,-8.71944522857666,-3.720839262008667,-0.10231993347406387,-0.10583239793777466,0.204487144947052,-39.403682708740234,37.41596221923828,-15.697164535522461
6.56,2.9790639877319336,-9.134600639343262,-3.7256245613098145,-0.09193521738052368,0.09498954564332962,0.2929098606109619,-39.418296813964844,37.094417572021484,-15.682548522949219
6.57,3.3439693450927734,-9.717252731323242,-3.9661033153533936,-0.06185010448098183,0.21013763546943665,0.36621370911598206,-39.73984146118164,36.845951080322266,-15.638701438903809
6.59,3.6059837341308594,-10.126425743103027,-4.438685894012451,0.012064589187502861,0.29046642780303955,0.4605923891067505,-39.783687591552734,36.524410247802734,-16.486408233642578
6.594,3.586841106414795,-10.747363090515137,-4.900500774383545,0.21441368758678436,0.42898011207580566,0.6085745096206665,-39.53522491455078,37.050567626953125,-16.15024757385254
6.6,3.500699520111084,-11.115857124328613,-4.980660438537598,0.290313720703125,0.48915034532546997,0.6592763066291809,-39.228294372558594,37.26980209350586,-16.515640258789062
6.61,3.421736478805542,-11.23190975189209,-4.95074987411499,0.4508185386657715,0.664315938949585,0.7979426980018616,-39.66676330566406,37.54750061035156,-16.07716941833496
6.62,3.4815566539764404,-10.496116638183594,-4.718646049499512,0.5508477091789246,0.7754933834075928,0.9222537875175476,-39.62291717529297,37.19672393798828,-16.837182998657227
6.63,3.6119656562805176,-9.704092025756836,-4.4961137771606445,0.6443100571632385,0.8506298065185547,1.0485501289367676,-38.93598175048828,37.48904037475586,-16.837182998657227
6.65,3.7196426391601562,-9.418149948120117,-4.115654468536377,0.7296785116195679,0.9109527468681335,1.164156436920166,-38.92136764526367,38.00058364868164,-17.80181312561035
6.653,3.710071325302124,-10.082158088684082,-3.6299118995666504,0.8196284174919128,1.0433578491210938,1.3051135540008545,-39.1259880065918,38.38058853149414,-17.831043243408203
6.66,3.702892780303955,-10.486544609069824,-3.507877826690674,0.8396342396736145,1.1258245706558228,1.351386547088623,-38.97983169555664,38.35136032104492,-17.31949806213379
6.67,3.6430721282958984,-11.45563793182373,-3.012563705444336,0.8161159157752991,1.235322117805481,1.397354245185852,-39.28675842285156,39.023677825927734,-18.474130630493164
6.68,3.8572299480438232,-11.822936058044434,-3.0113673210144043,0.7689266204833984,1.327562928199768,1.448972225189209,-38.950599670410156,39.783687591552734,-19.380298614501953
6.69,4.1036906242370605,-11.74158000946045,-3.2434709072113037,0.7530441284179688,1.3663527965545654,1.5152511596679688,-38.950599670410156,39.8421516418457,-19.877227783203125
6.709,4.206582069396973,-11.350354194641113,-3.521038293838501,0.775340735912323,1.351081132888794,1.5946637392044067,-38.585208892822266,40.29523468017578,-20.038002014160156
6.713,4.106083393096924,-10.691131591796875,-3.645465135574341,0.8257370591163635,1.267392635345459,1.7395914793014526,-38.775211334228516,40.6021614074707,-20.666471481323242
6.721,3.838087320327759,-10.110871315002441,-3.438485860824585,0.8344419598579407,1.2235630750656128,1.8225164413452148,-38.33674621582031,41.25986862182617,-20.476469039916992
6.73,3.445664644241333,-9.537790298461914,-3.1453652381896973,0.8304712772369385,1.189049243927002,1.933235764503479,-37.8251953125,41.099090576171875,-20.783395767211914
6.74,2.9144580364227295,-8.98385238647461,-2.888136863708496,0.7997753024101257,1.193325161933899,2.0421223640441895,-37.708274841308594,41.59602355957031,-21.806488037109375
6.75,2.4741785526275635,-8.434700012207031,-2.968296527862549,0.8147415518760681,1.260825753211975,2.141387939453125,-37.035953521728516,42.38526916503906,-22.244956970214844
