time,accel_x,accel_y,accel_z,gyro_x,gyro_y,gyro_z,mag_x,mag_y,mag_z
0.0,0.4737788736820221,-9.765109062194824,-1.3196415901184082,0.01237002108246088,0.01160643994808197,0.016798794269561768,-20.447237014770508,48.31920623779297,-20.973400115966797
0.009,0.5048855543136597,-9.787840843200684,-1.2837493419647217,0.010690141469240189,0.006108652334660292,0.01817324012517929,-20.666471481323242,48.37766647338867,-21.031862258911133
0.019,0.5575276613235474,-9.790233612060547,-1.3016955852508545,0.005803219974040985,-0.0036651913542300463,0.01863138936460018,-20.958784103393555,48.45074462890625,-20.593395233154297
0.029,0.6089733242988586,-9.717252731323242,-1.3004990816116333,0.0007635815418325365,-0.02122756652534008,0.020158551633358,-20.8126277923584,48.114585876464844,-20.91493797302246
0.039,0.5324030518531799,-9.667003631591797,-1.3160523176193237,0.007177666295319796,-0.04596760869026184,0.030543262138962746,-20.388774871826172,48.12919998168945,-21.528793334960938
0.049,0.3445664644241333,-9.6466646194458,-1.2873386144638062,0.014660765416920185,-0.05726861581206322,0.03833179175853729,-20.491085052490234,48.20227813720703,-20.90032196044922
0.069,0.2225324958562851,-9.627521514892578,-1.2047861814498901,0.020922133699059486,-0.06032294034957886,0.03481931984424591,-19.979537963867188,47.96842956542969,-21.689563751220703
0.073,0.15553347766399384,-9.69212818145752,-1.1832507848739624,0.023060161620378494,-0.051923543214797974,0.021532999351620674,-20.63724136352539,48.27535629272461,-20.98801612854004
0.079,0.13280165195465088,-9.724431037902832,-1.1784651279449463,0.02168571576476097,-0.04581489413976669,0.014508049935102463,-19.7310733795166,48.114585876464844,-20.973400115966797
0.089,0.04307080805301666,-9.757929801940918,-1.2119646072387695,0.016340645030140877,-0.01817324012517929,0.0003054326225537807,-19.92107582092285,48.34843444824219,-20.973400115966797
0.099,0.02512463741004467,-9.774680137634277,-1.2299107313156128,0.010231993161141872,0.01191187184303999,-0.011301006190478802,-20.198772430419922,48.31920623779297,-20.98801612854004
0.11,0.06580261886119843,-9.756733894348145,-1.2382856607437134,0.0027488935738801956,0.040317103266716,-0.021838432177901268,-20.724933624267578,47.924583435058594,-20.8126277923584
0.129,0.20817556977272034,-9.77707290649414,-1.2215359210968018,-0.0088575454428792,0.06688974052667618,-0.041233401745557785,-20.73954963684082,48.69921112060547,-21.601871490478516
0.132,0.4295116364955902,-9.783055305480957,-1.2335000038146973,-0.01114829070866108,0.06719517707824707,-0.04260785132646561,-20.476469039916992,48.056121826171875,-20.841859817504883
0.139,0.5551348328590393,-9.748359680175781,-1.2681959867477417,-0.012828170321881771,0.06062837690114975,-0.04398229718208313,-20.257234573364258,48.114585876464844,-21.324174880981445
0.149,0.6831508874893188,-9.717252731323242,-1.3316056728363037,-0.008399397134780884,0.03756821155548096,-0.036041051149368286,-20.520315170288086,47.544578552246094,-21.309558868408203
0.159,0.7022933959960938,-9.734002113342285,-1.3519446849822998,0.0003054326225537807,0.013286319561302662,-0.019547687843441963,-20.02338409423828,48.83074951171875,-21.4703311920166
0.169,0.6221339106559753,-9.76989459991455,-1.3734800815582275,0.00855211354792118,-0.007024950347840786,0.0004581489192787558,-20.578777313232422,48.421512603759766,-21.528793334960938
0.189,0.5108676552772522,-9.768697738647461,-1.3411771059036255,0.012217304669320583,-0.01970040239393711,0.01237002108246088,-20.476469039916992,48.406898498535156,-21.499561309814453
0.193,0.4223332107067108,-9.804591178894043,-1.2801601886749268,0.013439035043120384,-0.03329215571284294,0.010690141469240189,-20.549545288085938,48.23151397705078,-21.55802345275879
0.2,0.38285163044929504,-9.80100154876709,-1.2526426315307617,0.010842857882380486,-0.03741549327969551,0.0039706239476799965,-21.075708389282227,48.45074462890625,-21.353404998779297
0.209,0.32183465361595154,-9.77826976776123,-1.2215359210968018,0.005192354787141085,-0.03176499158143997,-0.005955935921519995,-20.228002548217773,48.14381790161133,-20.257234573364258
0.219,0.2679961323738098,-9.77587604522705,-1.2119646072387695,-0.0003054326225537807,-0.020463986322283745,-0.016951510682702065,-20.491085052490234,48.20227813720703,-21.324174880981445
0.229,0.24406790733337402,-9.7998046875,-1.2454640865325928,-0.005803219974040985,-0.006719517521560192,-0.02367102913558483,-20.63724136352539,48.31920623779297,-21.19263458251953
0.248,0.28594231605529785,-9.737591743469238,-1.2478569746017456,-0.0088575454428792,0.012828170321881771,-0.028405234217643738,-20.8126277923584,48.18766403198242,-21.148786544799805
0.252,0.436690092086792,-9.722038269042969,-1.2634103298187256,-0.00931569468230009,0.010995574295520782,-0.028557950630784035,-20.82724380493164,48.669979095458984,-21.397253036499023
0.259,0.48574298620224,-9.701699256896973,-1.2801601886749268,-0.009162978269159794,0.005192354787141085,-0.025045473128557205,-20.73954963684082,48.085357666015625,-20.754165649414062
0.269,0.5000999569892883,-9.68375301361084,-1.3208380937576294,-0.0036651913542300463,-0.007788531482219696,-0.01878410577774048,-20.578777313232422,48.50920867919922,-21.514177322387695
0.279,0.4295116364955902,-9.677770614624023,-1.3004990816116333,0.0012217304902151227,-0.021532999351620674,-0.012675453908741474,-20.330312728881836,48.099971771240234,-21.92341423034668
0.289,0.31824538111686707,-9.722038269042969,-1.2693923711776733,0.0050396379083395,-0.02535090781748295,-0.008399397134780884,-20.62262535095215,48.24612808227539,-21.66033363342285
0.309,0.20817556977272034,-9.756733894348145,-1.2406784296035767,-0.00015271631127689034,0.0032070425804704428,-0.009468411095440388,-21.09032440185547,48.099971771240234,-21.733409881591797
0.312,0.17946170270442963,-9.77587604522705,-1.2418749332427979,-0.0006108652451075613,0.007635815534740686,-0.011301006190478802,-21.031862258911133,48.216896057128906,-22.332651138305664
0.319,0.22492532432079315,-9.762716293334961,-1.2490533590316772,-0.005345070734620094,0.019089538604021072,-0.015118913725018501,-21.221864700317383,47.89535140991211,-21.28032684326172
0.329,0.3026920557022095,-9.702895164489746,-1.2634103298187256,-0.005803219974040985,0.03451388329267502,-0.02229658141732216,-20.841859817504883,48.406898498535156,-21.031862258911133
0.339,0.3840480148792267,-9.69930648803711,-1.2837493419647217,-0.0050396379083395,0.04245513305068016,-0.024434609338641167,-20.476469039916992,47.96842956542969,-20.724933624267578
0.349,0.468993216753006,-9.680163383483887,-1.2849457263946533,-0.0010690141934901476,0.04245513305068016,-0.0277943667024374,-20.476469039916992,48.31920623779297,-20.388774871826172
0.369,0.5276173949241638,-9.67537784576416,-1.2801601886749268,0.0029016099870204926,0.026419920846819878,-0.02733621932566166,-20.82724380493164,48.20227813720703,-20.35954475402832
0.373,0.5324030518531799,-9.717252731323242,-1.2538390159606934,0.002138028386980295,0.024892758578062057,-0.02626720443367958,-20.666471481323242,48.085357666015625,-20.549545288085938
0.379,0.5300102233886719,-9.753144264221191,-1.2681959867477417,-0.001527163083665073,0.01618792861700058,-0.02626720443367958,-20.754165649414062,47.98304748535156,-21.10494041442871
0.389,0.5383850932121277,-9.730413436889648,-1.2969098091125488,-0.006872233934700489,0.006566801108419895,-0.022602012380957603,-20.052616119384766,48.494590759277344,-20.564163208007812
0.399,0.5431707501411438,-9.7124662399292,-1.32921302318573,-0.0009162978385575116,-0.0010690141934901476,-0.006108652334660292,-20.62262535095215,48.37766647338867,-20.681087493896484
0.409,0.4941178560256958,-9.696913719177246,-1.3555339574813843,0.005497787147760391,-0.009621127508580685,0.00427605677396059,-20.491085052490234,48.17304992675781,-20.841859817504883
0.429,0.3696911036968231,-9.65503978729248,-1.290927767753601,0.020005837082862854,-0.022449297830462456,0.025503622367978096,-20.286466598510742,47.76381301879883,-20.65185546875
0.433,0.3565305471420288,-9.65982437133789,-1.2717852592468262,0.021991148591041565,-0.018325956538319588,0.030085112899541855,-20.418006896972656,47.909969329833984,-20.92955207824707
0.439,0.2620140612125397,-9.68494987487793,-1.270588755607605,0.02076941914856434,-0.00855211354792118,0.03329215571284294,-20.447237014770508,48.27535629272461,-20.18415641784668
0.449,0.1579262912273407,-9.7064847946167,-1.2789636850357056,0.01237002108246088,0.023518310859799385,0.022907447069883347,-20.593395233154297,48.421512603759766,-21.031862258911133
0.459,0.2225324958562851,-9.77826976776123,-1.2813564538955688,0.0012217304902151227,0.05115996673703194,0.01038470957428217,-20.505699157714844,48.34843444824219,-20.8126277923584
0.469,0.3445664644241333,-9.804591178894043,-1.2837493419647217,-0.005497787147760391,0.06994406878948212,-0.0029016099870204926,-20.98801612854004,48.289974212646484,-20.30108070373535
0.488,0.6400800943374634,-9.804591178894043,-1.3399806022644043,-0.003512475173920393,0.08246680349111557,-0.016340645030140877,-21.00263023376465,48.406898498535156,-20.695703506469727
0.492,0.7094718813896179,-9.7998046875,-1.325623631477356,-0.003512475173920393,0.07941248267889023,-0.015271631069481373,-20.724933624267578,48.31920623779297,-20.344928741455078
0.499,0.7884350419044495,-9.750751495361328,-1.3543375730514526,0.0006108652451075613,0.057879481464624405,-0.009926560334861279,-20.841859817504883,48.099971771240234,-20.98801612854004
0.509,0.8171489238739014,-9.686145782470703,-1.4117653369903564,0.006108652334660292,0.026572639122605324,0.001527163083665073,-21.178016662597656,47.96842956542969,-20.257234573364258
0.519,0.7417749762535095,-9.66102123260498,-1.439282774925232,0.011453723534941673,-0.005345070734620094,0.016951510682702065,-21.26571273803711,48.216896057128906,-20.08184814453125
0.529,0.6257230639457703,-9.590433120727539,-1.454836130142212,0.01878410577774048,-0.03145955875515938,0.029932396486401558,-20.98801612854004,48.34843444824219,-19.979537963867188
0.549,0.30628129839897156,-9.694520950317383,-1.3435698747634888,0.020311269909143448,-0.049785517156124115,0.05115996673703194,-20.841859817504883,48.17304992675781,-20.330312728881836
0.553,0.21655045449733734,-9.69810962677002,-1.317248821258545,0.01710422709584236,-0.04306599870324135,0.058337628841400146,-21.09032440185547,48.114585876464844,-20.08184814453125
0.559,0.1543370485305786,-9.761519432067871,-1.2789636850357056,0.010231993161141872,-0.028099801391363144,0.06612616032361984,-20.418006896972656,47.76381301879883,-20.681087493896484
0.569,0.12442676723003387,-9.773483276367188,-1.2993026971817017,0.0012217304902151227,-0.0009162978385575116,0.07895433157682419,-21.01724624633789,48.041507720947266,-22.230342864990234
0.579,0.10767702013254166,-9.693324089050293,-1.3794622421264648,-0.002138028386980295,0.028099801391363144,0.09254607558250427,-21.061092376708984,47.96842956542969,-21.704179763793945
0.589,0.14715859293937683,-9.591629981994629,-1.4775679111480713,0.0024434609804302454,0.048258356750011444,0.09666942805051804,-20.92955207824707,47.836891174316406,-21.251096725463867
0.602,0.13519448041915894,-9.619146347045898,-1.4847464561462402,0.016798794269561768,0.0529925599694252,0.10552696883678436,-20.593395233154297,47.836891174316406,-20.8126277923584
0.609,0.19980068504810333,-9.678967475891113,-1.4380862712860107,0.022449297830462456,0.054367005825042725,0.11316278576850891,-20.549545288085938,48.27535629272461,-20.564163208007812
0.619,0.23569302260875702,-9.730413436889648,-1.3746765851974487,0.031154125928878784,0.06276640295982361,0.1316414624452591,-20.73954963684082,48.114585876464844,-21.718795776367188
0.629,0.3397807776927948,-9.738787651062012,-1.3722838163375854,0.04077525436878204,0.07284567505121231,0.15073098242282867,-20.724933624267578,48.20227813720703,-20.98801612854004
0.639,0.3720839321613312,-9.747162818908691,-1.3758729696273804,0.04505131021142006,0.0708603635430336,0.15806137025356293,-20.90032196044922,48.2607421875,-20.65185546875
0.649,0.30987051129341125,-9.716055870056152,-1.3734800815582275,0.04153883829712868,0.055283304303884506,0.15225815773010254,-20.944168090820312,48.20227813720703,-21.134170532226562
0.668,0.05982056260108948,-9.69212818145752,-1.4536396265029907,0.0354301817715168,0.042302414774894714,0.1449277698993683,-20.37415885925293,48.34843444824219,-21.163402557373047
0.672,-0.05383851006627083,-9.672985076904297,-1.4452649354934692,0.03878994286060333,0.04902193322777748,0.14553864300251007,-20.447237014770508,48.52382278442383,-21.324174880981445
0.679,-0.17228323221206665,-9.633503913879395,-1.4500504732131958,0.04535674676299095,0.06276640295982361,0.14676035940647125,-20.154926300048828,48.041507720947266,-20.2718505859375
0.689,-0.30149564146995544,-9.65384292602539,-1.4859428405761719,0.050243668258190155,0.08704829961061478,0.13988813757896423,-20.476469039916992,47.96842956542969,-21.061092376708984
0.699,-0.3074776828289032,-9.735198020935059,-1.4560325145721436,0.05009094625711441,0.11911872029304504,0.14569135010242462,-20.125694274902344,48.406898498535156,-21.441099166870117
0.718,-0.2763710021972656,-9.719645500183105,-1.4428720474243164,0.05360342189669609,0.17027868330478668,0.16050483286380768,-20.169540405273438,48.611515045166016,-20.754165649414062
0.722,-0.12681959569454193,-9.713663101196289,-1.4739786386489868,0.05910121276974678,0.22128592431545258,0.1638645976781845,-20.198772430419922,48.01227569580078,-20.63724136352539
0.729,-0.02512463741004467,-9.717252731323242,-1.4739786386489868,0.056810468435287476,0.23976460099220276,0.1560760736465454,-20.052616119384766,48.406898498535156,-21.148786544799805
0.739,0.1627119481563568,-9.724431037902832,-1.5421741008758545,0.04795292019844055,0.24877485632896423,0.1508837193250656,-20.35954475402832,48.18766403198242,-21.28032684326172
0.749,0.2967100143432617,-9.687341690063477,-1.5517455339431763,0.049785517156124115,0.2548835277557373,0.15531249344348907,-20.4326229095459,48.2607421875,-20.90032196044922
0.759,0.41994035243988037,-9.713663101196289,-1.5433706045150757,0.056352317333221436,0.2503020465373993,0.1563815027475357,-20.052616119384766,47.61765670776367,-20.783395767211914
0.769,0.5946164131164551,-9.787840843200684,-1.53858482837677,0.05375614017248154,0.23319780826568604,0.1563815027475357,-20.37415885925293,48.1584358215332,-20.944168090820312
0.788,0.7298108339309692,-9.797411918640137,-1.5948163270950317,0.04841107130050659,0.1696678102016449,0.16569718718528748,-20.008769989013672,48.43613052368164,-20.140310287475586
0.791,0.698704183101654,-9.79860782623291,-1.6390833854675293,0.0481056347489357,0.1615738421678543,0.1667662113904953,-20.08184814453125,48.289974212646484,-20.754165649414062
0.799,0.6364907622337341,-9.795019149780273,-1.660618782043457,0.049785517156124115,0.1345430612564087,0.16859880089759827,-20.257234573364258,47.99766159057617,-20.593395233154297
0.809,0.5455635190010071,-9.766304969787598,-1.6785650253295898,0.05253440886735916,0.09712757170200348,0.1693623811006546,-20.125694274902344,48.39228439331055,-20.403390884399414
0.819,0.39003005623817444,-9.748359680175781,-1.6630116701126099,0.05375614017248154,0.07696902006864548,0.17104226350784302,-20.038002014160156,48.01227569580078,-21.309558868408203
0.838,0.259621262550354,-9.754341125488281,-1.657029628753662,0.053297992795705795,0.07131851464509964,0.17043140530586243,-19.90645980834961,47.734580993652344,-20.491085052490234
0.842,0.21296119689941406,-9.768697738647461,-1.6869399547576904,0.05115996673703194,0.08185594528913498,0.1661553531885147,-19.424144744873047,48.026893615722656,-21.134170532226562
0.849,0.2464607208967209,-9.732806205749512,-1.7264214754104614,0.04841107130050659,0.0887281745672226,0.16142113506793976,-20.067232131958008,48.1584358215332,-21.075708389282227
0.859,0.35533416271209717,-9.643074989318848,-1.7742778062820435,0.05115996673703194,0.08674286305904388,0.1572977900505066,-19.43876075744629,48.24612808227539,-20.798011779785156
0.869,0.5862414836883545,-9.53659439086914,-1.8484554290771484,0.05803219974040985,0.076052725315094,0.15347988903522491,-19.862613677978516,48.18766403198242,-20.768781661987305
0.879,0.7980062961578369,-9.460023880004883,-1.8352948427200317,0.07269296050071716,0.0503963828086853,0.15592335164546967,-19.497222900390625,48.421512603759766,-20.242618560791016
0.889,0.9726824164390564,-9.432506561279297,-1.8029918670654297,0.09285151958465576,0.014966198243200779,0.16554446518421173,-19.935691833496094,48.77228546142578,-20.491085052490234
0.902,1.1665010452270508,-9.407382011413574,-1.8185451030731201,0.11743884533643723,-0.04932736977934837,0.18738290667533875,-19.62876319885254,48.23151397705078,-22.11341667175293
0.909,1.2634103298187256,-9.354740142822266,-1.8005989789962769,0.12308934330940247,-0.08796459436416626,0.19883663952350616,-19.862613677978516,48.34843444824219,-21.748027801513672
0.919,1.2741780281066895,-9.31047248840332,-1.8185451030731201,0.13148874044418335,-0.13897183537483215,0.21502456068992615,-19.307220458984375,48.041507720947266,-22.274188995361328
0.929,1.3794622421264648,-9.22433090209961,-1.781456470489502,0.14156801998615265,-0.19226983189582825,0.22602012753486633,-19.24875831604004,48.27535629272461,-20.768781661987305
0.939,1.490728497505188,-9.133403778076172,-1.7623138427734375,0.14966197311878204,-0.2629774808883667,0.22602012753486633,-19.131834030151367,48.5384407043457,-22.347267150878906
0.949,1.5649060010910034,-9.127422332763672,-1.6809579133987427,0.15577064454555511,-0.35674530267715454,0.2142609804868698,-19.482608795166016,48.30459213256836,-21.689563751220703
0.962,1.576870083808899,-9.261420249938965,-1.4560325145721436,0.1485929638147354,-0.49128836393356323,0.19318613409996033,-17.97719955444336,48.669979095458984,-20.973400115966797
0.969,1.56969153881073,-9.306883811950684,-1.2885348796844482,0.12263119220733643,-0.5826126933097839,0.18188512325286865,-18.327974319458008,49.25460433959961,-21.64571762084961
0.979,1.3962119817733765,-9.284152030944824,-1.0995019674301147,0.08720101416110992,-0.6476698517799377,0.1774563491344452,-18.211048126220703,48.94767761230469,-22.581117630004883
0.989,1.184447169303894,-9.227920532226562,-0.9882357120513916,0.06108652427792549,-0.7049384713172913,0.16829337179660797,-17.845659255981445,48.5384407043457,-21.92341423034668
0.999,1.0013961791992188,-9.144170761108398,-0.882951557636261,0.048258356750011444,-0.7548767328262329,0.14553864300251007,-17.50950050354004,48.75767135620117,-21.82110595703125
1.019,0.8087739944458008,-8.9850492477417,-0.8267201781272888,0.04489859566092491,-0.7883215546607971,0.11972958594560623,-17.582576751708984,48.34843444824219,-21.83572006225586
1.022,0.45463627576828003,-8.858229637145996,-0.8111668825149536,0.05421429127454758,-0.8046622276306152,0.08521570265293121,-16.98333740234375,48.14381790161133,-21.83572006225586
1.029,0.22372892498970032,-8.918049812316895,-0.8506484627723694,0.0682641938328743,-0.7970263957977295,0.062460970133543015,-16.924875259399414,48.55305480957031,-21.908798217773438
1.039,0.02273181453347206,-9.083154678344727,-0.818345308303833,0.0913243517279625,-0.7802276015281677,0.011453723534941673,-16.720256805419922,48.81613540649414,-21.894182205200195
1.049,-0.09212366491556168,-9.315258026123047,-0.6664010882377625,0.08765916526317596,-0.7626652121543884,-0.04932736977934837,-16.501022338867188,48.655364990234375,-22.244956970214844
1.059,-0.08733802288770676,-9.620343208312988,-0.5910272002220154,0.06475171446800232,-0.7351763248443604,-0.12461650371551514,-16.559486389160156,49.020755767822266,-21.8503360748291
1.069,0.06939185410737991,-9.990034103393555,-0.5611169338226318,0.017562376335263252,-0.6957755088806152,-0.2197587788105011,-16.676410675048828,49.225372314453125,-21.748027801513672
1.082,0.3254238963127136,-10.50808048248291,-0.6520441174507141,-0.04001167416572571,-0.6493497490882874,-0.2912300229072571,-16.2525577545166,48.5384407043457,-22.434959411621094
1.089,0.5000999569892883,-10.664810180664062,-0.787238597869873,-0.057879481464624405,-0.616362988948822,-0.3202460706233978,-16.32563591003418,48.88921356201172,-22.084184646606445
1.099,0.662811815738678,-10.738987922668457,-0.9559326767921448,-0.06017022579908371,-0.5781839489936829,-0.3410155177116394,-16.267173767089844,48.216896057128906,-21.57263946533203
1.109,0.7022933959960938,-10.814361572265625,-1.1330015659332275,-0.0429132841527462,-0.5337435007095337,-0.34727686643600464,-16.749486923217773,49.06460189819336,-22.683425903320312
1.119,0.7597211599349976,-10.837093353271484,-1.2646067142486572,-0.005803219974040985,-0.4778493344783783,-0.35903605818748474,-16.311019897460938,48.713829040527344,-22.66880989074707
1.139,1.0947163105010986,-10.959127426147461,-1.3196415901184082,0.015271631069481373,-0.4596760869026184,-0.38026362657546997,-16.42794418334961,49.12306213378906,-22.1718807220459
1.143,1.53858482837677,-11.173285484313965,-1.3280165195465088,0.0036651913542300463,-0.4938845634460449,-0.4132503271102905,-16.457176208496094,49.093833923339844,-22.318035125732422
1.149,1.7754743099212646,-11.313264846801758,-1.3914263248443604,-0.0138971833512187,-0.5377141237258911,-0.4401284158229828,-16.486408233642578,49.50307083129883,-22.274188995361328
1.159,2.0003998279571533,-11.379068374633789,-1.470389485359192,-0.04459316283464432,-0.6079636812210083,-0.479834645986557,-16.588716506958008,48.9622917175293,-22.142648696899414
1.169,2.018345832824707,-11.315657615661621,-1.5816556215286255,-0.09682214260101318,-0.6937901973724365,-0.5222897529602051,-16.60333251953125,48.9622917175293,-21.92341423034668
1.179,1.9178473949432373,-11.057233810424805,-1.7084753513336182,-0.14355333149433136,-0.7476990222930908,-0.5309945940971375,-16.35486602783203,48.99152374267578,-22.303421020507812
1.198,1.7886348962783813,-10.688737869262695,-1.817348837852478,-0.18799376487731934,-0.7895433306694031,-0.5215262174606323,-16.70564079284668,49.26921844482422,-22.04033851623535
1.203,1.7312071323394775,-10.04985523223877,-1.8245272636413574,-0.2203696370124817,-0.8440630435943604,-0.48090362548828125,-16.910259246826172,49.10844802856445,-22.288803100585938
1.21,1.6546367406845093,-9.704092025756836,-1.8113667964935303,-0.2249511182308197,-0.8614726662635803,-0.46563202142715454,-16.895645141601562,49.32768249511719,-22.142648696899414
1.219,1.5409777164459229,-9.33320426940918,-1.6785650253295898,-0.23579397797584534,-0.9046913981437683,-0.43799036741256714,-16.76410484313965,49.26921844482422,-22.44957733154297
1.229,1.4644074440002441,-9.132206916809082,-1.444068431854248,-0.2525927722454071,-0.93889981508255,-0.4384485185146332,-16.574100494384766,49.225372314453125,-20.871089935302734
1.239,1.3088740110397339,-9.029315948486328,-1.219143033027649,-0.2739730477333069,-0.9576839804649353,-0.4491386413574219,-16.939491271972656,49.50307083129883,-22.361881256103516
1.259,1.1653046607971191,-9.005387306213379,-1.0360921621322632,-0.3061962127685547,-0.9680687189102173,-0.47372597455978394,-16.559486389160156,49.210758209228516,-21.938030242919922
1.263,0.9176474213600159,-9.004191398620605,-0.8949156999588013,-0.34926217794418335,-0.958142101764679,-0.5369505286216736,-16.544870376586914,49.049983978271484,-21.894182205200195
1.269,0.8111668825149536,-8.995816230773926,-0.8470591902732849,-0.36102133989334106,-0.9471465945243835,-0.5748242139816284,-16.734872817993164,49.049983978271484,-22.084184646606445
1.279,0.656829833984375,-8.963513374328613,-0.8267201781272888,-0.38988474011421204,-0.897513747215271,-0.6291911602020264,-16.895645141601562,48.81613540649414,-22.084184646606445
1.289,0.519242525100708,-8.997013092041016,-0.8817551136016846,-0.4069889783859253,-0.8310821652412415,-0.6782131195068359,-16.70564079284668,48.655364990234375,-22.04033851623535
1.299,0.5300102233886719,-8.997013092041016,-0.9212366938591003,-0.41523563861846924,-0.7654141187667847,-0.7263187766075134,-16.851797103881836,48.37766647338867,-21.28032684326172
1.319,0.6604190468788147,-8.96949577331543,-1.0528419017791748,-0.4141666293144226,-0.6922630071640015,-0.7710646390914917,-17.056415557861328,48.494590759277344,-20.871089935302734
1.323,0.9439685344696045,-8.980262756347656,-1.2681959867477417,-0.39324450492858887,-0.5908593535423279,-0.8284859657287598,-16.778718948364258,49.07921600341797,-20.608009338378906
1.329,1.113858938217163,-8.979066848754883,-1.2957134246826172,-0.37751469016075134,-0.5539020299911499,-0.8484918475151062,-16.720256805419922,48.99152374267578,-21.411867141723633
1.339,1.470389485359192,-9.019744873046875,-1.377069354057312,-0.350789338350296,-0.5262603759765625,-0.8629998564720154,-16.749486923217773,48.88921356201172,-20.958784103393555
1.349,1.6713865995407104,-9.030512809753418,-1.3722838163375854,-0.3231476843357086,-0.5164865851402283,-0.8639161586761475,-17.3341121673584,48.9622917175293,-20.973400115966797
1.359,1.7802599668502808,-9.111868858337402,-1.4021941423416138,-0.29336804151535034,-0.5151121020317078,-0.8655960559844971,-17.69950294494629,48.77228546142578,-20.871089935302734
1.379,1.8376877307891846,-9.244669914245605,-1.4213366508483887,-0.27030786871910095,-0.5229006409645081,-0.8730791211128235,-17.772581100463867,48.52382278442383,-20.65185546875
1.382,1.9190436601638794,-9.430113792419434,-1.3495519161224365,-0.27519479393959045,-0.5461135506629944,-0.8923214077949524,-17.831043243408203,48.465362548828125,-20.37415885925293
1.389,1.990828275680542,-9.549755096435547,-1.4045867919921875,-0.2921462953090668,-0.5442808866500854,-0.8970555663108826,-18.576440811157227,48.72844314575195,-20.798011779785156
1.399,2.0745770931243896,-9.564111709594727,-1.6175479888916016,-0.30741792917251587,-0.5244278311729431,-0.8932376503944397,-18.678749084472656,48.17304992675781,-20.608009338378906
1.409,2.23848557472229,-9.515058517456055,-1.6905291080474854,-0.30970868468284607,-0.5035056471824646,-0.8820894360542297,-18.824905395507812,48.465362548828125,-20.140310287475586
1.419,2.328216314315796,-9.506684303283691,-1.798206090927124,-0.31154128909111023,-0.49556440114974976,-0.8567385077476501,-19.27798843383789,48.5384407043457,-19.46799087524414
1.44,2.5567307472229004,-9.436095237731934,-1.9154545068740845,-0.299018532037735,-0.4804455041885376,-0.8049676418304443,-20.447237014770508,48.494590759277344,-19.204912185668945
1.443,2.748156785964966,-9.403792381286621,-2.014756679534912,-0.2730567753314972,-0.4944954216480255,-0.7444919943809509,-19.83338165283203,48.12919998168945,-19.33645248413086
1.449,2.8067808151245117,-9.440881729125977,-2.056631088256836,-0.2565633952617645,-0.5041165351867676,-0.7073819041252136,-19.614147186279297,48.14381790161133,-19.17568016052246
1.459,2.895315170288086,-9.533004760742188,-2.090130567550659,-0.24342979490756989,-0.5248859524726868,-0.6598871946334839,-20.008769989013672,48.31920623779297,-19.307220458984375
1.469,2.7218358516693115,-9.592824935913086,-2.1475582122802734,-0.23777928948402405,-0.5343543291091919,-0.6104071140289307,-19.877227783203125,48.50920867919922,-19.789535522460938
1.479,2.7146570682525635,-9.524630546569824,-2.251646041870117,-0.23518311977386475,-0.5152648091316223,-0.5505422949790955,-20.315698623657227,47.8807373046875,-19.204912185668945
1.499,2.5531415939331055,-9.381060600280762,-2.3605194091796875,-0.2298380434513092,-0.479834645986557,-0.4960225820541382,-20.578777313232422,48.1584358215332,-18.927213668823242
1.503,2.533998966217041,-9.189635276794434,-2.334198474884033,-0.22907446324825287,-0.43020185828208923,-0.40744709968566895,-20.30108070373535,47.5591926574707,-17.947969436645508
1.509,2.612962245941162,-9.09392261505127,-2.304288148880005,-0.22937989234924316,-0.41370847821235657,-0.3758348524570465,-21.19263458251953,47.99766159057617,-18.547208786010742
1.519,2.8043882846832275,-9.040083885192871,-2.2133607864379883,-0.22708913683891296,-0.39278632402420044,-0.3145955801010132,-20.608009338378906,47.89535140991211,-18.137971878051758
1.529,2.970689058303833,-9.072386741638184,-2.0685951709747314,-0.23228150606155396,-0.39309176802635193,-0.23182335495948792,-20.841859817504883,48.289974212646484,-18.72259521484375
1.539,3.0723841190338135,-9.002994537353516,-2.00518536567688,-0.2474004179239273,-0.3978259861469269,-0.16600261628627777,-20.944168090820312,48.289974212646484,-17.743350982666016
1.559,2.994617462158203,-8.806783676147461,-1.9633108377456665,-0.256868839263916,-0.3995058536529541,-0.10949759185314178,-20.30108070373535,47.25226593017578,-18.050277709960938
1.563,2.7493531703948975,-8.671588897705078,-1.8484554290771484,-0.27519479393959045,-0.3753766715526581,-0.029016099870204926,-20.140310287475586,47.51534652709961,-17.918737411499023
1.569,2.557927370071411,-8.641678810119629,-1.8640087842941284,-0.2796235680580139,-0.3585779070854187,-0.007788531482219696,-20.681087493896484,47.734580993652344,-18.211048126220703
1.579,2.3533408641815186,-8.800801277160645,-1.9166508913040161,-0.2741257846355438,-0.3165809214115143,0.032070424407720566,-20.2718505859375,48.026893615722656,-17.69950294494629
1.589,2.313859462738037,-9.501898765563965,-2.0231313705444336,-0.2307543307542801,-0.25641068816185,0.0754418596625328,-20.008769989013672,48.216896057128906,-18.050277709960938
1.599,2.025524377822876,-11.197213172912598,-2.5387847423553467,-0.14874568581581116,-0.18280142545700073,0.08491026610136032,-20.213388442993164,47.20841979980469,-17.71411895751953
1.619,1.9286149740219116,-12.282358169555664,-2.871387243270874,0.05757404863834381,0.11560624837875366,0.1508837193250656,-20.242618560791016,47.60304260253906,-17.567962646484375
1.622,2.2540388107299805,-11.990433692932129,-3.431307554244995,0.12599095702171326,0.18081609904766083,0.2076941728591919,-20.198772430419922,47.734580993652344,-18.09412384033203
1.629,2.5004994869232178,-11.377870559692383,-3.4875388145446777,0.20372354984283447,0.22876903414726257,0.28298333287239075,-19.950305938720703,47.661502838134766,-18.459514617919922
1.639,2.7972095012664795,-10.892127990722656,-3.229114055633545,0.35521814227104187,0.2877175211906433,0.4940372407436371,-19.964923858642578,47.69073486328125,-17.23180389404297
1.649,3.0687947273254395,-10.822736740112305,-2.5052852630615234,0.39706239104270935,0.2168571650981903,0.6154467463493347,-19.80415153503418,47.9391975402832,-17.641040802001953
1.659,2.8630123138427734,-10.861021041870117,-2.0482561588287354,0.3604104816913605,0.06704245507717133,0.6774495244026184,-19.81876564025879,48.026893615722656,-18.605670928955078
1.679,2.128415822982788,-10.945966720581055,-1.691725492477417,0.2877175211906433,-0.06383541971445084,0.6918048858642578,-19.219526290893555,47.734580993652344,-18.6933650970459
1.682,0.2823530435562134,-10.829915046691895,-1.4237295389175415,0.15485434234142303,-0.10155634582042694,0.6395758986473083,-19.33645248413086,47.60304260253906,-18.09412384033203
1.689,-0.2871387004852295,-10.722237586975098,-1.416550874710083,0.09376781433820724,-0.03833179175853729,0.5923865437507629,-18.91259765625,48.31920623779297,-18.5325927734375
1.699,-1.4093725681304932,-10.339385986328125,-1.5230315923690796,0.040317103266716,0.10735956579446793,0.5375614166259766,-18.3718204498291,47.60304260253906,-18.00642967224121
1.709,-1.7611173391342163,-9.956534385681152,-1.683350682258606,0.028099801391363144,0.2848159074783325,0.5100724697113037,-18.459514617919922,47.99766159057617,-18.021047592163086
1.719,-1.746760368347168,-9.595218658447266,-1.8556338548660278,0.062460970133543015,0.4717406630516052,0.5120577812194824,-18.62028694152832,48.23151397705078,-18.123355865478516
1.739,-1.4799607992172241,-9.299705505371094,-1.683350682258606,0.12522737681865692,0.7864890098571777,0.5635231733322144,-18.824905395507812,47.79304122924805,-18.09412384033203
1.742,-0.9846464395523071,-9.10110092163086,-1.4428720474243164,0.12140946835279465,0.849255383014679,0.5786421298980713,-18.298744201660156,47.95381546020508,-17.72873306274414
1.749,-0.7824530005455017,-8.9850492477417,-1.4943177700042725,0.11545352637767792,0.9294314384460449,0.5984951853752136,-19.044137954711914,48.31920623779297,-17.494884490966797
1.759,-0.623330295085907,-8.769694328308105,-1.6271193027496338,0.11056660860776901,1.0076221227645874,0.6198754906654358,-19.219526290893555,47.9391975402832,-18.09412384033203
1.769,-0.46779680252075195,-8.629714965820312,-1.7228323221206665,0.11392636597156525,1.0502300262451172,0.6377432942390442,-19.380298614501953,48.1584358215332,-17.085647583007812
1.779,-0.3517449200153351,-8.523233413696289,-1.8281164169311523,0.12461650371551514,1.0589349269866943,0.6580545902252197,-18.927213668823242,48.14381790161133,-17.26103401184082
1.799,-0.24047866463661194,-8.429913520812988,-1.88075852394104,0.1748601794242859,0.9960157871246338,0.7247915863990784,-19.234142303466797,48.14381790161133,-18.079509735107422
1.803,-0.234496608376503,-8.422735214233398,-1.813759446144104,0.18906280398368835,0.9663887619972229,0.7438811659812927,-19.044137954711914,48.041507720947266,-17.684886932373047
1.809,-0.28953152894973755,-8.571090698242188,-1.7264214754104614,0.20341812074184418,0.9224064946174622,0.7747297883033752,-18.854137420654297,48.1584358215332,-18.035661697387695
1.819,-0.363709032535553,-8.776873588562012,-1.6115659475326538,0.2171625941991806,0.869719386100769,0.8104654550552368,-19.05875587463379,48.494590759277344,-17.97719955444336
1.829,-0.556331217288971,-8.951549530029297,-1.5194423198699951,0.2180788815021515,0.8237517476081848,0.8350527882575989,-19.014907836914062,48.17304992675781,-16.924875259399414
1.839,-0.9176474213600159,-9.132206916809082,-1.506281852722168,0.19807305932044983,0.7816020846366882,0.8303185701370239,-19.014907836914062,47.80765914916992,-17.933351516723633
1.858,-1.7862420082092285,-9.304490089416504,-1.6342978477478027,0.20662516355514526,0.7845036387443542,0.7710646390914917,-19.26337242126465,47.69073486328125,-17.97719955444336
1.862,-1.9094724655151367,-9.33440113067627,-1.6378871202468872,0.21838431060314178,0.8127562403678894,0.754571259021759,-18.89798355102539,48.23151397705078,-18.824905395507812
1.869,-2.132004976272583,-9.388238906860352,-1.6079767942428589,0.24862214922904968,0.8817839622497559,0.7386887669563293,-18.664133071899414,48.20227813720703,-18.3718204498291
1.879,-2.203789472579956,-9.527023315429688,-1.5517455339431763,0.29535335302352905,1.004873275756836,0.720820963382721,-19.234142303466797,48.216896057128906,-18.474130630493164
1.889,-2.187039852142334,-9.67657470703125,-1.5098711252212524,0.34162637591362,1.1473575830459595,0.7133378982543945,-19.05875587463379,48.17304992675781,-18.839519500732422
1.899,-1.9836498498916626,-9.80100154876709,-1.4787644147872925,0.3813326060771942,1.3141237497329712,0.6979135274887085,-19.117216110229492,48.056121826171875,-18.868751525878906
1.918,-1.4715858697891235,-9.768697738647461,-1.6354942321777344,0.39675697684288025,1.5015066862106323,0.6844744682312012,-19.26337242126465,48.2607421875,-18.941829681396484
1.922,-1.3710873126983643,-9.745965957641602,-1.7012969255447388,0.3952298164367676,1.516014814376831,0.6846271753311157,-18.824905395507812,48.17304992675781,-19.117216110229492
1.929,-1.1353943347930908,-9.649056434631348,-1.7838492393493652,0.3891211450099945,1.5525139570236206,0.6884450912475586,-18.956445693969727,48.494590759277344,-18.81028938293457
1.939,-0.8195416927337646,-9.473184585571289,-1.856830358505249,0.37888914346694946,1.5771013498306274,0.7000515460968018,-19.891843795776367,48.1584358215332,-18.751827239990234
1.949,-0.605384111404419,-9.330811500549316,-1.867598056793213,0.36331209540367126,1.5699236392974854,0.725249707698822,-19.54106903076172,48.50920867919922,-19.964923858642578
1.959,-0.18305093050003052,-9.184849739074707,-1.7599210739135742,0.34636056423187256,1.5331189632415771,0.7519750595092773,-19.55568504333496,48.30459213256836,-19.62876319885254
1.979,0.23688943684101105,-8.83669376373291,-1.5720844268798828,0.29168814420700073,1.4121676683425903,0.818559467792511,-20.154926300048828,48.713829040527344,-19.877227783203125
1.982,0.3206382095813751,-8.788837432861328,-1.561316728591919,0.2848159074783325,1.3687962293624878,0.8350527882575989,-20.330312728881836,48.669979095458984,-20.08184814453125
1.989,0.3888336718082428,-8.62492847442627,-1.56969153881073,0.2681698203086853,1.3208433389663696,0.8518515229225159,-20.315698623657227,49.19614028930664,-20.067232131958008
1.999,0.3158525824546814,-8.437091827392578,-1.5517455339431763,0.25931230187416077,1.228297233581543,0.8996517658233643,-20.388774871826172,48.8599853515625,-19.789535522460938
2.009,0.11605189740657806,-8.319844245910645,-1.5134602785110474,0.2588541507720947,1.161712884902954,0.9326384663581848,-19.891843795776367,49.35691452026367,-19.83338165283203
2.019,-0.2021934986114502,-8.37129020690918,-1.5110673904418945,0.26221391558647156,1.1081095933914185,0.9561567902565002,-20.286466598510742,49.00613784790039,-19.891843795776367
2.038,-0.7369893193244934,-8.592625617980957,-1.4045867919921875,0.290313720703125,1.102917194366455,0.9555459022521973,-20.242618560791016,49.239986419677734,-19.99415397644043
2.041,-0.873380184173584,-8.706284523010254,-1.4045867919921875,0.2906191349029541,1.11085844039917,0.9506590366363525,-20.4326229095459,48.90382766723633,-20.213388442993164
2.049,-1.0325030088424683,-8.863015174865723,-1.3794622421264648,0.29886582493782043,1.1633929014205933,0.9214901924133301,-20.038002014160156,49.07921600341797,-20.1110782623291
2.059,-1.2550355195999146,-9.104689598083496,-1.452443242073059,0.30634891986846924,1.2441797256469727,0.8761334419250488,-19.760305404663086,48.36305236816406,-20.315698623657227
2.069,-1.294516921043396,-9.245866775512695,-1.5421741008758545,0.3173445165157318,1.3442089557647705,0.826195240020752,-20.330312728881836,49.210758209228516,-19.979537963867188
2.079,-1.1880364418029785,-9.351150512695312,-1.6737794876098633,0.33246341347694397,1.4453071355819702,0.7780895829200745,-19.847997665405273,48.845367431640625,-20.8126277923584
2.099,-0.5204389095306396,-9.540183067321777,-1.836491346359253,0.3856086730957031,1.6198618412017822,0.7096726894378662,-20.476469039916992,48.976905822753906,-20.841859817504883
2.103,-0.3086740970611572,-9.58325481414795,-1.8376877307891846,0.39736783504486084,1.648572564125061,0.7037167549133301,-20.534931182861328,49.19614028930664,-20.198772430419922
2.109,0.061016976833343506,-9.635896682739258,-1.8113667964935303,0.413097620010376,1.670716404914856,0.7009678483009338,-20.608009338378906,49.6199951171875,-21.163402557373047
2.119,0.5527420043945312,-9.696913719177246,-1.8233308792114258,0.41951167583465576,1.6592626571655273,0.7043275833129883,-20.067232131958008,49.54691696166992,-21.8503360748291
2.129,0.9930213689804077,-9.69212818145752,-1.8951154947280884,0.417679101228714,1.6059646606445312,0.7160868048667908,-19.950305938720703,49.69307327270508,-20.871089935302734
2.139,1.4189437627792358,-9.608378410339355,-1.9704893827438354,0.41890081763267517,1.5154038667678833,0.7301366925239563,-20.8126277923584,49.38614273071289,-21.119556427001953
2.156,1.5457634925842285,-9.516255378723145,-1.990828275680542,0.40775254368782043,1.2873984575271606,0.7612908482551575,-20.841859817504883,50.48231506347656,-21.10494041442871
2.16,1.4955140352249146,-9.538987159729004,-2.0159530639648438,0.39874228835105896,1.2206615209579468,0.7663304805755615,-20.71031951904297,49.7223014831543,-21.338788986206055
2.169,1.3351950645446777,-9.625128746032715,-2.100898265838623,0.3738495111465454,1.0965031385421753,0.7761042714118958,-20.46185302734375,50.10231018066406,-21.83572006225586
2.179,1.4368900060653687,-9.616753578186035,-2.1882362365722656,0.3523165285587311,0.9928087592124939,0.7887797355651855,-19.71645736694336,50.043846130371094,-21.908798217773438
2.189,1.3076776266098022,-9.546165466308594,-2.3473589420318604,0.34574970602989197,0.8900306224822998,0.8035932183265686,-20.695703506469727,50.0584602355957,-20.958784103393555
2.209,1.2801601886749268,-9.6526460647583,-2.3712871074676514,0.3579670190811157,0.7533495426177979,0.8034404516220093,-20.71031951904297,50.160770416259766,-21.441099166870117
2.212,1.093519926071167,-9.828518867492676,-2.287538528442383,0.36743542551994324,0.6139195561408997,0.780380368232727,-20.242618560791016,50.584625244140625,-21.54340934753418
2.219,1.039681315422058,-9.949356079101562,-2.190629005432129,0.36361753940582275,0.5366451144218445,0.7582364678382874,-20.067232131958008,50.49692916870117,-21.981876373291016
2.229,0.9559326767921448,-10.131211280822754,-2.14516544342041,0.3455969989299774,0.45921796560287476,0.7203628420829773,-19.760305404663086,50.20461654663086,-22.011106491088867
2.239,0.8937192559242249,-10.331010818481445,-2.097308874130249,0.3283400535583496,0.403781920671463,0.6762278079986572,-19.599531173706055,50.570011138916016,-21.83572006225586
2.249,0.8195416927337646,-10.503293991088867,-2.11405873298645,0.31551188230514526,0.35445454716682434,0.6293439269065857,-20.1110782623291,50.336158752441406,-22.054954528808594
2.259,0.9822536706924438,-10.572686195373535,-2.032702684402466,0.29168814420700073,0.3003929853439331,0.6017022132873535,-19.687227249145508,50.789241790771484,-22.1718807220459
2.275,1.1389836072921753,-10.631311416625977,-2.2444677352905273,0.2767219543457031,0.19425514340400696,0.560468852519989,-19.52645492553711,50.73078155517578,-22.069570541381836
2.279,1.2897313833236694,-10.66122055053711,-2.2025930881500244,0.2831360399723053,0.15454889833927155,0.5453499555587769,-19.36568260192871,50.51154327392578,-22.785736083984375
2.289,1.4344971179962158,-10.695917129516602,-2.1822540760040283,0.29397889971733093,0.032681290060281754,0.4999931752681732,-19.102602005004883,50.3800048828125,-22.288803100585938
2.299,1.3196415901184082,-10.717452049255371,-2.224128484725952,0.2967277765274048,-0.09392052888870239,0.44944408535957336,-19.24875831604004,50.233848571777344,-22.93189239501953
2.309,1.275374412536621,-10.671988487243652,-2.20737886428833,0.3032945990562439,-0.23258693516254425,0.4011857509613037,-19.00029182434082,51.0815544128418,-22.537269592285156
2.329,1.219143033027649,-10.4219388961792,-2.121237277984619,0.2984076738357544,-0.35094207525253296,0.361174076795578,-18.34259033203125,51.09617233276367,-23.531131744384766
2.332,1.0360921621322632,-10.138389587402344,-2.0673987865448,0.27580565214157104,-0.4674646258354187,0.31383201479911804,-18.137971878051758,50.73078155517578,-23.531131744384766
2.339,0.8279166221618652,-9.987641334533691,-2.0721843242645264,0.25564709305763245,-0.5244278311729431,0.2828305959701538,-17.845659255981445,50.71616744995117,-23.69190216064453
2.349,0.3684946596622467,-9.899106979370117,-2.060220241546631,0.22892174124717712,-0.5390886068344116,0.24892757833003998,-17.757965087890625,51.169246673583984,-23.808828353881836
2.359,0.46779680252075195,-9.90030288696289,-1.8460626602172852,0.16569718718528748,-0.5612324476242065,0.1941024363040924,-17.3341121673584,50.526161193847656,-23.165740966796875
2.369,0.4654039740562439,-9.9469633102417,-1.6677974462509155,0.11133018881082535,-0.616362988948822,0.14966197311878204,-17.056415557861328,51.00847625732422,-23.28266716003418
2.388,0.6017948985099792,-10.461421012878418,-1.2335000038146973,0.09117163717746735,-0.7041748762130737,0.11423180252313614,-17.42180633544922,51.03771209716797,-24.174217224121094
2.392,0.05144568905234337,-11.079965591430664,-0.558724045753479,0.07177666574716568,-0.811076283454895,0.0656680166721344,-16.924875259399414,51.03771209716797,-23.9695987701416
2.399,0.25004997849464417,-11.272586822509766,-0.1375872939825058,0.03375030308961868,-0.8949176073074341,0.005803219974040985,-16.720256805419922,50.350772857666016,-23.881906509399414
2.409,0.10049854964017868,-11.124231338500977,-0.32901307940483093,-0.06887505203485489,-1.1313223838806152,-0.14049901068210602,-17.071033477783203,51.169246673583984,-23.85267448425293
2.419,-0.4342972934246063,-10.808380126953125,-0.9056833982467651,-0.09056076407432556,-1.279762625694275,-0.242513507604599,-16.60333251953125,50.86231994628906,-24.247295379638672
2.429,-0.9559326767921448,-10.807183265686035,-1.1306086778640747,-0.07437284290790558,-1.3854422569274902,-0.3217732608318329,-16.296403884887695,51.05232620239258,-24.013446807861328
2.449,-1.470389485359192,-11.011770248413086,-0.9822536706924438,-0.04138611629605293,-1.4657710790634155,-0.3903428912162781,-16.457176208496094,50.81847381591797,-23.823442459106445
2.452,-1.9070795774459839,-11.252248764038086,-0.4821537435054779,-0.01542434748262167,-1.533729910850525,-0.49235737323760986,-16.384098052978516,50.979244232177734,-23.5895938873291
2.459,-2.1032910346984863,-11.33121109008789,-0.19501502811908722,-0.02076941914856434,-1.5476270914077759,-0.5473352670669556,-16.267173767089844,50.93539810180664,-23.10727882385254
2.469,-2.234896183013916,-11.45444107055664,0.19142581522464752,-0.052839841693639755,-1.571603536605835,-0.6298020482063293,-16.004093170166016,51.403099060058594,-23.472667694091797
2.479,-2.293520450592041,-11.525030136108398,0.38285163044929504,-0.10674870014190674,-1.587027907371521,-0.7162394523620605,-16.06255531311035,51.02309036254883,-22.961122512817383
2.489,-2.1894326210021973,-11.490333557128906,0.556331217288971,-0.18157969415187836,-1.5919147729873657,-0.8011497855186462,-16.311019897460938,51.25694274902344,-23.28266716003418
2.509,-1.8783657550811768,-11.268998146057129,0.6041877269744873,-0.2587014436721802,-1.6073391437530518,-0.8596401214599609,-16.004093170166016,50.68693161010742,-23.136510848999023
2.513,-1.4751750230789185,-10.935198783874512,0.5946164131164551,-0.34804046154022217,-1.6618587970733643,-0.8868235945701599,-15.872551918029785,51.0815544128418,-22.785736083984375
2.519,-1.3471590280532837,-10.833503723144531,0.6329016089439392,-0.37629297375679016,-1.7011069059371948,-0.8775079250335693,-15.916398048400879,50.86231994628906,-23.39959144592285
2.529,-1.0911270380020142,-10.64447021484375,0.7884350419044495,-0.40912699699401855,-1.7783814668655396,-0.8578075170516968,-15.916398048400879,50.40924072265625,-22.961122512817383
2.539,-1.026520848274231,-10.437492370605469,0.995414137840271,-0.4437935948371887,-1.8631389141082764,-0.8394815921783447,-15.492546081542969,50.86231994628906,-23.165740966796875
2.549,-1.0516455173492432,-10.246066093444824,1.2203395366668701,-0.4946480989456177,-1.952478051185608,-0.8365799188613892,-15.594855308532715,50.64308547973633,-22.902660369873047
2.569,-1.1186444759368896,-10.089336395263672,1.4428720474243164,-0.5549710988998413,-2.043038845062256,-0.8578075170516968,-15.52177619934082,50.89155578613281,-26.074249267578125
2.573,-1.3148560523986816,-10.031908988952637,1.7862420082092285,-0.6484334468841553,-2.1589505672454834,-0.9108000993728638,-15.375621795654297,50.19000244140625,-22.873428344726562
2.579,-1.4428720474243164,-10.084550857543945,1.9549360275268555,-0.6922630071640015,-2.208430528640747,-0.9419541954994202,-15.302543640136719,50.42385482788086,-22.683425903320312
2.589,-1.6115659475326538,-10.214959144592285,2.1260228157043457,-0.7525859475135803,-2.253023624420166,-0.9830348491668701,-14.367143630981445,50.49692916870117,-22.47880744934082
2.599,-1.9537396430969238,-10.378867149353027,2.2325034141540527,-0.8133670687675476,-2.2646303176879883,-1.0227410793304443,-14.790996551513672,50.3800048828125,-22.420345306396484
2.609,-2.317448616027832,-10.490134239196777,2.2265214920043945,-0.8788823485374451,-2.2259929180145264,-1.069166898727417,-14.264835357666016,49.6199951171875,-21.864952087402344
2.629,-2.667997121810913,-10.52243709564209,2.094916343688965,-0.9556986689567566,-2.121535062789917,-1.1388055086135864,-14.893306732177734,49.56153106689453,-20.98801612854004
2.632,-3.1142585277557373,-10.344171524047852,1.6845470666885376,-1.0100656747817993,-1.9520198106765747,-1.2278391122817993,-14.644840240478516,49.34230041503906,-21.119556427001953
2.639,-3.311666488647461,-10.199406623840332,1.4500504732131958,-1.0317513942718506,-1.822974681854248,-1.2811371088027954,-14.761765480041504,49.42999267578125,-20.330312728881836
2.649,-3.376272678375244,-9.942177772521973,1.1162517070770264,-1.0415252447128296,-1.6245959997177124,-1.3539828062057495,-14.820228576660156,49.32768249511719,-20.73954963684082
2.659,-3.304487705230713,-9.717252731323242,0.8350950479507446,-1.0352638959884644,-1.42499577999115,-1.416596531867981,-15.594855308532715,48.8599853515625,-20.505699157714844
2.669,-3.1764719486236572,-9.548558235168457,0.6041877269744873,-1.0140362977981567,-1.1717921495437622,-1.4752395153045654,-15.244080543518066,49.07921600341797,-20.067232131958008
2.689,-2.908475875854492,-9.506684303283691,0.4163511395454407,-0.9947940707206726,-0.9749408960342407,-1.5094480514526367,-15.404851913452148,48.12919998168945,-20.154926300048828
2.693,-2.4023938179016113,-9.413363456726074,0.3349951505661011,-0.9743300676345825,-0.7463245987892151,-1.5329662561416626,-15.960245132446289,48.34843444824219,-19.044137954711914
2.699,-2.084148406982422,-9.316454887390137,0.29431718587875366,-0.9624181985855103,-0.6249151229858398,-1.539685845375061,-15.945630073547363,47.89535140991211,-18.956445693969727
2.709,-1.6821541786193848,-9.142974853515625,0.13878370821475983,-0.9425650835037231,-0.49556440114974976,-1.5416711568832397,-16.340251922607422,47.95381546020508,-18.56182289123535
2.719,-1.293320655822754,-8.992227554321289,0.07537391036748886,-0.9034696817398071,-0.38270705938339233,-1.538158655166626,-17.187957763671875,48.12919998168945,-18.327974319458008
2.729,-0.8051848411560059,-8.839086532592773,0.06939185410737991,-0.887739896774292,-0.32498031854629517,-1.5238033533096313,-17.684886932373047,47.661502838134766,-17.465654373168945
2.749,-0.47258248925209045,-8.560322761535645,-0.09571290761232376,-0.8617781400680542,-0.294437050819397,-1.5016595125198364,-18.3718204498291,47.77842712402344,-17.407190322875977
2.753,0.0729810893535614,-8.273183822631836,-0.20099709928035736,-0.7988590598106384,-0.27152958512306213,-1.4396566152572632,-18.298744201660156,47.529964447021484,-16.822566986083984
2.759,0.15912269055843353,-8.182256698608398,-0.2787638306617737,-0.783892810344696,-0.27091872692108154,-1.408044457435608,-18.868751525878906,47.237648010253906,-16.13563346862793
2.769,0.31106695532798767,-8.087740898132324,-0.44386857748031616,-0.7211264371871948,-0.2684752643108368,-1.321606993675232,-19.394912719726562,47.5591926574707,-16.76410484313965
2.779,0.32183465361595154,-8.084151268005371,-0.45583271980285645,-0.6702718734741211,-0.2565633952617645,-1.2450960874557495,-19.307220458984375,47.01841354370117,-16.004093170166016
2.789,0.41994035243988037,-8.130810737609863,-0.5383850932121277,-0.6336199641227722,-0.23136521875858307,-1.1661417484283447,-20.257234573364258,46.857643127441406,-15.273311614990234
2.809,0.4402793347835541,-8.184649467468262,-0.5647060871124268,-0.5873469114303589,-0.20066924393177032,-1.1113165616989136,-20.46185302734375,46.81379699707031,-15.127155303955078
2.812,0.5862414836883545,-8.204988479614258,-0.5407779216766357,-0.5438227653503418,-0.1898263692855835,-1.0554224252700806,-20.724933624267578,46.916107177734375,-15.448699951171875
2.82,0.7154539227485657,-8.201398849487305,-0.49531427025794983,-0.5338962078094482,-0.20097467303276062,-1.0406090021133423,-21.119556427001953,46.69687271118164,-14.030985832214355
2.829,0.7836494445800781,-7.983652591705322,-0.5144568085670471,-0.5293146967887878,-0.2073887437582016,-1.0169378519058228,-21.57263946533203,46.375328063964844,-14.030985832214355
2.839,0.8889335989952087,-7.777869701385498,-0.6412764191627502,-0.5145012736320496,-0.20082195103168488,-0.9816604256629944,-22.142648696899414,46.24378967285156,-14.878690719604492
2.849,0.906879723072052,-7.715656280517578,-0.4450649917125702,-0.49556440114974976,-0.21334467828273773,-0.9381362795829773,-21.908798217773438,46.126861572265625,-14.527915000915527
2.869,1.1856435537338257,-7.7383880615234375,-0.3397807776927948,-0.4993823170661926,-0.22892174124717712,-0.8804094791412354,-23.078046798706055,45.995323181152344,-14.235603332519531
2.873,1.0743772983551025,-7.801797866821289,-0.4570291042327881,-0.4767802953720093,-0.2431243658065796,-0.8045095205307007,-22.93189239501953,45.8199348449707,-14.86407470703125
2.879,1.1437692642211914,-7.877171516418457,-0.4163511395454407,-0.46929723024368286,-0.25213462114334106,-0.7857254147529602,-23.12189483642578,45.60070037841797,-14.542531967163086
2.889,0.8566304445266724,-7.795815944671631,-0.62931227684021,-0.46899178624153137,-0.2405281811952591,-0.7670939564704895,-22.975738525390625,45.57147216796875,-13.797135353088379
2.899,0.5862414836883545,-7.594818592071533,-0.9104689955711365,-0.45173484086990356,-0.21166479587554932,-0.7475463151931763,-23.136510848999023,44.85530471801758,-14.001753807067871
2.909,0.40677982568740845,-7.361518859863281,-1.3184452056884766,-0.4147774875164032,-0.15577064454555511,-0.7133378982543945,-23.764982223510742,45.176849365234375,-13.285589218139648
2.928,0.1782652735710144,-7.241877555847168,-1.6079767942428589,-0.3104722499847412,-0.02535090781748295,-0.6656904220581055,-23.31189727783203,44.94300079345703,-13.007892608642578
2.932,-0.02153540402650833,-7.257430553436279,-1.7611173391342163,-0.2889392673969269,0.01664607785642147,-0.6661485433578491,-23.180356979370117,44.72376251220703,-12.569424629211426
2.939,0.06939185410737991,-7.355536937713623,-1.5948163270950317,-0.26771169900894165,0.0910189226269722,-0.6653849482536316,-23.545745849609375,44.6799201965332,-12.803274154663086
2.949,0.34695929288864136,-7.507480621337891,-1.490728497505188,-0.260992169380188,0.18570303916931152,-0.6663012504577637,-24.101139068603516,44.66530227661133,-11.824028015136719
2.959,0.9296115636825562,-7.70967435836792,-1.4967105388641357,-0.26053401827812195,0.2623666226863861,-0.6612616181373596,-24.49576187133789,44.59222412109375,-12.817889213562012
2.969,1.2897313833236694,-7.959724426269531,-1.7240287065505981,-0.251218318939209,0.3384193181991577,-0.6424775123596191,-24.788074493408203,44.53376388549805,-11.663256645202637
2.989,1.7682960033416748,-8.210970878601074,-1.7706886529922485,-0.247094988822937,0.3891211450099945,-0.6123924255371094,-25.591930389404297,44.76761245727539,-11.9847993850708
2.993,2.5567307472229004,-8.23011302947998,-2.11405873298645,-0.2370157092809677,0.403323769569397,-0.5592471361160278,-25.635778427124023,44.59222412109375,-11.692487716674805
2.999,2.906083106994629,-8.048258781433105,-2.352144718170166,-0.21868975460529327,0.3982841372489929,-0.5180137157440186,-25.78193473815918,45.162235260009766,-12.277112007141113
3.009,3.2279176712036133,-7.746763229370117,-2.620140552520752,-0.17638733983039856,0.35842517018318176,-0.4544837474822998,-25.635778427124023,44.89915466308594,-11.487869262695312
3.019,3.159722089767456,-7.389035701751709,-2.7828526496887207,-0.12202033400535583,0.31810805201530457,-0.38377609848976135,-26.220401763916016,44.6799201965332,-11.444022178649902
3.03,2.967099905014038,-7.134200572967529,-2.6488544940948486,-0.07895433157682419,0.27122417092323303,-0.3068070709705353,-26.103479385375977,44.53376388549805,-12.116340637207031
3.049,2.8139593601226807,-7.071987152099609,-2.368894338607788,-0.08414668589830399,0.260992169380188,-0.22708913683891296,-26.468870162963867,44.29991149902344,-10.903244018554688
3.053,2.8390841484069824,-7.373482704162598,-2.079362630844116,-0.09666942805051804,0.26801711320877075,-0.2119702398777008,-26.68810272216797,44.256065368652344,-11.137094497680664
3.059,3.0305097103118896,-7.798208713531494,-1.9920247793197632,-0.12446378916501999,0.2898555397987366,-0.1976149082183838,-27.228879928588867,44.89915466308594,-11.254019737243652
3.069,3.40378999710083,-8.297112464904785,-2.0231313705444336,-0.1722639948129654,0.3214678466320038,-0.17898350954055786,-26.834259033203125,44.6799201965332,-10.318620681762695
3.079,3.8081772327423096,-8.49332332611084,-2.1990039348602295,-0.22388210892677307,0.35873058438301086,-0.15256358683109283,-27.15580177307129,44.24144744873047,-11.166325569152832
3.089,4.179064750671387,-8.409575462341309,-2.499303102493286,-0.24785856902599335,0.3546072542667389,-0.1258382350206375,-27.06810760498047,43.78836441040039,-11.692487716674805
3.109,4.594219207763672,-7.9621171951293945,-2.77447772026062,-0.22449298202991486,0.28328877687454224,-0.04199698567390442,-27.360422134399414,44.12452697753906,-11.6047945022583
3.112,4.627718925476074,-7.81854772567749,-2.7840490341186523,-0.21594086289405823,0.26450464129447937,-0.0277943667024374,-27.535808563232422,44.24144744873047,-10.888628959655762
3.119,4.5367913246154785,-7.673781871795654,-2.678764820098877,-0.1950187236070633,0.19593501091003418,0.01191187184303999,-27.813507080078125,43.93452072143555,-10.669394493103027
3.129,4.316651821136475,-7.745566368103027,-2.4717857837677,-0.166460782289505,0.08185594528913498,0.06017022579908371,-27.50657844543457,44.22683334350586,-11.56094741821289
3.139,3.9601213932037354,-8.366503715515137,-2.1032910346984863,-0.1411098688840866,0.02275473065674305,0.07177666574716568,-27.345806121826172,43.61297607421875,-10.888628959655762
3.149,3.506681442260742,-9.633503913879395,-1.8460626602172852,-0.15790866315364838,0.020922133699059486,0.060475654900074005,-27.696578979492188,43.93452072143555,-9.368605613708496
3.169,3.3092734813690186,-10.352546691894531,-1.9621144533157349,-0.21166479587554932,0.23945917189121246,0.06734789162874222,-27.375036239624023,44.32914352416992,-10.289388656616211
3.172,3.2709884643554688,-10.559525489807129,-2.768495798110962,-0.18860463798046112,0.30970868468284607,0.08567384630441666,-27.755043029785156,44.182987213134766,-10.289388656616211
3.179,3.3954150676727295,-10.436296463012695,-3.383450984954834,-0.14278973639011383,0.38209620118141174,0.11331550031900406,-27.63811683654785,44.03683090209961,-9.807073593139648
3.189,3.8225340843200684,-10.381260871887207,-4.012763500213623,0.04886921867728233,0.5435173511505127,0.2448042333126068,-27.228879928588867,43.90529251098633,-10.143233299255371
3.199,4.287938117980957,-10.572686195373535,-4.548755645751953,0.23426681756973267,0.6000223755836487,0.37598752975463867,-27.71119499206543,44.32914352416992,-11.107863426208496
3.209,4.336990833282471,-10.743773460388184,-4.590630054473877,0.385303258895874,0.55069500207901,0.4833471179008484,-27.755043029785156,44.66530227661133,-10.274772644042969
3.229,3.981656551361084,-10.601400375366211,-4.182653903961182,0.5590943694114685,0.35934150218963623,0.6522513628005981,-27.681964874267578,45.4837760925293,-11.195556640625
3.233,3.841676712036133,-10.620543479919434,-3.9792640209198,0.5749768614768982,0.30833423137664795,0.7052439451217651,-28.16427993774414,45.132999420166016,-11.23940372467041
3.239,3.704089403152466,-10.676774024963379,-3.759124279022217,0.5810855627059937,0.23671028017997742,0.7841982841491699,-28.222742080688477,45.08915710449219,-11.151710510253906
3.25,2.9419755935668945,-10.88016414642334,-3.1585259437561035,0.5488623976707458,0.1385136991739273,0.864679753780365,-27.769657135009766,45.176849365234375,-12.277112007141113
3.259,2.038684844970703,-10.956734657287598,-2.9934210777282715,0.5112941861152649,0.07406741380691528,0.8994990587234497,-27.594270706176758,45.83454895019531,-12.408652305603027
3.269,1.0528419017791748,-11.008179664611816,-2.819941520690918,0.48838675022125244,0.09636398404836655,0.9152288436889648,-26.98041534423828,46.06840133666992,-11.590178489685059
3.289,0.11964112520217896,-11.021340370178223,-2.6871397495269775,0.43967023491859436,0.3663664162158966,0.9376780986785889,-26.33732795715332,46.097633361816406,-11.648640632629395
3.293,-0.6400800943374634,-11.206785202026367,-2.772084951400757,0.4363104999065399,0.47510045766830444,0.9529497623443604,-26.454252243041992,46.126861572265625,-12.087108612060547
3.299,-0.7345964908599854,-11.224730491638184,-2.7936203479766846,0.4444044530391693,0.6458372473716736,0.9841038584709167,-25.97193717956543,46.46302032470703,-11.268634796142578
3.309,-0.4905286133289337,-11.09192943572998,-2.779263496398926,0.45234569907188416,0.8683449029922485,1.0464122295379639,-26.30809783935547,46.53609848022461,-12.116340637207031
3.32,-0.08614161610603333,-10.88853931427002,-2.919243335723877,0.4674646258354187,1.0519099235534668,1.1233811378479004,-26.05963134765625,46.346099853515625,-12.204033851623535
3.329,0.3517449200153351,-10.9028959274292,-2.8965117931365967,0.513126790523529,1.1630873680114746,1.1940888166427612,-25.650394439697266,46.521484375,-13.183279037475586
3.349,1.1306086778640747,-11.589635848999023,-2.77447772026062,0.5952881574630737,1.3390165567398071,1.3591750860214233,-25.694242477416992,47.456886291503906,-12.525577545166016
3.353,1.270588755607605,-11.692527770996094,-2.8390841484069824,0.608421802520752,1.3519974946975708,1.3752102851867676,-25.957321166992188,46.872257232666016,-12.569424629211426
3.359,1.3663017749786377,-11.680563926696777,-2.8175485134124756,0.645073652267456,1.364978313446045,1.4034628868103027,-25.81116485595703,47.20841979980469,-13.154048919677734
3.369,1.3339985609054565,-11.510672569274902,-2.5914268493652344,0.660803496837616,1.3283264636993408,1.4063644409179688,-25.533470153808594,46.974571228027344,-13.592517852783203
3.379,1.3363914489746094,-11.26062297821045,-2.4251255989074707,0.6525567770004272,1.2855658531188965,1.4103351831436157,-25.25577163696289,47.924583435058594,-14.644840240478516
3.389,1.1676974296569824,-10.990234375,-2.2325034141540527,0.6438519358634949,1.2484557628631592,1.4382822513580322,-25.24115753173828,47.61765670776367,-14.674072265625
3.403,1.0671988725662231,-11.009376525878906,-1.6307085752487183,0.6012440919876099,1.2331842184066772,1.497536063194275,-24.802688598632812,48.684593200683594,-15.156386375427246
3.409,1.0695916414260864,-10.899307250976562,-1.470389485359192,0.5586362481117249,1.2417362928390503,1.5483906269073486,-24.656532287597656,44.89915466308594,-15.024847030639648
3.419,0.9750751852989197,-10.722237586975098,-1.5457634925842285,0.5088507533073425,1.241125464439392,1.5961909294128418,-24.46653175354004,49.093833923339844,-15.068693161010742
3.429,0.836291491985321,-10.61575698852539,-1.657029628753662,0.4807509481906891,1.2124147415161133,1.6190983057022095,-24.261911392211914,49.19614028930664,-15.28792667388916
3.439,0.5491527915000916,-10.502098083496094,-1.8771692514419556,0.46364670991897583,1.1484266519546509,1.607797384262085,-24.013446807861328,49.69307327270508,-15.960245132446289
3.45,0.3026920557022095,-10.314261436462402,-2.132004976272583,0.47311511635780334,1.1120800971984863,1.5888605117797852,-23.268049240112305,49.50307083129883,-16.837182998657227
3.468,0.07417750358581543,-9.91585636138916,-2.1750757694244385,0.5166392922401428,1.091310739517212,1.5598443746566772,-23.472667694091797,48.99152374267578,-17.59719467163086
3.472,0.08015955239534378,-9.77707290649414,-2.132004976272583,0.5207626223564148,1.0939068794250488,1.5606080293655396,-23.443437576293945,49.63460922241211,-16.559486389160156
3.479,-0.05144568905234337,-9.549755096435547,-2.0374884605407715,0.5313000082969666,1.1145235300064087,1.571908950805664,-22.537269592285156,49.45922088623047,-16.486408233642578
3.489,0.02751745842397213,-9.144170761108398,-1.9680966138839722,0.5435173511505127,1.143234372138977,1.6003142595291138,-22.274188995361328,50.11692810058594,-17.012569427490234
3.499,-0.004785645287483931,-8.70508861541748,-1.8508483171463013,0.5439754724502563,1.1882855892181396,1.6522377729415894,-22.069570541381836,50.07307434082031,-16.807950973510742
3.518,0.10767702013254166,-8.285148620605469,-1.7419748306274414,0.5256495475769043,1.204931616783142,1.715462327003479,-21.601871490478516,50.11692810058594,-17.26103401184082
3.522,0.6711867451667786,-7.806583404541016,-1.5960125923156738,0.48548513650894165,1.1988229751586914,1.794722080230713,-21.57263946533203,49.780765533447266,-17.641040802001953
3.529,0.6580261588096619,-7.502695083618164,-1.6151552200317383,0.451123982667923,1.1748465299606323,1.8374825716018677,-20.476469039916992,49.95615005493164,-17.918737411499023
3.539,1.0480562448501587,-7.294519424438477,-1.4644074440002441,0.40485095977783203,1.1004737615585327,1.8883371353149414,-20.754165649414062,50.45308303833008,-18.664133071899414
3.549,1.0959126949310303,-7.28255558013916,-1.2299107313156128,0.3127630054950714,0.9703594446182251,1.9222402572631836,-20.198772430419922,50.10231018066406,-18.576440811157227
3.559,1.1413763761520386,-7.441678524017334,-1.0516455173492432,0.2102903574705124,0.8465065360069275,1.9378172159194946,-19.950305938720703,50.42385482788086,-18.576440811157227
3.569,1.109073281288147,-7.440481662750244,-0.8877371549606323,0.09224064648151398,0.6950119137763977,1.9361374378204346,-19.62876319885254,50.336158752441406,-18.474130630493164
3.588,0.29790639877319336,-7.002594947814941,-1.5086746215820312,-0.04795292019844055,0.3975205719470978,1.8564194440841675,-17.757965087890625,49.73691940307617,-18.079509735107422
3.591,0.0011964113218709826,-6.926024913787842,-1.5972089767456055,-0.04932736977934837,0.3689625859260559,1.8388570547103882,-17.62642478942871,49.795379638671875,-18.25489616394043
3.599,-0.30508488416671753,-6.8518476486206055,-1.6857434511184692,-0.05406157299876213,0.28130343556404114,1.7803666591644287,-17.100261688232422,50.043846130371094,-18.50336265563965
3.609,-1.109073281288147,-6.783651828765869,-1.8903299570083618,-0.039706241339445114,0.27382034063339233,1.7302757501602173,-16.457176208496094,50.0,-17.845659255981445
3.619,-1.345962643623352,-6.818347930908203,-2.0410776138305664,-0.00809396430850029,0.3367394804954529,1.6655240058898926,-15.580240249633789,50.11692810058594,-18.44489860534668
3.629,-1.0229315757751465,-6.848258018493652,-1.903490424156189,0.018478674814105034,0.39248090982437134,1.6157385110855103,-14.498684883117676,49.50307083129883,-18.00642967224121
3.642,-0.7369893193244934,-6.882954120635986,-1.7730815410614014,0.04337143152952194,0.4521929919719696,1.5778648853302002,-14.104063987731934,49.00613784790039,-18.576440811157227
3.649,-0.8602197170257568,-6.946363925933838,-1.7036895751953125,0.049785517156124115,0.5207626223564148,1.556179165840149,-13.884828567504883,49.06460189819336,-17.43642234802246
3.659,-0.4139583110809326,-6.7896342277526855,-1.5589239597320557,0.03420845419168472,0.5473352670669556,1.5166256427764893,-12.978660583496094,48.976905822753906,-18.43028450012207
3.669,-0.1627119481563568,-6.585048198699951,-1.6558332443237305,-0.005192354787141085,0.5442808866500854,1.4460707902908325,-12.934814453125,48.684593200683594,-17.97719955444336
3.679,0.05982056260108948,-6.6077799797058105,-1.5337992906570435,-0.03894266113638878,0.5079344511032104,1.3723087310791016,-12.759428024291992,48.655364990234375,-16.559486389160156
3.689,0.5264209508895874,-6.56710147857666,-1.2681959867477417,-0.0861319974064827,0.40286561846733093,1.2916744947433472,-12.262495994567871,48.713829040527344,-17.494884490966797
3.799,-4.322634220123291,-11.155338287353516,-0.7250252366065979,-0.07696902006864548,-0.7354817390441895,-0.20143280923366547,-7.17626428604126,47.281497955322266,-18.269512176513672
3.819,-4.825126647949219,-11.357532501220703,-1.4009976387023926,0.0029016099870204926,-0.817948579788208,-0.4859433174133301,-7.17626428604126,47.33995819091797,-18.211048126220703
3.822,-4.989035129547119,-12.059825897216797,-1.5134602785110474,0.1111774668097496,-0.8659014701843262,-0.7809911966323853,-6.810873985290527,47.71996307373047,-18.108739852905273
3.829,-4.8358941078186035,-12.312268257141113,-1.432104229927063,0.1586722582578659,-0.8455901741981506,-0.9074403047561646,-7.17626428604126,47.866119384765625,-18.327974319458008
3.839,-4.386044025421143,-12.52881908416748,-1.3411771059036255,0.18035796284675598,-0.7906123399734497,-0.9984592199325562,-7.380882740020752,48.20227813720703,-18.649517059326172
3.849,-3.829712390899658,-12.509675979614258,-1.435693621635437,0.1638645976781845,-0.7602217793464661,-1.0193814039230347,-7.45396089553833,48.18766403198242,-19.08798599243164
3.859,-3.1716861724853516,-12.242877006530762,-1.534995675086975,0.13637566566467285,-0.8019133806228638,-0.9636399149894714,-7.439345359802246,48.37766647338867,-18.079509735107422
3.878,-2.47896409034729,-12.007183074951172,-1.3591231107711792,0.1270599663257599,-0.9283624291419983,-0.9078984260559082,-7.7901201248168945,48.39228439331055,-18.576440811157227
3.882,-2.221735715866089,-12.20100212097168,-0.7764708995819092,0.10644327104091644,-1.1769845485687256,-0.8953757286071777,-7.263957500457764,48.8599853515625,-18.956445693969727
3.889,-2.262413740158081,-12.524033546447754,-0.27756741642951965,0.07681629806756973,-1.3544409275054932,-0.9275988340377808,-7.410114288330078,49.00613784790039,-19.891843795776367
3.899,-2.3772692680358887,-13.373485565185547,0.6257230639457703,-0.006108652334660292,-1.5783231258392334,-0.9941831827163696,-7.483191967010498,49.166908264160156,-19.584917068481445
3.909,-3.0077779293060303,-14.146368026733398,1.3639088869094849,-0.20647244155406952,-1.7498234510421753,-1.0583239793777466,-7.439345359802246,49.035369873046875,-19.00029182434082
3.919,-4.206582069396973,-14.640485763549805,1.2227323055267334,-0.3761402666568756,-1.7683022022247314,-1.1418598890304565,-7.877813339233398,49.38614273071289,-19.90645980834961
3.939,-5.0596232414245605,-14.541182518005371,0.4331009089946747,-0.4752531349658966,-1.7163785696029663,-1.2518155574798584,-7.7901201248168945,49.25460433959961,-19.687227249145508
3.943,-5.736792087554932,-14.188241004943848,-0.4019941985607147,-0.47479501366615295,-1.5641204118728638,-1.4530956745147705,-7.541654109954834,49.649227142333984,-20.447237014770508
3.949,-5.8337016105651855,-14.017154693603516,-0.5682953596115112,-0.4518875777721405,-1.5022703409194946,-1.5279265642166138,-7.7316575050354,49.26921844482422,-20.2718505859375
3.959,-5.639883041381836,-13.897513389587402,-0.5778666734695435,-0.3903428912162781,-1.3064879179000854,-1.7062993049621582,-8.31628131866455,49.18152618408203,-20.754165649414062
3.969,-4.9052863121032715,-13.948959350585938,-0.3613162338733673,-0.36850446462631226,-1.1105530261993408,-1.814880609512329,-8.447822570800781,49.4007568359375,-20.841859817504883
3.979,-4.214956760406494,-13.940585136413574,-0.1866401582956314,-0.3943135142326355,-0.9250026345252991,-1.8906278610229492,-9.22244930267334,49.91230773925781,-20.2718505859375
3.998,-3.3475589752197266,-13.463215827941895,-0.11246266216039658,-0.45952337980270386,-0.7834346890449524,-1.964084506034851,-9.339374542236328,49.70768737792969,-20.695703506469727
4.003,-2.2707886695861816,-12.45583724975586,-0.21296119689941406,-0.5571091175079346,-0.7089090943336487,-2.056936025619507,-10.727856636047363,49.63460922241211,-21.01724624633789
4.009,-1.9369899034500122,-12.167502403259277,-0.24406790733337402,-0.587652325630188,-0.7170030474662781,-2.0836613178253174,-10.815550804138184,49.839229583740234,-20.564163208007812
4.019,-1.3088740110397339,-11.583653450012207,-0.41874393820762634,-0.6059783101081848,-0.7350236177444458,-2.080301523208618,-12.759428024291992,50.01461410522461,-21.36802101135254
4.029,-0.7932206988334656,-11.227123260498047,-0.5647060871124268,-0.6009386777877808,-0.7579310536384583,-2.043802261352539,-12.525577545166016,50.146156311035156,-20.140310287475586
4.039,-0.48454657196998596,-10.945966720581055,-0.5862414836883545,-0.5775730609893799,-0.8042040467262268,-1.998598337173462,-13.256357192993164,50.49692916870117,-20.798011779785156
4.059,-0.18305093050003052,-10.645668029785156,-0.6185446381568909,-0.5636758804321289,-0.8290968537330627,-1.9427040815353394,-13.709442138671875,50.08769607543945,-20.228002548217773
4.063,-0.03110669180750847,-9.945767402648926,-0.7932206988334656,-0.5338962078094482,-0.8833111524581909,-1.891238808631897,-15.214850425720215,49.92692184448242,-20.038002014160156
4.069,-0.06580261886119843,-9.700502395629883,-0.7896314859390259,-0.516333818435669,-0.9048441052436829,-1.8852828741073608,-14.980999946594238,50.2776985168457,-19.43876075744629
4.079,0.11365906894207001,-9.436095237731934,-0.5168496966362,-0.5236642360687256,-0.9445503950119019,-1.8782578706741333,-15.594855308532715,50.526161193847656,-19.234142303466797
4.089,-0.11485548317432404,-9.103493690490723,-0.47138604521751404,-0.5635231733322144,-0.944244921207428,-1.848325490951538,-16.033323287963867,50.350772857666016,-19.234142303466797
4.099,-0.08614161610603333,-8.868996620178223,-0.44386857748031616,-0.5951354503631592,-0.8810203671455383,-1.7959438562393188,-17.392576217651367,50.526161193847656,-19.614147186279297
4.119,-0.28115665912628174,-8.72782039642334,-0.2787638306617737,-0.6424775123596191,-0.7890851497650146,-1.7256942987442017,-17.494884490966797,50.0584602355957,-17.641040802001953
4.122,-0.20099709928035736,-8.520841598510742,-0.12083754688501358,-0.7211264371871948,-0.5997169613838196,-1.6099352836608887,-17.34872817993164,49.54691696166992,-17.80181312561035
4.129,-0.08015955239534378,-8.528019905090332,-0.20338991284370422,-0.744186520576477,-0.4934263825416565,-1.564578652381897,-18.240280151367188,50.21923065185547,-18.137971878051758
4.139,0.08733802288770676,-8.553144454956055,-0.38763725757598877,-0.7513642311096191,-0.3617849349975586,-1.5173892974853516,-18.751827239990234,50.43846893310547,-17.97719955444336
4.149,0.34695929288864136,-8.528019905090332,-0.4893321990966797,-0.720820963382721,-0.2675589621067047,-1.495245337486267,-18.854137420654297,50.3800048828125,-17.494884490966797
4.159,0.5371886491775513,-8.483752250671387,-0.5862414836883545,-0.68325275182724,-0.1921171098947525,-1.5025757551193237,-20.052616119384766,50.71616744995117,-16.588716506958008
4.179,0.5790630578994751,-8.554340362548828,-0.38165518641471863,-0.6548475623130798,-0.18112152814865112,-1.5575536489486694,-20.695703506469727,49.94153594970703,-16.311019897460938
4.182,0.7190431356430054,-8.325825691223145,-0.05383851006627083,-0.7002043128013611,-0.19608773291110992,-1.6074918508529663,-21.528793334960938,49.97077178955078,-16.442562103271484
4.189,1.0372885465621948,-8.085347175598145,-0.1902294009923935,-0.7170030474662781,-0.18310685455799103,-1.6111570596694946,-22.1718807220459,49.44460678100586,-16.23794174194336
4.2,1.1306086778640747,-7.732406139373779,-0.4378865361213684,-0.7098253965377808,-0.1670716404914856,-1.6022995710372925,-22.698041915893555,49.37152862548828,-16.471790313720703
4.209,1.2167502641677856,-7.436892509460449,-0.6759723424911499,-0.6777549982070923,-0.13225232064723969,-1.5557210445404053,-22.975738525390625,49.283836364746094,-16.121017456054688
4.219,1.2885348796844482,-7.251449108123779,-0.9487541317939758,-0.5983425378799438,-0.0503963828086853,-1.4703526496887207,-23.414207458496094,49.13768005371094,-15.273311614990234
4.24,1.2921241521835327,-7.295715808868408,-0.9415756464004517,-0.5468770861625671,-0.027183502912521362,-1.4141530990600586,-24.612686157226562,48.9184455871582,-14.834843635559082
4.244,1.4560325145721436,-7.3806610107421875,-0.7070790529251099,-0.5174028873443604,-0.010231993161141872,-1.3454307317733765,-25.065771102905273,48.39228439331055,-14.747150421142578
4.249,1.466800332069397,-7.41416072845459,-0.5814558863639832,-0.5192354321479797,0.002138028386980295,-1.326341152191162,-25.065771102905273,48.611515045166016,-14.35252857208252
4.259,1.7611173391342163,-7.454838752746582,-0.5539384484291077,-0.5407684445381165,0.02275473065674305,-1.269988775253296,-25.738086700439453,48.93306350708008,-13.607131958007812
4.269,1.8819550275802612,-7.488338470458984,-0.6556333899497986,-0.5468770861625671,0.03145955875515938,-1.225701093673706,-26.132709503173828,48.596900939941406,-13.650979042053223
4.279,2.0817556381225586,-7.524230480194092,-0.6089733242988586,-0.559857964515686,0.027030786499381065,-1.1884382963180542,-26.658872604370117,48.31920623779297,-13.987138748168945
4.299,2.1678972244262695,-7.551748275756836,-0.7896314859390259,-0.5745187401771545,0.02672535367310047,-1.1409435272216797,-27.185035705566406,48.14381790161133,-13.767904281616211
4.303,2.1403796672821045,-7.593622207641602,-1.1330015659332275,-0.550084114074707,0.040164388716220856,-1.0734429359436035,-27.828121185302734,47.866119384765625,-12.861736297607422
4.309,2.2432711124420166,-7.520641326904297,-1.2083754539489746,-0.5407684445381165,0.051923543214797974,-1.0523680448532104,-27.871967315673828,47.544578552246094,-13.022507667541504
4.319,2.24566388130188,-7.290930271148682,-1.4799607992172241,-0.5149593949317932,0.10476338863372803,-0.9799805283546448,-28.63197898864746,47.39842224121094,-12.291727066040039
4.329,2.4813568592071533,-6.819544315338135,-1.8939191102981567,-0.4801400899887085,0.1592831164598465,-0.906676709651947,-28.99736976623535,47.06226348876953,-12.715579986572266
4.339,2.5782663822174072,-6.551548480987549,-2.1858434677124023,-0.4219551682472229,0.1941024363040924,-0.8445212244987488,-29.90353775024414,46.872257232666016,-12.993276596069336
4.359,2.63449764251709,-6.5072808265686035,-2.1439690589904785,-0.36804628372192383,0.21380282938480377,-0.792750358581543,-30.780473709106445,47.00379943847656,-12.554807662963867
4.363,3.0029923915863037,-6.81595516204834,-2.0673987865448,-0.3254384398460388,0.23411409556865692,-0.7057020664215088,-30.400466918945312,47.06226348876953,-12.788658142089844
4.369,3.229114055633545,-6.981059551239014,-2.0470597743988037,-0.3257438838481903,0.2347249537706375,-0.6572909951210022,-30.57585334777832,46.69687271118164,-12.277112007141113
4.379,3.638286828994751,-7.091129779815674,-2.087737560272217,-0.33826664090156555,0.2597704529762268,-0.5821545720100403,-31.525867462158203,46.46302032470703,-12.42326831817627
4.389,3.6777684688568115,-6.766901969909668,-2.3437697887420654,-0.3367394804954529,0.2509129047393799,-0.5050328373908997,-31.71587371826172,46.24378967285156,-12.23326587677002
4.399,3.806980848312378,-6.236892223358154,-2.441875457763672,-0.33292156457901,0.2102903574705124,-0.4271475076675415,-31.774335861206055,46.477638244628906,-12.218649864196777
4.418,3.8943188190460205,-5.728416919708252,-2.57228422164917,-0.2929098606109619,0.08552113175392151,-0.27550020813941956,-32.183570861816406,45.995323181152344,-12.014030456542969
4.422,3.6837503910064697,-5.528616905212402,-2.5698914527893066,-0.27870726585388184,0.057421330362558365,-0.24617868661880493,-32.34434509277344,45.98070526123047,-11.75094985961914
4.429,3.562912940979004,-5.7918267250061035,-2.5124638080596924,-0.2623666226863861,0.019089538604021072,-0.2148718386888504,-32.02280044555664,45.14761734008789,-12.014030456542969
4.439,3.3918259143829346,-6.772884368896484,-2.449054002761841,-0.24663683772087097,-0.0019853119738399982,-0.18738290667533875,-32.53434753417969,45.4837760925293,-11.838644027709961
4.449,3.322434186935425,-7.798208713531494,-2.26959228515625,-0.24007004499435425,0.015271631069481373,-0.17150041460990906,-32.34434509277344,45.206077575683594,-11.47325325012207
4.459,3.5018956661224365,-8.837889671325684,-2.1056838035583496,-0.24892757833003998,0.05360342189669609,-0.16294831037521362,-32.373573303222656,45.32300567626953,-11.736333847045898
4.479,3.7387852668762207,-9.719645500183105,-2.1511476039886475,-0.2765692174434662,0.11698068678379059,-0.14416420459747314,-32.78281021118164,45.176849365234375,-12.23326587677002
4.483,4.328616142272949,-10.169495582580566,-3.315255641937256,-0.25625795125961304,0.27611106634140015,-0.06261368840932846,-32.66588592529297,45.51300811767578,-11.546331405639648
4.489,4.7473602294921875,-9.937392234802246,-3.9529428482055664,-0.15485434234142303,0.3568980097770691,0.016493361443281174,-33.08974075317383,45.001461029052734,-11.356328010559082
4.5,5.264209270477295,-9.494720458984375,-4.456632137298584,0.022907447069883347,0.39736783504486084,0.16081027686595917,-33.2651252746582,45.04530715942383,-11.034785270690918
4.509,5.4951171875,-9.121438980102539,-4.5200419425964355,0.1866193264722824,0.30772337317466736,0.3061962127685547,-33.30897521972656,44.75299835205078,-11.151710510253906
4.519,4.965106964111328,-9.08674430847168,-4.217350006103516,0.3113885521888733,0.11194105446338654,0.41233402490615845,-32.91435241699219,44.95761489868164,-11.590178489685059
4.539,4.112065315246582,-9.787840843200684,-3.6323046684265137,0.4631885588169098,-0.10033462196588516,0.6447682976722717,-32.95820236206055,45.62993240356445,-12.028646469116211
4.542,3.7914273738861084,-11.036894798278809,-2.6799612045288086,0.4680754840373993,-0.09651671350002289,0.7212790846824646,-32.91435241699219,45.27915573120117,-12.320959091186523
4.549,3.6299118995666504,-11.919845581054688,-2.1607186794281006,0.44028112292289734,-0.06215553730726242,0.8242099285125732,-32.2274169921875,45.4399299621582,-11.838644027709961
4.559,3.297309398651123,-12.869795799255371,-1.875972867012024,0.37430769205093384,-0.006566801108419895,0.9074403047561646,-32.373573303222656,45.89301300048828,-12.130955696105957
4.569,2.74337100982666,-13.183256149291992,-2.128415822982788,0.3243694305419922,0.054367005825042725,0.9198102951049805,-31.18971061706543,45.46916198730469,-12.949429512023926
4.579,2.122433662414551,-13.064810752868652,-2.9515466690063477,0.36193764209747314,0.18829920887947083,0.9051495790481567,-31.408945083618164,45.52762222290039,-12.788658142089844
4.599,1.4201401472091675,-12.897314071655273,-3.669393539428711,0.4550946056842804,0.33567044138908386,0.9143125414848328,-31.511253356933594,46.170711517333984,-13.095585823059082
4.604,1.262213945388794,-12.268001556396484,-3.7112677097320557,0.57436603307724,0.5963572263717651,1.006095051765442,-31.145864486694336,46.097633361816406,-13.943290710449219
4.609,1.4691929817199707,-11.961719512939453,-3.641875982284546,0.5957463383674622,0.6789767146110535,1.059393048286438,-30.853551864624023,46.03916931152344,-13.504822731018066
4.619,1.9812570810317993,-11.5645112991333,-3.3343982696533203,0.6247624158859253,0.8135198354721069,1.1840095520019531,-31.175094604492188,46.88687515258789,-14.220989227294922
4.629,2.4179470539093018,-11.58006477355957,-2.906083106994629,0.6172793507575989,0.9318749308586121,1.3454307317733765,-30.502779006958008,47.2230339050293,-13.738672256469727
4.639,2.660818576812744,-12.002398490905762,-2.5974087715148926,0.5772676467895508,1.0256427526474,1.4550809860229492,-30.678165435791016,47.06226348876953,-13.914060592651367
4.659,2.7517459392547607,-12.07657527923584,-2.421536445617676,0.4740314185619354,1.1888965368270874,1.617876648902893,-30.181232452392578,48.36305236816406,-14.381760597229004
4.662,2.8630123138427734,-11.871988296508789,-2.39401912689209,0.46181410551071167,1.2014192342758179,1.6374242305755615,-29.991230010986328,47.9391975402832,-14.747150421142578
4.669,2.860619306564331,-11.529815673828125,-2.864208459854126,0.45173484086990356,1.226922869682312,1.6965254545211792,-29.275066375732422,47.924583435058594,-15.404851913452148
4.679,2.715853691101074,-11.081161499023438,-3.328416109085083,0.5623013973236084,1.1885910034179688,1.7841845750808716,-29.640457153320312,47.8807373046875,-15.317158699035645
4.689,2.104487419128418,-10.663613319396973,-3.476771354675293,0.708450973033905,1.0965031385421753,1.825570821762085,-29.216602325439453,48.406898498535156,-15.302543640136719
4.699,1.5553346872329712,-10.722237586975098,-2.599801778793335,0.7976372241973877,0.9761626720428467,1.8409950733184814,-28.70505714416504,48.83074951171875,-15.741011619567871
4.719,1.1222338676452637,-11.552547454833984,-1.537388563156128,0.7307475805282593,0.9611964225769043,1.9045250415802002,-28.032737731933594,49.34230041503906,-17.027183532714844
4.722,1.1222338676452637,-11.586047172546387,-1.5050853490829468,0.6966918110847473,0.9824240207672119,1.917811393737793,-27.813507080078125,49.07921600341797,-16.98333740234375
4.729,0.9690931439399719,-11.578868865966797,-1.4799607992172241,0.6603453159332275,1.013578176498413,1.9277379512786865,-27.345806121826172,49.15229415893555,-17.53873062133789
4.739,0.8303093910217285,-11.279766082763672,-1.659422516822815,0.5826126933097839,1.1073459386825562,1.9110918045043945,-26.848873138427734,49.82461166381836,-17.173341751098633
4.749,0.906879723072052,-10.789237022399902,-1.8951154947280884,0.5393940210342407,1.1669052839279175,1.8718438148498535,-26.191171646118164,49.82461166381836,-17.684886932373047
4.759,1.0719845294952393,-10.301101684570312,-2.179861307144165,0.5294674634933472,1.2110402584075928,1.8466455936431885,-25.986553192138672,50.01461410522461,-17.275650024414062
4.779,1.1318050622940063,-9.872785568237305,-2.306680917739868,0.5725334286689758,1.2675453424453735,1.8829920291900635,-25.036537170410156,50.24846649169922,-17.88950538635254
4.783,1.6582260131835938,-9.315258026123047,-2.2648065090179443,0.584139883518219,1.2556334733963013,1.90925931930542,-24.802688598632812,50.21923065185547,-17.87489128112793
4.789,1.7312071323394775,-9.104689598083496,-2.2408783435821533,0.6049093008041382,1.2446379661560059,1.9614882469177246,-24.349605560302734,50.61385726928711,-17.860275268554688
4.903,-0.07537391036748886,-6.2536420822143555,-1.4883357286453247,0.4112650156021118,-0.25641068816185,1.7928894758224487,-15.097925186157227,51.30078887939453,-21.64571762084961
4.909,-0.07417750358581543,-6.20937442779541,-1.3962119817733765,0.40683624148368835,-0.20525072515010834,1.7534886598587036,-14.337912559509277,51.3592529296875,-21.499561309814453
4.919,-0.09451649338006973,-6.178267955780029,-1.0755738019943237,0.3640756905078888,-0.12308934330940247,1.7113388776779175,-14.162525177001953,50.90616989135742,-21.733409881591797
4.929,0.10408778488636017,-6.124429225921631,-0.9367900490760803,0.28420504927635193,-0.04489859566092491,1.6835445165634155,-13.402514457702637,50.43846893310547,-22.712656021118164
4.939,0.0203389935195446,-5.958127975463867,-1.0456634759902954,0.19226983189582825,0.06200282275676727,1.672243595123291,-12.65711784362793,50.81847381591797,-22.639577865600586
4.958,0.4259223937988281,-5.722434997558594,-0.9786643981933594,0.11911872029304504,0.07971791177988052,1.662469744682312,-11.47325325012207,50.42385482788086,-21.967260360717773
4.962,0.4223332107067108,-5.62672233581543,-1.0289136171340942,0.12003502249717712,0.03878994286060333,1.6398676633834839,-10.91786003112793,50.24846649169922,-22.581117630004883
4.969,0.4283152222633362,-5.519045352935791,-0.9523433446884155,0.13225232064723969,-0.0529925599694252,1.5754214525222778,-10.304004669189453,49.89768981933594,-23.355743408203125
4.979,0.1818545162677765,-5.56331205368042,-0.9224331378936768,0.14049901068210602,-0.20555615425109863,1.4315626621246338,-10.201695442199707,49.69307327270508,-23.268049240112305
4.989,-0.09571290761232376,-5.9569315910339355,-0.8626124858856201,0.11102475225925446,-0.33368512988090515,1.2023354768753052,-9.134756088256836,49.56153106689453,-22.94650650024414
4.999,-0.30628129839897156,-6.686742782592773,-0.7022933959960938,0.04718933627009392,-0.3929390609264374,1.0306823253631592,-8.345513343811035,49.25460433959961,-23.180356979370117
5.012,-0.31106695532798767,-7.3914289474487305,-0.607776939868927,-0.08170322328805923,-0.3906483054161072,0.8807149529457092,-8.345513343811035,49.63460922241211,-23.9695987701416
5.019,-0.4378865361213684,-7.653443336486816,-0.6939185857772827,-0.13775010406970978,-0.3433062732219696,0.8254316449165344,-7.702425956726074,49.6199951171875,-23.516515731811523
5.029,-0.4941178560256958,-7.822136878967285,-0.778863787651062,-0.16829337179660797,-0.30741792917251587,0.7687739133834839,-7.395498275756836,48.75767135620117,-22.624963760375977
5.039,-0.9355936050415039,-7.952546119689941,-0.9188438653945923,-0.1498146951198578,-0.3396410644054413,0.6743952035903931,-7.658579349517822,48.75767135620117,-24.13037109375
5.049,-1.34476637840271,-8.255237579345703,-0.9236294627189636,-0.07498370856046677,-0.42042800784111023,0.5393940210342407,-7.205495357513428,48.465362548828125,-23.22420310974121
5.059,-1.6941183805465698,-9.104689598083496,-0.39840495586395264,-0.07147122919559479,-0.5564982295036316,0.3488040566444397,-7.073955059051514,48.5384407043457,-23.253435134887695
5.078,-2.8773691654205322,-10.63848876953125,0.2667997181415558,-0.16920965909957886,-0.8332201838493347,-0.04046982154250145,-6.284712314605713,48.12919998168945,-22.683425903320312
5.082,-3.016152858734131,-10.77129077911377,0.38644087314605713,-0.17577646672725677,-0.8613199591636658,-0.0809396430850029,-6.182402610778809,48.83074951171875,-22.581117630004883
5.089,-3.394218921661377,-11.185249328613281,0.6879364848136902,-0.19898934662342072,-0.9552405476570129,-0.19135352969169617,-6.182402610778809,48.289974212646484,-23.428821563720703
5.099,-4.232903003692627,-11.525030136108398,0.8087739944458008,-0.22708913683891296,-1.1004737615585327,-0.36132678389549255,-6.0947089195251465,48.34843444824219,-23.794212341308594
5.109,-4.925625324249268,-11.964112281799316,0.7369893193244934,-0.21731530129909515,-1.1525499820709229,-0.4943426847457886,-5.700087547302246,47.99766159057617,-22.75650405883789
5.128,-5.62672233581543,-12.31705379486084,0.778863787651062,-0.19165895879268646,-1.1575895547866821,-0.6081163287162781,-5.743934631347656,48.479976654052734,-23.531131744384766
5.132,-6.583851337432861,-12.196216583251953,0.8925228118896484,-0.17806722223758698,-1.0819951295852661,-0.7463245987892151,-6.927798748016357,47.866119384765625,-24.276527404785156
5.139,-7.0815582275390625,-11.961719512939453,0.8530412316322327,-0.20066924393177032,-0.983951210975647,-0.840397834777832,-5.87547492980957,48.596900939941406,-24.144987106323242
5.149,-7.4811601638793945,-11.606385231018066,0.7381857633590698,-0.27947086095809937,-0.7269296646118164,-1.0042624473571777,-6.650102138519287,48.494590759277344,-24.101139068603516
5.159,-7.245467185974121,-11.117053985595703,0.6424728631973267,-0.3530800938606262,-0.45524731278419495,-1.1134545803070068,-6.825489521026611,48.56766891479492,-24.144987106323242
5.169,-6.354140281677246,-10.795219421386719,0.7357929348945618,-0.407905250787735,-0.1693623811006546,-1.1719449758529663,-7.658579349517822,48.216896057128906,-24.32037353515625
5.179,-4.872982978820801,-10.66720199584961,0.8949156999588013,-0.43539419770240784,0.06108652427792549,-1.1902709007263184,-7.57088565826416,48.845367431640625,-24.086524963378906
5.196,-1.94297194480896,-10.953145980834961,0.7980062961578369,-0.4534147381782532,0.16172656416893005,-1.1833986043930054,-8.827827453613281,48.74305725097656,-23.238819122314453
5.2,-1.2646067142486572,-11.11466121673584,0.6771687865257263,-0.45585817098617554,0.11804971098899841,-1.1832458972930908,-9.03244686126709,48.34843444824219,-23.2095890045166
5.209,-0.1986042857170105,-11.686545372009277,0.4019941985607147,-0.4395175576210022,-0.06612616032361984,-1.2035571336746216,-9.617071151733398,48.56766891479492,-23.238819122314453
5.219,0.23330020904541016,-12.577872276306152,0.24047866463661194,-0.4060726761817932,-0.34666600823402405,-1.2753338813781738,-9.792458534240723,48.465362548828125,-22.74188804626465
5.229,0.2763710021972656,-13.670195579528809,0.27038896083831787,-0.37629297375679016,-0.6788239479064941,-1.4095715284347534,-10.114001274108887,48.81613540649414,-23.370359420776367
5.248,0.06819543987512589,-14.630913734436035,0.4378865361213684,-0.37369680404663086,-1.0216721296310425,-1.5745052099227905,-10.669394493103027,48.69921112060547,-23.048816680908203
5.252,-0.436690092086792,-15.226725578308105,0.7202395796775818,-0.4491386413574219,-1.4219416379928589,-1.7898352146148682,-11.268634796142578,49.049983978271484,-22.04033851623535
5.26,-1.0959126949310303,-15.272191047668457,0.5874379277229309,-0.5174028873443604,-1.517236590385437,-1.8632917404174805,-11.458637237548828,49.18152618408203,-22.332651138305664
5.269,-1.5672988891601562,-15.121441841125488,0.38644087314605713,-0.6310237646102905,-1.5575536489486694,-1.9199494123458862,-11.809412002563477,49.15229415893555,-22.917274475097656
5.279,-2.1607186794281006,-14.810375213623047,0.13519448041915894,-0.7354817390441895,-1.4923436641693115,-1.9199494123458862,-12.130955696105957,48.99152374267578,-21.981876373291016
5.289,-2.414357900619507,-14.000405311584473,-0.02273181453347206,-0.8083274364471436,-1.3608551025390625,-1.8755089044570923,-12.847121238708496,48.99152374267578,-22.39111328125
5.309,-2.6177480220794678,-13.550553321838379,-0.26919254660606384,-0.8226827383041382,-1.1568260192871094,-1.7942638397216797,-12.876352310180664,48.72844314575195,-21.441099166870117
5.313,-2.885744094848633,-13.142578125,-0.017946168780326843,-0.8614726662635803,-1.0144944190979004,-1.7907514572143555,-14.060215950012207,49.049983978271484,-21.236480712890625
5.319,-3.0137598514556885,-12.833903312683105,0.019142581149935722,-0.9057604670524597,-0.9196576476097107,-1.8309158086776733,-13.987138748168945,49.07921600341797,-20.885705947875977
5.329,-2.9970104694366455,-12.336196899414062,-0.008374879136681557,-0.9662361145019531,-0.778242290019989,-1.9075794219970703,-14.498684883117676,49.239986419677734,-20.944168090820312
5.339,-2.688336133956909,-11.771491050720215,-0.1495514065027237,-1.0231993198394775,-0.6013968586921692,-1.9792033433914185,-15.039462089538574,49.38614273071289,-21.514177322387695
5.349,-2.0554347038269043,-11.059626579284668,-0.41874393820762634,-1.0459539890289307,-0.3787364661693573,-2.023796558380127,-15.594855308532715,48.17304992675781,-21.00263023376465
5.368,-1.3052847385406494,-10.408778190612793,-0.4773681163787842,-1.017396092414856,-0.2515237629413605,-2.0079140663146973,-16.413330078125,48.50920867919922,-19.81876564025879
5.372,-0.20099709928035736,-9.409774780273438,-0.7477570176124573,-0.9465356469154358,-0.16172656416893005,-1.925905466079712,-17.59719467163086,48.37766647338867,-19.774919509887695
5.379,0.06340979784727097,-9.031708717346191,-0.7728817462921143,-0.8848382830619812,-0.1362229436635971,-1.8655824661254883,-17.88950538635254,48.55305480957031,-18.941829681396484
5.389,0.5802595019340515,-8.59501838684082,-0.7956134676933289,-0.8084800839424133,-0.13545936346054077,-1.7624988555908203,-18.62028694152832,48.34843444824219,-18.649517059326172
5.399,0.7932206988334656,-8.228917121887207,-0.7070790529251099,-0.734107255935669,-0.1725694239139557,-1.6397150754928589,-19.26337242126465,48.14381790161133,-18.751827239990234
5.409,0.8865407705307007,-7.933403015136719,-0.5431707501411438,-0.7011205554008484,-0.20387627184391022,-1.5566374063491821,-19.979537963867188,48.39228439331055,-18.751827239990234
5.429,0.7633103728294373,-7.578068733215332,-0.3278166949748993,-0.7032586336135864,-0.22143864631652832,-1.4885258674621582,-20.63724136352539,48.099971771240234,-18.5325927734375
5.433,0.6185446381568909,-7.103094100952148,-0.1627119481563568,-0.7461718320846558,-0.2350304126739502,-1.4278974533081055,-21.426483154296875,47.544578552246094,-17.59719467163086
5.439,0.4821537435054779,-6.796812534332275,-0.16869398951530457,-0.776715099811554,-0.23029619455337524,-1.4036155939102173,-21.514177322387695,47.500728607177734,-17.860275268554688
5.449,0.2955136001110077,-6.455835342407227,-0.19262221455574036,-0.803135097026825,-0.2145664095878601,-1.3831515312194824,-21.92341423034668,47.07687759399414,-16.223325729370117
5.459,0.008374879136681557,-6.239284515380859,-0.2141576111316681,-0.8046622276306152,-0.17776179313659668,-1.3894129991531372,-23.12189483642578,47.03303146362305,-16.486408233642578
5.469,-0.18544374406337738,-6.309872627258301,0.1866401582956314,-0.8141306638717651,-0.14614950120449066,-1.408197045326233,-23.10727882385254,46.7991828918457,-16.457176208496094
5.488,-0.23569302260875702,-6.367300987243652,0.40319061279296875,-0.84574294090271,-0.10384708642959595,-1.4259122610092163,-23.881906509399414,47.354576110839844,-16.208711624145508
5.492,-0.05623133108019829,-6.461817264556885,0.45583271980285645,-0.9048441052436829,0.024587325751781464,-1.432020902633667,-25.065771102905273,46.21455764770508,-15.711779594421387
5.499,0.044267214834690094,-6.4833526611328125,0.331405907869339,-0.9404270052909851,0.11835514008998871,-1.4227051734924316,-24.84653663635254,46.19994354248047,-15.492546081542969
5.509,0.45942193269729614,-6.447460651397705,0.0131605239585042,-0.9589056968688965,0.2866485118865967,-1.3949108123779297,-25.591930389404297,45.542240142822266,-15.711779594421387
5.519,0.6831508874893188,-6.398407459259033,-0.25244277715682983,-0.9399688839912415,0.4222606122493744,-1.381929874420166,-25.7088565826416,45.51300811767578,-14.264835357666016
5.529,0.9798608422279358,-6.248856067657471,-0.4295116364955902,-0.9103419184684753,0.5320636034011841,-1.3878858089447021,-26.52733039855957,45.001461029052734,-14.381760597229004
5.549,1.3722838163375854,-6.166304111480713,-0.5240281224250793,-0.8729264140129089,0.5911648273468018,-1.4098769426345825,-27.491960525512695,44.88453674316406,-14.235603332519531
5.553,1.9142580032348633,-6.165107250213623,-0.665204644203186,-0.8223773241043091,0.6253732442855835,-1.445918083190918,-28.456592559814453,44.256065368652344,-13.7240571975708
5.559,2.1188442707061768,-6.220142364501953,-0.7046862840652466,-0.7889324426651001,0.6481279730796814,-1.4329371452331543,-29.143524169921875,44.19760513305664,-13.124817848205566
5.569,2.54117751121521,-6.448657035827637,-0.7908278107643127,-0.7484626173973083,0.6684393286705017,-1.3863587379455566,-29.275066375732422,43.7445182800293,-13.577900886535645
5.579,2.9347968101501465,-6.612565040588379,-0.8781659007072449,-0.726471483707428,0.6742424964904785,-1.3063353300094604,-30.73662757873535,43.466819763183594,-13.475592613220215
5.589,3.5030922889709473,-6.573083400726318,-1.0827522277832031,-0.6997461318969727,0.671493649482727,-1.1879801750183105,-31.423559188842773,42.77988815307617,-12.949429512023926
5.609,4.004388809204102,-6.386443614959717,-1.4620145559310913,-0.6559165120124817,0.6320928335189819,-1.042441487312317,-32.812042236328125,42.282955169677734,-13.154048919677734
5.612,4.217350006103516,-6.174678802490234,-1.9692928791046143,-0.5540547966957092,0.5526803135871887,-0.8203920125961304,-32.84127426147461,41.56679153442383,-12.730195999145508
5.619,4.4614176750183105,-6.248856067657471,-2.0470597743988037,-0.48579058051109314,0.4931209683418274,-0.721737265586853,-33.41128158569336,41.65448760986328,-12.817889213562012
5.629,4.393222332000732,-6.669992923736572,-2.221735715866089,-0.41813725233078003,0.3689625859260559,-0.6065891981124878,-33.01666259765625,41.82987594604492,-12.320959091186523
5.639,4.150351047515869,-7.35194730758667,-2.3700907230377197,-0.35781431198120117,0.2451096773147583,-0.5160284042358398,-34.2882194519043,41.11370849609375,-12.744811058044434
5.649,4.061816215515137,-8.372486114501953,-2.6081764698028564,-0.29077184200286865,0.17027868330478668,-0.42760565876960754,-33.557437896728516,41.02601623535156,-13.080970764160156
5.662,3.981656551361084,-9.619146347045898,-3.071187734603882,-0.19288070499897003,0.16569718718528748,-0.26572638750076294,-34.25898742675781,41.80064392089844,-12.569424629211426
5.669,4.104887008666992,-9.973284721374512,-3.6323046684265137,-0.11667525768280029,0.20693059265613556,-0.15806137025356293,-34.127445220947266,41.46448516845703,-12.598654747009277
5.679,4.336990833282471,-10.04148006439209,-4.130012035369873,0.01038470957428217,0.24953843653202057,0.0036651913542300463,-34.171295166015625,41.84449005126953,-12.37942123413086
5.689,4.533202171325684,-9.930213928222656,-4.425525665283203,0.1488984078168869,0.2226603776216507,0.14935654401779175,-34.185909271240234,41.39140701293945,-12.949429512023926
5.699,4.524827480316162,-9.716055870056152,-4.412364959716797,0.2744311988353729,0.1333213448524475,0.2684752643108368,-33.95206069946289,41.43525314331055,-12.686349868774414
5.719,4.219742774963379,-9.498309135437012,-4.242474555969238,0.3706424832344055,0.024434609338641167,0.38117989897727966,-33.9666748046875,41.01139831542969,-12.832504272460938
5.722,3.576073169708252,-9.479166984558105,-3.9696924686431885,0.4499022364616394,-0.05054909735918045,0.5673410296440125,-34.59514617919922,41.82987594604492,-12.70096492767334
5.729,3.0281169414520264,-9.436095237731934,-3.7603206634521484,0.45265114307403564,-0.04657847434282303,0.6534730792045593,-33.93744659423828,41.47909927368164,-13.256357192993164
5.739,2.1846470832824707,-9.1776704788208,-3.4097721576690674,0.41401392221450806,0.011301006190478802,0.7547240257263184,-33.65974807739258,42.0052604675293,-12.394037246704102
5.749,1.5337992906570435,-8.888139724731445,-3.180061101913452,0.36224305629730225,0.14019358158111572,0.8469646573066711,-33.352821350097656,42.16603469848633,-12.730195999145508
5.759,1.1832507848739624,-8.886942863464355,-3.1788647174835205,0.3413209319114685,0.3150537610054016,0.9381362795829773,-33.250511169433594,42.239112854003906,-13.329436302185059
5.769,1.1365907192230225,-9.505488395690918,-3.2338995933532715,0.3723223805427551,0.5558873414993286,1.0291552543640137,-32.89973831176758,42.10757064819336,-13.680211067199707
5.782,1.3555339574813843,-11.581260681152344,-3.387040376663208,0.4335615932941437,0.7528914213180542,1.0555751323699951,-32.75358200073242,42.20988082885742,-13.577900886535645
5.789,1.5864413976669312,-13.089935302734375,-3.4372897148132324,0.47219884395599365,0.8407033085823059,1.0349584817886353,-32.607425689697266,42.6045036315918,-14.425606727600098
5.799,2.018345832824707,-14.84387493133545,-3.5270204544067383,0.5035056471824646,0.9459247589111328,1.001055359840393,-32.66588592529297,42.76527404785156,-14.63022518157959
5.809,2.6392831802368164,-14.975480079650879,-3.8979079723358154,0.4899139106273651,1.019075870513916,0.9935723543167114,-32.78281021118164,42.3414192199707,-15.507162094116211
5.819,3.2267210483551025,-13.445269584655762,-4.479363918304443,0.503047525882721,0.9518807530403137,1.056491494178772,-33.11897277832031,42.77988815307617,-14.410990715026855
5.839,3.370290756225586,-12.240484237670898,-4.438685894012451,0.589790403842926,0.8382598161697388,1.1612548828125,-32.5489616394043,42.867584228515625,-14.834843635559082
5.843,3.260220766067505,-12.354142189025879,-3.9014973640441895,0.7147123217582703,0.780380368232727,1.3420708179473877,-32.25665283203125,44.03683090209961,-15.624086380004883
5.849,2.9455647468566895,-12.696316719055176,-3.6705896854400635,0.783892810344696,0.8210029006004333,1.454317331314087,-32.607425689697266,44.3437614440918,-15.828704833984375
5.859,2.3605194091796875,-13.216755867004395,-3.13220477104187,0.8228355050086975,0.9550877809524536,1.5674800872802734,-32.27126693725586,44.358375549316406,-16.807950973510742
5.869,2.0123636722564697,-13.357932090759277,-2.7254250049591064,0.7667886018753052,1.2136363983154297,1.6760615110397339,-32.11049270629883,44.59222412109375,-16.720256805419922
5.879,2.045863151550293,-12.854243278503418,-2.8594231605529785,0.7243334650993347,1.4078916311264038,1.744631052017212,-31.847414016723633,45.22069549560547,-16.997953414916992
5.898,2.283949136734009,-12.229716300964355,-3.3332018852233887,0.7295258641242981,1.538464069366455,1.8212946653366089,-31.701257705688477,45.41069793701172,-17.056415557861328
5.903,2.5974087715148926,-11.25344467163086,-3.7316067218780518,0.8295549750328064,1.617723822593689,1.965153455734253,-31.613563537597656,45.615318298339844,-18.605670928955078
5.909,2.720639228820801,-10.628917694091797,-3.5880372524261475,0.8631526231765747,1.607797384262085,2.015549898147583,-31.306636810302734,46.00994110107422,-17.757965087890625
5.919,2.849851608276367,-10.016355514526367,-3.198007583618164,0.9108000993728638,1.4844025373458862,2.1229093074798584,-30.985092163085938,46.521484375,-19.16106414794922
5.929,2.9108684062957764,-9.818947792053223,-2.7182462215423584,0.8924740552902222,1.3536772727966309,2.1705567836761475,-30.73662757873535,46.916107177734375,-19.90645980834961
5.939,2.7122642993927,-9.852446556091309,-2.358126640319824,0.8504770994186401,1.1800389289855957,2.1616992950439453,-30.166616439819336,47.25226593017578,-20.198772430419922
5.959,2.3545374870300293,-9.889535903930664,-1.856830358505249,0.7777841687202454,0.9952521920204163,2.10168194770813,-29.45045280456543,47.25226593017578,-21.031862258911133
5.963,2.0961124897003174,-9.724431037902832,-1.5481561422348022,0.6140722632408142,0.7997753024101257,1.9756909608840942,-28.441978454589844,47.71996307373047,-21.324174880981445
5.969,1.8257235288619995,-9.474380493164062,-1.5948163270950317,0.5361869931221008,0.730900228023529,1.915062427520752,-28.412744522094727,47.98304748535156,-21.499561309814453
5.979,1.7096717357635498,-8.731410026550293,-1.8843477964401245,0.469449907541275,0.6380487084388733,1.8435912132263184,-27.287343978881836,48.24612808227539,-21.689563751220703
5.989,1.696511149406433,-7.933403015136719,-2.100898265838623,0.4821254014968872,0.5203045010566711,1.8017469644546509,-26.644256591796875,48.45074462890625,-21.8503360748291
5.999,1.6354942321777344,-7.2634124755859375,-2.163111686706543,0.5422956347465515,0.3854559361934662,1.8147279024124146,-26.191171646118164,48.6407470703125,-21.82110595703125
6.019,1.4931212663650513,-6.866204261779785,-1.9154545068740845,0.6023131012916565,0.2641991972923279,1.882686734199524,-25.562700271606445,48.69921112060547,-22.215726852416992
6.023,0.6520441174507141,-6.689135551452637,-1.7252249717712402,0.6230825781822205,0.2203696370124817,2.012495517730713,-24.641918182373047,48.83074951171875,-22.566499710083008
6.029,0.7357929348945618,-6.669992923736572,-1.6199408769607544,0.6001750826835632,0.21700987219810486,2.0638082027435303,-24.261911392211914,48.669979095458984,-22.873428344726562
6.039,0.4295116364955902,-6.502495288848877,-1.7084753513336182,0.5424483418464661,0.20662516355514526,2.077094554901123,-22.74188804626465,49.56153106689453,-23.03420066833496
6.049,0.7429714202880859,-6.388835906982422,-1.9489539861679077,0.4784601926803589,0.11530081182718277,2.0172297954559326,-22.522653579711914,49.18152618408203,-23.618824005126953
6.059,1.3112667798995972,-6.351747512817383,-2.139183282852173,0.4207334518432617,-0.03145955875515938,1.9245309829711914,-21.8503360748291,49.48845672607422,-23.370359420776367
6.079,1.4536396265029907,-6.327819347381592,-2.137986898422241,0.3536909520626068,-0.2782491147518158,1.8196147680282593,-20.783395767211914,49.25460433959961,-24.32037353515625
6.083,1.9812570810317993,-5.974877834320068,-1.6390833854675293,0.3152064383029938,-0.5476406812667847,1.8252654075622559,-19.54106903076172,49.020755767822266,-24.276527404785156
6.089,2.1415762901306152,-5.621936798095703,-1.219143033027649,0.3058907687664032,-0.7290676236152649,1.8551976680755615,-18.927213668823242,48.93306350708008,-24.510377883911133
6.1,1.8843477964401245,-4.907679080963135,-1.2275179624557495,0.2974913716316223,-0.9486737251281738,1.961030125617981,-18.35720443725586,48.9622917175293,-24.56884002685547
6.109,0.7752745151519775,-4.449453830718994,-1.2335000038146973,0.35246923565864563,-1.0965031385421753,2.051590919494629,-17.14410972595215,48.5384407043457,-25.752704620361328
6.119,-0.22731813788414001,-4.6061835289001465,-0.8721838593482971,0.39309176802635193,-1.197906732559204,2.0618228912353516,-15.52177619934082,48.88921356201172,-25.81116485595703
6.139,-1.7168502807617188,-4.948357105255127,-0.7405785322189331,0.3917173445224762,-1.1525499820709229,1.924683690071106,-14.001753807067871,48.93306350708008,-25.796550750732422
6.143,-3.500699520111084,-5.797809600830078,-0.20338991284370422,0.3378084599971771,-0.9347765445709229,1.690264105796814,-12.949429512023926,48.23151397705078,-25.86962890625
6.149,-3.3894331455230713,-6.3146586418151855,0.25363919138908386,0.3023782968521118,-0.7226535677909851,1.5462526082992554,-12.993276596069336,48.099971771240234,-26.585792541503906
6.159,-3.458824872970581,-6.437889099121094,0.7298108339309692,0.26114487648010254,-0.5186246037483215,1.341460108757019,-12.247880935668945,48.14381790161133,-26.49810028076172
6.169,-3.260220766067505,-6.668796539306641,0.6556333899497986,0.2460259646177292,-0.31154128909111023,1.130711555480957,-11.23940372467041,47.98304748535156,-26.761180877685547
6.179,-3.452842950820923,-6.9750776290893555,0.3732803165912628,0.3032945990562439,-0.024892758578062057,0.935998260974884,-11.312481880187988,47.8807373046875,-26.921951293945312
6.199,-2.7326035499572754,-7.909474849700928,0.20099709928035736,0.3723223805427551,0.2203696370124817,0.8376489877700806,-10.464776039123535,47.95381546020508,-27.331188201904297
6.203,-2.4191436767578125,-9.081957817077637,0.24526430666446686,0.4127922058105469,0.4205807149410248,0.7052439451217651,-10.143233299255371,47.89535140991211,-27.842735290527344
6.209,-2.1678972244262695,-9.773483276367188,0.37447673082351685,0.39645153284072876,0.42730024456977844,0.6362161040306091,-10.420929908752441,47.106109619140625,-27.857351303100586
6.219,-2.0482561588287354,-10.660024642944336,0.5682953596115112,0.35781431198120117,0.41630467772483826,0.4541782736778259,-9.909382820129395,47.544578552246094,-27.594270706176758
6.229,-1.8293129205703735,-11.367104530334473,0.8745766282081604,0.2793181240558624,0.19562958180904388,0.13209959864616394,-9.58784008026123,46.8430290222168,-27.389652252197266
6.239,-2.5004994869232178,-12.278769493103027,0.8015955090522766,0.21059578657150269,-0.11056660860776901,-0.1774563491344452,-9.646302223205566,47.57380676269531,-28.471206665039062
6.259,-3.7974092960357666,-12.648460388183594,0.6352943778038025,0.15286903083324432,-0.3381139039993286,-0.4928155243396759,-9.8655366897583,47.67612075805664,-28.23735809326172
6.263,-5.222335338592529,-12.896116256713867,0.6125625967979431,0.04520402476191521,-0.4182899594306946,-0.911410927772522,-9.82168960571289,47.82227325439453,-28.70505714416504
6.269,-5.629115104675293,-12.93200969696045,0.7752745151519775,-0.005192354787141085,-0.37262779474258423,-1.023352026939392,-10.420929908752441,47.32534408569336,-28.222742080688477
6.279,-5.343172550201416,-12.862618446350098,0.9918249249458313,-0.15485434234142303,-0.1411098688840866,-1.1902709007263184,-11.400175094604492,48.07073974609375,-28.588130950927734
6.289,-3.751945734024048,-12.66042423248291,0.836291491985321,-0.2921462953090668,0.058948494493961334,-1.1759155988693237,-11.341712951660156,47.58842468261719,-28.880443572998047
6.299,-1.9441683292388916,-12.136395454406738,0.3122633397579193,-0.40026944875717163,0.1892155110836029,-1.0445795059204102,-11.677871704101562,48.114585876464844,-28.675825119018555
6.319,-0.11605189740657806,-11.544172286987305,-0.18903298676013947,-0.455705463886261,0.16890422999858856,-0.8503244519233704,-12.730195999145508,47.95381546020508,-28.63197898864746
6.323,0.9882357120513916,-11.179266929626465,-0.3649054169654846,-0.4430300295352936,-0.199294775724411,-0.6168211698532104,-12.993276596069336,48.33382034301758,-28.60274887084961
6.329,0.8590232729911804,-11.271390914916992,-0.18783655762672424,-0.42959097027778625,-0.46013423800468445,-0.5914702415466309,-12.569424629211426,48.18766403198242,-27.901199340820312
6.339,0.2309073656797409,-11.789436340332031,0.4378865361213684,-0.44089198112487793,-0.7979426980018616,-0.6279694437980652,-12.920199394226074,48.406898498535156,-28.427358627319336
6.349,-1.0241280794143677,-12.695119857788086,1.3567304611206055,-0.4980078935623169,-1.0769554376602173,-0.7228062748908997,-13.124817848205566,48.24612808227539,-28.310436248779297
6.359,-2.128415822982788,-13.263416290283203,1.9381862878799438,-0.5798638463020325,-1.2678508758544922,-0.869719386100769,-13.49020767211914,47.99766159057617,-28.70505714416504
6.379,-3.06999135017395,-13.635499000549316,2.2815563678741455,-0.6743952035903931,-1.3686436414718628,-1.0726792812347412,-13.300204277038574,48.18766403198242,-28.456592559814453
6.382,-4.147957801818848,-13.896317481994629,2.0267207622528076,-0.8080219626426697,-1.316261887550354,-1.4509576559066772,-14.11867904663086,47.924583435058594,-27.375036239624023
6.389,-4.29750919342041,-13.957334518432617,1.7611173391342163,-0.8546004891395569,-1.1904237270355225,-1.6433802843093872,-14.133294105529785,48.114585876464844,-26.87810707092285
6.399,-4.419543266296387,-14.073386192321777,0.916451096534729,-0.8761334419250488,-0.9523388743400574,-1.8683313131332397,-14.177140235900879,48.18766403198242,-27.565038681030273
6.409,-4.120440483093262,-14.139188766479492,0.39122650027275085,-0.8559749126434326,-0.6899722814559937,-2.0499110221862793,-15.52177619934082,48.31920623779297,-27.038877487182617
6.419,-3.5330023765563965,-14.136795997619629,0.08733802288770676,-0.816726803779602,-0.4356996417045593,-2.1639902591705322,-15.828704833984375,47.98304748535156,-26.717334747314453
6.439,-2.702692985534668,-13.978869438171387,0.09451649338006973,-0.7877107262611389,-0.24678955972194672,-2.200183868408203,-18.050277709960938,47.95381546020508,-26.42502212524414
6.443,-1.317248821258545,-13.453644752502441,0.15074782073497772,-0.7870998382568359,-0.09392052888870239,-2.172389507293701,-18.123355865478516,48.099971771240234,-26.39579200744629
6.449,-0.6149553656578064,-13.12822151184082,-0.02871387079358101,-0.7953465580940247,-0.06719517707824707,-2.1349740028381348,-19.05875587463379,47.61765670776367,-25.372699737548828
6.459,0.24047866463661194,-12.622138977050781,-0.3230310380458832,-0.7878634333610535,-0.09819658100605011,-2.082439661026001,-19.657995223999023,48.056121826171875,-24.583454132080078
6.469,0.8327022790908813,-12.057433128356934,-0.574277400970459,-0.7738135457038879,-0.20662516355514526,-2.0482311248779297,-20.1110782623291,47.80765914916992,-24.96346092224121
6.479,1.0719845294952393,-11.533404350280762,-0.7298108339309692,-0.767857551574707,-0.3677408695220947,-2.0338757038116455,-20.8126277923584,47.63227081298828,-24.305757522583008
6.499,0.9236294627189636,-11.009376525878906,-0.7896314859390259,-0.793666660785675,-0.5593998432159424,-2.0066921710968018,-21.66033363342285,47.836891174316406,-24.174217224121094
6.503,0.6711867451667786,-10.073782920837402,-0.818345308303833,-0.8303185701370239,-0.6815729141235352,-1.949729084968567,-22.361881256103516,47.60304260253906,-23.604209899902344
6.509,0.468993216753006,-9.54496955871582,-0.8267201781272888,-0.8355109095573425,-0.6997461318969727,-1.8932240009307861,-22.990352630615234,47.63227081298828,-23.648056030273438
6.519,0.39003005623817444,-8.950352668762207,-0.6556333899497986,-0.8254316449165344,-0.6966918110847473,-1.8132007122039795,-23.29728126525879,47.1791877746582,-23.545745849609375
6.529,0.35772696137428284,-8.504091262817383,-0.35772696137428284,-0.8356636762619019,-0.6698136925697327,-1.7246253490447998,-24.057292938232422,46.740718841552734,-23.39959144592285
6.539,0.5790630578994751,-8.015955924987793,-0.24406790733337402,-0.8515461683273315,-0.5775730609893799,-1.6119205951690674,-24.890382766723633,47.19380569458008,-22.595731735229492
6.559,0.7573283314704895,-7.4392852783203125,-0.3768695592880249,-0.836885392665863,-0.4801400899887085,-1.5497651100158691,-25.635778427124023,46.550716400146484,-21.996492385864258
6.563,1.109073281288147,-7.148557662963867,-0.45463627576828003,-0.7922922372817993,-0.41951167583465576,-1.5259413719177246,-25.475008010864258,46.24378967285156,-21.163402557373047
6.569,1.234696388244629,-7.080362319946289,-0.45583271980285645,-0.7658722400665283,-0.41493022441864014,-1.5289957523345947,-25.855012893676758,46.19994354248047,-21.806488037109375
6.579,1.2957134246826172,-7.026523113250732,-0.3852444291114807,-0.7446447610855103,-0.43508875370025635,-1.543503761291504,-26.43963623046875,46.15609359741211,-20.73954963684082
6.589,1.2323036193847656,-6.926024913787842,-0.31824538111686707,-0.7579310536384583,-0.47571131587028503,-1.5699236392974854,-26.99502944946289,45.98070526123047,-20.257234573364258
6.599,1.0815558433532715,-6.623332977294922,-0.24406790733337402,-0.7761042714118958,-0.494189977645874,-1.5864169597625732,-27.491960525512695,45.60070037841797,-20.388774871826172
6.618,0.8063812255859375,-6.214160442352295,-0.22492532432079315,-0.8251261711120605,-0.47739118337631226,-1.5848898887634277,-28.441978454589844,45.26454162597656,-20.242618560791016
6.622,0.5419743061065674,-5.688935279846191,-0.3672982454299927,-0.8289440870285034,-0.4518875777721405,-1.5780175924301147,-28.427358627319336,44.69453430175781,-19.83338165283203
6.629,0.39003005623817444,-5.391029357910156,-0.41515469551086426,-0.817948579788208,-0.4069889783859253,-1.5760324001312256,-29.304296493530273,44.358375549316406,-19.687227249145508
6.639,0.34576284885406494,-5.221138954162598,-0.380458801984787,-0.8043568134307861,-0.32192596793174744,-1.5781702995300293,-29.275066375732422,44.24144744873047,-19.27798843383789
6.649,0.19980068504810333,-5.143372535705566,-0.4139583110809326,-0.803135097026825,-0.16172656416893005,-1.5758795738220215,-29.625839233398438,43.93452072143555,-19.05875587463379
6.659,0.45942193269729614,-5.192424774169922,-0.48813581466674805,-0.7990117073059082,-0.03298672288656235,-1.5687018632888794,-30.605087280273438,43.72990417480469,-18.63490104675293
6.679,0.8195416927337646,-5.227120876312256,-0.49531427025794983,-0.793666660785675,0.09514226019382477,-1.568854570388794,-31.803565979003906,43.10143280029297,-18.35720443725586
6.683,1.0492527484893799,-5.248656272888184,-0.5228317379951477,-0.7881688475608826,0.26343563199043274,-1.5670220851898193,-31.847414016723633,42.57527160644531,-18.401052474975586
6.689,1.0085747241973877,-5.236692428588867,-0.4941178560256958,-0.7912232279777527,0.30726519227027893,-1.5680910348892212,-32.65127182006836,42.429115295410156,-17.845659255981445
6.699,1.4452649354934692,-5.157729148864746,-0.6005984544754028,-0.8097019195556641,0.41630467772483826,-1.5578590631484985,-32.69511795043945,42.078338623046875,-17.80181312561035
6.709,1.781456470489502,-5.113461494445801,-0.7322037220001221,-0.8002334237098694,0.47311511635780334,-1.540754795074463,-33.48435974121094,41.77141189575195,-17.582576751708984
6.719,2.0243277549743652,-5.198407173156738,-0.8386843204498291,-0.7814493775367737,0.5247332453727722,-1.5112805366516113,-34.419761657714844,41.53756332397461,-17.62642478942871
6.739,2.252842426300049,-5.371886730194092,-1.093519926071167,-0.6864597797393799,0.5978842973709106,-1.3805553913116455,-36.4074821472168,40.44139099121094,-16.413330078125
6.742,2.8151557445526123,-6.078965663909912,-1.2789636850357056,-0.6682865619659424,0.6090326309204102,-1.3411545753479004,-35.9836311340332,40.74831771850586,-16.544870376586914
6.749,3.0209386348724365,-6.56710147857666,-1.4225330352783203,-0.6440047025680542,0.6444628238677979,-1.267392635345459,-36.64133071899414,40.2660026550293,-16.384098052978516
6.759,3.6598219871520996,-7.324429988861084,-2.014756679534912,-0.5884159207344055,0.6748533248901367,-1.1591167449951172,-37.1236457824707,39.73984146118164,-16.98333740234375
6.769,4.204189300537109,-7.928617477416992,-2.4873390197753906,-0.502436637878418,0.6621778607368469,-1.053742527961731,-37.81058120727539,39.1259880065918,-16.486408233642578
6.779,4.752145767211914,-8.462217330932617,-2.963510751724243,-0.40805795788764954,0.6527094841003418,-0.9283624291419983,-38.029815673828125,39.16983413696289,-16.793336868286133
6.799,5.161317825317383,-8.688338279724121,-3.5401811599731445,-0.3032945990562439,0.6447682976722717,-0.7718282341957092,-38.61444091796875,38.599822998046875,-16.471790313720703
6.804,5.710471153259277,-8.854640007019043,-4.460221290588379,-0.11285734921693802,0.655458390712738,-0.43707406520843506,-38.97983169555664,38.570594787597656,-17.363344192504883
6.809,5.952146053314209,-8.907281875610352,-4.797609329223633,0.006872233934700489,0.6017022132873535,-0.25244006514549255,-39.27214050292969,38.54136276245117,-17.202571868896484
