time,accel_x,accel_y,accel_z,gyro_x,gyro_y,gyro_z,mag_x,mag_y,mag_z
0.0,69.68084716796875,-2.75812029838562,-5.746084213256836,-22.51607894897461,2.797856092453003,20.117916107177734,-34.650001525878906,6.300000190734863,-5.700000286102295
0.009,78.52981567382812,-4.8267107009887695,-11.60708999633789,-20.38437843322754,0.9326186776161194,10.92496109008789,-34.650001525878906,6.300000190734863,-5.700000286102295
0.03,77.95520782470703,-5.631162166595459,-11.798625946044922,-21.583459854125977,-0.9326186776161194,21.45022964477539,-34.5,7.200000286102295,-3.6000001430511475
0.033,78.07012939453125,-4.865017890930176,-10.917559623718262,-17.852985382080078,4.663093090057373,21.050535202026367,-33.30000305175781,6.150000095367432,-2.8500001430511475
0.04,77.91690063476562,-5.899312973022461,-11.30063247680664,-20.784072875976562,0.9326186776161194,23.581928253173828,-33.30000305175781,6.150000095367432,-2.8500001430511475
0.05,78.52981567382812,-5.5545477867126465,-9.53849983215332,-22.249616622924805,-3.86370587348938,25.447166442871094,-34.05000305175781,5.400000095367432,-4.650000095367432
0.06,80.06210327148438,-5.784391403198242,-8.580819129943848,-31.842266082763672,4.396630764007568,17.719755172729492,-34.05000305175781,5.400000095367432,-4.650000095367432
0.07,78.60643005371094,-6.435614109039307,-8.619126319885254,-34.64012145996094,-0.7993874549865723,22.915773391723633,-34.5,5.400000095367432,-3.6000001430511475
0.089,79.18103790283203,-7.201758861541748,-9.84495735168457,-28.24502182006836,-9.459418296813965,24.914241790771484,-35.55000305175781,4.5,-4.350000381469727
0.093,78.10843658447266,-5.5545477867126465,-11.03248119354248,-36.10566711425781,-3.4640121459960938,17.053598403930664,-34.650001525878906,5.550000190734863,-3.750000238418579
0.1,77.87859344482422,-6.090848922729492,-11.990161895751953,-33.17457962036133,-3.4640121459960938,22.915773391723633,-34.650001525878906,5.550000190734863,-3.750000238418579
0.109,77.1124496459961,-6.435614109039307,-12.526463508605957,-27.445634841918945,-4.529861927032471,17.586523056030273,-34.650001525878906,5.550000190734863,-3.750000238418579
0.12,76.99752807617188,-4.903325080871582,-11.836933135986328,-32.24195861816406,1.8652373552322388,21.45022964477539,-34.80000305175781,3.750000238418579,-3.6000001430511475
0.13,78.45320129394531,-5.018246650695801,-11.760318756103516,-38.63705825805664,5.595712184906006,17.986217498779297,-34.5,4.5,-3.3000001907348633
0.15,78.75965881347656,-4.6734819412231445,-11.530475616455078,-38.50382614135742,2.131699800491333,20.117916107177734,-33.900001525878906,5.850000381469727,-4.200000286102295
0.153,78.22335815429688,-5.784391403198242,-11.377246856689453,-32.37519073486328,-7.06125545501709,27.578866958618164,-34.05000305175781,5.400000095367432,-3.9000000953674316
0.16,77.7253646850586,-6.167463779449463,-12.48815631866455,-32.90811538696289,-8.39356803894043,33.04134750366211,-34.05000305175781,5.400000095367432,-3.9000000953674316
0.17,78.3382797241211,-6.205770969390869,-13.828908920288086,-40.36906433105469,7.327718257904053,19.98468589782715,-35.70000076293945,4.350000381469727,-3.750000238418579
0.18,76.99752807617188,-6.588842868804932,-14.288596153259277,-37.304744720458984,10.525267601013184,18.2526798248291,-34.5,4.5,-4.350000381469727
0.19,78.22335815429688,-4.941632270812988,-14.36521053314209,-31.842266082763672,4.396630764007568,34.373661041259766,-33.900001525878906,3.6000001430511475,-2.700000047683716
0.209,78.60643005371094,-3.6774938106536865,-12.526463508605957,-26.113323211669922,7.9938740730285645,23.315465927124023,-34.5,3.750000238418579,-5.100000381469727
0.213,79.33426666259766,-4.098873138427734,-12.986149787902832,-27.31240463256836,9.059723854064941,26.912710189819336,-34.5,3.0,-3.9000000953674316
0.22,80.29194641113281,-2.7964274883270264,-12.373234748840332,-22.782541275024414,2.6646246910095215,37.4379768371582,-34.5,3.0,-3.9000000953674316
0.23,79.6407241821289,-2.5665841102600098,-13.062764167785645,-13.323123931884766,0.1332312375307083,46.09800720214844,-35.25,4.200000286102295,-3.9000000953674316
0.24,80.63671112060547,-4.32871675491333,-12.105083465576172,-28.511484146118164,3.0643184185028076,39.70290756225586,-34.20000076293945,2.8500001430511475,-3.0
0.249,78.989501953125,-6.588842868804932,-13.10107135772705,-32.90811538696289,10.658498764038086,40.502296447753906,-34.95000076293945,5.100000381469727,-1.6500000953674316
0.269,78.3765869140625,-8.006210327148438,-13.943830490112305,-23.581928253173828,2.531393527984619,47.830013275146484,-34.95000076293945,5.100000381469727,-1.6500000953674316
0.273,77.38059997558594,-8.504204750061035,-14.786589622497559,-36.905052185058594,17.719755172729492,48.362937927246094,-34.650001525878906,2.1000001430511475,-3.0
0.28,77.53382873535156,-8.236053466796875,-13.79060173034668,-35.705970764160156,15.055130004882812,44.09954071044922,-34.650001525878906,2.1000001430511475,-3.0
0.29,76.46122741699219,-7.661445617675781,-13.48414421081543,-30.776416778564453,6.261868000030518,53.42572784423828,-35.70000076293945,1.6500000953674316,-2.700000047683716
0.3,78.03182220458984,-5.669469833374023,-11.72201156616211,-24.11485481262207,4.796324729919434,63.018375396728516,-35.70000076293945,1.6500000953674316,-2.700000047683716
0.31,79.18103790283203,-6.627150535583496,-12.105083465576172,-40.23583221435547,1.4655436277389526,45.03215789794922,-35.70000076293945,1.6500000953674316,-2.700000047683716
0.329,80.59840393066406,-6.780379295349121,-9.921571731567383,-32.64165496826172,-7.06125545501709,55.95711898803711,-35.25,1.0500000715255737,-2.8500001430511475
0.332,78.989501953125,-8.121131896972656,-12.717999458312988,-33.57427215576172,-3.9969370365142822,70.47932434082031,-36.150001525878906,2.4000000953674316,-2.25
0.34,78.989501953125,-9.84495735168457,-15.744270324707031,-35.705970764160156,9.059723854064941,65.28330993652344,-35.25,0.75,-3.6000001430511475
0.35,77.30398559570312,-8.580819129943848,-14.786589622497559,-32.5084228515625,9.72588062286377,61.68606185913086,-35.25,0.75,-3.6000001430511475
0.36,77.45721435546875,-8.96389102935791,-14.480132102966309,-27.84532928466797,8.526799201965332,67.14854431152344,-36.75,2.25,-1.0500000715255737
0.37,75.50354766845703,-7.010222434997559,-13.828908920288086,-14.255742073059082,9.459418296813965,67.14854431152344,-35.25,1.5,-2.8500001430511475
0.39,75.77169799804688,-6.320692539215088,-13.560758590698242,-16.920366287231445,16.78713607788086,58.222049713134766,-35.55000305175781,1.5,-3.3000001907348633
0.394,74.96724700927734,-7.738059997558594,-11.836933135986328,-3.197549819946289,4.263399600982666,56.356815338134766,-36.150001525878906,0.45000001788139343,-2.700000047683716
0.4,74.12448120117188,-8.465897560119629,-12.066776275634766,-8.260336875915527,2.9310872554779053,56.356815338134766,-36.150001525878906,0.45000001788139343,-2.700000047683716
0.41,74.04786682128906,-10.381258964538574,-11.30063247680664,-14.788667678833008,12.25727367401123,54.4915771484375,-36.30000305175781,0.0,-3.3000001907348633
0.42,73.664794921875,-11.875240325927734,-11.91354751586914,-9.059723854064941,11.724349021911621,59.15467071533203,-36.150001525878906,0.45000001788139343,-2.25
0.43,75.42693328857422,-11.30063247680664,-11.951854705810547,-11.591117858886719,6.261868000030518,61.01990509033203,-36.45000076293945,-1.6500000953674316,-1.6500000953674316
0.449,75.04386138916016,-13.177685737609863,-11.760318756103516,-16.25421142578125,8.526799201965332,57.422664642333984,-36.75,-1.0500000715255737,-3.6000001430511475
0.452,75.50354766845703,-14.020444869995117,-12.641385078430176,-21.583459854125977,15.45482349395752,57.02296829223633,-36.75,-1.0500000715255737,-3.6000001430511475
0.46,75.77169799804688,-13.407529830932617,-12.411541938781738,-17.986217498779297,10.525267601013184,60.48698043823242,-36.0,-1.0500000715255737,-2.8500001430511475
0.469,75.9249267578125,-12.334927558898926,-12.373234748840332,-22.649311065673828,8.660030364990234,51.560489654541016,-36.150001525878906,-1.350000023841858,-2.700000047683716
0.479,75.42693328857422,-11.875240325927734,-12.334927558898926,-28.111791610717773,12.790199279785156,46.897396087646484,-37.95000076293945,-0.9000000357627869,-2.25
0.49,75.65677642822266,-11.377246856689453,-12.29662036895752,-16.65390396118164,10.92496109008789,43.43338394165039,-37.20000076293945,0.15000000596046448,-1.9500000476837158
0.509,75.9632339477539,-9.730035781860352,-11.530475616455078,-5.728943347930908,8.793261528015137,54.4915771484375,-36.30000305175781,-0.75,-1.350000023841858
0.513,74.00955963134766,-6.01423454284668,-11.836933135986328,-2.531393527984619,15.721285820007324,35.439510345458984,-36.30000305175781,-0.75,-1.350000023841858
0.52,73.93294525146484,-5.094861030578613,-12.60307788848877,1.0658499002456665,25.04747200012207,37.57120895385742,-37.5,-4.200000286102295,-1.8000000715255737
0.529,73.20510864257812,-3.7924153804779053,-12.48815631866455,18.2526798248291,18.119447708129883,34.24042892456055,-37.80000305175781,-1.5,-1.8000000715255737
0.54,73.0518798828125,-4.788403511047363,-10.266336441040039,34.373661041259766,17.186830520629883,28.511484146118164,-37.650001525878906,-3.6000001430511475,-0.9000000357627869
0.55,72.43896484375,-3.5625722408294678,-8.734047889709473,31.709033966064453,30.24349021911621,21.716691970825195,-36.150001525878906,-1.6500000953674316,-1.2000000476837158
0.569,70.79175567626953,-5.094861030578613,-9.002198219299316,39.03675079345703,32.24195861816406,21.583459854125977,-36.150001525878906,-1.6500000953674316,-1.2000000476837158
0.572,71.2514419555664,-3.7158010005950928,-8.274360656738281,57.955589294433594,23.581928253173828,17.719755172729492,-38.70000076293945,-2.1000001430511475,-0.9000000357627869
0.58,72.43896484375,-2.6815059185028076,-7.048529624938965,62.35221862792969,18.78560447692871,16.78713607788086,-38.25,-2.700000047683716,-0.6000000238418579
0.59,73.16680145263672,-2.298433542251587,-6.665457725524902,59.55436325073242,21.84992218017578,9.192955017089844,-37.20000076293945,-3.1500000953674316,-1.9500000476837158
0.6,73.12849426269531,0.26815059781074524,-5.2480902671813965,72.34455871582031,12.656967163085938,17.453292846679688,-36.900001525878906,-2.4000000953674316,-0.15000000596046448
0.61,72.89865112304688,2.9879636764526367,-5.324704647064209,89.13169860839844,16.387441635131836,11.857580184936523,-36.900001525878906,-2.4000000953674316,-0.15000000596046448
0.628,75.12047576904297,3.9456443786621094,-4.252102375030518,139.6263427734375,14.788667678833008,-20.650842666625977,-37.05000305175781,-3.0,-1.0500000715255737
0.632,79.41088104248047,0.9959878921508789,-2.8347349166870117,140.6921844482422,9.72588062286377,-2.6646246910095215,-37.05000305175781,-3.0,-1.0500000715255737
0.639,80.2536392211914,0.07661445438861847,-3.8307228088378906,166.80551147460938,6.9280242919921875,-11.457886695861816,-37.05000305175781,-1.8000000715255737,-2.1000001430511475
0.65,83.20330047607422,-2.75812029838562,-3.3710360527038574,175.33230590820312,2.531393527984619,-41.967838287353516,-37.650001525878906,-2.4000000953674316,-3.450000047683716
0.66,84.54405212402344,-6.512228488922119,-3.4093432426452637,177.19754028320312,14.255742073059082,-29.7105655670166,-37.650001525878906,-2.4000000953674316,-3.450000047683716
0.669,85.31019592285156,-9.461885452270508,-4.213795185089111,178.26339721679688,14.655436515808105,-14.655436515808105,-38.55000305175781,-2.700000047683716,-2.5500001907348633
0.689,87.3404769897461,-12.871228218078613,-3.5242648124694824,171.86830139160156,11.857580184936523,-67.41500854492188,-37.95000076293945,-2.1000001430511475,-1.6500000953674316
0.693,86.03803253173828,-13.330915451049805,-3.8307228088378906,155.88055419921875,7.194486618041992,-93.52832794189453,-37.95000076293945,-2.1000001430511475,-1.6500000953674316
0.7,87.68524169921875,-12.679692268371582,-3.8307228088378906,175.865234375,6.9280242919921875,-68.08116149902344,-37.5,-1.5,-1.8000000715255737
0.71,88.06831359863281,-11.875240325927734,-4.098873138427734,152.28330993652344,-4.796324729919434,-129.76722717285156,-37.5,-1.5,-1.8000000715255737
0.72,87.83847045898438,-11.070788383483887,-5.056553840637207,152.81622314453125,-2.6646246910095215,-93.79479217529297,-37.80000305175781,-3.450000047683716,-2.5500001907348633
0.73,87.4170913696289,-11.492168426513672,-6.703764915466309,147.4869842529297,-3.7304747104644775,-114.04593658447266,-36.45000076293945,-2.8500001430511475,-3.0
0.743,83.77790832519531,-14.058752059936523,-4.750096321105957,151.6171417236328,-14.388973236083984,-116.71056365966797,-36.150001525878906,-1.6500000953674316,-3.750000238418579
0.75,80.02379608154297,-18.387468338012695,-3.064578056335449,138.56048583984375,-24.64777946472168,-124.70443725585938,-37.20000076293945,-1.350000023841858,-1.9500000476837158
0.76,79.18103790283203,-18.579004287719727,-1.2641384601593018,112.4471664428711,-30.776416778564453,-145.6217498779297,-37.20000076293945,-1.350000023841858,-1.9500000476837158
0.77,78.72135162353516,-18.11931800842285,1.6855180263519287,89.39816284179688,-48.362937927246094,-162.27565002441406,-36.45000076293945,0.9000000357627869,-2.25
0.78,79.29595947265625,-13.369222640991211,1.9153614044189453,71.67840576171875,-68.4808578491211,-157.21286010742188,-35.400001525878906,-0.9000000357627869,-3.750000238418579
0.789,77.91690063476562,-6.473921298980713,-1.723825216293335,59.95405578613281,-71.14547729492188,-154.28176879882812,-36.150001525878906,1.350000023841858,-3.750000238418579
0.803,76.07815551757812,-0.26815059781074524,-4.137180328369141,43.43338394165039,-62.75191116333008,-154.0153045654297,-37.20000076293945,1.350000023841858,-4.200000286102295
0.81,77.30398559570312,4.711789131164551,-7.4316020011901855,55.15773391723633,-65.949462890625,-145.0888214111328,-37.20000076293945,1.350000023841858,-4.200000286102295
0.819,76.5761489868164,7.469909191131592,-7.316680431365967,62.485450744628906,-63.151607513427734,-153.0826873779297,-35.400001525878906,2.1000001430511475,-4.950000286102295
0.83,78.29997253417969,8.925583839416504,-8.159439086914062,63.950992584228516,-56.09035110473633,-165.4731903076172,-35.70000076293945,2.1000001430511475,-3.450000047683716
0.84,78.3382797241211,9.53849983215332,-8.580819129943848,72.61102294921875,-58.62174606323242,-167.47166442871094,-35.400001525878906,3.1500000953674316,-6.0
0.858,80.56009674072266,9.27034854888916,-6.588842868804932,86.60030364990234,-68.21439361572266,-163.20826721191406,-34.05000305175781,3.450000047683716,-4.650000095367432
0.862,81.63269805908203,9.27034854888916,-6.01423454284668,95.9264907836914,-81.40428924560547,-170.66921997070312,-34.05000305175781,3.450000047683716,-4.650000095367432
0.87,80.33025360107422,7.738059997558594,-5.51624059677124,90.06431579589844,-76.60796356201172,-174.9326171875,-33.45000076293945,3.6000001430511475,-6.750000476837158
0.88,80.94316864013672,6.742072105407715,-2.75812029838562,96.05972290039062,-89.5313949584961,-172.134765625,-33.30000305175781,4.950000286102295,-6.600000381469727
0.89,81.59439086914062,6.703764915466309,-2.2218191623687744,97.5252685546875,-103.25421142578125,-177.99693298339844,-32.70000076293945,5.100000381469727,-6.750000476837158
0.9,80.36856079101562,6.89530086517334,-3.600879430770874,95.39356231689453,-96.59264373779297,-171.20213317871094,-34.20000076293945,5.550000190734863,-7.050000190734863
0.919,79.52580261230469,7.393294811248779,-4.9799394607543945,82.6033706665039,-89.13169860839844,-181.8606414794922,-34.20000076293945,5.550000190734863,-7.050000190734863
0.923,78.83627319335938,7.661445617675781,-6.167463779449463,82.20367431640625,-83.93567657470703,-173.73353576660156,-33.30000305175781,5.700000286102295,-7.650000095367432
0.93,79.18103790283203,8.236053466796875,-8.96389102935791,82.47013854980469,-80.60489654541016,-171.7350616455078,-33.30000305175781,5.700000286102295,-7.650000095367432
0.94,78.07012939453125,7.891288757324219,-10.036493301391602,67.01531219482422,-66.34915924072266,-170.8024444580078,-31.05000114440918,8.850000381469727,-7.350000381469727
0.95,77.763671875,8.65743350982666,-9.576807022094727,72.74425506591797,-73.14395141601562,-172.6676788330078,-31.05000114440918,8.40000057220459,-8.40000057220459
0.96,78.3382797241211,9.883264541625977,-9.500192642211914,69.67993927001953,-70.47932434082031,-169.73660278320312,-31.05000114440918,8.40000057220459,-8.40000057220459
0.978,78.22335815429688,11.30063247680664,-9.883264541625977,63.81776428222656,-58.355281829833984,-173.2006072998047,-31.650001525878906,7.800000190734863,-9.75
0.982,78.3382797241211,12.717999458312988,-9.423578262329102,73.81010437011719,-70.87902069091797,-164.4073486328125,-30.750001907348633,9.15000057220459,-10.950000762939453
0.99,76.30799865722656,13.522451400756836,-8.65743350982666,69.28024291992188,-68.34762573242188,-155.21438598632812,-30.750001907348633,9.15000057220459,-10.950000762939453
1.0,75.15878295898438,15.093047142028809,-9.117119789123535,67.94792938232422,-72.34455871582031,-149.08575439453125,-29.400001525878906,10.200000762939453,-10.350000381469727
1.01,76.80599212646484,15.476119995117188,-10.381258964538574,56.49004364013672,-67.94792938232422,-149.61868286132812,-29.400001525878906,10.200000762939453,-10.350000381469727
1.019,77.38059997558594,15.399505615234375,-10.955866813659668,56.22358322143555,-69.14701080322266,-140.82542419433594,-29.400001525878906,10.200000762939453,-10.350000381469727
1.039,78.14674377441406,16.395492553710938,-11.568782806396484,47.297088623046875,-66.08269500732422,-134.69677734375,-30.900001525878906,11.700000762939453,-10.800000190734863
1.043,80.13871765136719,16.81687355041504,-13.675680160522461,36.10566711425781,-58.4885139465332,-122.9724349975586,-28.200000762939453,10.950000762939453,-12.300000190734863
1.05,82.39884948730469,21.720197677612305,-15.284584045410156,20.784072875976562,-50.22817611694336,-121.64012145996094,-28.200000762939453,10.950000762939453,-12.300000190734863
1.06,81.59439086914062,19.613300323486328,-13.10107135772705,26.912710189819336,-52.89280319213867,-106.71822357177734,-27.450000762939453,10.5,-11.550000190734863
1.07,79.44918823242188,23.02264404296875,-15.131354331970215,24.781009674072266,-44.09954071044922,-99.25727081298828,-27.450000762939453,10.5,-11.550000190734863
1.08,78.14674377441406,24.823083877563477,-13.982137680053711,27.045940399169922,-37.70444107055664,-98.32465362548828,-27.150001525878906,12.450000762939453,-12.300000190734863
1.099,76.537841796875,24.9763126373291,-13.943830490112305,35.839202880859375,-41.30168533325195,-80.33843994140625,-27.150001525878906,12.90000057220459,-12.300000190734863
1.103,76.34630584716797,23.712173461914062,-13.943830490112305,35.705970764160156,-38.10413360595703,-70.87902069091797,-26.250001907348633,13.050000190734863,-12.450000762939453
1.11,74.7374038696289,22.141576766967773,-14.863204002380371,31.44257164001465,-40.23583221435547,-72.61102294921875,-26.250001907348633,13.050000190734863,-12.450000762939453
1.12,73.39664459228516,21.413740158081055,-14.403517723083496,26.64624786376953,-32.90811538696289,-58.888206481933594,-26.250001907348633,13.050000190734863,-12.450000762939453
1.13,75.00555419921875,19.99637222290039,-15.207969665527344,30.509952545166016,-38.77029037475586,-43.03369140625,-25.950000762939453,12.90000057220459,-11.850000381469727
1.14,75.38862609863281,21.030668258666992,-16.089035034179688,10.791729927062988,-30.776416778564453,-40.9019889831543,-25.200000762939453,14.100000381469727,-13.050000190734863
1.159,80.2536392211914,21.26051139831543,-18.34916114807129,-4.796324729919434,-14.788667678833008,-17.719755172729492,-24.450000762939453,14.850000381469727,-13.65000057220459
1.163,84.77389526367188,21.183897018432617,-22.90772247314453,-31.042879104614258,-1.0658499002456665,-0.5329249501228333,-24.900001525878906,12.90000057220459,-12.600000381469727
1.17,89.2558364868164,26.01060676574707,-24.401702880859375,-45.03215789794922,3.86370587348938,28.644716262817383,-24.900001525878906,12.90000057220459,-12.600000381469727
1.18,88.52799987792969,28.040889739990234,-26.393678665161133,-54.4915771484375,27.31240463256836,41.30168533325195,-26.400001525878906,14.40000057220459,-12.600000381469727
1.19,87.99169921875,28.92195701599121,-26.355371475219727,-50.09494400024414,37.97090148925781,63.28483963012695,-26.400001525878906,12.15000057220459,-12.300000190734863
1.2,86.49771881103516,28.117504119873047,-22.754493713378906,-28.511484146118164,41.434913635253906,72.0781021118164,-27.000001907348633,12.300000190734863,-11.700000762939453
1.218,84.85050964355469,23.9420166015625,-18.502389907836914,-10.791729927062988,29.84379768371582,92.46247863769531,-27.000001907348633,12.300000190734863,-11.700000762939453
1.222,82.70530700683594,19.115306854248047,-13.21599292755127,13.189892768859863,13.323123931884766,76.4747314453125,-25.80000114440918,11.550000190734863,-12.750000953674316
1.23,80.75163269042969,13.292608261108398,-11.568782806396484,19.45176124572754,8.793261528015137,94.19448852539062,-26.700000762939453,13.65000057220459,-11.850000381469727
1.24,78.75965881347656,8.695740699768066,-10.036493301391602,6.128636837005615,7.06125545501709,100.05665588378906,-27.150001525878906,11.40000057220459,-11.100000381469727
1.25,79.14273071289062,3.754108190536499,-9.84495735168457,-15.321592330932617,7.06125545501709,106.98468017578125,-26.55000114440918,11.850000381469727,-11.40000057220459
1.259,79.75564575195312,0.8044517636299133,-9.653421401977539,-27.445634841918945,10.658498764038086,112.18070220947266,-26.55000114440918,11.850000381469727,-11.40000057220459
1.279,75.12047576904297,-1.6855180263519287,-13.79060173034668,-43.30015182495117,13.189892768859863,114.71209716796875,-28.05000114440918,11.550000190734863,-11.700000762939453
1.283,72.4006576538086,-4.175487995147705,-17.468095779418945,-60.88667678833008,24.381317138671875,114.17916870117188,-28.950000762939453,12.15000057220459,-12.300000190734863
1.29,67.99533081054688,-9.308655738830566,-13.905523300170898,-74.20980072021484,29.84379768371582,109.11638641357422,-27.750001907348633,10.800000190734863,-11.700000762939453
1.3,67.68887329101562,-8.465897560119629,-11.875240325927734,-77.00765228271484,21.183767318725586,110.44869232177734,-27.750001907348633,11.550000190734863,-10.200000762939453
1.31,65.58197021484375,-10.304644584655762,-11.492168426513672,-98.99080657958984,22.915773391723633,113.3797836303711,-27.750001907348633,11.550000190734863,-10.200000762939453
1.32,65.3138198852539,-9.84495735168457,-10.879252433776855,-112.18070220947266,37.57120895385742,106.18529510498047,-29.55000114440918,11.100000381469727,-11.40000057220459
1.339,65.58197021484375,-10.036493301391602,-11.798625946044922,-114.97856140136719,31.842266082763672,94.59417724609375,-30.150001525878906,10.5,-10.350000381469727
1.342,67.38241577148438,-9.078812599182129,-12.373234748840332,-107.3843765258789,24.11485481262207,128.43490600585938,-29.55000114440918,9.15000057220459,-10.200000762939453
1.35,69.60423278808594,-7.2783732414245605,-13.21599292755127,-105.65237426757812,23.581928253173828,131.63246154785156,-29.400001525878906,9.75,-10.050000190734863
1.359,69.83407592773438,-7.814674377441406,-15.24627685546875,-100.18988800048828,33.30780792236328,124.30474090576172,-29.400001525878906,9.75,-10.050000190734863
1.37,72.05589294433594,-8.504204750061035,-17.50640296936035,-89.13169860839844,29.577335357666016,134.5635528564453,-28.80000114440918,8.850000381469727,-9.450000762939453
1.379,74.04786682128906,-10.457873344421387,-18.923770904541016,-83.40275573730469,35.57273864746094,134.29708862304688,-31.200000762939453,9.0,-9.0
1.399,77.99351501464844,-12.986149787902832,-19.49837875366211,-92.19601440429688,47.430320739746094,130.1669158935547,-32.400001525878906,8.700000762939453,-7.500000476837158
1.403,79.41088104248047,-15.361198425292969,-18.579004287719727,-100.05665588378906,53.69218826293945,130.96630859375,-32.25,8.850000381469727,-8.700000762939453
1.41,85.11865997314453,-16.433799743652344,-16.81687355041504,-104.05359649658203,52.226646423339844,137.62786865234375,-32.25,8.850000381469727,-8.700000762939453
1.42,84.77389526367188,-17.353174209594727,-16.931795120239258,-116.9770278930664,56.356815338134766,137.09494018554688,-31.650001525878906,7.800000190734863,-6.750000476837158
1.43,85.88480377197266,-16.81687355041504,-15.169661521911621,-144.1562042236328,62.21898651123047,126.7029037475586,-31.500001907348633,6.900000095367432,-6.900000095367432
1.44,85.08035278320312,-15.85919189453125,-14.595053672790527,-155.6140899658203,57.02296829223633,136.4287872314453,-33.0,6.150000095367432,-7.950000286102295
1.459,83.58637237548828,-13.21599292755127,-13.21599292755127,-182.2603302001953,51.82695007324219,144.55589294433594,-33.30000305175781,6.150000095367432,-6.900000095367432
1.462,78.83627319335938,-7.469909191131592,-14.135366439819336,-194.38436889648438,57.15620040893555,142.5574188232422,-33.30000305175781,6.150000095367432,-6.900000095367432
1.47,78.14674377441406,-5.937620162963867,-15.169661521911621,-208.90658569335938,50.76110076904297,156.28024291992188,-33.0,4.950000286102295,-6.600000381469727
1.48,76.92091369628906,-4.022258758544922,-15.514427185058594,-199.31393432617188,38.23736572265625,170.66921997070312,-34.650001525878906,5.550000190734863,-4.5
1.49,75.46524047851562,-0.4596867263317108,-15.322891235351562,-195.71669006347656,31.709033966064453,176.13169860839844,-34.05000305175781,3.0,-4.350000381469727
1.5,73.24341583251953,1.9153614044189453,-14.173673629760742,-181.59417724609375,29.177640914916992,159.8774871826172,-35.400001525878906,3.1500000953674316,-3.750000238418579
1.518,73.0901870727539,4.520252704620361,-13.943830490112305,-164.80703735351562,23.04900360107422,179.19601440429688,-35.400001525878906,3.1500000953674316,-3.750000238418579
1.521,71.28974914550781,3.026270866394043,-14.058752059936523,-150.151611328125,6.794793128967285,181.3277130126953,-35.400001525878906,3.1500000953674316,-3.750000238418579
1.53,71.97927856445312,3.294421434402466,-15.705963134765625,-143.09034729003906,9.992342948913574,191.8529815673828,-34.95000076293945,2.1000001430511475,-3.0
1.539,71.74943542480469,1.5705963373184204,-15.399505615234375,-125.90351867675781,9.326186180114746,190.1209716796875,-35.70000076293945,2.8500001430511475,-2.700000047683716
1.55,69.60423278808594,0.38307225704193115,-16.203956604003906,-104.45329284667969,-0.6661561727523804,192.51913452148438,-35.70000076293945,2.1000001430511475,-1.6500000953674316
1.56,70.21714782714844,-2.9496564865112305,-14.97812557220459,-96.99234008789062,-1.7320060729980469,194.2511444091797,-36.0,1.8000000715255737,-2.1000001430511475
1.579,68.91470336914062,-5.477933406829834,-16.81687355041504,-96.45941925048828,6.9280242919921875,187.58958435058594,-36.45000076293945,-0.9000000357627869,-1.6500000953674316
1.583,68.1102523803711,-10.266336441040039,-17.583017349243164,-90.73047637939453,6.261868000030518,187.1898956298828,-36.45000076293945,-0.9000000357627869,-1.6500000953674316
1.59,67.5739517211914,-11.1474027633667,-16.970102310180664,-85.13475799560547,9.326186180114746,182.2603302001953,-38.55000305175781,-0.75,-3.3000001907348633
1.7,71.59620666503906,-6.550535678863525,-14.211980819702148,-111.24808502197266,37.304744720458984,105.91883087158203,-36.900001525878906,-5.850000381469727,-0.15000000596046448
1.71,73.77971649169922,-6.512228488922119,-14.058752059936523,-92.99540710449219,41.434913635253906,98.4578857421875,-39.900001525878906,-8.25,-0.15000000596046448
1.72,74.2394027709961,-4.558559894561768,-14.058752059936523,-90.33078002929688,32.5084228515625,112.84685516357422,-39.900001525878906,-8.25,-0.15000000596046448
1.73,76.65276336669922,-1.723825216293335,-13.139378547668457,-81.40428924560547,34.373661041259766,104.5865249633789,-38.25,-7.650000095367432,1.0500000715255737
1.749,77.22737121582031,-2.4899697303771973,-14.173673629760742,-73.81010437011719,36.5053596496582,92.3292465209961,-37.650001525878906,-7.800000190734863,-0.15000000596046448
1.753,78.3382797241211,-2.9879636764526367,-15.093047142028809,-59.95405578613281,42.76722717285156,96.05972290039062,-39.0,-9.600000381469727,1.350000023841858
1.76,80.2536392211914,-2.604891538619995,-15.782577514648438,-44.09954071044922,34.24042892456055,88.73200225830078,-40.5,-8.100000381469727,2.5500001907348633
1.77,81.82423400878906,-4.9799394607543945,-16.012420654296875,-34.373661041259766,35.839202880859375,72.47779083251953,-40.5,-8.100000381469727,2.5500001907348633
1.78,84.08436584472656,-5.171475887298584,-14.595053672790527,-31.176109313964844,40.36906433105469,67.28177642822266,-38.400001525878906,-9.75,1.2000000476837158
1.79,86.45941162109375,-3.4093432426452637,-14.403517723083496,-15.055130004882812,33.30780792236328,70.21286010742188,-38.70000076293945,-9.75,0.15000000596046448
1.809,87.07232666015625,-4.903325080871582,-14.480132102966309,-8.526799201965332,39.569679260253906,55.29096221923828,-39.45000076293945,-10.950000762939453,2.700000047683716
1.813,87.22555541992188,-5.5545477867126465,-16.1656494140625,0.7993874549865723,39.43644714355469,47.0306282043457,-40.05000305175781,-10.350000381469727,2.5500001907348633
1.82,85.80818939208984,-8.197746276855469,-16.395492553710938,9.592649459838867,40.635528564453125,30.110260009765625,-40.05000305175781,-10.350000381469727,2.5500001907348633
1.83,86.03803253173828,-7.546523571014404,-16.433799743652344,17.32006072998047,36.771820068359375,37.70444107055664,-38.25,-11.850000381469727,3.9000000953674316
1.84,84.58235931396484,-11.760318756103516,-15.437812805175781,25.447166442871094,39.569679260253906,13.056661605834961,-38.400001525878906,-10.950000762939453,1.6500000953674316
1.85,85.69326782226562,-10.496180534362793,-13.48414421081543,40.23583221435547,35.17304611206055,33.57427215576172,-38.55000305175781,-10.350000381469727,2.5500001907348633
1.869,91.20951080322266,-12.90953540802002,-11.568782806396484,30.643184661865234,27.578866958618164,19.052066802978516,-39.30000305175781,-11.100000381469727,2.5500001907348633
1.873,95.34668731689453,-14.633360862731934,-7.010222434997559,36.905052185058594,27.84532928466797,-16.12097930908203,-39.45000076293945,-12.90000057220459,3.750000238418579
1.88,100.21170806884766,-18.464082717895508,-5.477933406829834,48.362937927246094,27.31240463256836,-32.64165496826172,-39.45000076293945,-12.90000057220459,3.750000238418579
1.89,99.9052505493164,-20.532672882080078,-10.41956615447998,66.08269500732422,13.856048583984375,-47.696781158447266,-39.900001525878906,-11.700000762939453,3.450000047683716
1.9,97.26204681396484,-23.405715942382812,-16.970102310180664,65.81623077392578,22.382848739624023,-49.82848358154297,-39.0,-10.800000190734863,3.9000000953674316
1.91,92.93333435058594,-23.788787841796875,-20.30282974243164,80.33843994140625,14.388973236083984,-56.356815338134766,-39.0,-10.050000190734863,2.8500001430511475
1.93,92.93333435058594,-23.597251892089844,-17.544710159301758,64.48391723632812,34.373661041259766,-66.882080078125,-39.0,-10.050000190734863,2.8500001430511475
1.933,92.39703369140625,-21.75850486755371,-13.407529830932617,78.47319793701172,16.25421142578125,-61.81929397583008,-37.5,-10.800000190734863,3.9000000953674316
1.94,91.13289642333984,-21.75850486755371,-11.453861236572266,80.33843994140625,12.656967163085938,-70.07962799072266,-37.5,-10.800000190734863,3.9000000953674316
1.95,89.67721557617188,-21.643583297729492,-12.066776275634766,74.74272155761719,16.12097930908203,-81.13782501220703,-37.80000305175781,-11.550000190734863,3.6000001430511475
1.96,88.22154235839844,-20.226215362548828,-13.637372970581055,85.4012222290039,9.72588062286377,-97.92495727539062,-37.5,-11.100000381469727,4.650000095367432
1.97,86.95740509033203,-18.77054214477539,-12.986149787902832,103.12097930908203,-0.5329249501228333,-90.73047637939453,-38.25,-10.350000381469727,5.400000095367432
1.989,84.12267303466797,-15.552734375,-11.185709953308105,120.84072875976562,-6.9280242919921875,-91.3966293334961,-38.25,-10.350000381469727,5.400000095367432
1.993,80.1770248413086,-10.41956615447998,-10.074800491333008,156.41346740722656,-24.11485481262207,-94.46094512939453,-39.150001525878906,-9.0,4.950000286102295
2.0,75.50354766845703,-7.469909191131592,-9.576807022094727,173.73353576660156,-31.975496292114258,-94.59417724609375,-39.150001525878906,-9.0,4.950000286102295
2.01,75.61846923828125,-5.363011837005615,-8.159439086914062,199.31393432617188,-40.102603912353516,-96.05972290039062,-38.70000076293945,-10.5,4.5
2.02,71.40467071533203,-4.290409564971924,-7.048529624938965,214.63552856445312,-51.027565002441406,-112.18070220947266,-37.80000305175781,-10.050000190734863,4.350000381469727
2.03,69.52761840820312,-4.596867084503174,-4.098873138427734,237.01837158203125,-63.018375396728516,-111.64777374267578,-37.80000305175781,-10.050000190734863,4.350000381469727
2.049,69.91069030761719,-5.20978307723999,-0.3064578175544739,262.99847412109375,-79.9387435913086,-117.37671661376953,-40.05000305175781,-8.100000381469727,6.150000095367432
2.053,68.99131774902344,-5.5545477867126465,3.4093432426452637,299.23736572265625,-100.18988800048828,-137.22817993164062,-38.400001525878906,-6.750000476837158,4.950000286102295
2.06,69.64253997802734,-9.193734169006348,6.818686485290527,303.7672119140625,-103.7871322631836,-146.0214385986328,-39.45000076293945,-6.300000190734863,3.0
2.07,71.59620666503906,-12.373234748840332,7.469909191131592,324.2848205566406,-121.10719299316406,-159.47779846191406,-39.45000076293945,-6.300000190734863,3.0
2.08,72.17081451416016,-16.318878173828125,9.423578262329102,333.0780944824219,-127.10260009765625,-171.7350616455078,-39.45000076293945,-6.300000190734863,3.0
2.09,75.42693328857422,-19.000385284423828,11.185709953308105,334.0107116699219,-121.90658569335938,-190.9203643798828,-39.75,-5.400000095367432,2.1000001430511475
2.109,76.76768493652344,-24.05693817138672,10.72602367401123,327.4823913574219,-123.2388916015625,-191.8529815673828,-39.0,-3.750000238418579,1.0500000715255737
2.112,79.10442352294922,-27.121517181396484,10.41956615447998,314.6921691894531,-127.76875305175781,-210.90504455566406,-39.0,-4.200000286102295,2.5500001907348633
2.12,81.4028549194336,-33.365596771240234,9.576807022094727,285.64776611328125,-122.03981018066406,-228.6248016357422,-39.0,-4.200000286102295,2.5500001907348633
2.13,82.89684295654297,-34.3998908996582,10.074800491333008,243.5467071533203,-121.64012145996094,-237.41806030273438,-37.650001525878906,-2.4000000953674316,0.15000000596046448
2.14,84.58235931396484,-35.85556411743164,7.5848307609558105,206.24195861816406,-115.91117858886719,-252.73965454101562,-38.25,-0.75,-1.350000023841858
2.15,85.5017318725586,-36.35355758666992,4.367023944854736,167.73812866210938,-109.38284301757812,-256.86981201171875,-36.900001525878906,-0.45000001788139343,-1.9500000476837158
2.17,83.54806518554688,-37.11970138549805,-0.8044517636299133,127.23583221435547,-91.3966293334961,-268.9938659667969,-37.80000305175781,0.0,-2.5500001907348633
2.173,80.52178955078125,-33.288978576660156,-4.367023944854736,83.26952362060547,-82.47013854980469,-264.4640197753906,-37.80000305175781,0.0,-2.5500001907348633
2.18,75.19709014892578,-30.760704040527344,-7.814674377441406,70.74578857421875,-76.60796356201172,-276.05511474609375,-36.30000305175781,4.200000286102295,-2.8500001430511475
2.19,74.35432434082031,-27.044902801513672,-8.580819129943848,55.69065856933594,-74.34303283691406,-267.5283203125,-34.95000076293945,2.8500001430511475,-3.450000047683716
2.2,72.66880798339844,-20.072986602783203,-7.5848307609558105,37.03828430175781,-67.94792938232422,-266.72894287109375,-35.400001525878906,3.6000001430511475,-3.750000238418579
2.21,71.40467071533203,-13.675680160522461,-9.193734169006348,20.117916107177734,-67.01531219482422,-255.40428161621094,-35.55000305175781,4.950000286102295,-3.6000001430511475
2.229,70.48529815673828,-9.078812599182129,-7.6997528076171875,19.718223571777344,-69.14701080322266,-239.81622314453125,-35.55000305175781,4.950000286102295,-3.6000001430511475
2.233,70.52360534667969,-3.869029998779297,-6.167463779449463,24.781009674072266,-69.14701080322266,-222.76263427734375,-33.900001525878906,6.300000190734863,-4.5
2.24,69.71915435791016,0.0,-5.439626216888428,21.716691970825195,-63.018375396728516,-210.77182006835938,-34.95000076293945,7.050000190734863,-6.0
2.25,69.87238311767578,2.3367409706115723,-4.558559894561768,33.84073257446289,-78.07350158691406,-200.91270446777344,-34.05000305175781,9.15000057220459,-5.100000381469727
2.26,69.9873046875,3.907337188720703,-5.784391403198242,36.5053596496582,-80.8713607788086,-191.4532928466797,-33.30000305175781,10.050000190734863,-4.650000095367432
2.269,68.41670989990234,4.750096321105957,-7.201758861541748,37.304744720458984,-72.74425506591797,-187.3231201171875,-33.30000305175781,10.050000190734863,-4.650000095367432
2.288,66.8844223022461,4.022258758544922,-8.274360656738281,40.635528564453125,-75.40888214111328,-175.7320098876953,-31.200000762939453,11.700000762939453,-7.800000190734863
2.292,66.00334930419922,1.9919757843017578,-6.780379295349121,36.5053596496582,-69.81317138671875,-170.13629150390625,-33.45000076293945,11.700000762939453,-5.700000286102295
2.3,65.77350616455078,2.9496564865112305,-6.473921298980713,24.11485481262207,-69.28024291992188,-179.32923889160156,-32.25,10.350000381469727,-6.150000095367432
2.31,64.89244079589844,3.141192674636841,-6.3973069190979,17.186830520629883,-67.41500854492188,-177.46400451660156,-31.05000114440918,11.850000381469727,-6.900000095367432
2.32,65.73519897460938,5.094861030578613,-7.6997528076171875,1.3323123455047607,-67.68146514892578,-167.2052001953125,-31.05000114440918,11.850000381469727,-6.900000095367432
2.33,63.13031005859375,4.711789131164551,-8.772355079650879,-11.191424369812012,-63.551300048828125,-153.882080078125,-29.400001525878906,12.450000762939453,-7.800000190734863
2.349,63.55168914794922,5.5545477867126465,-9.155426979064941,-35.705970764160156,-54.4915771484375,-160.94332885742188,-28.650001525878906,13.200000762939453,-8.25
2.352,66.04165649414062,10.764330863952637,-7.354987621307373,-48.49617004394531,-57.422664642333984,-153.34915161132812,-29.250001907348633,14.550000190734863,-7.650000095367432
2.359,66.07996368408203,12.871228218078613,-8.08282470703125,-56.09035110473633,-57.822357177734375,-144.1562042236328,-29.700000762939453,15.15000057220459,-8.550000190734863
2.37,67.15257263183594,16.740259170532227,-7.6997528076171875,-71.94486999511719,-50.09494400024414,-133.89739990234375,-29.700000762939453,15.15000057220459,-8.550000190734863
2.38,68.07194519042969,19.306842803955078,-9.691728591918945,-75.40888214111328,-44.89892578125,-129.2342987060547,-29.700000762939453,15.15000057220459,-8.550000190734863
2.39,69.25946807861328,23.597251892089844,-12.334927558898926,-74.60948944091797,-47.830013275146484,-108.050537109375,-28.950000762939453,16.80000114440918,-8.25
2.405,70.17884063720703,26.355371475219727,-15.437812805175781,-70.21286010742188,-21.45022964477539,-91.52986145019531,-29.400001525878906,14.850000381469727,-7.050000190734863
2.41,73.24341583251953,29.994558334350586,-20.379444122314453,-67.5482406616211,-16.12097930908203,-81.93721008300781,-27.750001907348633,17.400001525878906,-7.350000381469727
2.42,74.89063262939453,32.484527587890625,-20.609289169311523,-45.96477508544922,-9.326186180114746,-65.28330993652344,-27.30000114440918,16.5,-7.650000095367432
2.43,77.26567840576172,33.82528305053711,-20.95405387878418,-22.782541275024414,-7.194486618041992,-58.62174606323242,-27.30000114440918,16.5,-7.650000095367432
2.44,80.36856079101562,37.617698669433594,-20.149600982666016,0.1332312375307083,5.462480545043945,-51.560489654541016,-27.30000114440918,16.950000762939453,-6.600000381469727
2.449,81.05809020996094,38.15399932861328,-19.345149993896484,22.915773391723633,3.0643184185028076,-32.5084228515625,-26.55000114440918,18.450000762939453,-6.600000381469727
2.468,84.62066650390625,36.8515510559082,-17.62132453918457,42.633995056152344,-4.663093090057373,-9.459418296813965,-28.05000114440918,17.700000762939453,-6.600000381469727
2.472,90.02198028564453,30.952239990234375,-16.242263793945312,45.56508255004883,-11.724349021911621,3.86370587348938,-28.05000114440918,17.700000762939453,-6.600000381469727
2.48,90.36675262451172,29.573179244995117,-15.399505615234375,32.108726501464844,-8.926492691040039,9.992342948913574,-28.05000114440918,17.700000762939453,-6.600000381469727
2.49,90.86474609375,28.040889739990234,-16.70195198059082,24.381317138671875,-9.459418296813965,30.110260009765625,-26.700000762939453,16.350000381469727,-7.800000190734863
2.5,89.90705871582031,26.01060676574707,-17.468095779418945,3.0643184185028076,-3.86370587348938,42.633995056152344,-27.750001907348633,16.5,-6.600000381469727
2.518,90.94136047363281,25.052927017211914,-19.19192123413086,-22.249616622924805,16.25421142578125,47.0306282043457,-26.400001525878906,17.100000381469727,-7.050000190734863
2.522,94.88700103759766,22.333112716674805,-24.554933547973633,-52.493106842041016,36.238895416259766,31.975496292114258,-26.55000114440918,17.400001525878906,-7.350000381469727
2.53,99.2157211303711,19.919757843017578,-26.85336685180664,-66.21592712402344,37.4379768371582,61.68606185913086,-26.55000114440918,17.400001525878906,-7.350000381469727
2.54,97.18543243408203,23.02264404296875,-26.85336685180664,-92.99540710449219,43.56661605834961,88.99846649169922,-27.900001525878906,15.600000381469727,-7.500000476837158
2.55,93.08656311035156,27.619510650634766,-27.77273941040039,-108.3169937133789,64.61714935302734,104.98621368408203,-28.200000762939453,16.350000381469727,-7.800000190734863
2.559,86.53602600097656,33.44221115112305,-27.542896270751953,-88.73200225830078,57.289432525634766,140.6921844482422,-27.900001525878906,15.90000057220459,-5.25
2.57,82.78192138671875,35.54910659790039,-22.409727096557617,-61.9525260925293,55.29096221923828,156.5467071533203,-28.950000762939453,15.90000057220459,-5.25
2.585,83.01176452636719,36.008792877197266,-15.399505615234375,-14.92189884185791,29.044410705566406,158.4119415283203,-29.55000114440918,16.200000762939453,-4.350000381469727
2.59,81.74761962890625,22.37141990661621,-6.473921298980713,10.392036437988281,7.594180583953857,156.28024291992188,-29.55000114440918,16.200000762939453,-4.350000381469727
2.6,80.90486145019531,15.322891235351562,-5.5545477867126465,21.45022964477539,-20.517610549926758,144.02296447753906,-30.750001907348633,14.550000190734863,-6.150000095367432
2.61,78.07012939453125,1.5705963373184204,-7.8529815673828125,18.119447708129883,-34.906585693359375,141.6248016357422,-31.500001907348633,15.000000953674316,-5.850000381469727
2.619,75.15878295898438,-8.580819129943848,-12.832921028137207,-17.852985382080078,-21.716691970825195,140.5589599609375,-30.750001907348633,13.800000190734863,-4.350000381469727
2.638,69.29777526855469,-16.203956604003906,-18.617311477661133,-42.500762939453125,-10.525267601013184,152.54977416992188,-30.750001907348633,13.800000190734863,-4.350000381469727
2.643,64.35614013671875,-19.728221893310547,-21.643583297729492,-82.86982727050781,17.719755172729492,164.5405731201172,-30.30000114440918,14.250000953674316,-5.400000095367432
2.65,62.555702209472656,-19.345149993896484,-17.468095779418945,-104.98621368408203,35.972434997558594,166.1393585205078,-31.200000762939453,14.40000057220459,-4.5
2.66,62.01940155029297,-18.693927764892578,-13.943830490112305,-113.64624786376953,44.76569747924805,165.07350158691406,-32.55000305175781,11.850000381469727,-4.350000381469727
2.67,64.54767608642578,-14.824896812438965,-10.955866813659668,-104.05359649658203,35.306278228759766,170.93568420410156,-30.750001907348633,10.800000190734863,-4.650000095367432
2.68,65.2372055053711,-14.824896812438965,-11.338939666748047,-113.11331939697266,35.839202880859375,168.0045928955078,-30.750001907348633,10.800000190734863,-4.650000095367432
2.698,66.4630355834961,-16.778566360473633,-13.905523300170898,-118.97549438476562,48.362937927246094,145.6217498779297,-33.900001525878906,9.0,-5.700000286102295
2.703,68.45501708984375,-18.157625198364258,-17.42978858947754,-132.83154296875,55.95711898803711,155.747314453125,-34.05000305175781,11.100000381469727,-2.8500001430511475
2.71,74.00955963134766,-19.460071563720703,-18.464082717895508,-134.03062438964844,50.22817611694336,150.151611328125,-34.05000305175781,11.100000381469727,-2.8500001430511475
2.72,76.61445617675781,-19.07699966430664,-19.536685943603516,-155.88055419921875,67.68146514892578,158.9448699951172,-34.20000076293945,9.450000762939453,-4.950000286102295
2.73,79.98548889160156,-17.50640296936035,-17.659631729125977,-174.66615295410156,65.15007781982422,161.47625732421875,-34.20000076293945,9.450000762939453,-4.950000286102295
2.74,82.78192138671875,-13.599065780639648,-15.974113464355469,-182.39356994628906,60.08728790283203,173.73353576660156,-33.900001525878906,7.500000476837158,-1.6500000953674316
2.759,83.47145080566406,-11.568782806396484,-15.591041564941406,-193.45175170898438,60.08728790283203,184.39202880859375,-37.5,6.900000095367432,-1.350000023841858
2.763,83.16499328613281,-8.121131896972656,-14.824896812438965,-202.511474609375,58.355281829833984,186.79019165039062,-35.400001525878906,4.800000190734863,-1.6500000953674316
2.77,79.18103790283203,-3.8307228088378906,-14.09705924987793,-195.31700134277344,51.160797119140625,201.31239318847656,-35.400001525878906,4.800000190734863,-1.6500000953674316
2.78,78.75965881347656,-2.7964274883270264,-14.633360862731934,-186.5237274169922,43.83307647705078,196.915771484375,-35.400001525878906,4.800000190734863,-1.6500000953674316
2.79,75.84831237792969,-0.6512228846549988,-13.675680160522461,-183.5926513671875,47.9632453918457,200.5130157470703,-35.400001525878906,4.800000190734863,-1.6500000953674316
2.8,73.0518798828125,2.6815059185028076,-13.637372970581055,-163.74119567871094,43.56661605834961,203.57733154296875,-36.45000076293945,3.6000001430511475,1.6500000953674316
2.819,70.37037658691406,2.3750481605529785,-13.369222640991211,-151.88360595703125,32.24195861816406,214.90199279785156,-37.20000076293945,4.800000190734863,1.2000000476837158
2.823,67.99533081054688,3.026270866394043,-13.675680160522461,-134.83001708984375,31.975496292114258,214.10260009765625,-37.95000076293945,2.1000001430511475,0.9000000357627869
2.83,66.34811401367188,2.5665841102600098,-14.173673629760742,-126.96936798095703,34.64012145996094,208.24041748046875,-37.95000076293945,2.1000001430511475,0.9000000357627869
2.839,65.2755126953125,1.800439715385437,-14.288596153259277,-106.71822357177734,18.119447708129883,212.1041259765625,-37.95000076293945,2.1000001430511475,0.9000000357627869
2.85,64.0113754272461,1.1875240802764893,-15.284584045410156,-93.52832794189453,13.856048583984375,209.83920288085938,-38.55000305175781,2.700000047683716,2.1000001430511475
2.86,65.3138198852539,1.37906014919281,-16.931795120239258,-75.5421142578125,18.91883659362793,203.8437957763672,-39.45000076293945,1.350000023841858,2.700000047683716
2.879,62.977081298828125,0.4213795065879822,-16.47210693359375,-62.485450744628906,23.98162269592285,202.77793884277344,-37.95000076293945,0.15000000596046448,1.6500000953674316
2.883,64.54767608642578,-2.3367409706115723,-16.242263793945312,-45.56508255004883,23.448698043823242,191.71975708007812,-39.150001525878906,-0.15000000596046448,1.6500000953674316
2.89,66.07996368408203,-3.5625722408294678,-13.943830490112305,-36.372127532958984,18.119447708129883,206.6416473388672,-39.150001525878906,-0.15000000596046448,1.6500000953674316
2.9,66.23319244384766,-7.048529624938965,-13.292608261108398,-42.90045928955078,16.12097930908203,192.91883850097656,-39.75,-3.0,3.9000000953674316
2.909,65.888427734375,-9.653421401977539,-12.258312225341797,-36.63859176635742,8.793261528015137,217.96630859375,-40.80000305175781,-3.450000047683716,2.5500001907348633
2.92,65.39043426513672,-11.645397186279297,-11.798625946044922,-44.36600112915039,15.188361167907715,184.79173278808594,-40.05000305175781,-5.400000095367432,3.6000001430511475
2.939,64.73921203613281,-15.897499084472656,-12.679692268371582,-52.226646423339844,24.781009674072266,163.20826721191406,-42.0,-5.400000095367432,2.8500001430511475
2.942,65.2372055053711,-19.536685943603516,-12.449849128723145,-67.68146514892578,29.7105655670166,144.82235717773438,-39.0,-5.700000286102295,2.8500001430511475
2.95,65.62027740478516,-20.264522552490234,-12.986149787902832,-69.67993927001953,31.309341430664062,145.88819885253906,-39.0,-5.700000286102295,2.8500001430511475
2.959,66.27149963378906,-21.14558982849121,-12.717999458312988,-85.53445434570312,41.967838287353516,139.89280700683594,-39.900001525878906,-8.25,3.0
2.97,68.87639617919922,-22.524648666381836,-13.79060173034668,-112.18070220947266,53.026031494140625,123.63858795166016,-40.05000305175781,-7.650000095367432,3.9000000953674316
2.98,71.90266418457031,-20.915746688842773,-13.10107135772705,-119.10872650146484,55.95711898803711,110.04900360107422,-40.05000305175781,-7.650000095367432,3.9000000953674316
2.999,75.46524047851562,-20.30282974243164,-13.062764167785645,-131.36599731445312,59.82082748413086,106.4517593383789,-39.75,-7.650000095367432,3.9000000953674316
3.003,79.41088104248047,-15.974113464355469,-13.177685737609863,-144.2894287109375,65.68299865722656,96.72587585449219,-41.70000076293945,-9.450000762939453,5.700000286102295
3.01,85.84649658203125,-12.756306648254395,-14.824896812438965,-151.35069274902344,71.54517364501953,94.86064147949219,-42.0,-9.600000381469727,5.400000095367432
3.02,86.1146469116211,-7.814674377441406,-15.591041564941406,-132.43185424804688,67.28177642822266,89.13169860839844,-40.95000076293945,-9.75,4.950000286102295
3.03,87.60862731933594,-4.558559894561768,-18.04270362854004,-115.2450180053711,72.21133422851562,90.4640121459961,-40.95000076293945,-9.75,4.950000286102295
3.04,88.29815673828125,-1.9536685943603516,-18.502389907836914,-98.59111785888672,79.2725830078125,83.80245208740234,-43.20000076293945,-10.200000762939453,6.0
3.059,87.76185607910156,0.1149216815829277,-17.238252639770508,-65.016845703125,67.94792938232422,77.67381286621094,-41.400001525878906,-12.15000057220459,6.750000476837158
3.062,88.10662078857422,-0.9576807022094727,-17.889474868774414,-39.03675079345703,71.14547729492188,65.28330993652344,-42.0,-11.850000381469727,6.150000095367432
3.07,87.91508483886719,-3.4093432426452637,-16.127342224121094,-29.177640914916992,62.485450744628906,65.81623077392578,-41.25,-11.550000190734863,6.150000095367432
3.08,88.25984954833984,-6.01423454284668,-16.203956604003906,-18.119447708129883,63.551300048828125,55.15773391723633,-41.25,-11.550000190734863,6.150000095367432
3.09,88.18323516845703,-7.4316020011901855,-14.36521053314209,-6.261868000030518,53.159263610839844,46.897396087646484,-40.80000305175781,-12.300000190734863,8.700000762939453
3.1,87.91508483886719,-9.998186111450195,-13.330915451049805,-9.992342948913574,58.754974365234375,34.24042892456055,-42.150001525878906,-12.90000057220459,6.750000476837158
3.119,88.6046142578125,-10.879252433776855,-12.334927558898926,-16.12097930908203,48.362937927246094,7.327718257904053,-41.25,-12.300000190734863,7.950000286102295
3.122,95.1168441772461,-9.691728591918945,-7.048529624938965,3.597243309020996,43.96630859375,15.188361167907715,-41.70000076293945,-12.90000057220459,7.800000190734863
3.13,97.0322036743164,-7.201758861541748,-6.090848922729492,10.258805274963379,37.97090148925781,7.194486618041992,-41.70000076293945,-12.90000057220459,7.800000190734863
3.139,99.79032897949219,-8.542511940002441,-3.179499864578247,12.25727367401123,35.306278228759766,-7.594180583953857,-41.25,-13.500000953674316,7.950000286102295
3.15,103.12305450439453,-11.224017143249512,-2.3750481605529785,39.70290756225586,23.182235717773438,-31.44257164001465,-41.70000076293945,-12.450000762939453,8.550000190734863
3.16,99.67540740966797,-10.457873344421387,-4.32871675491333,60.75344467163086,4.263399600982666,-31.975496292114258,-42.75,-13.050000190734863,10.950000762939453
3.179,94.19747161865234,-11.453861236572266,-7.891288757324219,82.33690643310547,-2.9310872554779053,-50.4946403503418,-41.400001525878906,-12.90000057220459,9.0
3.183,93.62286376953125,-15.361198425292969,-9.53849983215332,90.33078002929688,7.194486618041992,-63.684532165527344,-41.400001525878906,-12.90000057220459,9.0
3.19,90.97966766357422,-19.49837875366211,-9.423578262329102,101.52220153808594,-5.995405673980713,-58.888206481933594,-42.30000305175781,-11.550000190734863,7.350000381469727
3.2,89.37075805664062,-22.677879333496094,-8.389283180236816,102.58805084228516,-2.6646246910095215,-87.53292083740234,-42.0,-11.550000190734863,9.450000762939453
3.21,88.25984954833984,-24.286781311035156,-8.312667846679688,106.05206298828125,-3.4640121459960938,-92.59571075439453,-42.0,-11.850000381469727,7.350000381469727
3.22,86.57433319091797,-26.048913955688477,-7.661445617675781,111.64777374267578,-11.591117858886719,-106.85145568847656,-43.05000305175781,-10.350000381469727,8.40000057220459
3.239,84.85050964355469,-24.286781311035156,-7.393294811248779,125.7702865600586,-28.644716262817383,-117.64318084716797,-43.05000305175781,-10.350000381469727,8.40000057220459
3.243,80.29194641113281,-18.34916114807129,-8.35097599029541,136.9617156982422,-36.905052185058594,-119.37519073486328,-41.25,-11.100000381469727,8.40000057220459
3.25,80.56009674072266,-15.935806274414062,-9.117119789123535,141.4915771484375,-31.575803756713867,-129.50076293945312,-42.30000305175781,-11.100000381469727,9.15000057220459
3.26,77.763671875,-14.786589622497559,-8.427590370178223,162.5421142578125,-54.89126968383789,-129.90045166015625,-40.650001525878906,-10.200000762939453,7.800000190734863
3.27,75.42693328857422,-11.224017143249512,-7.393294811248779,185.32464599609375,-65.54976654052734,-128.56814575195312,-42.900001525878906,-8.700000762939453,7.500000476837158
3.28,73.16680145263672,-8.810662269592285,-5.899312973022461,206.1087188720703,-70.3460922241211,-136.69525146484375,-42.900001525878906,-8.700000762939453,7.500000476837158
3.299,72.32404327392578,-6.665457725524902,-3.869029998779297,234.75343322753906,-76.4747314453125,-138.16079711914062,-41.70000076293945,-6.300000190734863,6.750000476837158
3.303,70.75344848632812,-6.588842868804932,-1.4939818382263184,274.8560485839844,-106.85145568847656,-148.15313720703125,-42.75,-7.200000286102295,6.900000095367432
3.31,72.4772720336914,-9.117119789123535,2.3750481605529785,283.78253173828125,-116.31086730957031,-151.75038146972656,-42.30000305175781,-6.900000095367432,4.650000095367432
3.32,73.47325897216797,-11.530475616455078,2.911349296569824,290.7105712890625,-118.70903015136719,-167.6049041748047,-42.900001525878906,-6.300000190734863,6.0
3.33,75.31201171875,-14.748282432556152,4.290409564971924,310.1623229980469,-130.03369140625,-198.9142303466797,-42.900001525878906,-6.300000190734863,6.0
3.34,76.69107055664062,-17.583017349243164,4.788403511047363,308.1638488769531,-133.6309356689453,-187.1898956298828,-42.900001525878906,-6.300000190734863,6.0
3.359,78.14674377441406,-21.605276107788086,6.818686485290527,287.9126892089844,-135.22970581054688,-189.85450744628906,-42.0,-1.5,0.30000001192092896
3.363,80.75163269042969,-28.960264205932617,6.01423454284668,257.9356689453125,-132.56507873535156,-216.50076293945312,-42.0,-1.5,0.30000001192092896
3.37,81.63269805908203,-29.76471519470215,5.861005783081055,242.34762573242188,-138.02755737304688,-209.4394989013672,-42.45000076293945,-3.6000001430511475,2.700000047683716
3.38,82.24561309814453,-29.879636764526367,5.056553840637207,210.1056671142578,-135.76263427734375,-225.69371032714844,-40.5,-0.30000001192092896,1.350000023841858
3.39,80.59840393066406,-31.948226928710938,4.175487995147705,174.53292846679688,-124.03828430175781,-243.14700317382812,-40.5,-0.30000001192092896,1.350000023841858
3.4,80.56009674072266,-31.90991973876953,1.6089035272598267,143.62327575683594,-125.37059783935547,-245.14547729492188,-41.25,-0.75,-0.30000001192092896
3.412,78.10843658447266,-28.270732879638672,-1.5322890281677246,122.43950653076172,-107.11791229248047,-262.1990661621094,-40.20000076293945,0.15000000596046448,-0.15000000596046448
3.42,75.9249267578125,-25.627534866333008,-5.056553840637207,98.32465362548828,-92.3292465209961,-267.9280090332031,-39.900001525878906,1.6500000953674316,-2.25
3.43,75.04386138916016,-23.865402221679688,-4.750096321105957,83.26952362060547,-86.46707153320312,-270.5926513671875,-40.95000076293945,2.8500001430511475,-1.6500000953674316
3.44,72.4006576538086,-20.800825119018555,-6.129156112670898,71.41194152832031,-80.60489654541016,-266.0627746582031,-40.95000076293945,2.8500001430511475,-1.6500000953674316
3.45,69.91069030761719,-17.085023880004883,-6.358999729156494,59.68759536743164,-80.60489654541016,-263.3981628417969,-40.20000076293945,4.350000381469727,-4.200000286102295
3.46,68.7231674194336,-12.832921028137207,-5.5545477867126465,41.168453216552734,-70.61255645751953,-261.79937744140625,-38.55000305175781,6.150000095367432,-3.3000001907348633
3.475,66.30980682373047,-8.96389102935791,-4.367023944854736,29.31087303161621,-74.60948944091797,-238.35067749023438,-37.80000305175781,7.650000095367432,-4.650000095367432
3.48,62.785545349121094,-3.6391866207122803,-5.2480902671813965,33.4410400390625,-68.08116149902344,-228.6248016357422,-37.80000305175781,7.650000095367432,-4.650000095367432
3.49,62.977081298828125,-4.060565948486328,-6.205770969390869,38.63705825805664,-60.88667678833008,-226.89279174804688,-37.80000305175781,7.650000095367432,-4.650000095367432
3.5,62.13432312011719,-1.2258312702178955,-5.286397457122803,46.364471435546875,-69.14701080322266,-242.21438598632812,-36.900001525878906,8.700000762939453,-4.200000286102295
3.51,61.751251220703125,-1.1492167711257935,-3.294421434402466,43.30015182495117,-83.80245208740234,-214.90199279785156,-36.150001525878906,9.450000762939453,-4.950000286102295
3.528,61.253257751464844,-1.1109095811843872,-4.213795185089111,30.90964698791504,-78.20673370361328,-211.1715087890625,-35.400001525878906,10.5,-4.950000286102295
3.532,61.17664337158203,-1.37906014919281,-4.137180328369141,12.790199279785156,-82.6033706665039,-212.5038299560547,-37.05000305175781,12.300000190734863,-5.850000381469727
3.54,63.20692443847656,-0.9193734526634216,-4.32871675491333,-2.398162364959717,-77.94027709960938,-205.44256591796875,-37.05000305175781,12.300000190734863,-5.850000381469727
3.55,64.24121856689453,-0.4596867263317108,-5.20978307723999,-13.189892768859863,-78.47319793701172,-203.3108673095703,-34.20000076293945,12.450000762939453,-4.950000286102295
3.56,64.0113754272461,1.5705963373184204,-5.861005783081055,-35.705970764160156,-72.0781021118164,-208.24041748046875,-35.400001525878906,12.90000057220459,-7.500000476837158
3.569,64.66259765625,6.550535678863525,-8.848969459533691,-51.29402542114258,-57.422664642333984,-192.65237426757812,-34.20000076293945,14.100000381469727,-6.0
3.58,64.27952575683594,10.381258964538574,-9.730035781860352,-44.89892578125,-62.8851432800293,-188.65542602539062,-33.45000076293945,15.15000057220459,-7.500000476837158
3.592,65.35212707519531,13.062764167785645,-10.304644584655762,-56.09035110473633,-49.82848358154297,-180.3950958251953,-33.45000076293945,15.15000057220459,-7.500000476837158
3.6,68.34009552001953,18.081010818481445,-11.377246856689453,-72.74425506591797,-45.96477508544922,-170.26951599121094,-32.70000076293945,16.80000114440918,-7.800000190734863
3.61,69.48931121826172,20.800825119018555,-10.917559623718262,-55.69065856933594,-47.830013275146484,-159.3445587158203,-31.80000114440918,17.400001525878906,-6.900000095367432
3.62,72.93695831298828,25.321077346801758,-12.411541938781738,-45.69831466674805,-50.76110076904297,-148.95252990722656,-31.500001907348633,17.400001525878906,-6.150000095367432
3.63,75.84831237792969,28.577192306518555,-14.058752059936523,-40.36906433105469,-36.372127532958984,-137.3614044189453,-32.400001525878906,18.75,-6.0
3.649,78.68304443359375,31.871612548828125,-15.897499084472656,-33.57427215576172,-34.10719680786133,-126.5696792602539,-32.400001525878906,18.75,-6.0
3.653,82.59038543701172,34.05512619018555,-17.697938919067383,-15.321592330932617,-23.98162269592285,-103.25421142578125,-29.55000114440918,20.850000381469727,-7.950000286102295
3.66,83.89282989501953,35.510799407958984,-20.30282974243164,2.797856092453003,-34.10719680786133,-89.39816284179688,-29.55000114440918,20.850000381469727,-7.950000286102295
3.67,83.58637237548828,36.27694320678711,-21.720197677612305,9.992342948913574,-18.91883659362793,-73.54364013671875,-30.450000762939453,21.0,-6.0
3.68,82.78192138671875,36.50678634643555,-23.252487182617188,33.84073257446289,-18.2526798248291,-61.01990509033203,-29.55000114440918,19.200000762939453,-7.950000286102295
3.69,82.0157699584961,35.702335357666016,-21.950040817260742,39.16998291015625,-11.990811347961426,-38.77029037475586,-29.55000114440918,19.200000762939453,-7.950000286102295
3.709,82.0157699584961,34.32327651977539,-22.2948055267334,27.578866958618164,-3.9969370365142822,-18.78560447692871,-28.80000114440918,21.150001525878906,-6.150000095367432
3.713,82.78192138671875,33.7869758605957,-20.570980072021484,24.11485481262207,-6.9280242919921875,6.261868000030518,-30.000001907348633,20.850000381469727,-7.350000381469727
3.72,82.36053466796875,34.20835494995117,-19.230228424072266,23.04900360107422,-7.460949420928955,19.31852912902832,-30.000001907348633,20.850000381469727,-7.350000381469727
3.73,82.32222747802734,33.097442626953125,-20.609289169311523,16.65390396118164,6.9280242919921875,24.381317138671875,-30.900001525878906,21.75,-9.0
3.74,85.00373840332031,29.879636764526367,-23.099258422851562,6.128636837005615,18.385910034179688,36.238895416259766,-30.900001525878906,21.75,-9.0
3.75,92.24380493164062,29.381643295288086,-26.355371475219727,-9.992342948913574,26.779478073120117,63.151607513427734,-30.900001525878906,21.75,-9.0
3.769,96.45759582519531,30.952239990234375,-27.236438751220703,-43.03369140625,34.906585693359375,83.13629150390625,-28.80000114440918,20.850000381469727,-8.40000057220459
3.773,96.45759582519531,33.05913543701172,-29.03687858581543,-53.29249572753906,46.497703552246094,126.16998291015625,-29.55000114440918,19.200000762939453,-7.650000095367432
3.78,91.28612518310547,32.75267791748047,-33.365596771240234,-51.960182189941406,60.62021255493164,147.62020874023438,-29.55000114440918,19.200000762939453,-7.650000095367432
3.79,87.68524169921875,32.75267791748047,-33.44221115112305,-33.17457962036133,61.81929397583008,168.0045928955078,-31.950000762939453,19.05000114440918,-6.750000476837158
3.8,84.8888168334961,31.60346221923828,-26.85336685180664,-16.520673751831055,64.21745300292969,177.86370849609375,-31.950000762939453,19.05000114440918,-6.750000476837158
3.81,83.27991485595703,23.099258422851562,-16.970102310180664,11.857580184936523,36.238895416259766,178.39662170410156,-30.900001525878906,18.75,-5.700000286102295
3.829,80.29194641113281,9.691728591918945,-10.994174003601074,29.84379768371582,2.2649309635162354,167.33843994140625,-30.750001907348633,18.450000762939453,-5.850000381469727
3.833,79.67903137207031,-3.294421434402466,-7.393294811248779,-4.529861927032471,-18.652372360229492,150.2848358154297,-31.950000762939453,15.600000381469727,-7.050000190734863
3.84,69.9873046875,-19.07699966430664,-15.284584045410156,-30.24349021911621,-4.130168437957764,141.89126586914062,-31.950000762939453,15.600000381469727,-7.050000190734863
3.85,65.08397674560547,-23.290794372558594,-19.19192123413086,-66.48238372802734,12.656967163085938,135.36293029785156,-31.950000762939453,15.600000381469727,-7.050000190734863
3.86,60.065731048583984,-24.516624450683594,-17.1999454498291,-87.39968872070312,17.32006072998047,141.75804138183594,-34.05000305175781,15.15000057220459,-6.300000190734863
3.869,61.17664337158203,-19.38345718383789,-12.7946138381958,-114.04593658447266,32.24195861816406,157.34608459472656,-33.45000076293945,13.65000057220459,-6.750000476837158
3.889,63.97306823730469,-12.526463508605957,-10.457873344421387,-130.56661987304688,56.756507873535156,161.7427215576172,-34.650001525878906,14.100000381469727,-6.750000476837158
3.893,65.96504211425781,-6.627150535583496,-9.27034854888916,-114.04593658447266,52.75957107543945,160.01071166992188,-34.650001525878906,14.100000381469727,-6.750000476837158
3.9,69.64253997802734,-3.485957622528076,-8.848969459533691,-98.05818939208984,48.49617004394531,165.87289428710938,-36.0,13.500000953674316,-6.600000381469727
3.91,71.71112823486328,-3.7158010005950928,-11.41555404663086,-83.80245208740234,52.75957107543945,151.75038146972656,-35.55000305175781,13.500000953674316,-4.650000095367432
3.92,73.7031021118164,-5.363011837005615,-14.173673629760742,-70.3460922241211,58.754974365234375,148.55282592773438,-36.30000305175781,12.300000190734863,-4.650000095367432
3.93,77.38059997558594,-8.427590370178223,-16.66364288330078,-63.151607513427734,55.69065856933594,155.48085021972656,-36.45000076293945,11.40000057220459,-3.450000047683716
3.949,81.21131896972656,-12.7946138381958,-16.625335693359375,-73.54364013671875,54.4915771484375,165.73965454101562,-36.45000076293945,11.40000057220459,-3.450000047683716
3.952,82.20730590820312,-17.12333106994629,-16.58702850341797,-97.5252685546875,60.48698043823242,155.48085021972656,-37.650001525878906,9.75,-3.750000238418579
3.96,83.85452270507812,-20.685903549194336,-15.131354331970215,-119.24195861816406,62.085758209228516,161.34303283691406,-36.45000076293945,10.200000762939453,-4.5
3.97,84.46743774414062,-20.877439498901367,-16.012420654296875,-149.08575439453125,61.68606185913086,160.2771759033203,-38.25,8.850000381469727,-3.6000001430511475
3.98,82.4371566772461,-20.072986602783203,-14.786589622497559,-177.19754028320312,73.54364013671875,158.27871704101562,-38.70000076293945,9.75,-2.25
3.99,82.24561309814453,-16.740259170532227,-13.867216110229492,-191.58651733398438,67.14854431152344,156.679931640625,-38.70000076293945,9.75,-2.25
4.009,80.36856079101562,-11.875240325927734,-13.10107135772705,-199.98008728027344,64.48391723632812,129.36753845214844,-39.150001525878906,7.050000190734863,-1.9500000476837158
4.012,77.34229278564453,-3.5242648124694824,-13.139378547668457,-199.18069458007812,62.8851432800293,165.4731903076172,-38.70000076293945,7.050000190734863,0.45000001788139343
4.02,75.19709014892578,-1.6855180263519287,-13.828908920288086,-202.64471435546875,66.34915924072266,178.6630859375,-37.80000305175781,6.900000095367432,0.30000001192092896
4.03,73.32003021240234,-0.727837324142456,-14.901511192321777,-180.12863159179688,55.69065856933594,189.1883544921875,-39.900001525878906,6.750000476837158,1.2000000476837158
4.04,71.2514419555664,1.5705963373184204,-13.675680160522461,-169.20367431640625,49.16232681274414,200.91270446777344,-39.900001525878906,6.750000476837158,1.2000000476837158
4.05,69.14454650878906,3.9839515686035156,-15.629348754882812,-156.01377868652344,50.89433288574219,195.71669006347656,-39.30000305175781,4.5,0.6000000238418579
4.069,69.22116088867188,4.213795185089111,-14.020444869995117,-135.22970581054688,47.56355285644531,205.44256591796875,-39.900001525878906,4.350000381469727,1.9500000476837158
4.073,67.65056610107422,5.286397457122803,-13.637372970581055,-102.45481872558594,25.18070411682129,209.70596313476562,-41.70000076293945,3.6000001430511475,1.9500000476837158
4.08,66.9227294921875,3.907337188720703,-15.016432762145996,-97.65850067138672,28.111791610717773,202.64471435546875,-40.95000076293945,1.6500000953674316,2.700000047683716
4.09,66.61626434326172,3.141192674636841,-14.786589622497559,-73.67687225341797,19.45176124572754,201.17916870117188,-40.95000076293945,1.6500000953674316,2.700000047683716
4.1,66.27149963378906,0.9959878921508789,-14.288596153259277,-55.02450180053711,15.055130004882812,212.9035186767578,-41.70000076293945,0.15000000596046448,3.750000238418579
4.11,65.50535583496094,0.4213795065879822,-13.905523300170898,-42.500762939453125,9.72588062286377,206.37518310546875,-41.55000305175781,0.30000001192092896,2.5500001907348633
4.124,65.8501205444336,-2.4133553504943848,-13.369222640991211,-33.70750427246094,18.519142150878906,193.05206298828125,-42.30000305175781,0.0,3.3000001907348633
4.13,63.93476104736328,-6.205770969390869,-12.7946138381958,-34.906585693359375,18.385910034179688,185.32464599609375,-42.30000305175781,-0.30000001192092896,3.3000001907348633
4.14,65.54366302490234,-8.197746276855469,-11.185709953308105,-26.513015747070312,10.258805274963379,196.64930725097656,-42.30000305175781,-0.30000001192092896,3.3000001907348633
4.15,64.73921203613281,-9.959878921508789,-11.568782806396484,-31.975496292114258,14.655436515808105,179.19601440429688,-43.80000305175781,-2.700000047683716,3.6000001430511475
4.16,64.93074798583984,-14.020444869995117,-11.377246856689453,-56.756507873535156,28.378253936767578,170.0030517578125,-43.05000305175781,-5.700000286102295,3.9000000953674316
4.17,65.04566955566406,-17.085023880004883,-11.109095573425293,-62.485450744628906,28.111791610717773,160.2771759033203,-43.95000076293945,-5.850000381469727,3.0
4.188,66.23319244384766,-17.73624610900879,-11.30063247680664,-96.59264373779297,42.101070404052734,145.0888214111328,-43.80000305175781,-4.950000286102295,2.5500001907348633
4.192,69.68084716796875,-16.242263793945312,-10.955866813659668,-105.11944580078125,43.03369140625,142.4241943359375,-43.80000305175781,-4.950000286102295,2.5500001907348633
4.2,69.9873046875,-16.548721313476562,-11.492168426513672,-114.3124008178711,49.42878723144531,135.76263427734375,-43.20000076293945,-7.050000190734863,1.9500000476837158
4.21,71.05990600585938,-13.752294540405273,-11.453861236572266,-102.32159423828125,47.297088623046875,165.07350158691406,-44.400001525878906,-7.050000190734863,2.700000047683716
4.22,75.15878295898438,-15.207969665527344,-12.564770698547363,-129.76722717285156,60.75344467163086,121.24042510986328,-42.30000305175781,-7.650000095367432,3.9000000953674316
4.238,77.1124496459961,-13.445837020874023,-14.09705924987793,-138.2940216064453,61.15313720703125,115.51148223876953,-44.25,-8.100000381469727,3.9000000953674316
4.242,78.91288757324219,-11.1474027633667,-14.326903343200684,-134.69677734375,69.28024291992188,96.8591079711914,-44.25,-8.100000381469727,3.9000000953674316
4.25,82.4371566772461,-8.65743350982666,-14.67166805267334,-126.16998291015625,53.42572784423828,96.05972290039062,-44.25,-8.100000381469727,3.9000000953674316
4.26,85.5400390625,-7.1251444816589355,-15.169661521911621,-125.7702865600586,67.94792938232422,82.07044219970703,-43.20000076293945,-9.450000762939453,4.950000286102295
4.27,87.87677764892578,-4.711789131164551,-14.709975242614746,-119.24195861816406,65.949462890625,81.40428924560547,-43.80000305175781,-9.600000381469727,5.100000381469727
4.28,89.94536590576172,-2.2601263523101807,-14.480132102966309,-98.85757446289062,58.754974365234375,77.00765228271484,-42.30000305175781,-9.15000057220459,6.600000381469727
4.29,90.17520904541016,-2.3750481605529785,-16.433799743652344,-86.46707153320312,66.21592712402344,63.28483963012695,-42.75,-11.100000381469727,6.150000095367432
4.303,89.7921371459961,-0.7661445140838623,-16.318878173828125,-56.62327575683594,56.356815338134766,67.01531219482422,-42.75,-11.100000381469727,6.150000095367432
4.31,89.33245086669922,-1.8387469053268433,-16.625335693359375,-46.63093185424805,53.95865249633789,53.69218826293945,-44.25,-11.550000190734863,7.650000095367432
4.319,88.75784301757812,-1.800439715385437,-16.625335693359375,-30.643184661865234,55.4241943359375,46.63093185424805,-44.55000305175781,-12.300000190734863,5.850000381469727
4.33,86.03803253173828,-2.298433542251587,-17.085023880004883,-21.84992218017578,58.754974365234375,36.238895416259766,-43.80000305175781,-11.850000381469727,6.900000095367432
4.34,86.61264038085938,-2.8347349166870117,-16.58702850341797,-11.324655532836914,59.55436325073242,37.4379768371582,-43.20000076293945,-12.15000057220459,7.500000476837158
4.358,86.26787567138672,-3.907337188720703,-15.361198425292969,3.597243309020996,53.29249572753906,24.914241790771484,-43.20000076293945,-12.15000057220459,7.500000476837158
4.362,87.64693450927734,-6.3973069190979,-12.526463508605957,14.12251091003418,50.22817611694336,17.852985382080078,-44.25,-12.750000953674316,6.900000095367432
4.37,91.74581146240234,-6.780379295349121,-9.423578262329102,16.25421142578125,50.89433288574219,5.196018218994141,-43.650001525878906,-13.200000762939453,7.500000476837158
4.38,96.3426742553711,-6.129156112670898,-3.2178070545196533,32.64165496826172,35.306278228759766,-0.5329249501228333,-43.95000076293945,-12.90000057220459,7.800000190734863
4.39,99.79032897949219,-9.117119789123535,0.1149216815829277,33.04134750366211,26.246553421020508,-8.526799201965332,-42.900001525878906,-12.450000762939453,8.25
4.4,102.3569107055664,-9.385271072387695,0.689530074596405,40.635528564453125,11.857580184936523,-24.381317138671875,-42.900001525878906,-12.450000762939453,8.25
4.419,100.4415512084961,-11.1474027633667,-3.2178070545196533,58.08882141113281,13.189892768859863,-46.63093185424805,-42.75,-11.850000381469727,9.450000762939453
4.423,98.21973419189453,-10.342951774597168,-6.742072105407715,101.12251281738281,10.92496109008789,-59.15467071533203,-43.20000076293945,-12.90000057220459,9.0
4.43,97.0322036743164,-11.224017143249512,-8.810662269592285,109.51607513427734,21.316997528076172,-59.287899017333984,-42.30000305175781,-12.300000190734863,8.700000762939453
4.439,94.23577880859375,-10.266336441040039,-7.4316020011901855,125.90351867675781,8.926492691040039,-77.4073486328125,-43.650001525878906,-12.15000057220459,7.800000190734863
4.45,92.32041931152344,-12.105083465576172,-6.703764915466309,158.14547729492188,-14.522205352783203,-67.814697265625,-43.650001525878906,-12.15000057220459,7.800000190734863
4.46,88.10662078857422,-12.48815631866455,-5.937620162963867,174.1332244873047,-21.45022964477539,-86.60030364990234,-42.45000076293945,-10.950000762939453,7.800000190734863
4.478,84.58235931396484,-13.637372970581055,-7.1251444816589355,178.6630859375,-29.977027893066406,-88.33231353759766,-44.70000076293945,-12.15000057220459,8.550000190734863
4.482,80.44517517089844,-15.093047142028809,-5.70777702331543,202.9111785888672,-49.29555892944336,-92.3292465209961,-43.80000305175781,-9.0,6.750000476837158
4.49,79.10442352294922,-15.284584045410156,-5.094861030578613,213.9693603515625,-56.49004364013672,-101.2557373046875,-43.80000305175781,-10.050000190734863,7.650000095367432
4.5,77.7253646850586,-13.675680160522461,-3.7924153804779053,226.2266387939453,-70.47932434082031,-113.3797836303711,-43.80000305175781,-10.050000190734863,7.650000095367432
4.51,77.95520782470703,-14.824896812438965,-2.0685901641845703,248.34303283691406,-82.47013854980469,-108.983154296875,-43.20000076293945,-8.25,7.050000190734863
4.52,77.91690063476562,-13.254301071166992,1.8770540952682495,270.1929626464844,-105.91883087158203,-118.97549438476562,-43.5,-8.40000057220459,6.600000381469727
4.539,78.9511947631836,-12.986149787902832,3.7924153804779053,289.37823486328125,-113.51301574707031,-117.9096450805664,-42.150001525878906,-8.700000762939453,4.950000286102295
4.543,78.60643005371094,-13.024456977844238,6.512228488922119,303.6340026855469,-129.50076293945312,-143.75650024414062,-42.30000305175781,-8.100000381469727,4.350000381469727
4.55,80.06210327148438,-17.085023880004883,8.159439086914062,304.6998291015625,-128.83460998535156,-139.49310302734375,-42.30000305175781,-8.100000381469727,4.350000381469727
4.56,79.90887451171875,-21.0689754486084,8.312667846679688,308.1638488769531,-148.15313720703125,-152.54977416992188,-43.5,-6.450000286102295,4.350000381469727
4.57,80.8282470703125,-24.9763126373291,9.921571731567383,299.5038146972656,-139.35987854003906,-164.94027709960938,-43.05000305175781,-4.950000286102295,3.3000001907348633
4.58,82.4371566772461,-28.8453426361084,9.653421401977539,281.3843688964844,-150.55130004882812,-176.39816284179688,-40.95000076293945,-5.100000381469727,2.700000047683716
4.599,81.441162109375,-30.875625610351562,9.232041358947754,271.1255798339844,-163.20826721191406,-196.51608276367188,-43.80000305175781,-4.200000286102295,1.8000000715255737
4.603,82.78192138671875,-31.258697509765625,9.883264541625977,236.7519073486328,-159.61102294921875,-229.5574188232422,-42.0,-1.5,-1.350000023841858
4.61,80.75163269042969,-31.143775939941406,7.201758861541748,218.76568603515625,-155.34762573242188,-231.1562042236328,-42.0,-1.5,-1.350000023841858
4.62,80.33025360107422,-31.450233459472656,4.443638324737549,190.9203643798828,-150.55130004882812,-237.41806030273438,-41.25,-2.25,-0.6000000238418579
4.63,78.22335815429688,-29.64979362487793,3.869029998779297,172.6676788330078,-157.21286010742188,-244.74578857421875,-42.30000305175781,-0.75,-1.8000000715255737
4.64,76.11646270751953,-28.347347259521484,1.3024457693099976,149.08575439453125,-140.42572021484375,-248.47625732421875,-41.70000076293945,-0.15000000596046448,-2.25
4.659,73.20510864257812,-26.01060676574707,-1.7621324062347412,126.03675079345703,-130.1669158935547,-255.9372100830078,-41.70000076293945,-0.15000000596046448,-2.25
4.663,70.21714782714844,-24.478317260742188,-4.290409564971924,102.45481872558594,-118.8422622680664,-247.67686462402344,-40.80000305175781,1.5,-5.850000381469727
4.67,67.91871643066406,-21.222204208374023,-6.282385349273682,102.98774719238281,-116.17764282226562,-249.6753387451172,-40.80000305175781,1.5,-5.850000381469727
4.68,67.19087982177734,-19.766529083251953,-5.018246650695801,82.07044219970703,-101.52220153808594,-255.53750610351562,-40.20000076293945,2.8500001430511475,-6.300000190734863
4.69,65.54366302490234,-15.897499084472656,-5.861005783081055,71.2787094116211,-99.25727081298828,-254.2052001953125,-38.55000305175781,3.0,-7.950000286102295
4.7,65.2755126953125,-14.67166805267334,-4.865017890930176,56.22358322143555,-86.46707153320312,-272.8575744628906,-38.55000305175781,3.0,-7.950000286102295
4.718,63.74322509765625,-12.411541938781738,-3.869029998779297,49.56201934814453,-88.06584930419922,-253.4058074951172,-37.5,4.200000286102295,-6.900000095367432
4.722,63.93476104736328,-9.308655738830566,-3.2178070545196533,40.102603912353516,-90.4640121459961,-233.55435180664062,-37.5,4.950000286102295,-8.40000057220459
4.73,61.636329650878906,-6.933608055114746,-2.8347349166870117,37.17151641845703,-89.7978515625,-230.09034729003906,-37.5,4.950000286102295,-8.40000057220459
4.74,61.36817932128906,-6.090848922729492,-3.294421434402466,24.64777946472168,-93.79479217529297,-222.89585876464844,-37.80000305175781,7.200000286102295,-7.650000095367432
4.75,59.26128005981445,-8.159439086914062,-2.030282974243164,6.661561965942383,-85.93415069580078,-225.42726135253906,-37.80000305175781,7.200000286102295,-7.650000095367432
4.759,60.21895980834961,-6.971915245056152,-1.8770540952682495,-16.78713607788086,-74.8759536743164,-220.23123168945312,-37.80000305175781,7.200000286102295,-7.650000095367432
4.781,59.5677375793457,-4.443638324737549,-3.2178070545196533,-29.577335357666016,-80.33843994140625,-210.63858032226562,-34.95000076293945,9.75,-9.300000190734863
4.784,60.29557418823242,-3.179499864578247,-3.2178070545196533,-59.4211311340332,-77.27411651611328,-210.2388916015625,-34.20000076293945,12.15000057220459,-10.050000190734863
4.79,61.253257751464844,1.2258312702178955,-5.592854976654053,-69.14701080322266,-69.67993927001953,-210.90504455566406,-33.45000076293945,12.15000057220459,-9.300000190734863
4.8,61.21495056152344,4.252102375030518,-5.899312973022461,-78.73966217041016,-61.28636932373047,-156.679931640625,-33.45000076293945,12.15000057220459,-9.300000190734863
4.81,63.781532287597656,6.742072105407715,-7.8529815673828125,-73.67687225341797,-65.016845703125,-188.78866577148438,-31.950000762939453,14.40000057220459,-10.800000190734863
4.82,64.66259765625,9.84495735168457,-9.653421401977539,-80.60489654541016,-46.497703552246094,-225.16079711914062,-33.75,15.450000762939453,-9.90000057220459
4.839,66.57795715332031,14.824896812438965,-11.91354751586914,-77.00765228271484,-41.168453216552734,-203.71055603027344,-31.80000114440918,15.450000762939453,-10.200000762939453
4.842,69.79576873779297,16.1656494140625,-11.683704376220703,-74.60948944091797,-38.90352249145508,-193.45175170898438,-31.500001907348633,15.750000953674316,-10.65000057220459
4.85,71.36636352539062,21.222204208374023,-13.637372970581055,-85.13475799560547,-23.848390579223633,-165.4731903076172,-31.500001907348633,15.750000953674316,-10.65000057220459
4.86,73.51156616210938,24.66985511779785,-15.552734375,-79.13935852050781,-22.649311065673828,-150.95098876953125,-29.400001525878906,16.350000381469727,-10.350000381469727
4.87,76.03984832763672,29.64979362487793,-16.81687355041504,-72.61102294921875,-25.313934326171875,-108.71669006347656,-30.150001525878906,18.75,-10.050000190734863
4.88,77.07414245605469,33.863590240478516,-18.847156524658203,-67.68146514892578,-15.721285820007324,-121.50688934326172,-28.950000762939453,19.05000114440918,-10.050000190734863
4.899,79.33426666259766,37.617698669433594,-21.0689754486084,-55.55742645263672,-6.661561965942383,-105.78560638427734,-29.400001525878906,19.05000114440918,-9.300000190734863
5.0,82.85853576660156,22.7161865234375,-18.004396438598633,13.989279747009277,-3.197549819946289,83.40275573730469,-28.950000762939453,20.55000114440918,-9.300000190734863
5.018,87.64693450927734,22.256498336791992,-18.04270362854004,-53.82542037963867,7.194486618041992,104.32006072998047,-28.500001907348633,19.650001525878906,-10.65000057220459
5.021,84.314208984375,20.64759635925293,-26.738445281982422,-64.88361358642578,6.794793128967285,124.30474090576172,-28.500001907348633,19.650001525878906,-10.65000057220459
5.03,84.19928741455078,20.149600982666016,-30.032865524291992,-90.86370086669922,31.042879104614258,126.5696792602539,-29.55000114440918,19.650001525878906,-9.450000762939453
5.04,81.05809020996094,20.570980072021484,-35.35757064819336,-100.85604858398438,52.626338958740234,147.62020874023438,-30.30000114440918,19.650001525878906,-9.90000057220459
5.05,77.84028625488281,22.409727096557617,-30.569168090820312,-88.06584930419922,56.62327575683594,173.73353576660156,-30.30000114440918,19.650001525878906,-9.90000057220459
5.059,79.98548889160156,22.946029663085938,-24.516624450683594,-64.75038146972656,57.822357177734375,172.93414306640625,-30.30000114440918,18.450000762939453,-8.700000762939453
5.079,82.0157699584961,20.149600982666016,-16.81687355041504,-45.56508255004883,48.49617004394531,171.20213317871094,-29.700000762939453,17.100000381469727,-9.0
5.083,83.54806518554688,9.730035781860352,-7.967903137207031,-18.385910034179688,17.719755172729492,171.46859741210938,-29.700000762939453,17.100000381469727,-9.0
5.09,83.50975799560547,6.971915245056152,-8.504204750061035,-21.716691970825195,3.597243309020996,169.20367431640625,-31.950000762939453,17.100000381469727,-8.25
5.1,77.8019790649414,1.9536685943603516,-10.611102104187012,-27.578866958618164,5.062787055969238,167.0719757080078,-31.950000762939453,17.100000381469727,-8.25
5.11,71.213134765625,-4.941632270812988,-16.28057098388672,-29.444103240966797,6.128636837005615,169.4701385498047,-33.30000305175781,16.200000762939453,-8.700000762939453
5.12,65.65858459472656,-8.159439086914062,-19.536685943603516,-21.183767318725586,20.517610549926758,173.0673828125,-33.0,16.5,-7.350000381469727
5.133,63.93476104736328,-10.72602367401123,-19.230228424072266,-28.644716262817383,40.102603912353516,184.92495727539062,-34.05000305175781,14.550000190734863,-8.40000057220459
5.14,66.15657806396484,-15.629348754882812,-17.659631729125977,-43.43338394165039,53.95865249633789,159.21133422851562,-32.55000305175781,14.550000190734863,-8.700000762939453
5.15,68.1485595703125,-17.391481399536133,-15.591041564941406,-43.16691970825195,48.362937927246094,152.41653442382812,-32.55000305175781,14.550000190734863,-8.700000762939453
5.16,70.94498443603516,-20.992361068725586,-11.070788383483887,-55.95711898803711,47.430320739746094,144.1562042236328,-34.20000076293945,13.200000762939453,-9.0
5.17,75.54185485839844,-23.75048065185547,-9.691728591918945,-67.5482406616211,58.754974365234375,166.53904724121094,-34.650001525878906,12.450000762939453,-8.25
5.18,75.9632339477539,-24.286781311035156,-11.1474027633667,-78.60643005371094,44.89892578125,142.5574188232422,-34.650001525878906,12.15000057220459,-8.550000190734863
5.196,78.83627319335938,-24.861391067504883,-14.824896812438965,-111.38131713867188,70.47932434082031,124.30474090576172,-34.80000305175781,11.550000190734863,-7.950000286102295
5.2,81.441162109375,-23.175872802734375,-17.1999454498291,-115.51148223876953,67.28177642822266,137.3614044189453,-34.80000305175781,11.550000190734863,-7.950000286102295
5.21,82.16899871826172,-22.639572143554688,-16.740259170532227,-147.4869842529297,81.8039779663086,121.90658569335938,-34.80000305175781,11.550000190734863,-7.950000286102295
5.22,84.46743774414062,-20.187908172607422,-16.05072784423828,-161.07656860351562,81.67074584960938,118.44257354736328,-36.0,11.550000190734863,-5.850000381469727
5.23,83.85452270507812,-17.1999454498291,-13.713987350463867,-185.0581817626953,85.93415069580078,146.1546630859375,-35.55000305175781,8.40000057220459,-6.600000381469727
5.248,82.93515014648438,-14.97812557220459,-12.258312225341797,-205.1761016845703,88.865234375,151.084228515625,-36.30000305175781,10.050000190734863,-5.100000381469727
5.252,82.16899871826172,-10.342951774597168,-12.679692268371582,-211.0382843017578,82.20367431640625,154.6814727783203,-36.30000305175781,10.800000190734863,-4.650000095367432
5.26,78.18505096435547,-6.205770969390869,-11.109095573425293,-206.1087188720703,75.40888214111328,176.6646270751953,-36.30000305175781,10.800000190734863,-4.650000095367432
5.269,76.61445617675781,-4.481945514678955,-12.526463508605957,-210.63858032226562,69.28024291992188,176.39816284179688,-37.5,8.100000381469727,-2.8500001430511475
5.28,74.39263153076172,-1.1875240802764893,-13.369222640991211,-201.31239318847656,75.27565002441406,180.3950958251953,-37.95000076293945,7.800000190734863,-3.750000238418579
5.29,71.32805633544922,2.030282974243164,-14.67166805267334,-186.5237274169922,57.289432525634766,194.117919921875,-37.95000076293945,7.500000476837158,-3.0
5.309,69.64253997802734,3.3710360527038574,-14.97812557220459,-169.20367431640625,56.756507873535156,201.578857421875,-38.55000305175781,6.150000095367432,-2.5500001907348633
5.313,69.02962493896484,5.631162166595459,-14.441824913024902,-143.62327575683594,49.82848358154297,202.77793884277344,-38.55000305175781,6.150000095367432,-2.5500001907348633
5.32,67.19087982177734,4.443638324737549,-14.09705924987793,-132.16539001464844,54.62480926513672,199.18069458007812,-41.400001525878906,5.850000381469727,0.15000000596046448
5.33,67.26749420166016,5.056553840637207,-13.369222640991211,-102.32159423828125,35.17304611206055,214.7687530517578,-39.45000076293945,5.550000190734863,-0.45000001788139343
5.34,65.16059112548828,3.8307228088378906,-12.90953540802002,-99.65696716308594,43.16691970825195,204.11026000976562,-39.0,3.750000238418579,0.0
5.35,64.50936889648438,2.6815059185028076,-12.29662036895752,-76.74119567871094,34.64012145996094,197.0489959716797,-40.650001525878906,2.8500001430511475,0.15000000596046448
5.369,64.96905517578125,0.5363011956214905,-12.22000503540039,-58.62174606323242,33.70750427246094,204.90963745117188,-40.650001525878906,2.8500001430511475,0.15000000596046448
5.373,64.73921203613281,-0.07661445438861847,-12.258312225341797,-53.69218826293945,28.378253936767578,196.51608276367188,-39.75,1.8000000715255737,0.30000001192092896
5.38,64.12629699707031,-3.907337188720703,-10.074800491333008,-57.955589294433594,29.31087303161621,185.32464599609375,-39.75,1.8000000715255737,-0.30000001192092896
5.39,64.96905517578125,-4.32871675491333,-10.687716484069824,-54.35834503173828,22.382848739624023,175.9984588623047,-40.5,1.5,1.8000000715255737
5.4,65.19889831542969,-5.171475887298584,-9.117119789123535,-56.62327575683594,20.251148223876953,182.12710571289062,-43.20000076293945,0.45000001788139343,0.9000000357627869
5.41,66.73119354248047,-7.508216381072998,-7.967903137207031,-70.21286010742188,18.652372360229492,161.7427215576172,-43.20000076293945,0.45000001788139343,0.9000000357627869
5.429,65.65858459472656,-10.036493301391602,-9.883264541625977,-77.94027709960938,23.04900360107422,158.27871704101562,-42.0,0.75,1.0500000715255737
5.433,66.42472839355469,-10.381258964538574,-10.074800491333008,-84.60183715820312,22.51607894897461,150.2848358154297,-40.95000076293945,-1.350000023841858,0.45000001788139343
5.44,65.96504211425781,-11.60708999633789,-12.334927558898926,-86.0673828125,32.108726501464844,136.9617156982422,-40.95000076293945,-1.350000023841858,0.45000001788139343
5.45,66.04165649414062,-9.921571731567383,-14.135366439819336,-94.9938735961914,47.297088623046875,128.83460998535156,-43.05000305175781,-3.0,2.5500001907348633
5.46,67.80379486083984,-10.687716484069824,-13.445837020874023,-103.92036437988281,49.82848358154297,118.30934143066406,-43.05000305175781,-3.0,2.5500001907348633
5.469,70.29376220703125,-8.772355079650879,-12.449849128723145,-96.99234008789062,46.09800720214844,124.97090148925781,-42.0,-5.700000286102295,2.1000001430511475
5.489,74.92893981933594,-6.818686485290527,-12.334927558898926,-104.5865249633789,59.287899017333984,104.5865249633789,-43.5,-5.400000095367432,1.0500000715255737
5.493,76.88260650634766,-7.661445617675781,-13.407529830932617,-86.0673828125,47.830013275146484,94.19448852539062,-41.55000305175781,-4.5,3.6000001430511475
5.5,82.32222747802734,-3.754108190536499,-13.599065780639648,-79.40581512451172,53.82542037963867,86.60030364990234,-41.55000305175781,-4.5,3.6000001430511475
5.51,83.39483642578125,-5.094861030578613,-14.326903343200684,-72.34455871582031,55.82388687133789,80.8713607788086,-41.55000305175781,-4.5,3.6000001430511475
5.52,86.88079071044922,-4.290409564971924,-14.633360862731934,-69.14701080322266,67.14854431152344,57.689125061035156,-42.75,-4.950000286102295,3.3000001907348633
5.53,90.59659576416016,-4.060565948486328,-13.637372970581055,-59.15467071533203,63.81776428222656,58.62174606323242,-42.75,-5.700000286102295,2.5500001907348633
5.55,91.32443237304688,-3.294421434402466,-13.867216110229492,-35.306278228759766,57.02296829223633,55.29096221923828,-42.75,-7.200000286102295,4.350000381469727
5.554,94.00593566894531,-3.5625722408294678,-14.441824913024902,-29.977027893066406,58.222049713134766,37.83767318725586,-42.75,-6.150000095367432,3.9000000953674316
5.56,96.64913177490234,-4.213795185089111,-13.522451400756836,-20.784072875976562,59.287899017333984,44.23276901245117,-42.75,-6.150000095367432,3.9000000953674316
5.57,96.03621673583984,-4.750096321105957,-13.752294540405273,-6.5283308029174805,55.02450180053711,27.445634841918945,-45.30000305175781,-6.900000095367432,4.650000095367432
5.58,95.84468078613281,-5.056553840637207,-13.330915451049805,-6.128636837005615,52.493106842041016,21.84992218017578,-44.70000076293945,-7.050000190734863,3.450000047683716
5.59,96.3426742553711,-4.865017890930176,-12.564770698547363,-3.86370587348938,57.289432525634766,0.7993874549865723,-42.75,-6.450000286102295,3.3000001907348633
5.609,98.6794204711914,-5.018246650695801,-12.105083465576172,19.31852912902832,45.831546783447266,2.6646246910095215,-43.05000305175781,-7.200000286102295,3.3000001907348633
5.612,100.97785186767578,-4.290409564971924,-9.998186111450195,45.03215789794922,35.57273864746094,-13.856048583984375,-43.650001525878906,-7.500000476837158,3.0
5.62,105.30656433105469,-5.20978307723999,-5.439626216888428,52.3598747253418,32.5084228515625,-30.643184661865234,-43.650001525878906,-7.500000476837158,3.0
5.629,106.80055236816406,-6.320692539215088,-4.213795185089111,66.48238372802734,24.914241790771484,-32.108726501464844,-43.5,-6.450000286102295,3.3000001907348633
5.64,104.1573486328125,-8.121131896972656,-5.056553840637207,97.12557220458984,7.460949420928955,-46.897396087646484,-42.75,-6.450000286102295,5.100000381469727
5.65,100.93954467773438,-12.181697845458984,-7.048529624938965,108.3169937133789,-1.8652373552322388,-46.231239318847656,-43.20000076293945,-5.550000190734863,4.950000286102295
5.669,96.61082458496094,-16.318878173828125,-10.15141487121582,104.85298156738281,6.395099639892578,-67.14854431152344,-43.20000076293945,-5.550000190734863,4.950000286102295
5.673,94.23577880859375,-17.276559829711914,-10.228029251098633,114.84532928466797,-4.130168437957764,-70.3460922241211,-42.45000076293945,-6.300000190734863,2.25
5.68,90.67321014404297,-17.659631729125977,-7.929595947265625,123.77182006835938,-11.324655532836914,-67.94792938232422,-44.70000076293945,-5.850000381469727,4.200000286102295
5.69,89.37075805664062,-15.207969665527344,-6.244078159332275,118.44257354736328,-7.194486618041992,-82.6033706665039,-42.150001525878906,-5.550000190734863,3.450000047683716
6.0,67.53564453125,4.137180328369141,-5.1331682205200195,15.188361167907715,-79.67227935791016,-207.30780029296875,-31.950000762939453,14.100000381469727,-12.300000190734863
6.018,66.5396499633789,3.294421434402466,-4.711789131164551,5.728943347930908,-68.34762573242188,-192.11944580078125,-31.950000762939453,14.100000381469727,-12.300000190734863
6.022,67.88040924072266,3.2561142444610596,-4.9799394607543945,-11.724349021911621,-77.80704498291016,-181.99386596679688,-29.400001525878906,15.600000381469727,-12.600000381469727
6.03,67.11426544189453,4.175487995147705,-7.738059997558594,-17.32006072998047,-74.07656860351562,-177.19754028320312,-30.150001525878906,16.350000381469727,-14.850000381469727
6.039,67.80379486083984,6.435614109039307,-10.687716484069824,-30.24349021911621,-58.754974365234375,-173.33384704589844,-30.150001525878906,15.90000057220459,-14.40000057220459
6.05,66.99934387207031,7.891288757324219,-11.338939666748047,-48.09647750854492,-40.502296447753906,-171.3353729248047,-29.400001525878906,16.80000114440918,-15.15000057220459
6.059,67.53564453125,10.572794914245605,-11.03248119354248,-47.0306282043457,-49.02909469604492,-172.2679901123047,-29.400001525878906,16.80000114440918,-15.15000057220459
6.07,67.91871643066406,12.832921028137207,-10.72602367401123,-52.093414306640625,-43.83307647705078,-165.3399658203125,-29.400001525878906,16.80000114440918,-15.15000057220459
6.082,68.03363800048828,16.740259170532227,-12.105083465576172,-64.21745300292969,-38.63705825805664,-153.882080078125,-26.400001525878906,17.55000114440918,-13.050000190734863
6.09,70.75344848632812,19.268535614013672,-12.832921028137207,-66.74884796142578,-35.439510345458984,-149.88514709472656,-25.80000114440918,19.200000762939453,-13.500000953674316
6.1,71.44297790527344,21.0689754486084,-12.90953540802002,-76.87442779541016,-23.448698043823242,-133.36447143554688,-25.80000114440918,19.200000762939453,-13.950000762939453
6.11,73.32003021240234,25.20615577697754,-14.480132102966309,-73.81010437011719,-27.17917251586914,-122.03981018066406,-25.650001525878906,20.55000114440918,-15.600000381469727
6.12,75.84831237792969,28.8453426361084,-16.47210693359375,-69.54670715332031,-25.980091094970703,-115.37825012207031,-25.650001525878906,20.55000114440918,-15.600000381469727
6.139,75.23539733886719,33.212364196777344,-17.889474868774414,-52.75957107543945,-17.453292846679688,-89.7978515625,-23.55000114440918,20.400001525878906,-14.700000762939453
6.143,77.1890640258789,36.88985824584961,-20.41775131225586,-34.906585693359375,-4.396630764007568,-73.54364013671875,-23.400001525878906,20.55000114440918,-14.850000381469727
6.15,77.91690063476562,41.946414947509766,-22.869415283203125,-23.182235717773438,-2.6646246910095215,-50.4946403503418,-22.950000762939453,21.0,-14.40000057220459
6.16,80.21533203125,43.3637809753418,-21.98834800720215,0.9326186776161194,0.6661561727523804,-34.906585693359375,-21.900001525878906,21.0,-13.65000057220459
6.17,80.2536392211914,42.7891731262207,-22.754493713378906,21.716691970825195,-3.3307809829711914,-19.98468589782715,-21.900001525878906,21.0,-13.65000057220459
6.18,80.56009674072266,40.33750915527344,-21.45204734802246,38.63705825805664,0.5329249501228333,-0.2664624750614166,-24.150001525878906,21.75,-14.100000381469727
6.198,81.13470458984375,36.96647262573242,-19.574993133544922,34.64012145996094,-5.728943347930908,4.396630764007568,-24.0,21.150001525878906,-15.000000953674316
6.203,80.94316864013672,34.74465560913086,-19.19192123413086,40.23583221435547,-12.656967163085938,28.111791610717773,-24.450000762939453,22.950000762939453,-14.100000381469727
6.21,78.29997253417969,32.331298828125,-20.41775131225586,37.4379768371582,-12.124042510986328,38.37059783935547,-24.450000762939453,22.950000762939453,-14.100000381469727
6.219,77.49552154541016,29.803022384643555,-23.9420166015625,10.658498764038086,18.78560447692871,58.754974365234375,-24.450000762939453,22.950000762939453,-14.100000381469727
6.23,80.33025360107422,28.692113876342773,-24.861391067504883,-0.2664624750614166,26.379785537719727,73.67687225341797,-25.200000762939453,21.450000762939453,-14.100000381469727
6.24,88.10662078857422,28.117504119873047,-21.183897018432617,-15.588054656982422,18.652372360229492,71.2787094116211,-23.700000762939453,19.80000114440918,-13.65000057220459
6.259,91.93734741210938,25.359384536743164,-19.19192123413086,-43.03369140625,27.84532928466797,24.11485481262207,-24.0,19.200000762939453,-14.250000953674316
6.263,90.51998138427734,22.754493713378906,-23.060951232910156,-49.96171569824219,32.64165496826172,110.848388671875,-24.0,19.650001525878906,-13.200000762939453
6.27,83.1266860961914,21.45204734802246,-29.64979362487793,-56.756507873535156,33.97396469116211,119.7748794555664,-24.0,19.650001525878906,-13.200000762939453
6.279,81.36454772949219,21.107282638549805,-30.645782470703125,-40.23583221435547,55.02450180053711,129.76722717285156,-24.900001525878906,19.5,-15.600000381469727
6.29,79.0278091430664,21.835119247436523,-26.2021427154541,-46.231239318847656,74.60948944091797,148.15313720703125,-25.500001907348633,19.650001525878906,-13.500000953674316
6.3,80.67501831054688,20.264522552490234,-19.99637222290039,-41.434913635253906,52.226646423339844,140.1592559814453,-24.900001525878906,17.100000381469727,-14.100000381469727
6.32,81.24962615966797,17.238252639770508,-11.453861236572266,-39.83613967895508,38.50382614135742,150.41806030273438,-26.250001907348633,18.900001525878906,-13.200000762939453
6.324,79.94718170166016,10.687716484069824,-7.048529624938965,-51.4272575378418,11.058192253112793,149.88514709472656,-26.250001907348633,15.750000953674316,-11.700000762939453
6.33,75.19709014892578,2.2218191623687744,-12.679692268371582,-48.362937927246094,9.72588062286377,152.41653442382812,-26.250001907348633,15.750000953674316,-11.700000762939453
6.34,71.63451385498047,-0.727837324142456,-16.47210693359375,-54.75803756713867,11.724349021911621,155.6140899658203,-27.30000114440918,18.150001525878906,-12.0
6.35,68.68486022949219,-4.8267107009887695,-19.460071563720703,-58.4885139465332,22.782541275024414,149.3522186279297,-26.700000762939453,16.80000114440918,-13.050000190734863
6.36,68.26348114013672,-9.576807022094727,-18.808849334716797,-70.87902069091797,47.830013275146484,146.68759155273438,-27.450000762939453,16.80000114440918,-11.850000381469727
6.379,71.05990600585938,-7.1251444816589355,-16.931795120239258,-72.74425506591797,54.22511291503906,139.89280700683594,-27.450000762939453,16.80000114440918,-11.850000381469727
6.383,73.20510864257812,-7.1251444816589355,-17.1999454498291,-65.41653442382812,55.82388687133789,156.5467071533203,-30.000001907348633,16.5,-10.65000057220459
6.39,76.03984832763672,-7.814674377441406,-17.391481399536133,-65.41653442382812,60.62021255493164,147.35374450683594,-30.000001907348633,16.5,-10.65000057220459
6.4,77.1124496459961,-7.316680431365967,-17.73624610900879,-50.89433288574219,47.830013275146484,184.5252685546875,-30.000001907348633,14.550000190734863,-8.700000762939453
6.41,78.45320129394531,-9.998186111450195,-17.238252639770508,-49.96171569824219,46.231239318847656,136.16232299804688,-28.80000114440918,15.000000953674316,-10.950000762939453
6.42,80.75163269042969,-10.764330863952637,-15.897499084472656,-55.82388687133789,42.90045928955078,139.2266387939453,-28.80000114440918,15.000000953674316,-10.950000762939453
6.439,83.31822204589844,-13.943830490112305,-14.97812557220459,-70.3460922241211,46.231239318847656,146.68759155273438,-30.900001525878906,13.200000762939453,-9.300000190734863
6.443,83.47145080566406,-15.093047142028809,-12.986149787902832,-100.72281646728516,43.56661605834961,149.7519073486328,-30.900001525878906,12.450000762939453,-10.050000190734863
6.45,81.01978302001953,-14.480132102966309,-13.177685737609863,-104.32006072998047,45.831546783447266,155.747314453125,-30.900001525878906,12.450000762939453,-10.050000190734863
6.459,78.10843658447266,-15.016432762145996,-12.756306648254395,-132.29861450195312,52.89280319213867,168.80397033691406,-31.650001525878906,12.15000057220459,-9.0
6.47,74.85232543945312,-13.713987350463867,-12.29662036895752,-157.74578857421875,60.35375213623047,159.74424743652344,-31.650001525878906,12.15000057220459,-9.0
6.479,71.32805633544922,-12.60307788848877,-12.373234748840332,-163.6079559326172,55.69065856933594,199.31393432617188,-30.750001907348633,11.850000381469727,-7.650000095367432
6.499,68.87639617919922,-9.500192642211914,-13.254301071166992,-173.6002960205078,58.355281829833984,189.85450744628906,-32.55000305175781,10.800000190734863,-6.600000381469727
6.504,67.03765106201172,-6.742072105407715,-12.22000503540039,-179.32923889160156,53.159263610839844,201.4456329345703,-32.55000305175781,9.15000057220459,-5.850000381469727
6.51,65.16059112548828,-3.141192674636841,-12.258312225341797,-182.2603302001953,55.82388687133789,206.5084228515625,-33.150001525878906,10.5,-6.300000190734863
6.52,64.39444732666016,-1.3024457693099976,-10.611102104187012,-171.46859741210938,41.30168533325195,211.5712127685547,-33.150001525878906,10.5,-6.300000190734863
6.53,63.97306823730469,-0.4213795065879822,-11.798625946044922,-176.13169860839844,46.231239318847656,211.43797302246094,-33.150001525878906,10.5,-6.300000190734863
6.54,62.977081298828125,2.1068975925445557,-11.760318756103516,-162.1424102783203,36.905052185058594,209.57273864746094,-34.20000076293945,7.800000190734863,-4.5
6.559,63.74322509765625,2.9496564865112305,-11.1474027633667,-135.89585876464844,21.316997528076172,213.4364471435547,-34.80000305175781,6.900000095367432,-3.9000000953674316
6.562,63.24523162841797,2.030282974243164,-11.91354751586914,-126.30321502685547,20.784072875976562,207.5742645263672,-35.25,4.950000286102295,-3.9000000953674316
6.57,64.20291137695312,2.604891538619995,-12.29662036895752,-123.2388916015625,14.92189884185791,205.97549438476562,-35.25,4.950000286102295,-3.9000000953674316
6.58,64.39444732666016,1.647210717201233,-12.22000503540039,-111.38131713867188,12.923430442810059,197.9816131591797,-35.400001525878906,6.300000190734863,-4.5
6.59,66.42472839355469,0.8810662031173706,-12.564770698547363,-86.46707153320312,5.462480545043945,209.70596313476562,-37.5,4.200000286102295,-4.350000381469727
6.6,68.95301055908203,-0.7661445140838623,-11.492168426513672,-87.13323211669922,7.06125545501709,203.97702026367188,-35.55000305175781,4.950000286102295,-2.5500001907348633
6.62,72.13250732421875,-1.4939818382263184,-10.304644584655762,-89.93108367919922,11.457886695861816,193.45175170898438,-37.95000076293945,3.1500000953674316,-2.25
6.624,75.58016204833984,-4.405331134796143,-11.836933135986328,-90.59724426269531,12.390504837036133,216.6339874267578,-37.95000076293945,3.1500000953674316,-2.25
6.63,75.81000518798828,-6.473921298980713,-14.020444869995117,-97.12557220458984,12.25727367401123,192.91883850097656,-37.80000305175781,0.75,-1.350000023841858
6.64,74.50755310058594,-6.627150535583496,-14.595053672790527,-98.99080657958984,19.185298919677734,183.1929473876953,-37.95000076293945,1.350000023841858,-3.450000047683716
6.65,73.43495178222656,-11.070788383483887,-16.89348793029785,-97.7917251586914,28.111791610717773,176.39816284179688,-37.80000305175781,0.30000001192092896,-2.1000001430511475
6.66,71.09821319580078,-12.105083465576172,-17.12333106994629,-101.52220153808594,31.44257164001465,170.0030517578125,-38.70000076293945,-0.15000000596046448,-2.25
6.679,72.97526550292969,-12.90953540802002,-16.089035034179688,-114.84532928466797,39.9693717956543,159.8774871826172,-38.70000076293945,-0.15000000596046448,-2.25
6.682,75.42693328857422,-10.41956615447998,-15.322891235351562,-102.98774719238281,35.972434997558594,156.41346740722656,-37.20000076293945,-1.6500000953674316,-2.25
6.69,75.9249267578125,-7.4316020011901855,-15.207969665527344,-100.3231201171875,33.97396469116211,146.82083129882812,-39.30000305175781,-1.5,-2.8500001430511475
6.7,76.46122741699219,-6.665457725524902,-16.012420654296875,-89.26493072509766,35.705970764160156,189.85450744628906,-37.80000305175781,-2.700000047683716,-2.8500001430511475
6.71,76.07815551757812,-6.167463779449463,-15.514427185058594,-90.19754791259766,44.23276901245117,116.71056365966797,-38.400001525878906,-2.8500001430511475,-1.9500000476837158
6.72,76.42292022705078,-6.320692539215088,-16.203956604003906,-82.7365951538086,41.035221099853516,112.04747009277344,-38.400001525878906,-2.8500001430511475,-1.9500000476837158
6.739,78.60643005371094,-5.631162166595459,-17.00840950012207,-67.5482406616211,40.9019889831543,117.11026000976562,-38.70000076293945,-4.350000381469727,-0.45000001788139343
6.743,81.32624053955078,-8.312667846679688,-18.732234954833984,-63.151607513427734,46.231239318847656,102.32159423828125,-38.70000076293945,-4.350000381469727,-0.45000001788139343
6.75,82.66699981689453,-8.580819129943848,-18.464082717895508,-57.289432525634766,46.364471435546875,95.79325866699219,-39.150001525878906,-5.100000381469727,-0.15000000596046448
6.76,83.81621551513672,-8.08282470703125,-17.889474868774414,-49.16232681274414,35.972434997558594,89.26493072509766,-39.900001525878906,-6.300000190734863,-0.9000000357627869
6.77,85.11865997314453,-11.03248119354248,-18.004396438598633,-38.23736572265625,41.035221099853516,78.3399658203125,-39.900001525878906,-6.300000190734863,-0.9000000357627869
6.78,88.18323516845703,-9.193734169006348,-15.514427185058594,-38.90352249145508,50.09494400024414,59.15467071533203,-39.150001525878906,-6.300000190734863,-0.15000000596046448
6.799,87.68524169921875,-8.542511940002441,-15.054739952087402,-34.773353576660156,50.4946403503418,44.76569747924805,-38.400001525878906,-5.100000381469727,-0.15000000596046448
6.803,87.68524169921875,-5.363011837005615,-13.943830490112305,-11.058192253112793,35.972434997558594,42.23430252075195,-38.55000305175781,-6.450000286102295,0.6000000238418579
6.81,87.68524169921875,-5.899312973022461,-14.403517723083496,-31.44257164001465,41.168453216552734,27.71209716796875,-37.95000076293945,-7.050000190734863,0.45000001788139343
6.82,86.99571228027344,-3.869029998779297,-14.135366439819336,-11.191424369812012,49.82848358154297,14.255742073059082,-37.95000076293945,-7.050000190734863,0.45000001788139343
6.83,89.1792221069336,-2.5282769203186035,-13.560758590698242,6.5283308029174805,40.102603912353516,7.594180583953857,-39.45000076293945,-5.550000190734863,-0.15000000596046448
6.84,93.43132781982422,-4.8267107009887695,-11.224017143249512,32.90811538696289,36.238895416259766,1.8652373552322388,-39.75,-6.450000286102295,-0.30000001192092896
6.857,98.29634857177734,-6.550535678863525,-4.903325080871582,41.701377868652344,29.044410705566406,-34.24042892456055,-38.70000076293945,-7.800000190734863,1.9500000476837158
6.861,104.7319564819336,-14.403517723083496,-3.8307228088378906,49.56201934814453,21.716691970825195,-30.110260009765625,-38.70000076293945,-7.800000190734863,1.9500000476837158
6.87,102.2802963256836,-15.782577514648438,-3.8307228088378906,56.889739990234375,20.650842666625977,-49.82848358154297,-38.70000076293945,-7.800000190734863,1.9500000476837158
6.88,99.13910675048828,-14.824896812438965,-6.588842868804932,62.35221862792969,19.718223571777344,-73.81010437011719,-38.70000076293945,-7.050000190734863,1.2000000476837158
6.89,97.0322036743164,-14.441824913024902,-10.074800491333008,78.47319793701172,23.182235717773438,-86.0673828125,-39.150001525878906,-6.750000476837158,2.25
6.908,96.22775268554688,-12.334927558898926,-10.764330863952637,103.92036437988281,26.912710189819336,-84.73506927490234,-38.55000305175781,-6.900000095367432,0.30000001192092896
6.912,94.65715789794922,-11.070788383483887,-9.500192642211914,118.17610931396484,24.914241790771484,-88.06584930419922,-38.25,-6.900000095367432,0.0
6.92,91.17120361328125,-12.105083465576172,-10.5344877243042,127.63552856445312,16.387441635131836,-100.9892807006836,-38.25,-6.900000095367432,0.0
6.93,88.18323516845703,-13.292608261108398,-11.070788383483887,143.09034729003906,12.124042510986328,-103.92036437988281,-38.25,-6.900000095367432,0.0
6.94,86.53602600097656,-12.48815631866455,-10.955866813659668,161.6094970703125,-13.189892768859863,-105.25267791748047,-38.25,-4.5,0.30000001192092896
6.95,83.89282989501953,-11.836933135986328,-7.891288757324219,171.3353729248047,-11.324655532836914,-105.25267791748047,-39.0,-4.200000286102295,0.6000000238418579
6.96,80.94316864013672,-11.91354751586914,-5.937620162963867,185.5911102294922,-25.18070411682129,-107.65084075927734,-39.0,-4.950000286102295,0.0
6.972,80.13871765136719,-10.41956615447998,-4.8267107009887695,205.5758056640625,-46.897396087646484,-98.05818939208984,-37.20000076293945,-3.1500000953674316,0.9000000357627869
6.98,78.29997253417969,-9.423578262329102,-0.5746083855628967,225.56048583984375,-62.21898651123047,-96.32618713378906,-37.20000076293945,-3.1500000953674316,0.9000000357627869
6.99,77.61044311523438,-10.304644584655762,1.2258312702178955,236.61868286132812,-73.41041564941406,-95.52679443359375,-37.5,-2.700000047683716,-2.1000001430511475
7.0,77.22737121582031,-9.691728591918945,3.332728862762451,251.27410888671875,-89.39816284179688,-105.65237426757812,-38.25,-3.750000238418579,-1.0500000715255737
7.01,76.26969146728516,-11.568782806396484,6.167463779449463,269.52679443359375,-103.25421142578125,-103.12097930908203,-37.20000076293945,-4.050000190734863,-1.6500000953674316
7.029,77.49552154541016,-14.939818382263184,5.822698593139648,277.5206604003906,-111.64777374267578,-117.50994873046875,-37.80000305175781,-3.750000238418579,-2.1000001430511475
7.033,77.38059997558594,-18.157625198364258,8.006210327148438,287.77947998046875,-119.7748794555664,-137.76109313964844,-37.80000305175781,-3.750000238418579,-2.1000001430511475
7.04,79.33426666259766,-23.099258422851562,9.691728591918945,294.30780029296875,-129.90045166015625,-140.6921844482422,-37.5,-1.0500000715255737,-3.9000000953674316
7.049,79.52580261230469,-25.167848587036133,8.236053466796875,291.376708984375,-139.09341430664062,-164.67381286621094,-36.900001525878906,-2.8500001430511475,-3.750000238418579
7.06,80.63671112060547,-27.734432220458984,8.159439086914062,277.5206604003906,-141.0918731689453,-187.85604858398438,-37.650001525878906,-1.6500000953674316,-4.200000286102295
7.07,81.59439086914062,-30.186094284057617,6.627150535583496,254.33843994140625,-144.68911743164062,-210.63858032226562,-35.70000076293945,-1.350000023841858,-6.0
7.088,80.90486145019531,-31.794998168945312,4.865017890930176,234.35374450683594,-147.22052001953125,-217.96630859375,-35.70000076293945,-1.350000023841858,-6.0
7.093,79.90887451171875,-32.56114196777344,2.145204782485962,184.79173278808594,-131.0995330810547,-225.02755737304688,-34.20000076293945,-0.15000000596046448,-7.050000190734863
7.1,76.30799865722656,-32.599449157714844,-1.800439715385437,166.00611877441406,-129.10107421875,-244.612548828125,-34.95000076293945,-0.9000000357627869,-8.25
7.11,74.20109558105469,-32.13976287841797,-3.2561142444610596,137.8943328857422,-121.64012145996094,-236.21897888183594,-35.400001525878906,1.350000023841858,-8.550000190734863
7.12,72.09420013427734,-29.726408004760742,-5.018246650695801,106.31852722167969,-115.11178588867188,-243.28024291992188,-34.5,-0.30000001192092896,-7.650000095367432
7.13,69.10623931884766,-26.12552833557129,-6.665457725524902,81.53751373291016,-93.79479217529297,-246.61102294921875,-34.5,-0.30000001192092896,-7.650000095367432
7.149,66.61626434326172,-21.26051139831543,-7.508216381072998,63.684532165527344,-84.33537292480469,-241.9479217529297,-32.400001525878906,1.6500000953674316,-10.350000381469727
7.153,65.42874145507812,-15.744270324707031,-6.703764915466309,63.28483963012695,-86.46707153320312,-232.35528564453125,-34.05000305175781,3.450000047683716,-10.65000057220459
7.16,64.12629699707031,-9.53849983215332,-4.022258758544922,50.4946403503418,-77.67381286621094,-243.28024291992188,-34.05000305175781,3.450000047683716,-10.65000057220459
7.17,62.63231658935547,-5.975927352905273,-3.869029998779297,50.62786865234375,-82.07044219970703,-231.95558166503906,-34.05000305175781,4.950000286102295,-12.0
7.18,62.8238525390625,-3.3710360527038574,-2.911349296569824,45.96477508544922,-88.865234375,-222.62939453125,-34.05000305175781,4.950000286102295,-12.0
7.19,62.13432312011719,-0.689530074596405,-3.7158010005950928,47.830013275146484,-79.53904724121094,-216.6339874267578,-32.55000305175781,5.700000286102295,-11.40000057220459
7.21,62.057708740234375,-0.727837324142456,-4.137180328369141,40.9019889831543,-69.54670715332031,-225.96017456054688,-30.900001525878906,8.25,-11.850000381469727
7.214,61.48310089111328,0.6129156351089478,-3.3710360527038574,43.56661605834961,-67.68146514892578,-212.37059020996094,-29.700000762939453,7.800000190734863,-12.600000381469727
7.22,61.98109436035156,0.9193734526634216,-2.604891538619995,53.42572784423828,-79.13935852050781,-215.56814575195312,-29.700000762939453,7.800000190734863,-12.600000381469727
7.23,62.09601593017578,-1.072602391242981,-2.2601263523101807,42.36753463745117,-74.20980072021484,-218.49923706054688,-29.700000762939453,7.800000190734863,-12.600000381469727
7.24,65.19889831542969,-1.3407529592514038,-3.6391866207122803,25.580398559570312,-72.61102294921875,-215.16844177246094,-29.400001525878906,7.050000190734863,-14.40000057220459
7.25,65.2372055053711,-1.3024457693099976,-4.750096321105957,13.323123931884766,-83.93567657470703,-210.77182006835938,-29.55000114440918,8.40000057220459,-13.200000762939453
7.27,66.19488525390625,-1.2258312702178955,-4.098873138427734,-3.597243309020996,-79.0061264038086,-199.713623046875,-30.000001907348633,8.850000381469727,-13.200000762939453
7.273,66.30980682373047,0.9959878921508789,-5.899312973022461,-33.57427215576172,-67.94792938232422,-199.31393432617188,-27.000001907348633,10.050000190734863,-13.200000762939453
7.28,68.95301055908203,4.711789131164551,-8.619126319885254,-48.362937927246094,-66.21592712402344,-209.83920288085938,-27.000001907348633,10.050000190734863,-13.200000762939453
7.29,68.03363800048828,7.086836814880371,-9.691728591918945,-50.09494400024414,-62.75191116333008,-195.45022583007812,-25.80000114440918,11.100000381469727,-15.750000953674316
7.3,69.68084716796875,11.185709953308105,-9.768342971801758,-64.21745300292969,-47.830013275146484,-193.98468017578125,-25.05000114440918,12.300000190734863,-13.200000762939453
7.31,71.97927856445312,15.667655944824219,-11.262324333190918,-68.88054656982422,-41.168453216552734,-189.5880584716797,-26.55000114440918,12.750000953674316,-13.950000762939453
7.329,73.85633087158203,18.847156524658203,-13.139378547668457,-67.01531219482422,-42.36753463745117,-168.5375213623047,-25.950000762939453,14.100000381469727,-14.850000381469727
7.333,74.3160171508789,24.171859741210938,-13.828908920288086,-69.81317138671875,-37.304744720458984,-150.2848358154297,-25.950000762939453,14.100000381469727,-14.850000381469727
7.34,77.22737121582031,28.07919692993164,-16.778566360473633,-75.14241790771484,-27.978559494018555,-143.09034729003906,-25.950000762939453,14.100000381469727,-14.850000381469727
7.35,77.84028625488281,30.415939331054688,-17.966089248657227,-78.73966217041016,-8.260336875915527,-124.8376693725586,-25.05000114440918,14.550000190734863,-15.000000953674316
7.36,79.29595947265625,32.982521057128906,-20.187908172607422,-67.94792938232422,-15.588054656982422,-96.59264373779297,-23.400001525878906,15.15000057220459,-13.350000381469727
7.369,81.21131896972656,37.27293395996094,-22.37141990661621,-55.02450180053711,-14.522205352783203,-66.34915924072266,-25.05000114440918,15.450000762939453,-13.500000953674316
7.389,83.54806518554688,40.260894775390625,-22.677879333496094,-53.95865249633789,1.8652373552322388,-60.22052001953125,-23.25,18.150001525878906,-14.250000953674316
7.393,82.74361419677734,41.41011428833008,-21.87342643737793,-18.2526798248291,2.6646246910095215,-25.18070411682129,-23.25,16.5,-13.950000762939453
7.4,84.50574493408203,42.71255874633789,-21.14558982849121,3.597243309020996,-6.794793128967285,-3.597243309020996,-23.25,16.5,-13.950000762939453
7.41,83.43314361572266,42.32948684692383,-22.562957763671875,14.255742073059082,8.127105712890625,11.857580184936523,-22.650001525878906,17.850000381469727,-14.850000381469727
7.419,81.05809020996094,40.18428039550781,-20.341136932373047,24.11485481262207,7.194486618041992,40.635528564453125,-23.25,16.5,-12.750000953674316
7.43,80.67501831054688,37.42616271972656,-18.88546371459961,34.24042892456055,6.9280242919921875,67.41500854492188,-23.25,16.5,-12.750000953674316
7.449,79.71733856201172,34.55311965942383,-17.276559829711914,33.4410400390625,7.06125545501709,79.40581512451172,-23.400001525878906,16.350000381469727,-12.750000953674316
7.452,82.16899871826172,27.88766098022461,-15.131354331970215,37.304744720458984,-4.529861927032471,99.79019927978516,-23.400001525878906,14.850000381469727,-13.350000381469727
7.46,88.41307830810547,19.99637222290039,-11.30063247680664,20.517610549926758,-16.387441635131836,104.85298156738281,-22.5,15.000000953674316,-13.500000953674316
7.469,89.75382995605469,15.591041564941406,-12.449849128723145,-12.124042510986328,-9.859111785888672,107.51760864257812,-23.55000114440918,15.750000953674316,-13.500000953674316
7.48,88.10662078857422,11.262324333190918,-20.11129379272461,-56.09035110473633,5.462480545043945,124.70443725585938,-23.55000114440918,15.750000953674316,-13.500000953674316
7.49,83.43314361572266,10.189722061157227,-28.423961639404297,-84.20214080810547,35.306278228759766,147.75344848632812,-24.0,14.550000190734863,-13.500000953674316
7.509,77.91690063476562,9.615114212036133,-30.569168090820312,-84.06890869140625,49.29555892944336,168.0045928955078,-25.500001907348633,15.000000953674316,-13.950000762939453
7.512,77.61044311523438,5.631162166595459,-15.322891235351562,-87.13323211669922,55.29096221923828,167.2052001953125,-25.500001907348633,13.500000953674316,-12.450000762939453
7.52,78.64473724365234,6.3973069190979,-13.369222640991211,-85.53445434570312,49.16232681274414,160.2771759033203,-27.000001907348633,13.500000953674316,-12.450000762939453
7.53,77.41890716552734,1.0342950820922852,-9.385271072387695,-80.07197570800781,26.113323211669922,166.2725830078125,-27.000001907348633,13.500000953674316,-12.450000762939453
7.54,76.30799865722656,-6.205770969390869,-7.508216381072998,-94.19448852539062,4.929555892944336,137.8943328857422,-26.250001907348633,12.750000953674316,-13.200000762939453
7.55,72.74542236328125,-14.058752059936523,-8.121131896972656,-127.63552856445312,11.857580184936523,130.43338012695312,-26.250001907348633,12.300000190734863,-11.700000762939453
