PacketCounter,Acc_X,Acc_Y,Acc_Z,Gyr_X,Gyr_Y,Gyr_Z,Roll,Pitch,Yaw
5758,2.906397,5.368844,7.967464,0.085681,0.010895,-0.049173,33.978168,-15.640307,65.032573
5759,2.803751,5.400038,7.98427,0.051276,0.011903,-0.063864,34.013718,-15.615064,65.004422
5760,2.761994,5.369444,7.930477,0.031452,-0.004183,-0.085459,34.042101,-15.590224,64.961768
5761,2.697419,5.28717,8.03306,0.020466,-0.01493,-0.106043,34.067607,-15.56423,64.9081
5762,2.634265,5.162489,8.129929,0.005705,-0.04356,-0.128657,34.09042,-15.544172,64.831078
5763,2.607081,5.015856,8.182364,-0.000111,-0.080319,-0.150766,34.116226,-15.53466,64.729955
5764,2.560454,4.966606,8.25099,0.009339,-0.109345,-0.167506,34.152087,-15.533239,64.611886
5765,2.538755,5.027288,8.364107,0.042933,-0.137029,-0.18045,34.211904,-15.540659,64.477037
5766,2.508839,4.994741,8.446106,0.066536,-0.169723,-0.184311,34.288207,-15.562184,64.330489
5767,2.44156,5.032847,8.436704,0.085059,-0.184699,-0.209042,34.379251,-15.583209,64.166977
5768,2.41083,5.172594,8.432905,0.10376,-0.205802,-0.237138,34.487242,-15.604218,63.982275
5769,2.344861,5.214349,8.315023,0.104408,-0.222389,-0.264957,34.601291,-15.623662,63.776474
5770,2.124979,5.149741,8.211308,0.106522,-0.254686,-0.301502,34.723972,-15.646022,63.543608
5771,1.921095,5.012885,8.113838,0.099466,-0.290107,-0.348962,34.85188,-15.669382,63.277962
5772,1.584203,4.981229,8.038672,0.111789,-0.342837,-0.394358,34.998191,-15.701667,62.969594
5773,1.338642,4.851469,7.970342,0.114638,-0.414238,-0.446959,35.160272,-15.749215,62.610625
5774,1.151527,4.807327,8.010178,0.093564,-0.474992,-0.495309,35.322406,-15.808327,62.207442
5775,1.086055,4.888603,8.080473,0.021202,-0.538466,-0.524166,35.453699,-15.886337,61.768947
5776,1.076022,4.829142,8.003125,-0.074397,-0.607103,-0.550882,35.540781,-15.986853,61.29251
5777,1.110304,4.858648,7.968594,-0.182492,-0.667658,-0.568604,35.574996,-16.109131,60.790679
5778,1.21618,4.839533,7.953501,-0.294242,-0.716224,-0.5743,35.55198,-16.252174,60.264311
5779,1.232781,4.767565,8.012072,-0.409997,-0.75371,-0.573567,35.46758,-16.413245,59.728007
5780,1.256553,4.786065,8.176553,-0.509234,-0.794579,-0.583346,35.333298,-16.591318,59.16967
5781,1.327828,4.712599,8.267741,-0.547122,-0.819491,-0.589168,35.182291,-16.780237,58.605665
5782,1.536811,4.821043,8.364324,-0.511455,-0.841708,-0.611968,35.059068,-16.973574,58.016898
5783,1.626697,4.920069,8.307138,-0.466188,-0.865347,-0.634018,34.969368,-17.171587,57.417321
5784,1.651,4.864875,8.314109,-0.389116,-0.882086,-0.663925,34.931999,-17.368504,56.788487
5785,1.720125,5.062811,8.23278,-0.392466,-0.913272,-0.692507,34.902907,-17.570545,56.14389
5786,1.657026,5.076978,8.072134,-0.366426,-0.968189,-0.731455,34.9023,-17.786287,55.450889
5787,1.688759,4.928495,7.928319,-0.329926,-1.012887,-0.757462,34.934287,-18.014419,54.74063
5788,1.723807,4.802775,7.764151,-0.284215,-1.052199,-0.794009,35.005284,-18.248289,53.985661
5789,1.846518,4.986194,7.648974,-0.25103,-1.087692,-0.822696,35.10671,-18.487876,53.20424
5790,2.009668,4.999451,7.56251,-0.247604,-1.126785,-0.853813,35.223344,-18.734501,52.390804
5791,2.211318,4.979815,7.469278,-0.215443,-1.168896,-0.893821,35.373109,-18.985342,51.54263
5792,2.366479,4.819304,7.420771,-0.168449,-1.218748,-0.926209,35.565438,-19.246715,50.657255
5793,2.54438,4.823739,7.249336,-0.120307,-1.265145,-0.945876,35.798325,-19.519549,49.74495
5794,2.742194,4.918328,6.977584,-0.033726,-1.326118,-0.978326,36.099134,-19.806185,48.790283
5795,2.949302,5.040919,6.825111,0.031109,-1.398378,-1.009298,36.456563,-20.110077,47.792562
5796,3.1439,5.189515,6.573921,0.07775,-1.437045,-1.024178,36.855022,-20.420903,46.767629
5797,3.27879,5.31145,6.354391,0.098117,-1.485755,-1.05587,37.283259,-20.735673,45.706519
5798,3.565727,5.338085,6.114434,0.104452,-1.545332,-1.09259,37.737128,-21.057478,44.598771
5799,3.923419,5.389355,5.982692,0.132308,-1.600578,-1.11203,38.225267,-21.38846,43.457105
5800,4.090848,5.458156,6.019535,0.154627,-1.641745,-1.102788,38.739174,-21.732269,42.296773
5801,4.217657,5.468149,5.767831,0.182279,-1.687927,-1.086374,39.281198,-22.09225,41.121646
5802,4.325376,5.457169,5.596664,0.211572,-1.708024,-1.068714,39.849695,-22.457309,39.938788
5803,4.292454,5.522071,5.350202,0.240697,-1.735229,-1.041612,40.443534,-22.832874,38.752117
5804,4.172903,5.544407,4.821539,0.282371,-1.774781,-1.045197,41.07879,-23.212782,37.538735
5805,3.952406,5.701348,4.318409,0.38664,-1.826704,-1.045372,41.792775,-23.601506,36.296659
5806,3.940592,6.043035,3.943647,0.515575,-1.896151,-1.052505,42.605706,-24.001974,35.011635
5807,4.532206,7.059882,4.272649,0.701802,-1.916148,-1.077901,43.545669,-24.382649,33.696723
5808,5.531094,8.787594,5.735592,0.890852,-1.813323,-1.122769,44.595459,-24.682407,32.395129
5809,6.355929,10.766669,7.843529,0.892278,-1.678008,-1.221424,45.64747,-24.865494,31.102137
5810,6.493807,11.585206,8.139284,0.615637,-1.652029,-1.32409,46.560105,-24.975849,29.770809
5811,5.616617,9.20007,7.775761,0.367057,-1.681121,-1.295491,47.33435,-25.091662,28.435513
5812,3.23493,5.29316,6.403409,0.247481,-1.674809,-1.152888,48.017167,-25.250168,27.160937
5813,2.190963,2.97747,5.63917,0.360097,-1.643583,-1.051414,48.744839,-25.425927,25.940131
5814,3.042012,3.202156,5.835445,0.68944,-1.553819,-0.994619,49.637539,-25.577201,24.781667
5815,4.373769,4.7462,6.96729,1.177369,-1.414864,-0.943564,50.775364,-25.681307,23.708281
5816,5.082921,6.552847,8.52963,1.520766,-1.371342,-0.879259,52.092714,-25.778043,22.678416
5817,6.45267,8.248266,8.971454,1.465737,-1.306001,-0.775358,53.349237,-25.87847,21.719618
5818,6.69828,8.589472,8.000886,1.324753,-1.254427,-0.671723,54.499609,-25.991463,20.82233
5819,6.204578,7.423446,6.188715,1.295633,-1.205045,-0.554929,55.605956,-26.127064,19.991519
5820,5.217758,6.263242,4.359534,1.381822,-1.134283,-0.397958,56.724602,-26.300382,19.24894
5821,4.223172,6.803568,3.531161,1.454523,-1.031616,-0.261566,57.843194,-26.494527,18.605285
5822,4.305065,8.175976,3.972811,1.423212,-0.9178,-0.144847,58.903249,-26.70049,18.056479
5823,4.122692,9.238046,5.422917,1.327738,-0.783725,-0.056147,59.865707,-26.902296,17.606948
5824,3.578431,9.361041,6.106562,1.278189,-0.759916,-0.0259,60.793227,-27.105823,17.174682
5825,3.14868,9.214079,5.545407,1.35243,-0.744151,-0.027301,61.762361,-27.297802,16.747618
5826,3.161338,9.520782,5.156698,1.531041,-0.705445,-0.028557,62.827541,-27.472143,16.336589
5827,4.026514,9.824756,4.940045,1.682434,-0.652139,-0.02248,63.966999,-27.62873,15.955041
5828,4.559178,10.040871,5.319632,1.677597,-0.609931,0.009986,65.091247,-27.785112,15.601975
5829,5.212019,9.538549,5.146399,1.543248,-0.57392,0.052409,66.125442,-27.949039,15.278995
5830,5.323216,8.075056,4.40293,1.405405,-0.506492,0.128256,67.055647,-28.132715,15.010819
5831,5.200737,6.986462,4.035722,1.342491,-0.422768,0.203891,67.919125,-28.334176,14.809468
5832,5.026343,6.477421,4.187816,1.316086,-0.344811,0.275511,68.739751,-28.554785,14.6674
5833,5.074761,6.830698,4.20407,1.364756,-0.254945,0.351606,69.555222,-28.795864,14.595632
5834,4.826813,7.314827,3.534901,1.43201,-0.189277,0.415926,70.385599,-29.057869,14.572891
5835,4.478382,7.761722,2.516287,1.459069,-0.146853,0.472205,71.214293,-29.341885,14.586064
5836,4.51166,8.545055,1.961614,1.493144,-0.100297,0.504803,72.047807,-29.635464,14.628506
5837,4.78512,9.38136,2.179233,1.485147,-0.024314,0.557852,72.849226,-29.945257,14.726409
5838,4.844582,10.119596,2.317011,1.366229,0.030476,0.609888,73.56249,-30.275733,14.862803
5839,4.711977,10.525049,2.087292,1.219862,0.063453,0.662803,74.176974,-30.631279,15.027672
5840,4.723006,10.34463,2.080286,1.069272,0.105033,0.744294,74.685441,-31.026923,15.228807
5841,4.927784,9.846589,2.125543,0.977098,0.127914,0.841876,75.124283,-31.474369,15.46028
5842,5.244369,9.471177,2.148315,1.011761,0.150964,0.918257,75.568729,-31.962495,15.715438
5843,5.4839,8.992987,2.145802,1.027924,0.153887,0.988764,76.014349,-32.490846,15.982514
5844,5.54633,8.36383,2.03336,1.02892,0.176851,1.076829,76.444669,-33.066972,16.274548
5845,5.772401,8.177,2.176328,1.008648,0.187879,1.156225,76.850996,-33.687474,16.584811
5846,6.104588,8.118845,2.301822,0.913883,0.181762,1.243258,77.196854,-34.35924,16.900534
5847,6.422029,8.190054,2.242607,0.799567,0.184678,1.338512,77.465046,-35.085075,17.232475
5848,6.604251,8.17719,2.120095,0.706175,0.183063,1.442964,77.668521,-35.870871,17.577124
5849,6.724662,8.15355,2.016436,0.621943,0.179364,1.568884,77.809019,-36.728255,17.940374
5850,7.054603,8.428337,1.778485,0.581304,0.174547,1.699704,77.911187,-37.660317,18.320493
5851,7.29442,8.849895,1.679324,0.566837,0.161339,1.810421,77.992923,-38.656281,18.712639
5852,7.277388,9.45526,1.908758,0.51407,0.119842,1.890812,78.048173,-39.702806,19.089658
5853,7.347258,10.355094,1.980912,0.420793,0.057473,1.92706,78.06676,-40.777023,19.432982
5854,7.456442,10.87936,2.139427,0.249559,-0.002902,1.929661,78.008417,-41.859986,19.736234
5855,7.377999,11.117947,2.333509,0.013698,-0.076333,1.916064,77.843691,-42.943443,19.991097
5856,7.432104,11.324139,2.561988,-0.23194,-0.164105,1.882522,77.578882,-44.018359,20.181185
5857,7.592841,11.292517,2.614546,-0.491302,-0.274603,1.852906,77.21853,-45.08946,20.292594
5858,7.909124,10.912773,2.704832,-0.811612,-0.39539,1.829577,76.7363,-46.162823,20.315106
5859,8.259924,10.12983,2.636954,-1.159699,-0.492735,1.805765,76.103158,-47.235462,20.27115
5860,8.418944,9.245711,2.726233,-1.492556,-0.566843,1.803834,75.312215,-48.318163,20.182894
5861,8.413346,8.217816,2.95095,-1.794593,-0.656419,1.806747,74.38766,-49.416264,20.044406
5862,8.627194,7.222756,3.415474,-1.995799,-0.746922,1.813904,73.388789,-50.534472,19.854045
5863,9.176227,6.418774,3.891928,-2.019198,-0.837731,1.858403,72.410058,-51.693889,19.624459
5864,10.051331,6.252952,4.702262,-1.97086,-0.902719,1.93805,71.470113,-52.910911,19.383813
5865,11.075859,7.37874,5.673919,-2.003641,-0.875119,1.985865,70.458535,-54.150595,19.213811
5866,12.174421,8.289568,6.645955,-2.161059,-0.784697,1.955463,69.270218,-55.358232,19.151331
5867,12.851323,8.190334,7.043197,-2.304099,-0.694652,1.931079,67.897271,-56.534092,19.215116
5868,13.051829,6.747319,7.130169,-2.361929,-0.646671,1.882512,66.422836,-57.672865,19.358027
5869,13.399454,5.495827,6.847629,-2.189699,-0.585685,1.817426,64.966209,-58.760446,19.596263
5870,13.433364,4.399539,6.658933,-1.816823,-0.437703,1.732598,63.578576,-59.764527,19.998261
5871,14.284955,2.413392,6.438709,-1.425319,-0.367998,1.595183,62.359725,-60.674909,20.462821
5872,14.590766,1.912108,5.871441,-0.738224,-0.164214,1.461004,61.370742,-61.458378,21.108268
5873,14.252597,1.897325,6.056037,-0.202097,0.119675,1.289795,60.469232,-62.071329,22.001899
5874,13.990798,1.81158,5.796507,0.231286,0.315219,1.076395,59.715934,-62.516787,23.001171
5875,13.10984,1.66155,5.398654,0.610847,0.481315,0.839105,59.12806,-62.790808,24.059403
5876,12.194724,2.079263,4.951204,0.840532,0.695293,0.620766,58.584314,-62.89007,25.210557
5877,11.164724,2.175401,4.187887,0.942237,0.872367,0.413282,58.045553,-62.829357,26.42544
5878,10.557971,2.040082,3.587366,1.016756,1.060898,0.173376,57.526422,-62.590227,27.663861
5879,9.66538,1.707788,2.831043,1.156823,1.231548,-0.073905,57.091503,-62.173711,28.905768
5880,8.848058,1.419599,2.162871,1.321125,1.397483,-0.308619,56.771094,-61.589467,30.126032
5881,8.073712,1.119094,1.579425,1.426804,1.548498,-0.501388,56.520505,-60.861876,31.347642
5882,7.313769,0.660416,1.128421,1.517492,1.660761,-0.650073,56.352676,-60.026263,32.538814
5883,6.609478,0.220468,0.796411,1.602719,1.722645,-0.754977,56.275234,-59.11904,33.696573
5884,6.157511,-0.443627,0.477424,1.699977,1.719536,-0.842149,56.341106,-58.171873,34.758714
5885,5.614005,-0.756644,0.213929,1.876957,1.721048,-0.900119,56.562301,-57.197268,35.77235
5886,5.230883,-0.94524,0.091195,2.04206,1.705092,-0.927773,56.930122,-56.217879,36.73073
5887,4.844033,-1.185958,0.000504,2.206544,1.653889,-0.917743,57.438297,-55.262632,37.648249
5888,4.392121,-1.038162,0.032258,2.319345,1.567659,-0.884129,58.071279,-54.355829,38.498442
5889,4.001058,-0.632787,0.123041,2.356724,1.464204,-0.835981,58.779665,-53.508765,39.295126
5890,3.714271,-0.117622,0.412071,2.320495,1.364421,-0.795357,59.524419,-52.717561,40.02491
5891,3.565337,0.466143,0.737018,2.267002,1.268275,-0.74724,60.281958,-51.983069,40.711035
5892,3.4308,1.133336,1.182778,2.155484,1.191167,-0.714309,61.017059,-51.292716,41.34718
5893,3.362049,1.727171,1.705112,1.977715,1.14052,-0.676452,61.667632,-50.639555,41.9707
5894,3.342985,2.512827,2.288508,1.808053,1.103234,-0.615737,62.229153,-50.031861,42.585561
5895,3.556297,3.168129,3.182658,1.591703,1.126746,-0.546388,62.6319,-49.455848,43.255059
5896,3.618988,3.664492,3.810436,1.242952,1.145307,-0.45034,62.803891,-48.926649,43.967262
5897,3.74928,4.115425,3.977606,0.859531,1.134326,-0.35944,62.741522,-48.446353,44.708291
5898,3.908546,4.046578,4.028041,0.471242,1.136708,-0.282101,62.445883,-48.003987,45.465271
5899,3.975448,3.678204,3.869946,0.127047,1.123422,-0.185288,61.940634,-47.609867,46.247942
5900,3.904619,3.481237,3.851984,-0.208565,1.075646,-0.074887,61.251211,-47.279863,47.020127
5901,4.080952,3.039506,3.47485,-0.480463,1.009516,0.033151,60.41682,-47.014496,47.78539
5902,4.034104,2.411527,3.223366,-0.632234,0.984117,0.174866,59.477356,-46.819729,48.574183
5903,3.864617,1.958119,3.003883,-0.731641,0.929833,0.317433,58.468203,-46.700808,49.386724
5904,3.839652,1.57032,2.747303,-0.773362,0.84776,0.465295,57.436649,-46.669909,50.193953
5905,3.946395,1.069764,2.42335,-0.740212,0.782197,0.63713,56.397734,-46.730897,51.041539
5906,3.992832,0.748776,2.210572,-0.650037,0.699733,0.811255,55.392213,-46.891825,51.908305
5907,4.167081,0.860786,1.96552,-0.52864,0.629147,0.984496,54.41989,-47.145812,52.826256
5908,4.427953,0.908307,1.743977,-0.412452,0.524386,1.138029,53.502225,-47.49714,53.751526
5909,4.758566,1.073658,1.587191,-0.288771,0.428106,1.296553,52.625199,-47.943187,54.716224
5910,5.052678,1.328738,1.536206,-0.190751,0.313645,1.452352,51.784385,-48.491443,55.695734
5911,5.512123,1.586086,1.495365,-0.118092,0.193868,1.60255,50.95736,-49.139051,56.707686
5912,6.040327,1.942002,1.57084,-0.062922,0.086895,1.753027,50.126651,-49.883724,57.751064
5913,6.498817,2.274044,1.664552,-0.0407,-0.026659,1.895457,49.266013,-50.721491,58.842226
5914,7.049356,2.550436,1.822977,-0.038137,-0.130452,2.033562,48.358236,-51.648355,59.977764
5915,7.633124,2.809331,1.898902,-0.049336,-0.221712,2.160507,47.377331,-52.651255,61.187094
5916,8.236981,2.943366,1.973199,-0.063746,-0.325328,2.276922,46.32815,-53.731349,62.450446
5917,8.841391,3.000631,1.930664,-0.072413,-0.414456,2.378793,45.194725,-54.873179,63.797803
5918,9.373776,2.991178,1.934195,-0.070423,-0.506293,2.471628,43.982062,-56.074705,65.219296
5919,10.012841,2.939401,1.956433,-0.036335,-0.5966,2.546043,42.697764,-57.324235,66.733629
5920,10.740518,2.863675,1.811845,0.026491,-0.677819,2.616075,41.346017,-58.616922,68.34456
5921,11.430841,2.852698,1.752029,0.119762,-0.747023,2.672576,39.922577,-59.938734,70.082628
5922,12.056126,2.825372,1.645238,0.237361,-0.819684,2.704845,38.449916,-61.282755,71.927467
5923,12.64317,2.837961,1.57494,0.338119,-0.882454,2.722785,36.899636,-62.636286,73.90554
5924,13.235495,2.899834,1.604284,0.416283,-0.937296,2.735624,35.243577,-63.994038,76.02454
5925,13.950188,2.913679,1.863414,0.410809,-1.011342,2.740389,33.423481,-65.358097,78.300274
5926,14.72117,2.660427,1.6114,0.494048,-1.079799,2.727314,31.483085,-66.719503,80.732007
5927,15.324701,2.752637,1.701596,0.604681,-1.151682,2.732759,29.382613,-68.081681,83.38378
5928,16.142881,2.819334,1.602181,0.718545,-1.197062,2.714807,27.100845,-69.422802,86.272264
5929,16.585625,2.932952,1.453233,0.853402,-1.207069,2.65205,24.645067,-70.70843,89.405569
5930,16.424304,3.038339,1.30549,1.004704,-1.204832,2.556754,22.047843,-71.923629,92.753546
5931,15.912571,3.067432,1.251625,1.169756,-1.148539,2.475317,19.240784,-73.039829,96.400378
5932,15.622231,3.177456,1.353606,1.289574,-1.115093,2.338233,16.314556,-74.058088,100.22055
5933,15.225856,3.210542,1.531261,1.345163,-1.05639,2.204414,13.226507,-74.965679,104.224823
5934,14.516715,2.84408,1.841347,1.387141,-0.944413,2.078989,9.967419,-75.735859,108.413574
5935,13.754663,2.927307,1.994775,1.506465,-0.825844,1.91929,6.71828,-76.363675,112.650742
5936,13.237283,2.989164,2.068329,1.589801,-0.698528,1.731969,3.623212,-76.852057,116.767434
5937,12.664995,3.05555,2.088964,1.674971,-0.544299,1.543283,0.792008,-77.197473,120.657549
5938,11.876473,2.948335,1.966102,1.700314,-0.425132,1.328091,-1.629036,-77.435537,124.136549
5939,11.219438,2.693135,1.704524,1.684064,-0.351925,1.107195,-3.576589,-77.607631,127.119398
5940,11.425393,2.298016,1.271587,1.711965,-0.274981,0.907701,-5.027794,-77.72562,129.607799
5941,11.344,2.04993,0.95811,1.806252,-0.163207,0.747296,-6.004153,-77.776925,131.665825
5942,11.090421,1.999048,0.803353,1.914774,-0.075617,0.608302,-6.534508,-77.781763,133.329865
5943,10.914191,2.105829,0.739349,1.98071,-0.009006,0.470351,-6.64361,-77.755381,134.602512
5944,10.789827,2.173194,0.772743,2.024997,0.041903,0.319833,-6.314275,-77.710676,135.451698
5945,10.187558,2.091893,0.832165,2.07843,0.116133,0.207237,-5.637963,-77.631628,135.97806
5946,9.669778,2.062348,0.861995,2.146828,0.156505,0.089506,-4.609474,-77.53759,136.183307
5947,8.955139,2.071118,0.873614,2.228887,0.21203,0.003792,-3.309971,-77.415824,136.159924
5948,8.500069,2.045858,0.937543,2.27224,0.231133,-0.087951,-1.763493,-77.285658,135.908128
5949,8.0228,1.936387,0.971787,2.329127,0.266257,-0.14569,-0.055871,-77.134111,135.525095
5950,7.495376,2.091498,1.105901,2.381437,0.286797,-0.186658,1.757303,-76.968184,135.063543
5951,6.850093,2.00516,1.26831,2.417432,0.304819,-0.209062,3.615752,-76.787847,134.577114
5952,6.33586,1.945269,1.423752,2.440858,0.299799,-0.224642,5.49358,-76.606432,134.083445
5953,5.94331,1.884286,1.42328,2.48544,0.295667,-0.223376,7.364496,-76.423536,133.623642
5954,5.568241,1.821167,1.475541,2.52677,0.289376,-0.204618,9.185722,-76.242693,133.23813
5955,5.197985,1.798732,1.400959,2.567296,0.274036,-0.183119,10.960428,-76.069548,132.925156
5956,4.888911,1.835326,1.350116,2.588584,0.254499,-0.152734,12.661901,-75.909077,132.699001
5957,4.690976,1.860571,1.237892,2.607142,0.223405,-0.125849,14.311636,-75.767597,132.538175
5958,4.561557,1.869451,1.159688,2.615318,0.179865,-0.089657,15.894192,-75.654946,132.450261
5959,4.361234,1.92046,1.108843,2.620061,0.145291,-0.035416,17.375014,-75.56919,132.471445
5960,4.338088,1.982474,1.077424,2.610944,0.100208,0.03124,18.730829,-75.520429,132.61503
5961,4.483202,2.105084,1.15294,2.570622,0.055184,0.106635,19.937094,-75.510633,132.890692
5962,4.594058,2.230948,1.396168,2.493582,0.012609,0.178838,20.979086,-75.54,133.288955
5963,4.797918,2.355729,1.677113,2.373023,-0.032433,0.253197,21.837498,-75.610041,133.807014
5964,5.062662,2.469077,2.022202,2.217257,-0.060258,0.329547,22.469613,-75.71357,134.464675
5965,5.301302,2.484572,2.189034,2.044129,-0.087821,0.419718,22.839241,-75.852358,135.292361
5966,5.550802,2.533052,2.238607,1.881498,-0.123805,0.49923,22.97023,-76.029395,136.267495
5967,5.85369,2.525219,2.477249,1.7073,-0.160494,0.575816,22.860591,-76.242199,137.389084
5968,6.216658,2.38432,2.702468,1.534551,-0.205333,0.65558,22.492359,-76.495937,138.671564
5969,6.477759,2.393691,2.844841,1.358938,-0.248545,0.725177,21.876116,-76.784248,140.106638
5970,6.778757,2.433445,2.973078,1.178111,-0.307903,0.788198,21.010458,-77.113918,141.687013
5971,7.112883,2.512997,3.352592,0.984571,-0.350684,0.845917,19.870984,-77.47093,143.435134
5972,7.407484,2.594078,3.7192,0.770509,-0.404267,0.886953,18.459323,-77.856903,145.330915
5973,7.572924,2.626338,4.088141,0.553244,-0.451474,0.915763,16.781815,-78.261631,147.371671
5974,7.831379,2.613634,4.26345,0.348965,-0.517137,0.929488,14.85832,-78.692202,149.537637
5975,8.153254,2.576183,4.392456,0.1483,-0.595548,0.941808,12.682134,-79.151298,151.844354
5976,8.616358,2.570453,4.531555,-0.05464,-0.672921,0.952454,10.195633,-79.637692,154.341057
5977,9.177334,2.534769,4.703778,-0.241255,-0.743441,0.965968,7.356426,-80.142209,157.087741
5978,9.682628,2.53647,4.998758,-0.429501,-0.789297,0.973417,4.089648,-80.648031,160.150205
5979,10.039165,2.60271,5.290295,-0.62241,-0.832849,0.973346,0.375237,-81.145667,163.554467
5980,10.435821,2.673741,5.594077,-0.819743,-0.878477,0.970332,-3.874379,-81.631962,167.37631
5981,10.990281,2.621126,5.919913,-1.05055,-0.911749,0.964219,-8.709247,-82.089734,171.656572
5982,11.616222,2.653292,6.049295,-1.274692,-0.944392,0.947744,-14.180963,-82.51241,176.439864
5983,12.215918,2.546491,6.145654,-1.447117,-0.9546,0.91652,-20.173435,-82.879032,-178.349602
5984,12.722426,2.41183,6.134559,-1.55925,-0.935394,0.874358,-26.575156,-83.172091,-172.801411
5985,13.193464,2.288353,6.005035,-1.634201,-0.91608,0.817394,-33.162566,-83.393252,-167.10554
5986,13.73673,2.111068,5.678563,-1.652659,-0.89129,0.756516,-39.817095,-83.545544,-161.361829
5987,14.292172,2.021825,5.419291,-1.619443,-0.842117,0.697194,-46.248036,-83.625094,-155.817598
5988,14.543106,1.995824,5.21195,-1.572721,-0.776029,0.634718,-52.303076,-83.638728,-150.632825
5989,14.602706,2.063969,5.104041,-1.520484,-0.687705,0.550363,-57.652202,-83.606508,-146.119739
5990,14.152242,2.142531,5.136694,-1.477383,-0.571853,0.452521,-62.177016,-83.54541,-142.419294
5991,13.439914,2.180908,5.133832,-1.451378,-0.459783,0.342586,-65.816418,-83.4849,-139.585347
5992,13.01699,2.198504,5.217129,-1.456785,-0.339154,0.220185,-68.645355,-83.442751,-137.579156
5993,12.551508,2.206629,5.205068,-1.473077,-0.208064,0.089528,-70.580845,-83.437012,-136.47162
5994,11.829686,2.136908,5.213123,-1.485039,-0.068538,-0.049133,-71.679832,-83.475302,-136.222984
5995,11.157351,2.170143,5.058587,-1.500763,0.072242,-0.201049,-71.83563,-83.572731,-136.921902
5996,10.626735,2.276157,4.842589,-1.564849,0.192142,-0.352031,-71.223118,-83.728121,-138.441432
5997,10.542106,2.35719,4.635308,-1.681819,0.310086,-0.482187,-69.737243,-83.930034,-140.894735
5998,10.826291,2.409693,4.521683,-1.850199,0.413845,-0.586736,-67.510821,-84.155708,-144.200186
5999,11.36476,2.617616,4.430772,-2.048994,0.509659,-0.673636,-64.401348,-84.389677,-148.493943
6000,12.040111,2.735304,4.376976,-2.254521,0.61257,-0.739456,-60.432864,-84.601905,-153.779616
6001,12.539584,2.975817,4.352919,-2.459373,0.735747,-0.790732,-55.351557,-84.761122,-160.286189
6002,13.072097,3.047741,4.313436,-2.687754,0.847783,-0.827593,-49.485929,-84.839901,-167.723426
6003,13.520101,3.057664,4.098861,-2.894437,0.97212,-0.852452,-42.903197,-84.804392,-175.985694
6004,13.736721,2.927116,3.859656,-3.052462,1.081643,-0.861105,-36.263426,-84.639942,175.588886
6005,13.932653,2.569957,3.620132,-3.152615,1.204673,-0.86672,-29.798827,-84.326943,167.292707
6006,13.888002,2.337117,3.338381,-3.184488,1.332918,-0.852432,-24.071826,-83.865761,159.699893
6007,13.692783,1.918648,3.098758,-3.144621,1.44835,-0.833367,-19.182615,-83.263549,152.980151
6008,13.429664,1.499863,2.766836,-2.99588,1.574555,-0.820925,-15.158847,-82.53916,147.194562
6009,13.111155,1.308889,2.631337,-2.78616,1.702711,-0.815648,-11.80475,-81.691861,142.210709
6010,12.677817,1.330166,2.409069,-2.598045,1.823267,-0.828151,-9.054268,-80.749438,137.920425
6011,12.270832,1.146732,2.273129,-2.371909,1.905104,-0.849101,-6.726155,-79.727109,134.193034
6012,11.953328,1.076726,2.045992,-2.146419,1.993159,-0.875034,-4.753519,-78.640356,130.931669
6013,11.490592,0.583571,1.88204,-1.841484,2.095861,-0.883435,-3.028179,-77.468563,128.103509
6014,10.989748,0.559512,1.859052,-1.604645,2.180651,-0.912235,-1.505324,-76.24037,125.594526
6015,10.482579,0.439868,1.719967,-1.349925,2.264454,-0.932099,-0.124393,-74.942541,123.383793
6016,9.899831,0.063496,1.633904,-0.938784,2.336884,-0.932817,1.186354,-73.598435,121.46221
6017,9.68046,0.329956,1.601656,-0.586623,2.408839,-0.980797,2.531456,-72.192685,119.71653
6018,9.719033,0.969685,1.51372,-0.378458,2.433206,-1.059323,3.886347,-70.766581,118.057915
6019,9.337766,1.118653,1.403505,-0.21867,2.465354,-1.123944,5.219052,-69.299484,116.522317
6020,8.944506,1.083778,1.218342,-0.068522,2.472704,-1.193779,6.538988,-67.820008,115.061013
6021,8.736352,1.004483,1.0226,0.11934,2.479342,-1.242304,7.856517,-66.312372,113.689835
6022,8.484886,1.092126,0.952816,0.298974,2.4781,-1.278015,9.155549,-64.799801,112.449983
6023,8.335655,1.390923,0.910032,0.431304,2.46566,-1.322705,10.441863,-63.270244,111.28859
6024,8.207568,1.59307,0.834776,0.515764,2.449276,-1.354434,11.680353,-61.744133,110.224439
6025,8.027938,1.769783,0.830302,0.574662,2.424944,-1.383307,12.872378,-60.2092,109.220435
6026,7.954448,1.869799,0.723902,0.594556,2.385699,-1.408901,14.002212,-58.692227,108.302883
6027,7.760531,1.995346,0.675819,0.591862,2.347097,-1.422215,15.060638,-57.177821,107.443933
6028,7.586381,2.116164,0.705664,0.56133,2.287649,-1.432295,16.041501,-55.695216,106.651549
6029,7.514747,2.169063,0.611632,0.508406,2.217963,-1.426938,16.93525,-54.236566,105.902488
6030,7.53413,2.161406,0.562418,0.454065,2.155604,-1.407106,17.736087,-52.817566,105.228816
6031,7.645442,2.100562,0.452657,0.415405,2.090003,-1.370238,18.45398,-51.427706,104.607254
6032,7.718512,2.058491,0.439877,0.404423,2.022283,-1.32515,19.106623,-50.086505,104.062379
6033,7.810684,2.098171,0.402805,0.389845,1.948047,-1.267394,19.69564,-48.785119,103.567178
6034,7.982878,2.026331,0.340443,0.390507,1.872722,-1.205849,20.233202,-47.540967,103.144526
6035,8.164346,1.912037,0.235801,0.438845,1.792129,-1.134222,20.750033,-46.344876,102.772388
6036,8.385406,1.82623,0.129637,0.523133,1.697907,-1.052674,21.267755,-45.220761,102.466717
6037,8.657817,1.834193,0.08334,0.613082,1.597646,-0.955713,21.789292,-44.162169,102.218364
6038,8.951422,1.827289,0.102467,0.711089,1.490482,-0.851642,22.320211,-43.187752,102.037952
6039,9.248127,1.929585,0.190606,0.793174,1.390114,-0.748003,22.856417,-42.282157,101.910691
6040,9.470142,1.957987,0.138341,0.885373,1.283518,-0.659236,23.413965,-41.457812,101.833738
6041,9.515599,2.056591,0.105168,0.993966,1.166078,-0.584995,24.015657,-40.706575,101.78241
6042,9.439215,2.02822,-0.03948,1.104948,1.035076,-0.529931,24.674065,-40.041434,101.74163
6043,9.191665,2.061361,-0.145543,1.211565,0.887037,-0.471325,25.392033,-39.462467,101.700062
6044,8.977132,2.154169,-0.166043,1.274736,0.710299,-0.411724,26.1494,-38.99378,101.655631
6045,9.021864,2.198852,-0.129041,1.315927,0.505383,-0.328873,26.934253,-38.646952,101.601632
6046,9.161434,2.33858,0.143111,1.300984,0.29477,-0.21788,27.704313,-38.440002,101.560298
6047,9.452191,2.58163,0.533883,1.189445,0.0569,-0.0874,28.408259,-38.384723,101.519244
6048,10.042555,2.79405,1.013907,1.004434,-0.176168,0.067665,28.993292,-38.492297,101.502131
6049,10.51957,3.017316,1.419673,0.777272,-0.396629,0.226176,29.436649,-38.751586,101.500707
6050,10.311388,3.342021,1.738736,0.526326,-0.594218,0.321424,29.742696,-39.139019,101.491818
6051,9.13363,3.489934,2.079516,0.272484,-0.76372,0.335393,29.940678,-39.612525,101.421266
6052,7.418468,3.249882,2.288697,0.038508,-0.969123,0.28788,30.073493,-40.176299,101.246868
6053,6.142527,2.789958,2.758268,-0.207914,-1.153289,0.234417,30.138294,-40.814092,100.960041
6054,5.574217,2.465871,3.559404,-0.482246,-1.338359,0.22215,30.100251,-41.541699,100.596481
6055,5.821061,2.403621,4.407921,-0.834501,-1.510048,0.265384,29.892754,-42.365913,100.187214
6056,6.817382,2.706017,5.351763,-1.311981,-1.659473,0.327584,29.423841,-43.285467,99.769558
6057,8.059269,3.029324,5.983822,-1.875048,-1.764239,0.405605,28.624889,-44.281155,99.3691
6058,9.197497,2.914511,6.442664,-2.373253,-1.815741,0.457068,27.519627,-45.32273,99.006307
6059,10.200286,2.86312,6.911215,-2.884848,-1.848336,0.501152,26.094793,-46.396623,98.687449
6060,10.80334,3.054333,6.949636,-3.429368,-1.881709,0.525206,24.327731,-47.500543,98.415151
6061,10.963191,2.95655,6.641462,-3.867998,-1.952563,0.503858,22.309322,-48.641483,98.149029
6062,10.87471,2.81123,6.225939,-4.218773,-2.018418,0.44702,20.097795,-49.812487,97.875913
6063,10.629464,2.598234,5.67883,-4.483096,-2.095929,0.397915,17.739095,-51.02193,97.605468
6064,10.150129,2.165599,5.13828,-4.58943,-2.209403,0.375744,15.30105,-52.296859,97.359771
6065,10.151853,1.542948,4.59689,-4.563108,-2.304039,0.356253,12.849521,-53.62674,97.160109
6066,10.418282,0.868087,4.193607,-4.320138,-2.375581,0.337779,10.490894,-54.99884,97.015019
6067,10.491171,0.412636,4.202706,-3.954976,-2.388136,0.318916,8.287678,-56.378699,96.945896
6068,10.727226,0.150756,4.570407,-3.558829,-2.353732,0.305443,6.240903,-57.73852,96.953659
6069,11.035378,-0.045408,4.941973,-3.216812,-2.27704,0.294827,4.319328,-59.053749,97.057775
6070,10.926951,-0.340813,5.099904,-2.907043,-2.185669,0.275933,2.508222,-60.313116,97.224948
6071,10.978337,-0.756136,5.121963,-2.609061,-2.094704,0.255769,0.81232,-61.517651,97.465779
6072,10.858339,-1.246913,5.070892,-2.327165,-1.992137,0.239186,-0.782485,-62.658929,97.760318
6073,10.737325,-1.69969,4.806819,-2.023855,-1.913134,0.2352,-2.26701,-63.751975,98.138572
6074,10.632945,-1.939398,4.664243,-1.702325,-1.851347,0.241371,-3.646113,-64.803964,98.585444
6075,10.353518,-2.000763,4.496248,-1.388515,-1.771643,0.275722,-4.950415,-65.805285,99.160124
6076,10.153973,-1.868594,4.449279,-1.087286,-1.695515,0.30501,-6.187476,-66.754954,99.829632
6077,9.803521,-1.494897,4.502932,-0.855499,-1.637976,0.34285,-7.407446,-67.664657,100.638229
6078,9.578354,-1.115291,4.617525,-0.628914,-1.599491,0.360259,-8.597679,-68.543158,101.531414
6079,9.441177,-0.723625,4.708856,-0.44823,-1.55668,0.369995,-9.770268,-69.390705,102.52814
6080,9.164397,-0.284037,4.85171,-0.306335,-1.514,0.377401,-10.951928,-70.204814,103.599028
6081,8.977183,0.077886,5.053181,-0.206325,-1.471226,0.374662,-12.148011,-70.988604,104.759228
6082,8.822093,0.389274,5.147606,-0.126455,-1.421602,0.372624,-13.37564,-71.735486,105.977141
6083,8.66406,0.82832,5.337817,-0.095642,-1.37762,0.369106,-14.658709,-72.450876,107.287303
6084,8.545399,1.297518,5.505389,-0.139954,-1.322838,0.368762,-16.049002,-73.125415,108.657644
6085,8.390773,1.804755,5.717685,-0.282726,-1.270586,0.371541,-17.60631,-73.761138,110.131899
6086,8.139041,2.269809,5.891877,-0.486497,-1.217149,0.357395,-19.343501,-74.357233,111.647495
6087,7.740109,2.575321,6.085966,-0.752314,-1.155012,0.351304,-21.297497,-74.908172,113.245029
6088,7.452746,2.91785,6.030867,-1.062009,-1.109227,0.321947,-23.468773,-75.425065,114.860523
6089,7.251431,3.19432,5.932186,-1.411987,-1.05867,0.289541,-25.857299,-75.907252,116.513218
6090,7.135363,3.424023,5.738223,-1.793299,-1.005698,0.259959,-28.492092,-76.351235,118.167639
6091,7.033099,3.642898,5.470108,-2.188344,-0.952435,0.221488,-31.342047,-76.761034,119.834558
6092,6.839605,3.844897,5.133823,-2.61444,-0.921242,0.165226,-34.425112,-77.152182,121.46048
6093,6.890005,3.765112,4.646643,-3.009041,-0.897647,0.131187,-37.763986,-77.523711,123.145897
6094,6.970842,3.603594,4.29724,-3.350586,-0.871675,0.094077,-41.33743,-77.873663,124.837302
6095,7.176738,3.622352,3.959138,-3.68207,-0.854241,0.05515,-45.132053,-78.208917,126.5913
6096,7.526318,3.407122,3.63874,-3.952688,-0.838956,0.035573,-49.179963,-78.519923,128.410746
6097,7.932102,3.127984,3.517171,-4.16757,-0.810008,0.02996,-53.420972,-78.797684,130.343502
6098,8.267266,2.98049,3.445919,-4.342805,-0.778395,0.040952,-57.859385,-79.029015,132.32961
6099,8.659579,2.813778,3.449348,-4.453134,-0.720735,0.05392,-62.347922,-79.209706,134.353146
6100,8.982077,2.741174,3.53401,-4.543463,-0.6555,0.080526,-66.848635,-79.328047,136.283283
6101,9.153815,2.711349,3.590545,-4.592883,-0.577981,0.098405,-71.230585,-79.396251,138.126255
6102,9.273541,2.629169,3.581651,-4.605081,-0.474663,0.106139,-75.357188,-79.415047,139.639017
6103,9.152185,2.466778,3.484444,-4.545187,-0.361435,0.110279,-79.115948,-79.402387,140.887157
6104,8.990791,2.249171,3.285341,-4.401573,-0.244046,0.09348,-82.421458,-79.370803,141.683267
6105,8.715723,2.047375,2.959373,-4.142554,-0.132695,0.058671,-85.221695,-79.349773,142.206371
6106,8.556036,1.838758,2.525369,-3.78886,-0.029356,0.017456,-87.485801,-79.339713,142.300136
6107,8.599409,1.735073,2.072929,-3.352533,0.058493,-0.011116,-89.240467,-79.350501,142.240244
6108,8.853778,1.670496,1.45818,-2.842056,0.109273,-0.026627,-90.535788,-79.364491,141.900237
6109,9.863177,1.716287,0.887637,-2.244009,0.102137,-0.017042,-91.527422,-79.381616,141.720029
6110,11.925899,2.113181,0.740129,-1.691662,0.114173,0.057659,-92.142884,-79.349553,141.358938
6111,14.076638,3.363007,1.042646,-1.394785,0.202378,0.186242,-92.325304,-79.254546,140.854721
6112,15.06564,4.681887,1.550286,-1.289994,0.347397,0.275105,-91.992762,-79.103388,139.762547
6113,14.65755,5.879108,2.017841,-1.292427,0.515835,0.259711,-91.210764,-78.971759,138.353887
6114,13.315333,6.918552,2.209582,-1.403267,0.686109,0.156534,-90.001172,-78.885076,136.300979
6115,12.067566,7.965464,2.247104,-1.688284,0.81081,0.070489,-88.63925,-78.850628,134.093233
6116,10.942248,8.737428,1.485254,-2.177359,0.80966,-0.037182,-87.53053,-78.855265,131.690556
6117,11.052228,9.370627,0.189071,-2.743406,0.733219,-0.169554,-86.955813,-78.944024,129.64669
6118,12.11789,9.595326,-1.017649,-3.323433,0.652762,-0.295357,-86.889209,-79.091787,127.638016
6119,13.597654,9.237352,-1.844569,-3.911999,0.58781,-0.375706,-87.320337,-79.302766,125.929174
6120,14.658958,8.283954,-2.189527,-4.395895,0.551745,-0.401889,-88.10068,-79.519072,124.159619
6121,15.53533,7.202196,-2.436243,-4.613694,0.57311,-0.395403,-88.918801,-79.750653,122.42097
6122,15.953933,6.531228,-2.661299,-4.518814,0.663261,-0.376999,-89.366572,-79.959815,120.244525
6123,15.407505,6.495901,-2.852036,-4.215017,0.800433,-0.374849,-89.142897,-80.183638,117.681245
6124,14.275106,6.79603,-2.768228,-3.895692,0.915543,-0.400713,-88.279375,-80.400286,114.539578
6125,13.10042,7.105855,-2.651189,-3.656146,1.022092,-0.460849,-86.785265,-80.654586,111.005656
6126,12.422461,7.198667,-2.410413,-3.535351,1.076277,-0.562488,-84.872148,-80.930152,107.014436
6127,12.120581,7.106187,-2.321572,-3.496291,1.112817,-0.682928,-82.524194,-81.265043,102.706777
6128,12.335324,6.833338,-2.5093,-3.465616,1.134751,-0.803378,-79.770172,-81.618932,97.91268
6129,12.64678,6.678233,-2.742654,-3.441907,1.156523,-0.906722,-76.437081,-82.006611,92.64255
6130,12.622244,6.545245,-2.998432,-3.429985,1.197715,-0.985601,-72.481507,-82.366132,86.665236
6131,12.316122,6.641083,-3.293906,-3.443733,1.229806,-1.043059,-67.760434,-82.703101,79.995452
6132,11.939953,6.711812,-3.438957,-3.513609,1.230007,-1.076844,-62.62485,-82.966862,72.789472
6133,11.436443,6.615542,-3.373429,-3.580032,1.230028,-1.104164,-56.924795,-83.170154,65.050706
6134,10.736691,6.389636,-3.316322,-3.610601,1.219706,-1.133264,-51.018788,-83.283473,57.018965
6135,10.192997,6.166522,-3.323433,-3.57682,1.19378,-1.157304,-44.807976,-83.324138,48.763602
6136,9.867549,6.19086,-3.202799,-3.511544,1.157708,-1.173913,-38.788538,-83.276935,40.676015
6137,9.729754,6.284669,-3.238924,-3.460815,1.107655,-1.177099,-32.887689,-83.159331,32.792189
6138,9.681094,6.456618,-3.262751,-3.447006,1.052382,-1.168711,-27.611515,-82.974718,25.486626
6139,9.543765,6.455589,-3.221953,-3.481636,0.994011,-1.159321,-22.720409,-82.739253,18.597311
6140,9.369314,6.379215,-3.049074,-3.537228,0.944245,-1.150102,-18.535792,-82.464134,12.332849
6141,9.197678,6.156882,-2.795666,-3.589747,0.900909,-1.135365,-14.747889,-82.149484,6.477307
6142,8.967904,5.833765,-2.467826,-3.641175,0.863745,-1.121786,-11.598152,-81.813344,1.188588
6143,8.710854,5.511963,-2.136776,-3.659384,0.836258,-1.108504,-8.750945,-81.444642,-3.769503
6144,8.496673,5.20496,-1.793158,-3.645034,0.837848,-1.09304,-6.403305,-81.050782,-8.258918
6145,8.32057,4.974657,-1.521147,-3.611568,0.83791,-1.071956,-4.313734,-80.618584,-12.448236
6146,8.521207,4.895762,-1.46526,-3.575652,0.838661,-1.040542,-2.679403,-80.174893,-16.184685
6147,8.805108,4.989208,-1.37972,-3.55069,0.835151,-0.984727,-1.364811,-79.703451,-19.565744
6148,9.091932,4.983464,-1.277415,-3.572937,0.845664,-0.935135,-0.49585,-79.227387,-22.532934
6149,9.238919,4.858365,-1.07239,-3.617667,0.844366,-0.884389,0.101104,-78.731386,-25.240651
6150,9.35543,4.628716,-0.833424,-3.673402,0.862181,-0.8277,0.308611,-78.235485,-27.601475
6151,9.503393,4.169262,-0.578375,-3.689879,0.875818,-0.758649,0.266359,-77.717573,-29.719755
6152,9.801205,3.710447,-0.312644,-3.643154,0.900031,-0.682579,-0.072946,-77.201061,-31.511666
6153,10.234698,3.181777,-0.104078,-3.508618,0.938636,-0.600009,-0.555576,-76.651155,-33.084599
6154,10.656589,2.737841,0.054844,-3.280698,0.990863,-0.518924,-1.179604,-76.087835,-34.377788
6155,11.00022,2.464917,0.14513,-2.973296,1.048118,-0.454509,-1.764608,-75.480051,-35.53767
6156,11.248774,2.214918,0.185848,-2.648138,1.11596,-0.413243,-2.30809,-74.849291,-36.546171
6157,11.494143,2.039321,-0.02239,-2.287662,1.182945,-0.376743,-2.714431,-74.168824,-37.502463
6158,11.779938,1.862347,-0.1671,-1.885115,1.27065,-0.338479,-3.007176,-73.451188,-38.32346
6159,11.911,1.734925,-0.271382,-1.496854,1.338039,-0.317959,-3.11593,-72.682672,-39.123739
6160,12.199316,1.448168,-0.315081,-1.102839,1.402298,-0.312155,-3.057777,-71.889811,-39.849256
6161,12.711481,1.222881,-0.199327,-0.697203,1.496524,-0.328113,-2.746262,-71.028762,-40.603657
6162,13.237808,0.971065,-0.249446,-0.281492,1.581716,-0.371564,-2.197575,-70.132339,-41.357592
6163,13.818462,0.762763,-0.333803,0.157104,1.665366,-0.436558,-1.337949,-69.173272,-42.188119
6164,14.139226,0.664108,-0.632667,0.612434,1.728976,-0.504465,-0.21603,-68.186492,-43.016911
6165,14.266605,0.718132,-0.657974,1.007523,1.782401,-0.570898,1.156531,-67.148202,-43.873444
6166,14.066205,0.8188,-0.468077,1.321454,1.80517,-0.636484,2.67335,-66.102207,-44.702176
6167,13.983617,0.901265,-0.331283,1.591623,1.80514,-0.71057,4.349277,-65.034195,-45.55588
6168,14.096674,0.728557,-0.084562,1.850578,1.825703,-0.792873,6.153653,-63.95093,-46.381443
6169,13.811395,0.651381,0.184387,2.096516,1.81986,-0.872747,8.107174,-62.838789,-47.205558
6170,13.51531,0.645374,0.088152,2.351539,1.778496,-0.953386,10.170107,-61.746026,-48.014985
6171,12.962949,0.978202,0.111244,2.57381,1.7468,-1.008274,12.339655,-60.63593,-48.784981
6172,11.718224,1.217605,0.327914,2.748368,1.655926,-1.04202,14.537911,-59.57454,-49.50541
6173,10.408006,1.325297,0.413927,2.827348,1.487609,-1.063223,16.771337,-58.574117,-50.195367
6174,9.817102,1.464305,0.763841,2.824491,1.308852,-1.085427,18.968574,-57.669793,-50.878333
6175,9.062813,1.580328,0.995881,2.714962,1.238135,-1.058597,21.050895,-56.779983,-51.474938
6176,8.188964,1.426744,1.396073,2.631828,1.126443,-1.045858,23.027098,-55.957212,-52.038614
6177,7.254316,1.191428,1.836814,2.461848,0.941232,-0.980886,24.882288,-55.22254,-52.555964
6178,6.567177,1.116178,1.956926,2.258614,0.743405,-0.872534,26.552011,-54.622249,-53.016273
6179,6.13329,1.256165,2.067651,2.087501,0.557769,-0.763401,28.100384,-54.123563,-53.424052
6180,6.052851,1.288048,2.45491,1.908217,0.404747,-0.640661,29.479584,-53.743985,-53.779049
6181,6.026705,1.472639,2.64964,1.693289,0.260931,-0.512559,30.705223,-53.454707,-54.076268
6182,5.95449,1.646003,2.756941,1.425367,0.089749,-0.385377,31.737637,-53.29676,-54.346439
6183,6.042852,1.817738,2.823404,1.112983,-0.097163,-0.250983,32.590634,-53.254733,-54.594429
6184,6.181798,2.069036,2.861512,0.763364,-0.303597,-0.098936,33.216314,-53.370494,-54.830611
6185,6.531923,1.942082,2.862777,0.394034,-0.515807,0.070062,33.627193,-53.628043,-55.045593
6186,6.975565,1.61047,2.843971,0.12346,-0.720335,0.238048,33.853981,-54.047528,-55.240232
6187,7.346561,1.532178,2.866073,-0.070358,-0.919096,0.415756,33.957408,-54.606807,-55.40315
6188,7.616564,1.628499,3.019669,-0.276344,-1.105384,0.585272,33.903981,-55.320006,-55.53261
6189,8.003655,1.692626,3.277718,-0.526505,-1.274533,0.750478,33.683252,-56.156208,-55.618839
6190,8.190446,1.682111,3.486606,-0.807944,-1.408863,0.895559,33.243639,-57.113075,-55.648063
6191,8.327371,1.573576,3.654813,-1.052887,-1.520809,1.008049,32.631482,-58.149565,-55.629331
6192,8.253669,1.47444,3.704219,-1.258342,-1.618178,1.090334,31.852235,-59.267526,-55.56245
6193,8.166518,1.4235,3.59977,-1.422087,-1.724346,1.135627,30.974974,-60.442223,-55.486364
6194,8.034663,1.403207,3.483775,-1.550662,-1.823529,1.157668,30.008688,-61.679558,-55.398731
6195,7.874287,1.30573,3.219368,-1.638921,-1.90342,1.145387,29.011798,-62.944837,-55.330813
6196,7.77833,1.225779,3.114202,-1.700595,-1.982801,1.119089,27.991211,-64.249599,-55.280483
6197,7.743227,1.167999,2.926436,-1.738327,-2.055618,1.072442,26.994934,-65.573661,-55.287271
6198,7.707512,0.99746,2.929739,-1.77215,-2.094108,1.033324,25.988194,-66.911992,-55.297941
6199,7.855035,0.754438,3.259045,-1.829511,-2.101383,1.001999,24.941034,-68.241623,-55.306052
6200,8.193572,0.714864,3.936293,-1.94812,-2.058197,0.976717,23.759862,-69.54706,-55.237625
6201,8.490321,0.683976,4.38076,-2.097191,-1.957693,0.955281,22.383519,-70.789315,-55.058731
6202,8.456136,0.583046,4.465593,-2.152614,-1.830059,0.943068,20.800004,-71.963422,-54.690443
6203,8.382048,0.450771,4.256587,-2.175618,-1.725855,0.901305,19.085929,-73.064867,-54.207101
6204,8.221614,0.17205,3.751184,-2.096662,-1.602511,0.873982,17.236454,-74.093629,-53.532564
6205,8.047622,-0.024166,3.254171,-1.925543,-1.489602,0.848021,15.313035,-75.044816,-52.688522
6206,8.021273,-0.041467,2.769447,-1.714367,-1.389166,0.809754,13.349981,-75.931028,-51.676587
6207,7.959159,0.021311,2.389036,-1.47268,-1.320377,0.785192,11.367264,-76.762114,-50.511184
6208,8.015466,-0.041858,2.011292,-1.179097,-1.263064,0.773831,9.343153,-77.553863,-49.129218
6209,8.039864,-0.101217,1.887178,-0.859041,-1.176452,0.789535,7.217816,-78.282003,-47.465549
6210,8.158896,0.050229,2.129761,-0.587318,-1.113417,0.787742,4.981138,-78.964411,-45.528457
6211,8.321097,0.242941,2.489205,-0.417047,-1.049159,0.785726,2.585769,-79.590074,-43.34001
6212,8.397137,0.256286,2.800839,-0.289938,-0.955312,0.783315,-0.030487,-80.147363,-40.85222
6213,8.521021,0.147457,2.977955,-0.151845,-0.873497,0.760372,-2.752809,-80.633372,-38.185618
6214,8.624646,0.108887,3.078391,-0.003836,-0.800719,0.728631,-5.553554,-81.060673,-35.352119
6215,8.722117,0.076677,3.207267,0.170036,-0.725168,0.697469,-8.344861,-81.421107,-32.435494
6216,8.853935,0.234356,3.348425,0.327372,-0.660604,0.668191,-11.146017,-81.729174,-29.415293
6217,8.92527,0.561272,3.500263,0.443718,-0.604286,0.632487,-13.872523,-81.985129,-26.410403
6218,9.03568,0.899547,3.609901,0.519616,-0.562685,0.600663,-16.585236,-82.205509,-23.372214
6219,9.157952,1.188717,3.619599,0.559242,-0.546959,0.555192,-19.196782,-82.40258,-20.419905
6220,9.408365,1.33366,3.657155,0.587219,-0.543199,0.516251,-21.800137,-82.590124,-17.455821
6221,9.636295,1.453443,3.711206,0.607752,-0.537412,0.482948,-24.345429,-82.761734,-14.544991
6222,9.892825,1.533276,3.794268,0.613252,-0.529889,0.455632,-26.922945,-82.922021,-11.594213
6223,10.100292,1.685312,3.934778,0.597091,-0.534313,0.437436,-29.524957,-83.070284,-8.634651
6224,10.362455,1.822914,4.081763,0.558129,-0.548701,0.427287,-32.303353,-83.213651,-5.515256
6225,10.671556,1.991649,4.230082,0.483078,-0.56414,0.419441,-35.208201,-83.34629,-2.318573
6226,11.018593,2.170601,4.45376,0.382065,-0.574891,0.405019,-38.312773,-83.470633,1.025908
6227,11.262761,2.355782,4.703846,0.248624,-0.576165,0.391013,-41.504618,-83.578071,4.374325
6228,11.404897,2.51041,4.86261,0.10931,-0.574232,0.365953,-44.834104,-83.673818,7.786428
6229,11.44243,2.598562,4.811885,-0.037681,-0.569796,0.325394,-48.118998,-83.762027,11.061755
6230,11.473282,2.56762,4.599077,-0.168472,-0.569957,0.290017,-51.508291,-83.844959,14.37276
6231,11.589961,2.621198,4.370811,-0.293537,-0.589972,0.2563,-54.964984,-83.928961,17.671958
6232,11.855431,2.648272,4.166136,-0.424579,-0.622211,0.22731,-58.715395,-84.014018,21.197493
6233,12.235698,2.729053,4.145454,-0.581669,-0.636964,0.225417,-62.639961,-84.08042,24.799723
6234,12.659767,2.825519,4.350096,-0.746942,-0.655507,0.221302,-66.885856,-84.124871,28.636849
6235,12.959012,3.022083,4.656746,-0.942769,-0.649131,0.209368,-71.154085,-84.147447,32.375541
6236,12.899555,3.185356,5.126261,-1.183876,-0.625095,0.19145,-75.489548,-84.144097,36.050752
6237,12.728786,3.354757,5.502119,-1.486243,-0.580137,0.159337,-79.618799,-84.12923,39.336173
6238,12.428744,3.331292,5.719651,-1.788196,-0.507183,0.104924,-83.522382,-84.111275,42.229315
6239,12.013529,3.373459,5.729686,-2.091052,-0.417581,0.024246,-86.967667,-84.121077,44.478292
6240,11.534924,3.455194,5.520917,-2.381707,-0.290001,-0.075143,-89.941151,-84.167519,46.094497
6241,11.236142,3.449084,5.286951,-2.651237,-0.150592,-0.189276,-92.250503,-84.279005,46.878087
6242,10.950559,3.485151,5.03786,-2.92687,-0.014058,-0.301441,-94.105735,-84.449927,47.056112
6243,11.193552,3.417485,4.785108,-3.203348,0.126914,-0.404766,-95.28456,-84.692237,46.385252
6244,11.562571,3.32068,4.515598,-3.456753,0.290636,-0.492474,-95.728578,-84.988028,44.841347
6245,11.95433,3.232066,4.247563,-3.693396,0.445122,-0.55692,-95.085882,-85.334991,42.060746
6246,12.404107,3.146515,3.933232,-3.927753,0.606437,-0.622729,-93.237638,-85.715215,37.948456
6247,12.895272,3.04828,3.565334,-4.144221,0.769984,-0.665302,-89.408152,-86.111102,31.716388
6248,13.291005,2.83081,3.190666,-4.320652,0.930957,-0.692213,-83.273043,-86.472776,23.086651
6249,13.596693,2.452148,2.692518,-4.429721,1.088172,-0.7022,-73.929551,-86.746231,11.171733
6250,13.697966,1.979327,2.259416,-4.435453,1.249672,-0.690869,-61.934088,-86.843815,-3.388719
6251,13.657218,1.485856,1.889614,-4.342985,1.418124,-0.662604,-48.53373,-86.685923,-19.315356
6252,13.36993,1.033301,1.650429,-4.163647,1.608562,-0.61273,-36.624228,-86.2406,-33.638494
6253,12.766521,0.568103,1.500867,-3.92198,1.750075,-0.559937,-27.537295,-85.548356,-45.014217
6254,12.535495,0.266053,1.33542,-3.625181,1.884824,-0.519,-21.231052,-84.684753,-53.428895
6255,12.097563,-0.052658,1.292194,-3.248275,2.016404,-0.477913,-16.812896,-83.668714,-59.753192
6256,11.829952,-0.132806,1.284179,-2.870785,2.12716,-0.46568,-13.67955,-82.561722,-64.566983
6257,11.460671,-0.235746,1.217751,-2.45799,2.223926,-0.452741,-11.322682,-81.361109,-68.381857
6258,11.225388,-0.438671,1.188208,-1.983958,2.327735,-0.424951,-9.522173,-80.092806,-71.358945
6259,10.982827,-0.868436,1.246591,-1.486407,2.458597,-0.394684,-8.023133,-78.722622,-73.762506
6260,10.636274,-1.175414,1.332669,-0.945461,2.561089,-0.360833,-6.719157,-77.293492,-75.650363
6261,10.319669,-0.973816,1.583288,-0.386968,2.668481,-0.346992,-5.437614,-75.782018,-77.20798
6262,10.470174,-0.246795,1.718266,-0.026849,2.737756,-0.406514,-4.103863,-74.237944,-78.605643
6263,10.362838,0.050447,1.75735,0.305613,2.786509,-0.46787,-2.710974,-72.648217,-79.887751
6264,10.111886,0.147993,1.700975,0.592887,2.836263,-0.536915,-1.266186,-71.034636,-81.051767
6265,10.038184,0.389424,1.527234,0.874864,2.876572,-0.606024,0.238183,-69.37808,-82.129245
6266,9.940034,0.640582,1.406695,1.138772,2.912475,-0.671287,1.790111,-67.702721,-83.09672
6267,9.778233,0.955158,1.368499,1.356856,2.946064,-0.738252,3.374475,-65.986278,-83.985423
6268,9.80325,1.251732,1.329653,1.510849,2.981983,-0.801308,4.956541,-64.248889,-84.77618
6269,9.974607,1.559277,1.270059,1.612709,3.009612,-0.869084,6.5212,-62.472752,-85.50358
6270,10.220807,1.771776,1.126599,1.66208,3.015109,-0.948431,8.061509,-60.690296,-86.173224
6271,10.436768,1.840353,0.902892,1.669013,3.023312,-1.019173,9.550194,-58.879087,-86.799527
6272,10.650066,1.706534,0.676931,1.676283,3.024711,-1.076107,10.984024,-57.064048,-87.359033
6273,10.822422,1.713315,0.556908,1.666285,3.020319,-1.128774,12.358227,-55.229215,-87.873732
6274,10.853661,1.681799,0.299768,1.674223,3.006835,-1.17356,13.68668,-53.399413,-88.329461
6275,11.029572,1.457667,0.11857,1.742788,3.005414,-1.202183,14.99624,-51.552084,-88.730438
6276,11.130335,1.389354,0.140861,1.818893,3.015506,-1.234201,16.298049,-49.697883,-89.067597
6277,11.083876,1.34855,0.186273,1.873031,3.0015,-1.282634,17.599051,-47.831201,-89.378522
6278,11.120964,1.267637,0.100062,1.944204,2.974034,-1.341907,18.920635,-45.972412,-89.664209
6279,11.13596,1.290302,-0.036487,2.023983,2.931744,-1.404266,20.273227,-44.113735,-89.943881
6280,11.159121,1.220096,-0.030163,2.094701,2.873782,-1.476241,21.659857,-42.273903,-90.217698
6281,11.207183,1.231555,0.020302,2.165238,2.802555,-1.536302,23.077418,-40.448793,-90.491525
6282,11.262061,1.247416,0.067746,2.243961,2.718978,-1.593964,24.532099,-38.655264,-90.75842
6283,11.271021,1.350556,0.057809,2.296234,2.615184,-1.642366,26.010047,-36.89457,-91.028335
6284,11.329418,1.337173,0.212054,2.327139,2.512207,-1.675789,27.494099,-35.17752,-91.286157
6285,11.133507,1.291085,0.284428,2.358562,2.387071,-1.709313,28.991526,-33.506496,-91.54893
6286,10.879067,1.441593,0.415691,2.330141,2.244906,-1.714921,30.463335,-31.902815,-91.803835
6287,10.530955,1.391964,0.502309,2.267138,2.072372,-1.687862,31.889836,-30.384846,-92.053156
6288,10.439463,1.288459,0.853303,2.162967,1.885129,-1.587928,33.233309,-28.985409,-92.265595
6289,10.522335,1.108513,1.060373,2.03475,1.68127,-1.413248,34.471586,-27.734139,-92.419846
6290,10.726533,1.176786,1.235562,1.93935,1.454425,-1.168704,35.617061,-26.667973,-92.497222
6291,10.89838,1.3286,1.446734,1.82413,1.218709,-0.88341,36.659904,-25.806614,-92.492765
6292,10.677518,1.654781,1.732872,1.664423,0.981606,-0.574389,37.575362,-25.160152,-92.40653
6293,10.058485,2.104045,1.915559,1.454233,0.740037,-0.286431,38.346684,-24.727247,-92.259536
6294,9.22482,2.422146,2.038058,1.225044,0.489141,-0.018901,38.970763,-24.502258,-92.075322
6295,8.41264,2.39954,2.323887,0.99311,0.245661,0.232891,39.451453,-24.481012,-91.861085
6296,7.569352,2.299953,2.661702,0.793777,0.028077,0.485268,39.802201,-24.646587,-91.613411
6297,6.998513,2.22418,2.882952,0.621883,-0.179799,0.742203,40.037544,-25.002811,-91.323431
6298,6.466766,2.116046,3.143798,0.467851,-0.42577,0.989964,40.173447,-25.555435,-91.016512
6299,6.297924,1.826317,3.041328,0.330245,-0.661843,1.230594,40.219016,-26.305149,-90.685829
6300,6.410571,1.530683,2.974637,0.299173,-0.876537,1.448208,40.232963,-27.225107,-90.338595
6301,6.390193,1.496473,2.873964,0.287599,-1.135211,1.645841,40.238867,-28.336373,-89.995342
6302,6.531492,1.550157,2.741005,0.254267,-1.420902,1.82411,40.232316,-29.633602,-89.683448
6303,6.997573,1.506516,2.715607,0.166298,-1.70781,2.007893,40.181644,-31.129808,-89.392237
6304,7.520235,1.257053,2.848824,0.039261,-1.96771,2.220641,40.048589,-32.812445,-89.10056
6305,8.101158,1.021326,3.123521,-0.130305,-2.202965,2.445419,39.795721,-34.686548,-88.776861
6306,8.673207,0.825869,3.280161,-0.262589,-2.406276,2.675095,39.426628,-36.726544,-88.404203
6307,9.135384,0.744471,3.307025,-0.348133,-2.585146,2.879264,38.959276,-38.924689,-87.964209
6308,9.483248,0.748711,3.221025,-0.357124,-2.747743,3.051506,38.432674,-41.247128,-87.466029
6309,9.728918,0.875755,3.081872,-0.320767,-2.88385,3.193149,37.863611,-43.685143,-86.891912
6310,9.82092,1.036274,2.974193,-0.270966,-2.997782,3.308235,37.251533,-46.2028,-86.246973
6311,9.930491,1.112342,2.851865,-0.221341,-3.108067,3.402969,36.587534,-48.806959,-85.514621
6312,10.005525,1.064016,2.672713,-0.151536,-3.186459,3.491756,35.857637,-51.46267,-84.678477
6313,10.304544,0.953884,2.511872,-0.059868,-3.256173,3.574297,35.04615,-54.180175,-83.69893
6314,10.584846,0.974582,2.531325,0.03488,-3.301201,3.651149,34.117668,-56.925475,-82.550445
6315,11.0393,1.151327,2.541875,0.075446,-3.32835,3.699638,33.001222,-59.69692,-81.183269
6316,11.531272,1.243864,2.623884,0.092564,-3.307522,3.732563,31.613371,-62.4424,-79.53867
6317,11.7137,1.229599,2.745806,0.108936,-3.245385,3.791577,29.800677,-65.161585,-77.444539
6318,11.631768,1.194337,2.916469,0.097819,-3.230019,3.826483,27.466881,-67.837654,-74.840511
6319,11.912467,1.093522,2.98205,0.108163,-3.201209,3.828255,24.444693,-70.4585,-71.536111
6320,12.411182,0.974419,3.11439,0.138819,-3.132408,3.832502,20.452167,-72.957777,-67.249687
6321,12.657147,0.960267,3.251221,0.183902,-3.016828,3.818793,15.0594,-75.284029,-61.529951
6322,12.851077,0.838705,3.03705,0.296256,-2.944398,3.770126,7.894866,-77.371721,-53.984742
6323,13.22254,0.743876,2.51701,0.535164,-2.887295,3.691886,-1.581815,-79.154721,-43.989907
6324,13.268959,0.3693,2.108803,0.928631,-2.772551,3.594039,-13.607364,-80.465009,-31.234524
6325,13.432508,0.314198,1.943627,1.428522,-2.658191,3.467283,-27.75119,-81.198487,-16.076403
6326,13.531447,0.687675,2.053719,1.961874,-2.476602,3.345051,-42.13678,-81.263829,-0.386527
6327,13.337548,1.253593,2.263989,2.405755,-2.289161,3.189157,-54.735974,-80.76098,13.767405
6328,12.930576,1.612497,2.476783,2.785789,-2.110074,3.014991,-64.40316,-79.878562,25.191088
6329,12.801082,1.943008,2.661952,3.14619,-1.952772,2.791161,-71.367765,-78.809314,34.115172
6330,12.545105,2.373518,2.71303,3.484849,-1.784313,2.533197,-76.054825,-77.699973,40.940234
6331,11.799954,2.700242,2.788613,3.730035,-1.657881,2.241093,-79.232523,-76.640857,46.394119
6332,11.009719,3.022245,2.753081,3.812867,-1.558951,1.958774,-81.391512,-75.683159,50.866264
6333,10.681119,3.095074,2.87906,3.804681,-1.46181,1.670706,-82.885643,-74.842087,54.667829
6334,10.658974,2.901208,3.149067,3.694283,-1.349828,1.394193,-83.8706,-74.136488,57.885496
6335,10.638103,2.484646,3.19944,3.574189,-1.268567,1.132221,-84.560443,-73.557711,60.737722
6336,10.785734,2.17445,3.065181,3.499164,-1.179699,0.902674,-84.962429,-73.103237,63.24901
6337,10.787362,2.152611,2.828941,3.469118,-1.080872,0.700992,-85.10755,-72.750855,65.481619
6338,10.494664,2.4369,2.825653,3.446102,-0.988822,0.510649,-85.019103,-72.507021,67.456627
6339,9.962911,2.901014,2.831321,3.367828,-0.922515,0.34672,-84.815283,-72.350979,69.267902
6340,9.485563,3.515676,2.814311,3.197925,-0.887943,0.198865,-84.606134,-72.283347,70.970375
6341,9.197556,4.042201,2.967454,2.920924,-0.872769,0.075986,-84.508891,-72.283439,72.625641
6342,9.112658,4.299434,2.928693,2.564193,-0.884397,-0.036525,-84.616996,-72.35122,74.279989
6343,9.384274,4.446858,2.82987,2.199235,-0.907329,-0.135873,-84.970747,-72.473071,75.9728
6344,9.899747,4.563669,2.884472,1.808703,-0.939227,-0.206206,-85.611337,-72.633943,77.72941
6345,10.353765,4.793843,3.107351,1.381867,-0.962141,-0.25655,-86.556662,-72.81663,79.54775
6346,10.41406,4.882751,3.376845,0.960016,-0.942887,-0.300198,-87.735445,-73.014267,81.355237
6347,9.895808,4.983116,3.767905,0.540708,-0.895321,-0.351292,-89.096204,-73.229368,83.099518
6348,9.135631,5.069532,4.189432,0.078648,-0.853397,-0.413525,-90.685325,-73.466188,84.804081
6349,8.483444,5.099654,4.427983,-0.429678,-0.818769,-0.483597,-92.547891,-73.730971,86.486889
6350,8.006425,4.845462,4.538913,-0.917575,-0.799997,-0.537574,-94.723563,-74.008259,88.203289
6351,7.978916,4.53009,4.774891,-1.36325,-0.743662,-0.594415,-97.116386,-74.3054,89.875929
6352,7.989464,4.327406,4.876704,-1.788725,-0.647876,-0.646719,-99.656694,-74.616815,91.447709
6353,8.247854,4.100569,5.061481,-2.204142,-0.521502,-0.698839,-102.270684,-74.956612,92.844605
6354,9.073665,3.881077,5.100958,-2.595125,-0.368995,-0.757669,-104.916713,-75.327858,94.042683
6355,10.161749,3.612208,4.930447,-2.939411,-0.163814,-0.832112,-107.456253,-75.764246,94.922222
6356,11.338573,3.162237,4.735128,-3.192894,0.055918,-0.926794,-109.845326,-76.276611,95.497837
6357,12.560599,2.606422,4.288694,-3.332113,0.318175,-1.038757,-111.917166,-76.903444,95.66076
6358,13.792444,1.939532,3.610453,-3.307638,0.586501,-1.180196,-113.597346,-77.656001,95.439251
6359,14.703919,1.09937,2.600525,-3.074618,0.893558,-1.334596,-114.605507,-78.569744,94.664523
6360,15.463049,0.314292,1.686814,-2.675379,1.235544,-1.497168,-114.650535,-79.643647,93.148278
6361,15.773845,-0.479615,1.009979,-2.1664,1.588279,-1.669797,-113.284455,-80.894858,90.497988
6362,15.927187,-1.019501,0.590625,-1.550874,1.940548,-1.861682,-109.823209,-82.295441,86.100148
6363,15.874206,-1.279689,0.295576,-0.955191,2.25919,-2.079397,-102.878035,-83.812665,78.548
6364,15.861167,-1.356977,0.156085,-0.352215,2.523012,-2.313326,-89.465706,-85.295296,64.872734
6365,16.164278,-1.465251,0.081496,0.179287,2.735528,-2.557832,-63.358622,-86.382139,38.798122
6366,16.467451,-1.589003,0.030552,0.607645,2.937586,-2.802448,-25.969594,-86.309174,1.685904
6367,16.697913,-1.60126,-0.025242,0.976877,3.101384,-3.02022,1.747602,-84.889322,-25.551665
6368,17.075044,-1.795247,0.013228,1.342182,3.264933,-3.223308,16.604512,-82.7318,-39.719804
6369,17.16985,-1.799903,-0.066082,1.68999,3.367725,-3.412269,25.183334,-80.219137,-47.417696
6370,16.970695,-1.949943,-0.205747,2.124912,3.466439,-3.594115,30.886138,-77.496547,-51.988662
6371,16.687617,-1.764747,-0.274787,2.520919,3.546021,-3.78015,35.181725,-74.605332,-54.929496
6372,16.193528,-1.665781,-0.30864,2.997233,3.572571,-3.919377,38.751388,-71.61974,-56.8654
6373,15.670729,-1.104421,-0.008126,3.381089,3.699183,-4.076797,41.82009,-68.487352,-58.071997
6374,14.751722,-0.170465,0.517322,3.633842,3.637403,-4.204694,44.666848,-65.319507,-58.903641
6375,14.487708,1.498236,0.926825,3.547159,3.582893,-4.356414,47.223794,-62.094301,-59.491402
6376,14.170272,1.580262,1.037833,3.577428,3.580009,-4.344778,49.486126,-58.871927,-59.736268
6377,13.925979,1.770436,1.339651,3.607313,3.450115,-4.345358,51.636595,-55.690501,-59.838133
6378,14.192897,2.496154,1.323881,3.495609,3.302499,-4.359158,53.653559,-52.558049,-59.856296
6379,13.799649,2.925148,1.293546,3.276258,3.197397,-4.325421,55.460699,-49.474855,-59.768415
6380,13.032807,2.86844,1.128106,2.98814,3.120461,-4.25056,57.023653,-46.457545,-59.568651
6381,12.10992,2.308455,0.952961,2.729274,2.989301,-4.125244,58.400658,-43.543791,-59.306471
6382,11.417623,1.755103,0.711468,2.434698,2.861582,-3.984825,59.586853,-40.743241,-58.996618
6383,10.972486,1.163342,0.485815,2.194357,2.754046,-3.789378,60.608193,-38.074878,-58.626653
6384,10.4667,0.90461,0.331457,1.993558,2.649682,-3.554036,61.492446,-35.559094,-58.197787
6385,10.224653,0.517123,0.107894,1.802175,2.583288,-3.289219,62.238659,-33.200867,-57.692123
6386,9.880143,0.0846,0.012272,1.63329,2.503206,-3.00231,62.871929,-31.014165,-57.12486
6387,9.522899,-0.201084,-0.148823,1.4635,2.472836,-2.721785,63.386328,-28.985553,-56.477924
6388,8.792682,-0.423124,-0.321533,1.358838,2.391094,-2.406526,63.835993,-27.142401,-55.781096
6389,8.437459,-0.428071,-0.435383,1.317835,2.297677,-2.08148,64.262201,-25.498005,-55.040716
6390,7.760019,-0.032164,-0.506287,1.24505,2.247349,-1.748012,64.637546,-24.039972,-54.236488
6391,7.066539,0.018814,-0.572682,1.130242,2.149016,-1.431623,64.952513,-22.778519,-53.400739
6392,6.527707,0.134521,-0.763273,1.062929,2.063681,-1.114878,65.231723,-21.7021,-52.532244
6393,5.946821,0.206172,-0.893607,1.001336,1.973035,-0.810393,65.479449,-20.814557,-51.634776
6394,5.996183,0.38683,-0.931761,0.983461,1.886604,-0.494001,65.717973,-20.111166,-50.708376
6395,5.979121,0.695547,-0.746294,0.930345,1.78216,-0.182751,65.928464,-19.603977,-49.760634
6396,5.951527,0.878178,-0.520966,0.840065,1.672845,0.132344,66.088511,-19.284481,-48.798797
6397,5.542397,0.959552,-0.230011,0.71365,1.576708,0.48546,66.168235,-19.180381,-47.801543
6398,5.308478,0.700898,0.093886,0.625958,1.500937,0.863147,66.181455,-19.286354,-46.756256
6399,5.440752,0.51469,0.171629,0.610982,1.43657,1.239481,66.162451,-19.611093,-45.650185
6400,5.575645,0.52252,0.171076,0.664009,1.40516,1.602047,66.141415,-20.126087,-44.472096
6401,5.67714,0.967873,0.068831,0.758093,1.378656,1.944929,66.135402,-20.833764,-43.216187
6402,5.785201,1.695193,-0.003917,0.859359,1.338851,2.265219,66.148977,-21.711458,-41.899493
6403,6.051272,2.687551,-0.020353,0.921189,1.283181,2.549294,66.157971,-22.758708,-40.531275
6404,6.26804,3.596542,0.0173,0.94763,1.224887,2.785687,66.143994,-23.935757,-39.128748
6405,6.360706,4.334668,0.218302,0.906162,1.149292,3.011249,66.064956,-25.255345,-37.694061
6406,6.446932,5.14006,0.542487,0.783444,1.047797,3.234823,65.877521,-26.704722,-36.244054
6407,6.680943,5.980426,1.009245,0.588088,0.913289,3.443807,65.540616,-28.29705,-34.787179
6408,6.948878,6.565319,1.335468,0.394493,0.767983,3.604781,65.061083,-29.990664,-33.340811
6409,7.129242,6.519926,1.590899,0.256269,0.610803,3.726952,64.470701,-31.782284,-31.906938
6410,7.056939,6.086994,1.753366,0.231309,0.431213,3.833054,63.84388,-33.652175,-30.504245
6411,7.083465,5.571616,1.865197,0.361101,0.214866,3.905015,63.28301,-35.610012,-29.155259
6412,7.293965,5.237798,2.036406,0.608503,0.017601,3.975198,62.856669,-37.637102,-27.858148
6413,7.585482,4.979646,2.221171,0.890494,-0.173674,4.03342,62.585325,-39.745861,-26.609684
6414,7.908574,4.8781,2.350245,1.191638,-0.34594,4.059345,62.491851,-41.902027,-25.424069
6415,8.194449,4.901623,2.461734,1.471522,-0.468641,4.072814,62.548268,-44.10535,-24.272143
6416,8.590489,5.015106,2.704607,1.692098,-0.561052,4.081032,62.720793,-46.330687,-23.150891
6417,9.148292,5.181426,3.004647,1.790793,-0.614619,4.101476,62.912959,-48.591081,-22.020466
6418,9.78599,5.667276,3.297157,1.811713,-0.63284,4.098878,63.072062,-50.849102,-20.869843
6419,10.450686,6.195947,3.559445,1.78251,-0.633787,4.049318,63.15986,-53.091619,-19.685906
6420,10.96547,6.531888,3.592771,1.689169,-0.618999,3.947254,63.149189,-55.270657,-18.480611
6421,11.139047,6.662197,3.436805,1.559964,-0.586528,3.828925,62.993938,-57.387502,-17.221168
6422,10.843299,6.640337,3.107493,1.409081,-0.57638,3.715511,62.697166,-59.433436,-15.926381
6423,10.761781,6.490709,2.726396,1.249716,-0.554751,3.608351,62.216302,-61.421845,-14.551195
6424,10.707807,6.295833,2.410363,1.11234,-0.549955,3.49245,61.581265,-63.336449,-13.116554
6425,10.588934,6.064616,2.131702,1.030366,-0.558326,3.35836,60.820126,-65.184578,-11.617077
6426,10.522319,5.897849,1.95611,0.968447,-0.531545,3.201808,59.926286,-66.930848,-10.03331
6427,10.266603,5.679546,1.822473,0.951686,-0.499777,3.02722,58.904758,-68.576978,-8.34131
6428,9.93774,5.274795,1.816186,1.027722,-0.47535,2.833175,57.848542,-70.103079,-6.584488
6429,9.531718,4.926143,1.868304,1.107039,-0.427784,2.642279,56.710254,-71.515875,-4.708354
6430,9.088434,4.672057,1.924989,1.192504,-0.380231,2.428292,55.543414,-72.793488,-2.765997
6431,8.63441,4.435999,1.943785,1.268333,-0.324732,2.239424,54.294133,-73.956354,-0.704495
6432,8.17778,4.232616,2.070864,1.317824,-0.263895,2.049307,52.97777,-74.992513,1.444158
6433,7.691742,4.040685,2.212158,1.3193,-0.224651,1.86647,51.585405,-75.922343,3.662881
6434,7.327317,3.79973,2.219455,1.322291,-0.169299,1.690216,50.134998,-76.735629,5.934104
6435,7.025851,3.67896,2.21517,1.300516,-0.124117,1.504751,48.646375,-77.440757,8.225196
6436,6.610236,3.669511,2.133928,1.271064,-0.074034,1.317166,47.18804,-78.030151,10.461717
6437,6.163221,3.620972,2.171165,1.202032,-0.041271,1.133135,45.781975,-78.52073,12.600544
6438,5.819559,3.668477,2.214879,1.106165,0.003518,0.964833,44.448218,-78.911757,14.605739
6439,5.730511,3.564238,2.305496,0.939351,0.034694,0.807984,43.16116,-79.220525,16.464182
6440,5.79405,3.549327,2.39854,0.774274,0.06277,0.679146,41.947297,-79.457892,18.149665
6441,6.018558,3.52544,2.413168,0.599193,0.092399,0.570799,40.745443,-79.636132,19.720351
6442,6.429558,3.451311,2.508375,0.42299,0.126195,0.482308,39.563457,-79.75972,21.166918
6443,6.850138,3.349741,2.492232,0.277778,0.171164,0.412405,38.334865,-79.833275,22.576419
6444,7.348613,3.250615,2.553452,0.158515,0.219518,0.356972,37.086578,-79.859486,23.935722
6445,7.84039,3.13993,2.804195,0.042661,0.281721,0.30625,35.764242,-79.834508,25.303385
6446,8.241585,3.012732,3.179199,-0.096347,0.384317,0.266188,34.307848,-79.742325,26.726016
6447,8.332209,2.760714,3.370518,-0.187351,0.515095,0.208173,32.74149,-79.562313,28.208621
6448,8.247419,2.485656,3.365363,-0.213582,0.648263,0.142129,31.189416,-79.290809,29.661897
6449,8.13649,2.177677,3.102427,-0.167249,0.770013,0.059564,29.75792,-78.927489,31.021544
6450,8.220397,1.975015,2.684838,-0.038103,0.863784,-0.013075,28.555143,-78.492079,32.224668
6451,8.364265,1.741907,2.279324,0.160852,0.925814,-0.068592,27.59618,-78.0048,33.297761
6452,8.689427,1.632636,2.145899,0.383242,0.977911,-0.102938,26.871332,-77.480035,34.263095
6453,9.241115,1.516348,2.446183,0.584414,1.015155,-0.118754,26.312126,-76.928536,35.179335
6454,9.956693,1.451071,2.822726,0.761195,1.05741,-0.106013,25.850927,-76.358071,36.100481
6455,10.574535,1.60281,3.568278,0.880684,1.119217,-0.104756,25.441815,-75.752936,37.041312
6456,10.888699,1.882605,4.426531,0.934955,1.229675,-0.110532,25.037734,-75.08902,38.011208
6457,10.718264,2.086553,5.114067,0.950772,1.360026,-0.156136,24.668697,-74.343036,38.957863
6458,10.426946,2.271087,5.30532,0.942733,1.482105,-0.217942,24.375114,-73.518985,39.82434
6459,10.219888,2.347012,5.00127,0.936536,1.572002,-0.286854,24.176272,-72.628702,40.592454
6460,10.278675,2.384503,4.395966,0.950788,1.642509,-0.328485,24.055778,-71.693218,41.290149
6461,10.474732,2.440397,3.827359,0.998968,1.688664,-0.346713,23.994116,-70.726726,41.959234
6462,10.792136,2.593134,3.373708,1.096397,1.709728,-0.35802,24.030424,-69.748794,42.586988
6463,11.164108,2.776686,3.364464,1.200559,1.717395,-0.366764,24.156096,-68.762809,43.187473
6464,11.516795,2.987743,3.562347,1.325952,1.723299,-0.378115,24.389367,-67.774035,43.753016
6465,11.726435,3.303053,3.974358,1.414104,1.751964,-0.403196,24.699062,-66.763113,44.294954
6466,11.805353,3.507351,4.499038,1.456538,1.789737,-0.438832,25.068111,-65.727462,44.802337
6467,11.777777,3.694258,4.971185,1.434729,1.834996,-0.480226,25.452138,-64.657385,45.284104
6468,11.800646,3.878618,5.335295,1.354741,1.888224,-0.52529,25.81998,-63.552202,45.736842
6469,11.687747,3.996582,5.300154,1.246127,1.946278,-0.581641,26.158365,-62.401963,46.157684
6470,11.593352,4.1926,4.934478,1.151584,1.999135,-0.63969,26.480693,-61.213196,46.539357
6471,11.428773,4.282781,4.45538,1.065586,2.036129,-0.718852,26.812007,-59.983967,46.859073
6472,11.294213,4.316182,4.092216,1.008044,2.059426,-0.801338,27.173425,-58.724584,47.109053
6473,11.119065,4.387127,3.920401,0.952279,2.072668,-0.872727,27.552499,-57.438446,47.304476
6474,11.022546,4.507652,3.922681,0.909072,2.061542,-0.935821,27.955386,-56.143914,47.444188
6475,11.023152,4.62578,4.144045,0.866063,2.0574,-0.96717,28.350785,-54.84173,47.565757
6476,11.076497,4.750417,4.605331,0.778216,2.057906,-0.978675,28.696715,-53.538447,47.687681
6477,11.133045,4.880304,4.931254,0.684093,2.04922,-0.968648,28.980835,-52.241114,47.822152
6478,11.057334,4.999639,5.083354,0.590075,2.045043,-0.947792,29.196645,-50.953639,47.976799
6479,10.948404,4.929496,5.045094,0.499558,2.04722,-0.921205,29.345197,-49.671484,48.154997
6480,10.581329,4.721663,4.893744,0.451615,2.030395,-0.884411,29.452468,-48.409685,48.354148
6481,10.310165,4.622531,4.774424,0.451614,2.013728,-0.838098,29.544682,-47.168433,48.578354
6482,10.059458,4.572015,4.64721,0.482305,2.000089,-0.760056,29.621389,-45.957335,48.851776
6483,9.857929,4.756122,4.784997,0.541542,1.976235,-0.70461,29.718632,-44.773408,49.150579
6484,9.650022,5.016202,4.85744,0.574447,1.96308,-0.645898,29.815154,-43.613798,49.482701
6485,9.413927,5.143334,4.908517,0.608002,1.955779,-0.606715,29.923567,-42.46905,49.833808
6486,9.122352,5.201209,4.944009,0.649503,1.926542,-0.593392,30.062806,-41.34356,50.180868
6487,8.883639,5.354137,5.014555,0.700163,1.893442,-0.577875,30.240862,-40.239612,50.522111
6488,8.686637,5.504773,5.107566,0.750518,1.846354,-0.567924,30.458347,-39.162773,50.853115
6489,8.412215,5.551949,5.298245,0.787277,1.792187,-0.556624,30.711623,-38.117273,51.169874
6490,8.166586,5.596136,5.429606,0.785932,1.728415,-0.543993,30.975109,-37.107716,51.474193
6491,7.955294,5.576768,5.5479,0.781424,1.647107,-0.520756,31.250914,-36.146625,51.762623
6492,7.713528,5.575882,5.643113,0.79629,1.563989,-0.494216,31.543666,-35.23472,52.040988
6493,7.416556,5.717341,5.79356,0.804248,1.478992,-0.461103,31.85215,-34.376236,52.308405
6494,7.180177,5.948007,6.006569,0.773758,1.393585,-0.427655,32.148663,-33.569768,52.569192
6495,7.067295,6.222975,6.229393,0.709434,1.304525,-0.390972,32.419038,-32.819777,52.818683
6496,6.952587,6.430265,6.408582,0.612976,1.228973,-0.362073,32.638933,-32.115063,53.061267
6497,6.925856,6.639603,6.598792,0.494279,1.158382,-0.335821,32.801568,-31.454396,53.291454
6498,6.966683,6.7738,6.982473,0.336512,1.114177,-0.304616,32.872179,-30.823906,53.525644
6499,6.934603,6.894631,7.333147,0.156442,1.089417,-0.283167,32.844187,-30.213432,53.758995
6500,6.761347,6.91455,7.585598,-0.042765,1.062951,-0.290146,32.708782,-29.611898,53.979192
6501,6.53456,6.821986,7.770107,-0.2719,1.055224,-0.303525,32.454348,-29.010805,54.182845
6502,6.231754,6.757401,8.057795,-0.532862,1.030234,-0.33066,32.062616,-28.411033,54.360465
6503,5.409201,6.50885,7.740217,-0.750327,0.989794,-0.318234,31.557783,-27.835071,54.522
6504,5.136374,4.630425,8.426551,-0.708226,0.974526,-0.369943,31.093446,-27.248407,54.646258
6505,5.166303,3.506477,8.237467,-0.492059,0.994499,-0.423802,30.770542,-26.63689,54.739523
6506,5.128731,3.746501,8.336056,-0.116986,1.067251,-0.489179,30.666652,-25.968519,54.820242
6507,4.66073,4.169215,8.277457,0.087938,1.106342,-0.471852,30.67525,-25.287526,54.91954
6508,3.967701,4.269809,7.92717,0.162862,1.104071,-0.412467,30.711333,-24.623418,55.052593
6509,3.501067,4.19448,7.394908,0.285469,1.06233,-0.395788,30.823912,-23.98653,55.179175
6510,2.740126,3.942743,6.74243,0.519259,0.96058,-0.397196,31.081345,-23.397982,55.276207
6511,2.407426,3.917539,6.46988,0.64862,0.893309,-0.35757,31.415949,-22.856175,55.373325
6512,1.812186,4.626189,6.320339,0.757522,0.796918,-0.306921,31.811172,-22.37566,55.471398
6513,1.58702,4.981284,6.49078,0.774589,0.668793,-0.274433,32.22808,-21.969288,55.545784
6514,1.69312,5.417696,6.786223,0.702833,0.539977,-0.211924,32.603962,-21.643543,55.615022
6515,1.699364,5.749219,6.914952,0.522198,0.408361,-0.138907,32.881311,-21.40535,55.678106
6516,1.62929,5.469486,7.020475,0.290183,0.269722,-0.069745,33.026385,-21.254466,55.733354
6517,1.557507,4.614415,6.671641,0.100921,0.158698,-0.010721,33.068727,-21.176291,55.780069
6518,1.414149,4.420038,6.909165,0.072126,0.056567,0.041499,33.094033,-21.162643,55.821402
6519,1.499714,4.194032,7.49757,-0.27929,0.029694,0.146313,32.90492,-21.195179,55.905879
6520,0.951107,4.40818,7.222451,-0.725834,-0.017251,0.259071,32.441102,-21.284156,56.035212
6521,0.673349,4.238719,7.262418,-1.170017,-0.07318,0.327355,31.718944,-21.420132,56.18122
6522,0.32718,4.149725,6.822587,-1.590744,-0.161868,0.393975,30.748906,-21.616981,56.338017
6523,0.362231,3.510258,6.952163,-1.972115,-0.210596,0.452635,29.555301,-21.852002,56.513611
6524,0.370534,2.866802,7.223219,-2.312033,-0.245264,0.492257,28.156782,-22.111651,56.707902
6525,0.47009,2.048975,7.663731,-2.457187,-0.281711,0.503471,26.675971,-22.387741,56.903893
6526,0.641509,1.277891,8.353373,-2.314,-0.295019,0.490963,25.274464,-22.66331,57.098583
6527,0.868067,0.763505,8.983968,-2.023512,-0.284401,0.486311,24.038235,-22.927199,57.299478
6528,1.047219,0.411755,9.237429,-1.631476,-0.272099,0.485182,23.019959,-23.181482,57.509927
6529,1.39108,0.157675,9.196443,-1.154821,-0.23424,0.461349,22.275955,-23.406273,57.719629
6530,1.617857,0.102333,9.100838,-0.644527,-0.171481,0.463061,21.814232,-23.597266,57.948684
6531,1.644503,0.518334,9.107136,-0.141489,-0.11296,0.436933,21.641553,-23.748884,58.177235
6532,1.697913,1.244589,9.338643,0.20495,-0.056579,0.448364,21.657348,-23.874126,58.426262
6533,2.032752,1.992325,9.665694,0.440947,0.042825,0.479507,21.79218,-23.951521,58.716514
6534,2.129338,3.079472,10.385484,0.432122,0.086968,0.501872,21.911245,-24.01264,59.030033
6535,2.203427,3.844251,10.619605,0.24272,0.12219,0.525875,21.913146,-24.058273,59.366075
6536,2.182915,3.682405,10.61589,0.105775,0.14097,0.520227,21.83516,-24.094709,59.703114
6537,2.248653,3.373555,10.323765,0.011995,0.167415,0.505473,21.704874,-24.110773,60.038252
6538,2.255055,3.226936,10.106951,0.000638,0.208189,0.492667,21.566596,-24.104305,60.375012
6539,2.230178,3.202751,9.893003,0.028192,0.235635,0.485733,21.443823,-24.078075,60.714544
6540,2.33034,3.147823,9.75509,0.040959,0.226021,0.481703,21.329863,-24.058468,61.048842
6541,2.51378,3.092813,9.544903,0.067297,0.213632,0.480847,21.232927,-24.041423,61.380442
6542,2.703837,3.027456,9.506432,0.112235,0.206959,0.497313,21.158071,-24.034213,61.719393
6543,2.854033,3.039645,9.43514,0.161222,0.194049,0.497245,21.112902,-24.029986,62.056192
6544,3.056799,3.34653,9.428479,0.196267,0.18004,0.487971,21.090937,-24.034733,62.383568
6545,3.260067,3.668511,9.348463,0.202264,0.1573,0.460495,21.081348,-24.042103,62.690658
6546,3.462956,3.835481,9.303899,0.158483,0.141103,0.426143,21.055962,-24.05476,62.973098
6547,3.668522,3.81144,9.340246,0.086221,0.132492,0.38057,21.001197,-24.058532,63.227859
6548,3.742973,3.717207,9.282106,-0.020852,0.121801,0.346061,20.893877,-24.064568,63.459097
6549,3.807268,3.475796,9.192347,-0.1464,0.11199,0.294827,20.728223,-24.060888,63.659032
6550,3.938819,3.063052,9.011622,-0.250908,0.101417,0.261007,20.511283,-24.059485,63.835847
6551,3.99502,2.685724,8.776401,-0.315628,0.095842,0.225972,20.26664,-24.049349,63.991757
6552,4.054078,2.331513,8.627942,-0.323071,0.090438,0.198957,20.024272,-24.040271,64.129611
6553,4.114632,1.965018,8.548472,-0.284419,0.083705,0.179523,19.809701,-24.026466,64.255494
6554,4.152815,1.784307,8.51382,-0.209862,0.076958,0.164896,19.641638,-24.017149,64.370281
6555,4.189938,1.818321,8.530423,-0.127516,0.067569,0.150533,19.525191,-24.005892,64.47564
6556,4.237997,1.845252,8.575612,-0.064889,0.062119,0.145966,19.446066,-24.000532,64.57607
6557,4.245554,1.876938,8.554128,-0.006685,0.057349,0.145585,19.400735,-23.993669,64.676419
6558,4.245441,1.911567,8.572869,0.05068,0.054524,0.137893,19.390436,-23.990734,64.770474
6559,4.295383,2.158255,8.567513,0.099337,0.050124,0.126319,19.410918,-23.984156,64.857989
6560,4.273664,2.343153,8.615205,0.133381,0.047743,0.11588,19.453886,-23.980745,64.937605
6561,4.246153,2.468768,8.556723,0.153882,0.041975,0.109592,19.510211,-23.975562,65.013569
6562,4.192613,2.605771,8.55002,0.170196,0.04141,0.101724,19.57822,-23.972998,65.083494
6563,4.032861,2.795175,8.580998,0.176727,0.028803,0.089712,19.653456,-23.971324,65.144964
6564,3.93076,2.93531,8.648763,0.167675,0.023224,0.083626,19.725922,-23.975239,65.200369
6565,3.806976,3.063542,8.638949,0.166234,0.007669,0.067353,19.802294,-23.98078,65.24417
6566,3.69647,3.216911,8.675203,0.141788,-0.001994,0.060446,19.867658,-23.993909,65.280529
6567,3.70057,3.322823,8.732148,0.11754,-0.01484,0.045412,19.923351,-24.007345,65.306573
6568,3.740038,3.306922,8.705629,0.086738,-0.024049,0.029854,19.966427,-24.026437,65.320155
6569,3.770314,3.244388,8.604423,0.059712,-0.033031,0.018445,19.99708,-24.044365,65.326374
6570,3.748049,3.089167,8.619726,0.037836,-0.034997,0.010999,20.017626,-24.065668,65.326471
6571,3.755445,2.957858,8.498311,0.039376,-0.0394,0.004061,20.040658,-24.084165,65.322825
6572,3.786851,2.936799,8.514703,0.05434,-0.029621,0.003523,20.071995,-24.101107,65.319652
6573,3.846096,2.946071,8.49437,0.075035,-0.021528,-0.003792,20.115759,-24.108409,65.315222
6574,3.857172,3.051758,8.510787,0.089363,-0.013055,-0.01985,20.171339,-24.111823,65.301828
6575,3.906103,3.17353,8.520966,0.079991,-0.00537,-0.020772,20.220585,-24.107054,65.290886
6576,3.923585,3.169121,8.507395,0.069179,0.003967,-0.030707,20.265702,-24.099144,65.274788
6577,3.994237,3.187369,8.505568,0.072272,0.012323,-0.037518,20.31298,-24.081514,65.257838
6578,4.031903,3.308007,8.558284,0.075777,0.023174,-0.048291,20.364373,-24.059759,65.235601
6579,4.079169,3.358011,8.596904,0.070207,0.029799,-0.055035,20.4131,-24.029224,65.212186
6580,4.107729,3.360991,8.6028,0.052188,0.043722,-0.057321,20.451266,-23.994598,65.18919
6581,4.117699,3.316746,8.576087,0.045308,0.051274,-0.061421,20.48532,-23.951241,65.166762
6582,4.09409,3.21853,8.498912,0.043152,0.063348,-0.057663,20.516588,-23.905988,65.147935
6583,4.031613,3.313397,8.477463,0.051655,0.074978,-0.06099,20.552021,-23.850002,65.131016
6584,3.990272,3.266977,8.427674,0.060598,0.080908,-0.062946,20.592911,-23.794244,65.113033
6585,3.947535,3.279662,8.42222,0.073395,0.085543,-0.066832,20.641193,-23.731409,65.095096
6586,3.902651,3.307153,8.344593,0.084334,0.09037,-0.061975,20.694532,-23.670748,65.07989
6587,3.820983,3.305375,8.344699,0.087319,0.08429,-0.059907,20.749216,-23.609969,65.065841
6588,3.758871,3.389466,8.393534,0.091817,0.083034,-0.056293,20.80608,-23.554366,65.052469
6589,3.700591,3.551621,8.473645,0.08049,0.083364,-0.054869,20.855716,-23.495073,65.041269
6590,3.705744,3.670012,8.652243,0.057044,0.078011,-0.057834,20.893389,-23.441824,65.025994
6591,3.692953,3.596916,8.622498,0.016612,0.081156,-0.060068,20.907845,-23.382589,65.011326
6592,3.689655,3.553571,8.740685,0.000331,0.088376,-0.063731,20.913424,-23.322577,64.994972
6593,3.655581,3.547129,8.768009,-0.011032,0.096856,-0.067706,20.91243,-23.25332,64.97936
6594,3.61415,3.435939,8.67685,-0.01536,0.103782,-0.067267,20.908438,-23.18434,64.964391
6595,3.57334,3.31125,8.65789,-0.004905,0.122034,-0.06141,20.907304,-23.102834,64.958051
6596,3.607574,3.21108,8.799741,0.011528,0.1439,-0.050336,20.911323,-23.015843,64.961863
6597,3.616691,3.156702,8.909246,0.035863,0.168736,-0.034999,20.923463,-22.914684,64.981295
6598,3.577191,3.109089,8.821482,0.064025,0.184962,-0.031788,20.949828,-22.809519,65.005042
6599,3.552799,2.960421,8.763374,0.108157,0.212678,-0.011963,20.994427,-22.689533,65.047719
6600,3.451541,2.889131,8.603215,0.170767,0.228992,0.006344,21.069707,-22.568699,65.103517
6601,3.410408,2.90623,8.456096,0.259884,0.243599,0.012029,21.19326,-22.437201,65.167311
6602,3.370971,3.106837,8.396428,0.350627,0.253371,0.014584,21.367751,-22.30529,65.233811
6603,3.346487,3.333285,8.278946,0.402302,0.248981,0.022824,21.570046,-22.173484,65.305764
6604,3.317546,3.516426,8.316011,0.414164,0.248181,0.026281,21.778816,-22.047237,65.378655
