PacketCounter,Acc_X,Acc_Y,Acc_Z,Gyr_X,Gyr_Y,Gyr_Z,Roll,Pitch,Yaw
5758,3.150622,-0.339637,9.797517,-0.212095,0.056663,-0.025796,-4.653036,-15.12975,12.598158
5759,3.305488,-0.891693,9.615116,-0.494583,0.049732,-0.002174,-4.935586,-15.102223,12.596264
5760,3.879946,-2.138012,9.283415,-0.579703,0.103755,0.062474,-5.276189,-15.039979,12.626741
5761,5.795034,-2.870159,9.588101,-0.380762,0.170714,0.2706,-5.533633,-14.928563,12.778507
5762,4.874202,-6.680654,9.24546,-0.228167,0.421481,0.417372,-5.721259,-14.664947,12.999197
5763,4.928422,-8.446359,10.337813,0.702872,0.5175,0.601266,-5.400457,-14.337098,13.325712
5764,5.049794,-7.480583,11.364249,1.379784,0.611759,0.790045,-4.716018,-13.948194,13.757869
5765,4.865574,-6.419606,11.790198,1.617437,0.663037,1.001055,-3.923812,-13.527368,14.319753
5766,4.16351,-6.353196,11.589941,1.644161,0.725355,1.218002,-3.140658,-13.069691,15.008202
5767,3.228982,-6.205941,11.266377,1.608897,0.768245,1.436368,-2.403894,-12.591958,15.832452
5768,2.532804,-5.582596,11.043475,1.41394,0.791173,1.661007,-1.798634,-12.104156,16.788035
5769,2.04385,-5.732968,10.888299,1.125459,0.807734,1.886432,-1.382812,-11.613142,17.881012
5770,1.727928,-6.165586,10.906713,0.821227,0.793837,2.122332,-1.155112,-11.131561,19.109828
5771,1.663394,-6.470121,10.95649,0.457133,0.759866,2.385621,-1.160172,-10.670074,20.494276
5772,1.750823,-6.616382,10.69541,0.076797,0.710343,2.682945,-1.398305,-10.228923,22.046829
5773,1.565774,-6.667902,10.266842,-0.256157,0.643528,2.982418,-1.849648,-9.812534,23.772109
5774,1.243731,-6.776455,9.865093,-0.420745,0.573729,3.25255,-2.404518,-9.414938,25.647597
5775,1.063466,-6.761795,9.502439,-0.45511,0.489817,3.488103,-2.992848,-9.040662,27.657527
5776,0.884165,-6.404764,9.118934,-0.432977,0.398421,3.698335,-3.569342,-8.691561,29.784457
5777,0.725579,-6.124687,8.792146,-0.441811,0.308226,3.890165,-4.160384,-8.364702,32.021186
5778,0.5783,-5.794998,8.402595,-0.434445,0.213255,4.05443,-4.742721,-8.06268,34.350676
5779,0.536502,-5.250279,8.308306,-0.323591,0.131542,4.152928,-5.263951,-7.778915,36.736253
5780,0.230002,-4.698662,8.174786,-0.195057,0.053352,4.219153,-5.698933,-7.517687,39.160315
5781,-0.205045,-3.950432,8.057083,-0.108842,-0.022327,4.259359,-6.08415,-7.277867,41.607072
5782,-0.564182,-3.205482,7.759241,-0.100921,-0.096023,4.291529,-6.45072,-7.06426,44.075635
5783,-1.06149,-2.575059,7.33797,-0.16616,-0.179326,4.314058,-6.855072,-6.877191,46.558863
5784,-1.577995,-2.22809,6.779054,-0.294731,-0.296466,4.335988,-7.321277,-6.739357,49.061907
5785,-1.92474,-1.965626,6.275241,-0.419026,-0.439207,4.349894,-7.862894,-6.655815,51.579973
5786,-1.990605,-1.88895,6.114268,-0.522837,-0.578813,4.341478,-8.455257,-6.631262,54.105388
5787,-1.850735,-1.952317,6.181159,-0.555581,-0.712478,4.320103,-9.073101,-6.652811,56.626883
5788,-1.648292,-1.756166,6.442022,-0.46338,-0.806354,4.247461,-9.629279,-6.71348,59.119255
5789,-1.60269,-1.346166,6.671679,-0.324397,-0.900479,4.159259,-10.110734,-6.80808,61.570212
5790,-1.525561,-0.973489,6.845083,-0.16292,-0.973065,4.064734,-10.492824,-6.940383,63.977698
5791,-1.437454,-0.602395,7.17455,-0.059894,-1.032033,3.976797,-10.822645,-7.093805,66.340029
5792,-1.360457,-0.306493,7.325855,-0.038059,-1.090097,3.892363,-11.136036,-7.282477,68.665702
5793,-1.345658,-0.160557,7.178227,-0.080596,-1.144652,3.81289,-11.482357,-7.490205,70.95151
5794,-1.408544,-0.148223,6.931947,-0.159489,-1.209363,3.734396,-11.873018,-7.735985,73.206102
5795,-1.347067,-0.10788,6.627473,-0.225356,-1.295516,3.638448,-12.310674,-8.017666,75.417303
5796,-1.072867,-0.117474,6.412297,-0.267777,-1.384064,3.545819,-12.774547,-8.350864,77.593914
5797,-0.761619,-0.250141,6.4717,-0.296667,-1.434268,3.429219,-13.263549,-8.700827,79.712515
5798,-0.573186,-0.44331,6.571468,-0.253589,-1.477722,3.301105,-13.727947,-9.083043,81.773151
5799,-0.326925,-0.536014,6.910464,-0.176361,-1.535527,3.165005,-14.15507,-9.491071,83.765294
5800,-0.016244,-0.508544,6.962416,-0.115201,-1.589494,3.031552,-14.54831,-9.943158,85.700664
5801,0.265082,-0.360385,7.11475,-0.032278,-1.598117,2.877723,-14.897402,-10.403104,87.560924
5802,0.499747,-0.260765,7.442512,0.075171,-1.584645,2.71621,-15.18134,-10.876456,89.329005
5803,0.660595,-0.139473,7.653727,0.121432,-1.572629,2.560653,-15.438551,-11.351359,91.017196
5804,0.852449,-0.038113,7.792618,0.0982,-1.552806,2.413772,-15.704996,-11.837482,92.620091
5805,0.997923,-0.095493,7.778205,0.029955,-1.52979,2.276677,-16.009017,-12.317311,94.151704
5806,1.03083,-0.314475,7.749115,-0.067269,-1.507666,2.156157,-16.365903,-12.802839,95.613036
5807,1.18584,-0.776336,7.81705,-0.197045,-1.497555,2.051377,-16.797352,-13.282804,97.024064
5808,1.374173,-1.468971,7.731284,-0.305225,-1.487663,1.965551,-17.291687,-13.767991,98.387571
5809,1.647648,-2.061632,7.764016,-0.355754,-1.47556,1.883534,-17.815702,-14.239364,99.705606
5810,1.942268,-2.478228,7.813811,-0.319925,-1.444533,1.806786,-18.319616,-14.705517,100.986245
5811,2.254507,-2.648016,7.973636,-0.268643,-1.409254,1.722281,-18.79097,-15.148064,102.21612
5812,2.504848,-2.814667,8.008457,-0.214878,-1.380338,1.649471,-19.230801,-15.588324,103.409086
5813,2.63853,-3.029746,7.989098,-0.191256,-1.34057,1.580866,-19.653461,-16.002319,104.558255
5814,2.768191,-3.2596,7.862999,-0.160707,-1.297727,1.526631,-20.058307,-16.40495,105.677103
5815,2.840867,-3.509555,7.754852,-0.146626,-1.253252,1.459657,-20.449071,-16.780771,106.752241
5816,3.090705,-3.832751,7.799169,-0.134508,-1.216855,1.392682,-20.829233,-17.152364,107.78902
5817,3.622774,-4.221775,7.945385,-0.152287,-1.175746,1.319206,-21.21076,-17.502264,108.779786
5818,4.358731,-4.580521,8.130193,-0.167733,-1.138469,1.235087,-21.592982,-17.851754,109.720247
5819,5.149725,-4.946576,8.379342,-0.208011,-1.09258,1.168135,-21.988652,-18.177528,110.61879
5820,5.752832,-5.250766,8.500441,-0.274553,-1.04867,1.117816,-22.417985,-18.492204,111.481807
5821,6.082841,-5.427566,8.428754,-0.373196,-0.976918,1.083381,-22.896435,-18.763136,112.315435
5822,6.395646,-5.698679,8.534936,-0.480568,-0.902151,1.085111,-23.437047,-18.994182,113.133573
5823,6.402382,-5.937041,8.400901,-0.598057,-0.840756,1.099666,-24.045338,-19.175649,113.95175
5824,6.49272,-6.24273,8.152719,-0.692645,-0.781824,1.09332,-24.70629,-19.325569,114.751107
5825,6.748995,-6.696429,7.975766,-0.725391,-0.734035,1.068692,-25.378814,-19.442023,115.530738
5826,7.318181,-7.165527,7.892809,-0.729179,-0.695958,1.022878,-26.045047,-19.547488,116.273567
5827,7.986192,-7.671743,8.112886,-0.686437,-0.666203,0.957074,-26.673011,-19.641429,116.979114
5828,8.592032,-8.211889,8.240118,-0.675064,-0.655433,0.915533,-27.288315,-19.738574,117.655742
5829,9.064001,-8.533629,8.343112,-0.681237,-0.648671,0.872551,-27.899762,-19.832377,118.314033
5830,9.404421,-8.800912,8.488698,-0.734702,-0.634302,0.814542,-28.531846,-19.932456,118.933242
5831,9.743521,-8.973676,8.625211,-0.768325,-0.62221,0.737612,-29.169373,-20.037352,119.514524
5832,10.145729,-8.987648,8.880769,-0.787937,-0.604024,0.636448,-29.799575,-20.159635,120.033115
5833,10.554741,-8.882105,9.265255,-0.811196,-0.572608,0.525977,-30.42136,-20.289364,120.490142
5834,10.892722,-8.602555,9.377789,-0.863759,-0.552232,0.423411,-31.053942,-20.437846,120.884262
5835,11.059903,-8.424055,9.453968,-0.950545,-0.519611,0.329564,-31.717727,-20.591503,121.225982
5836,11.067828,-8.42037,9.291047,-1.075103,-0.48555,0.257893,-32.436955,-20.749295,121.516923
5837,10.887342,-8.506752,9.145604,-1.18483,-0.462463,0.175679,-33.203489,-20.915652,121.764065
5838,10.676961,-8.713374,9.044689,-1.256414,-0.471602,0.087393,-33.997091,-21.113558,121.96816
5839,10.48926,-8.831404,9.009245,-1.292248,-0.508163,-0.003978,-34.801788,-21.354283,122.145851
5840,10.390173,-8.863395,9.081616,-1.292497,-0.575971,-0.093955,-35.600219,-21.655547,122.302283
5841,10.203306,-8.757137,9.326496,-1.271969,-0.651369,-0.193421,-36.382535,-22.022318,122.445235
5842,10.04936,-8.471981,9.754349,-1.21598,-0.73518,-0.301946,-37.125898,-22.463922,122.56706
5843,9.799575,-8.018001,9.976938,-1.133722,-0.800339,-0.418358,-37.814433,-22.974155,122.667062
5844,9.401115,-7.574516,9.916716,-1.06175,-0.867526,-0.528568,-38.452569,-23.552739,122.741132
5845,9.000865,-7.245387,9.588735,-0.970765,-0.894731,-0.639631,-39.026028,-24.182768,122.782912
5846,8.692843,-7.309137,9.278919,-0.863411,-0.925955,-0.745437,-39.523352,-24.864458,122.787925
5847,8.339083,-7.437629,8.96889,-0.707125,-0.960941,-0.85234,-39.919159,-25.601414,122.765636
5848,8.15059,-7.444792,8.753648,-0.540218,-1.028786,-0.950067,-40.210766,-26.403533,122.723532
5849,8.060535,-7.646322,8.575148,-0.405897,-1.109483,-1.019252,-40.428269,-27.267949,122.690346
5850,7.994149,-7.60494,8.502956,-0.263722,-1.195816,-1.0662,-40.569287,-28.186318,122.667509
5851,8.062385,-7.270853,8.472387,-0.151693,-1.296156,-1.105634,-40.659842,-29.164622,122.675651
5852,8.100205,-6.806351,8.46188,-0.084742,-1.385654,-1.146184,-40.719771,-30.195405,122.697534
5853,8.207041,-6.114104,8.363623,-0.023448,-1.462113,-1.217553,-40.744872,-31.286364,122.717844
5854,8.475517,-5.505307,8.190857,0.012664,-1.551147,-1.320843,-40.741913,-32.454284,122.724961
5855,8.675086,-4.993718,7.976284,-0.016099,-1.64262,-1.434114,-40.746596,-33.704789,122.714342
5856,8.767739,-4.630582,7.561048,-0.117809,-1.734052,-1.558282,-40.795494,-35.040912,122.680438
5857,8.695654,-4.448926,7.091276,-0.248297,-1.819232,-1.691323,-40.901475,-36.464634,122.616303
5858,8.622431,-4.530594,6.583616,-0.373423,-1.884136,-1.830057,-41.051906,-37.967881,122.510373
5859,8.745937,-5.088566,6.22857,-0.453808,-1.929596,-1.954827,-41.219066,-39.539022,122.36016
5860,8.883115,-5.383036,5.803638,-0.493047,-1.993978,-2.071391,-41.384688,-41.181268,122.178843
5861,9.151908,-5.437803,5.385429,-0.480167,-2.058407,-2.188139,-41.516896,-42.897026,121.963572
5862,9.26876,-5.180109,5.075067,-0.446611,-2.118755,-2.301372,-41.598864,-44.680784,121.711464
5863,9.364308,-4.729963,4.697012,-0.41194,-2.183722,-2.409462,-41.629806,-46.535086,121.422566
5864,9.394535,-4.264765,4.286298,-0.396456,-2.249169,-2.493008,-41.625925,-48.447859,121.108447
5865,9.39065,-3.911169,3.918087,-0.394052,-2.299118,-2.560053,-41.592881,-50.409088,120.765788
5866,9.450566,-3.551886,3.645229,-0.375513,-2.335504,-2.614289,-41.515481,-52.404702,120.390826
5867,9.547968,-3.144525,3.43085,-0.38115,-2.364887,-2.641843,-41.41485,-54.424861,119.991588
5868,9.675026,-2.811928,3.221644,-0.415926,-2.375409,-2.66349,-41.295251,-56.455441,119.556373
5869,9.710428,-2.543784,2.97366,-0.436293,-2.356111,-2.671484,-41.134769,-58.482187,119.067574
5870,9.598834,-2.374581,2.830647,-0.456745,-2.327215,-2.656039,-40.933504,-60.487728,118.529609
5871,9.370169,-2.210595,2.752516,-0.483077,-2.28457,-2.621144,-40.693133,-62.46293,117.939053
5872,9.023835,-2.040855,2.674052,-0.522604,-2.224951,-2.576525,-40.406067,-64.391959,117.282749
5873,8.544852,-2.029357,2.623032,-0.56132,-2.148647,-2.522039,-40.056695,-66.268222,116.542452
5874,8.083942,-2.01862,2.52728,-0.600897,-2.056704,-2.452899,-39.630068,-68.074105,115.705507
5875,7.528052,-2.01111,2.448819,-0.624523,-1.948021,-2.379916,-39.087354,-69.804987,114.738667
5876,7.030521,-1.991097,2.381323,-0.628031,-1.837443,-2.296881,-38.400426,-71.450407,113.628602
5877,6.568462,-1.968813,2.286794,-0.652244,-1.713384,-2.210386,-37.542361,-73.006609,112.333377
5878,6.191554,-1.882973,2.209969,-0.646439,-1.605405,-2.124958,-36.475734,-74.474717,110.836046
5879,5.899171,-1.826846,2.138061,-0.639901,-1.485247,-2.036104,-35.148519,-75.850429,109.082174
5880,5.6734,-1.762237,2.098081,-0.625888,-1.368072,-1.951311,-33.501276,-77.128974,107.018807
5881,5.472845,-1.71671,2.020165,-0.606795,-1.252715,-1.867653,-31.4692,-78.312029,104.581895
5882,5.37798,-1.668612,1.968274,-0.57696,-1.137541,-1.784284,-28.97859,-79.390657,101.706037
5883,5.34975,-1.640468,1.941451,-0.55357,-1.022274,-1.709572,-25.933797,-80.364793,98.289609
5884,5.438427,-1.525731,1.980399,-0.539134,-0.923237,-1.636096,-22.289638,-81.23152,94.284617
5885,5.440452,-1.391063,1.992076,-0.555631,-0.84971,-1.566265,-18.02055,-82.000368,89.646454
5886,5.465813,-1.216997,2.022131,-0.618142,-0.777396,-1.503651,-13.090301,-82.661523,84.313948
5887,5.597637,-1.223904,2.022249,-0.694544,-0.707087,-1.459185,-7.416069,-83.211303,78.194296
5888,5.674653,-1.235,2.09629,-0.776228,-0.64115,-1.41578,-1.066798,-83.638533,71.3549
5889,5.858061,-1.224565,2.145372,-0.875733,-0.570888,-1.382444,5.845488,-83.933908,63.89612
5890,5.989231,-1.23606,2.147495,-0.983064,-0.508171,-1.347423,13.014849,-84.094928,56.120703
5891,6.183387,-1.311537,2.197056,-1.067374,-0.454531,-1.310282,20.123515,-84.130902,48.358725
5892,6.267727,-1.447741,2.255367,-1.158076,-0.392848,-1.272841,26.799603,-84.046553,40.979432
5893,6.234412,-1.607292,2.288027,-1.227201,-0.349464,-1.234805,32.852352,-83.867948,34.185079
5894,6.201928,-1.842785,2.264938,-1.2791,-0.303941,-1.204288,38.169373,-83.608072,28.098407
5895,6.037264,-1.850429,2.242021,-1.292852,-0.254462,-1.137415,42.587279,-83.296246,22.905257
5896,5.734409,-1.699648,2.330168,-1.338434,-0.209435,-1.069852,46.156398,-82.952525,18.537363
5897,5.625752,-1.684734,2.291288,-1.400713,-0.197422,-0.997846,49.061119,-82.605876,14.799925
5898,5.517198,-1.777531,2.24561,-1.448476,-0.173532,-0.917772,51.345448,-82.26472,11.657818
5899,5.44856,-1.846219,2.26558,-1.492186,-0.15253,-0.84079,53.117134,-81.936901,9.005575
5900,5.466392,-1.932839,2.185129,-1.506829,-0.155416,-0.763315,54.543612,-81.635644,6.691482
5901,5.565315,-1.996117,2.1654,-1.493225,-0.145722,-0.677328,55.632054,-81.364803,4.725554
5902,5.708597,-2.101259,2.186509,-1.437239,-0.146416,-0.598843,56.507405,-81.126203,3.00616
5903,5.896509,-2.122012,2.282181,-1.357443,-0.160371,-0.51832,57.242439,-80.927498,1.47438
5904,6.087881,-2.18357,2.423849,-1.242777,-0.195054,-0.44641,57.969706,-80.770657,0.015957
5905,6.275962,-2.094062,2.677841,-1.112678,-0.237032,-0.382402,58.738106,-80.655383,-1.408773
5906,6.629487,-2.022919,2.99763,-1.002295,-0.267137,-0.32553,59.540162,-80.573037,-2.804322
5907,7.100747,-1.868888,3.406846,-0.914425,-0.27467,-0.292593,60.331683,-80.506949,-4.137938
5908,7.48682,-1.622806,3.884482,-0.819225,-0.255772,-0.281552,61.096438,-80.437173,-5.389882
5909,7.700107,-1.412428,4.17147,-0.774293,-0.239937,-0.282146,61.815309,-80.361155,-6.568824
5910,7.812388,-1.269016,3.999087,-0.790576,-0.256475,-0.277373,62.561932,-80.288376,-7.786267
5911,7.877236,-1.329366,3.753041,-0.792073,-0.28311,-0.272423,63.352572,-80.223516,-9.048765
5912,7.961862,-1.383634,3.625918,-0.789357,-0.327394,-0.258197,64.254722,-80.172796,-10.423791
5913,8.039867,-1.571871,3.642854,-0.774266,-0.376081,-0.242752,65.264375,-80.139453,-11.898506
5914,8.045864,-1.88874,3.652941,-0.695146,-0.408293,-0.21866,66.389543,-80.12015,-13.445396
5915,8.024872,-2.083447,3.890957,-0.560475,-0.44754,-0.192403,67.657484,-80.119568,-15.058009
5916,8.177071,-2.020183,4.253402,-0.413147,-0.478623,-0.16973,69.092802,-80.129411,-16.755733
5917,8.491354,-1.860783,4.612149,-0.268706,-0.495583,-0.14323,70.619953,-80.151256,-18.461541
5918,8.79776,-1.616655,5.139199,-0.137531,-0.486095,-0.105435,72.176769,-80.182011,-20.122087
5919,9.178726,-1.354509,5.584895,-0.038233,-0.481967,-0.071643,73.736098,-80.225085,-21.726095
5920,9.625716,-1.266796,5.771317,0.04598,-0.478076,-0.031492,75.328513,-80.279899,-23.315649
5921,10.057012,-1.217971,5.875779,0.143187,-0.460058,0.004134,76.88625,-80.347123,-24.81194
5922,10.498979,-1.26058,5.898587,0.246089,-0.437981,0.042007,78.445083,-80.423379,-26.250517
5923,10.975665,-1.202738,5.885321,0.338381,-0.401197,0.084527,79.90677,-80.51603,-27.535196
5924,11.421114,-1.168764,5.673545,0.391572,-0.362133,0.128541,81.291807,-80.621705,-28.712326
5925,11.832041,-1.020627,5.443912,0.4246,-0.340696,0.169381,82.604781,-80.747349,-29.795317
5926,12.151596,-0.923162,5.076297,0.420976,-0.317711,0.192525,83.88394,-80.877423,-30.847307
5927,12.491659,-0.956707,4.891855,0.417133,-0.288097,0.205721,85.054148,-81.01316,-31.789146
5928,12.748168,-1.126697,4.877872,0.441079,-0.253529,0.210196,86.171127,-81.143462,-32.664533
5929,13.086914,-1.342672,5.058229,0.502521,-0.197153,0.210837,87.111288,-81.273482,-33.32329
5930,13.552078,-1.510454,5.428986,0.609658,-0.127982,0.222033,87.905335,-81.402868,-33.773705
5931,14.334913,-1.651772,5.891131,0.737972,-0.022068,0.23956,88.348146,-81.54355,-33.792555
5932,15.034696,-1.780612,6.176235,0.893446,0.122234,0.263597,88.35557,-81.691607,-33.283169
5933,15.467155,-1.88124,6.318102,1.08219,0.283624,0.331778,87.766866,-81.87933,-32.060406
5934,15.432547,-1.829107,6.244151,1.273738,0.465031,0.437741,86.514956,-82.115673,-30.05976
5935,14.998731,-1.717612,5.863154,1.437858,0.648548,0.568367,84.374515,-82.413918,-27.066689
5936,14.450781,-1.504517,5.296531,1.539081,0.851694,0.704126,81.147128,-82.751978,-22.923383
5937,14.056894,-1.195101,4.59204,1.597588,1.037539,0.85362,76.533265,-83.119409,-17.350276
5938,13.814701,-0.78525,3.959499,1.590865,1.194388,0.995874,70.482387,-83.472067,-10.340639
5939,13.769586,-0.538456,3.356202,1.529425,1.334945,1.109936,62.756833,-83.75355,-1.683545
5940,13.872397,-0.476896,2.868169,1.44143,1.453389,1.207654,53.658099,-83.902783,8.29811
5941,13.969672,-0.566184,2.353964,1.339464,1.570379,1.299607,43.448267,-83.863108,19.339632
5942,14.05093,-0.658155,1.917954,1.283507,1.677002,1.3847,33.085376,-83.598314,30.503726
5943,13.932012,-0.77098,1.622265,1.258034,1.744273,1.477851,23.282595,-83.110775,41.099745
5944,13.766296,-0.772703,1.378586,1.25923,1.795483,1.54807,14.750477,-82.424712,50.426559
5945,13.401008,-0.630905,1.361067,1.230945,1.856092,1.595981,7.583166,-81.550501,58.378005
5946,13.039812,-0.550867,1.467921,1.190706,1.896881,1.62682,1.806195,-80.541974,64.915947
5947,12.878971,-0.499081,1.542262,1.128665,1.938222,1.647873,-2.849897,-79.415291,70.302167
5948,12.825227,-0.452606,1.579184,1.011873,1.982794,1.67516,-6.627864,-78.203069,74.743508
5949,12.675725,-0.407247,1.718023,0.856727,2.029661,1.712097,-9.791803,-76.904928,78.487573
5950,12.227987,-0.483873,1.633256,0.703071,2.078117,1.748398,-12.458509,-75.543069,81.647223
5951,11.627712,-0.518688,1.679981,0.528694,2.130439,1.792297,-14.779361,-74.108379,84.367054
5952,11.007749,-0.669137,1.688119,0.377479,2.157869,1.828637,-16.809911,-72.633517,86.711184
5953,10.473387,-0.779303,1.560143,0.240522,2.187038,1.864424,-18.616987,-71.108755,88.758893
5954,9.941299,-0.79087,1.476838,0.117222,2.185623,1.893989,-20.246383,-69.566972,90.55975
5955,9.396969,-0.928617,1.370244,-0.00549,2.170912,1.918078,-21.744929,-68.006354,92.165026
5956,8.860764,-1.03782,1.184838,-0.116866,2.137123,1.947516,-23.153452,-66.448847,93.61927
5957,8.350992,-1.201867,0.978736,-0.20375,2.093454,1.973726,-24.486479,-64.889704,94.955224
5958,7.931403,-1.312178,0.816675,-0.256957,2.04438,1.995427,-25.741688,-63.344208,96.186014
5959,7.587246,-1.442052,0.686415,-0.268918,1.984471,1.998708,-26.901847,-61.812609,97.320468
5960,7.357807,-1.572749,0.478198,-0.245629,1.926968,1.987237,-27.949894,-60.308597,98.356517
5961,7.104674,-1.658358,0.319225,-0.180962,1.868822,1.956474,-28.864328,-58.829247,99.297724
5962,6.97477,-1.737556,0.25468,-0.105851,1.796974,1.924335,-29.661423,-57.39255,100.164365
5963,6.90404,-1.819371,0.109663,-0.00782,1.724731,1.874001,-30.328821,-55.996121,100.958352
5964,6.897098,-1.922379,-0.00166,0.08174,1.652603,1.820726,-30.882508,-54.650521,101.687871
5965,6.839496,-1.994697,-0.064135,0.215929,1.563709,1.743748,-31.299346,-53.363989,102.356593
5966,6.742104,-2.035872,-0.112654,0.357489,1.473736,1.676739,-31.592714,-52.142925,102.981729
5967,6.742451,-2.008752,-0.026289,0.505464,1.369228,1.587061,-31.758986,-50.994844,103.564102
5968,6.866586,-2.053271,0.036868,0.630142,1.278867,1.482362,-31.804703,-49.925159,104.090846
5969,7.025681,-2.00168,0.140142,0.741671,1.197802,1.379092,-31.742124,-48.923117,104.568118
5970,7.161551,-1.849797,0.218475,0.807558,1.124478,1.279472,-31.601499,-47.990402,104.997712
5971,7.342008,-1.706398,0.348987,0.826991,1.055344,1.179211,-31.412078,-47.119666,105.383078
5972,7.514407,-1.570375,0.376523,0.833793,0.987875,1.082458,-31.184604,-46.314349,105.726106
5973,7.520662,-1.414591,0.47207,0.809967,0.918713,0.982097,-30.938184,-45.571413,106.02869
5974,7.502801,-1.180657,0.570627,0.740282,0.837038,0.888777,-30.706991,-44.899153,106.299702
5975,7.604434,-1.1178,0.591728,0.645521,0.74414,0.776708,-30.501073,-44.304344,106.53267
5976,7.765516,-1.145621,0.612702,0.538041,0.642086,0.668938,-30.332184,-43.793549,106.732371
5977,8.046766,-1.198228,0.631268,0.445151,0.51886,0.552444,-30.195048,-43.376408,106.9027
5978,8.316146,-1.330036,0.673551,0.366375,0.386983,0.442149,-30.086223,-43.057958,107.049542
5979,8.595425,-1.440397,0.806053,0.31132,0.25418,0.331246,-29.993287,-42.83647,107.174028
5980,8.770165,-1.576002,0.942296,0.252099,0.116375,0.225701,-29.92156,-42.714624,107.280304
5981,8.885902,-1.665446,0.987138,0.22424,-0.043572,0.110526,-29.855679,-42.704748,107.371478
5982,8.991784,-1.644504,1.105223,0.169456,-0.197639,-0.01632,-29.803027,-42.808132,107.436142
5983,9.182448,-1.689269,1.206101,0.148927,-0.383172,-0.161825,-29.744743,-43.045202,107.47455
5984,9.375097,-1.740603,1.448577,0.146724,-0.57563,-0.323537,-29.662791,-43.424027,107.476848
5985,9.703722,-1.698067,1.771758,0.133617,-0.777747,-0.496588,-29.560821,-43.952915,107.438604
5986,10.071433,-1.705779,2.060483,0.09957,-0.982219,-0.687595,-29.439422,-44.637215,107.345689
5987,10.503764,-1.706514,2.348242,0.05094,-1.183994,-0.887511,-29.300117,-45.479082,107.188571
5988,10.847761,-1.762812,2.595011,-0.008409,-1.389582,-1.075814,-29.150318,-46.47535,106.972802
5989,11.008262,-1.936586,2.986099,-0.057717,-1.553283,-1.229831,-28.98688,-47.597241,106.702683
5990,11.082699,-2.113332,3.388003,-0.115864,-1.694916,-1.345559,-28.823044,-48.820511,106.393192
5991,11.172902,-2.272175,3.63413,-0.132177,-1.7977,-1.4207,-28.643538,-50.117004,106.055783
5992,11.299649,-2.371267,3.844026,-0.112624,-1.868564,-1.452356,-28.438694,-51.45558,105.707436
5993,11.44321,-2.458462,4.136738,-0.068084,-1.893607,-1.432062,-28.211256,-52.802194,105.368324
5994,11.551605,-2.409092,4.309303,0.007493,-1.877032,-1.381126,-27.947388,-54.124021,105.044609
5995,11.48996,-2.210263,4.382609,0.090054,-1.826089,-1.299786,-27.654299,-55.399295,104.747388
5996,11.334098,-1.937118,4.351811,0.170361,-1.767308,-1.208587,-27.338472,-56.617684,104.483565
5997,11.097102,-1.583802,4.2256,0.214805,-1.706008,-1.125327,-27.018283,-57.784299,104.247554
5998,10.926675,-1.233465,3.970495,0.228729,-1.660126,-1.050864,-26.712518,-58.905368,104.041686
5999,10.773527,-0.983861,3.639702,0.213261,-1.634209,-0.997587,-26.433775,-60.001154,103.858443
6000,10.801212,-0.914977,3.157591,0.212492,-1.626239,-0.965238,-26.164299,-61.081957,103.688172
6001,10.943869,-0.9819,2.834572,0.22669,-1.630003,-0.957118,-25.880322,-62.164588,103.511614
6002,11.143461,-1.113841,2.513627,0.231575,-1.647766,-0.972981,-25.567459,-63.257534,103.308275
6003,11.365757,-1.287268,2.182059,0.265899,-1.652895,-1.019617,-25.166208,-64.366474,103.0295
6004,11.517612,-1.311718,2.058331,0.321489,-1.661471,-1.063901,-24.656242,-65.487055,102.66927
6005,11.515438,-1.264567,2.036493,0.334706,-1.661178,-1.104707,-24.049074,-66.618229,102.213355
6006,11.41687,-1.203976,2.195258,0.291055,-1.632793,-1.141548,-23.351353,-67.738179,101.636748
6007,11.163151,-1.112176,2.455924,0.198195,-1.618946,-1.163011,-22.605201,-68.855486,100.954514
6008,10.851702,-1.099194,2.677255,0.080267,-1.601333,-1.187677,-21.803548,-69.962529,100.146745
6009,10.544179,-1.082885,2.977783,-0.047156,-1.581424,-1.213295,-20.932556,-71.062853,99.19284
6010,10.218495,-1.07292,3.303589,-0.193412,-1.557238,-1.231228,-19.991991,-72.145824,98.08432
6011,9.867461,-0.884223,3.678384,-0.350225,-1.507593,-1.23771,-18.970856,-73.199854,96.803186
6012,9.562716,-0.81216,4.087153,-0.543142,-1.44519,-1.240621,-17.867654,-74.210488,95.329085
6013,9.178098,-0.857484,4.344702,-0.730256,-1.377463,-1.212259,-16.716943,-75.173557,93.701088
6014,8.79728,-0.812119,4.443376,-0.978449,-1.303132,-1.172265,-15.567235,-76.077907,91.934989
6015,8.531574,-0.803441,4.371476,-1.261489,-1.199861,-1.107617,-14.475338,-76.909177,90.067625
6016,8.035854,-0.886488,4.262112,-1.423433,-1.146343,-1.025414,-13.461336,-77.688754,88.191645
6017,7.523085,-1.060248,4.031149,-1.489351,-1.143249,-0.954255,-12.482617,-78.452319,86.318157
6018,7.16408,-1.167559,3.801247,-1.523042,-1.112439,-0.896746,-11.478213,-79.182811,84.404268
6019,6.952951,-1.31513,3.562019,-1.52941,-1.077125,-0.849589,-10.393471,-79.883322,82.409131
6020,6.844372,-1.399253,3.337155,-1.507499,-1.056176,-0.803178,-9.219652,-80.558323,80.341018
6021,6.798324,-1.562261,3.115176,-1.485155,-1.034927,-0.756133,-7.942726,-81.211237,78.185081
6022,6.812502,-1.672677,3.060835,-1.442634,-1.012947,-0.694279,-6.609125,-81.837604,76.000541
6023,6.850744,-1.811539,3.038912,-1.381136,-1.002936,-0.631294,-5.211029,-82.448086,73.789543
6024,6.867214,-1.997982,3.068415,-1.289686,-0.977547,-0.571558,-3.723021,-83.032226,71.544085
6025,6.965854,-2.124046,3.196466,-1.153132,-0.950141,-0.516046,-2.087903,-83.592265,69.231768
6026,7.162459,-2.245179,3.404752,-1.013473,-0.904424,-0.457335,-0.329264,-84.116066,66.878409
6027,7.342728,-2.353315,3.529446,-0.859064,-0.860063,-0.392464,1.522453,-84.607516,64.522363
6028,7.472469,-2.36939,3.666013,-0.697034,-0.80139,-0.321875,3.38765,-85.058472,62.248031
6029,7.619318,-2.370205,3.807744,-0.536193,-0.74151,-0.249871,5.203703,-85.472094,60.116816
6030,7.817434,-2.179722,3.92521,-0.411842,-0.679268,-0.158484,6.701245,-85.849787,58.37779
6031,7.950327,-1.934629,3.919978,-0.341196,-0.625715,-0.068422,7.72912,-86.200864,57.150853
6032,8.030146,-1.713541,3.907422,-0.285692,-0.588366,0.021332,8.120529,-86.536385,56.594099
6033,8.189092,-1.523111,3.800075,-0.264322,-0.535884,0.10802,7.652856,-86.849068,56.910289
6034,8.381293,-1.371129,3.794085,-0.271999,-0.486513,0.184408,6.154099,-87.138476,58.254507
6035,8.688954,-1.251236,3.738087,-0.296652,-0.432044,0.255676,3.371317,-87.397252,60.869782
6036,9.081532,-1.192889,3.755191,-0.320926,-0.386574,0.318798,-0.882305,-87.622846,64.942821
6037,9.440779,-1.145874,3.760014,-0.346554,-0.355208,0.375407,-6.791123,-87.811464,70.657155
6038,9.760582,-1.053786,3.898445,-0.38789,-0.318923,0.427704,-14.40717,-87.94651,78.055467
6039,10.09748,-0.995319,3.999269,-0.444951,-0.279565,0.478625,-23.467836,-88.008834,86.866281
6040,10.324139,-0.866942,4.039788,-0.532347,-0.229076,0.522507,-33.073696,-87.983028,96.172256
6041,10.580731,-0.78693,4.059427,-0.649573,-0.17594,0.560027,-42.141146,-87.866368,104.872902
6042,10.687964,-0.811855,4.045378,-0.752256,-0.123261,0.600337,-49.988641,-87.66794,112.294453
6043,10.805689,-0.792266,3.952272,-0.864955,-0.072753,0.641426,-56.347433,-87.398101,118.162844
6044,10.817405,-0.807348,3.895976,-0.975042,-0.017961,0.681178,-61.265652,-87.070129,122.526924
6045,10.969811,-0.702071,3.71547,-1.093635,0.009242,0.712885,-65.163551,-86.702689,125.802879
6046,11.474474,-0.65319,3.35199,-1.226907,0.003543,0.730583,-68.530778,-86.317754,128.471529
6047,12.106387,-0.490334,3.005744,-1.338575,-0.026556,0.7295,-71.588557,-85.929726,130.767518
6048,12.91881,-0.119608,2.509154,-1.47547,-0.087306,0.667066,-74.574961,-85.579435,132.913876
6049,13.582593,0.263529,1.984099,-1.595559,-0.193329,0.550557,-77.760526,-85.299472,135.192434
6050,13.706743,0.531088,1.89383,-1.641763,-0.221625,0.408182,-80.705159,-85.094297,137.20292
6051,12.981878,0.387709,2.372768,-1.549481,-0.163779,0.299203,-82.916134,-84.938106,138.53113
6052,12.002723,-0.528753,2.403999,-1.146026,-0.038905,0.279396,-84.021547,-84.782489,138.981188
6053,11.216672,-0.753499,2.093559,-0.698594,0.183073,0.310573,-83.486298,-84.594403,138.041676
6054,10.277046,-0.581351,1.403182,-0.176421,0.346384,0.335241,-81.802841,-84.379361,136.248306
6055,9.577961,-0.048985,0.523988,0.270134,0.395318,0.376772,-79.748101,-84.130051,134.338823
6056,9.639783,0.759243,-0.597672,0.524454,0.404589,0.389985,-77.700263,-83.866446,132.581308
6057,10.513386,1.830376,-1.703384,0.718131,0.33924,0.387927,-76.005095,-83.605884,131.289945
6058,12.422893,2.831737,-2.490551,0.699069,0.33472,0.396541,-74.488561,-83.338199,130.166126
6059,14.145421,3.417328,-3.138906,0.440999,0.423974,0.384926,-72.785306,-83.058485,128.705235
6060,14.927657,3.970906,-3.583298,0.078724,0.547892,0.347763,-70.83972,-82.772029,126.789598
6061,13.988613,4.01945,-3.016083,0.100634,0.415235,0.29758,-69.480556,-82.531668,125.477151
6062,14.564207,4.782113,-3.032902,-0.400327,0.54758,0.134974,-67.720309,-82.346014,123.469542
6063,16.055041,5.754628,-3.037107,-1.344085,1.162646,-0.001847,-64.027884,-82.075713,118.965203
6064,15.494478,5.848712,-2.444177,-2.190321,1.428557,-0.042527,-60.120761,-81.714368,113.750567
6065,14.847174,5.309356,-3.242632,-3.140205,1.599272,-0.085498,-56.517288,-81.275948,108.287497
6066,13.520885,4.876047,-3.604364,-3.988308,1.811444,-0.067684,-53.299653,-80.711158,102.715602
6067,12.237034,3.836285,-4.15682,-4.400124,1.691734,-0.015312,-51.23242,-80.126384,98.061949
6068,11.152286,1.669498,-5.047417,-4.062942,1.409124,0.007541,-50.078695,-79.611708,94.524669
6069,11.234821,0.634127,-4.813681,-3.567561,1.365433,0.004123,-48.950897,-79.104042,91.296753
6070,11.324677,-0.097088,-4.205184,-3.055383,1.310639,-0.043132,-47.764722,-78.624093,88.303094
6071,11.707409,0.049732,-2.938005,-2.554358,1.282232,-0.039521,-46.521647,-78.14333,85.539274
6072,11.720306,0.791189,-2.321049,-2.458076,1.144986,0.057119,-45.825033,-77.66605,83.385958
6073,12.05313,1.189153,-2.323597,-2.513171,1.181063,0.085676,-45.245192,-77.159612,81.315788
6074,11.649025,0.671777,-2.564714,-2.565237,1.423334,0.1267,-44.471847,-76.530898,79.011694
6075,10.493998,0.003821,-2.227529,-2.525559,1.549123,0.160311,-43.666993,-75.832095,76.692044
6076,9.645457,-0.290011,-1.993019,-2.468639,1.474734,0.195822,-43.151321,-75.141733,74.697792
6077,9.09271,-0.198319,-1.977051,-2.4264,1.410041,0.20426,-42.818884,-74.473979,72.912107
6078,8.507131,-0.013695,-1.797214,-2.444308,1.404099,0.198777,-42.591796,-73.806153,71.219578
6079,7.970664,-0.018762,-1.483059,-2.509133,1.393656,0.196957,-42.481345,-73.144723,69.604182
6080,7.5903,-0.170298,-1.262191,-2.587508,1.364924,0.192617,-42.516796,-72.494186,68.088956
6081,7.453612,-0.246582,-0.91973,-2.652379,1.338817,0.164047,-42.629033,-71.869113,66.609982
6082,7.566999,-0.356986,-0.56093,-2.730755,1.313024,0.122964,-42.816099,-71.269258,65.157396
6083,7.758109,-0.501973,-0.390725,-2.813383,1.282829,0.08299,-43.068107,-70.702346,63.718423
6084,7.764369,-0.712204,-0.338901,-2.900261,1.266209,0.027474,-43.363327,-70.163483,62.267592
6085,7.488438,-0.986592,-0.373033,-3.010907,1.250792,-0.015224,-43.71389,-69.653625,60.803469
6086,7.081268,-1.256935,-0.475608,-3.089605,1.224568,-0.054879,-44.127137,-69.1707,59.353349
6087,6.715263,-1.550429,-0.555027,-3.138736,1.196307,-0.102811,-44.563928,-68.725409,57.893955
6088,6.53337,-1.760101,-0.590122,-3.163804,1.164986,-0.15772,-45.017664,-68.316028,56.432957
6089,6.465202,-1.813349,-0.566088,-3.163975,1.129952,-0.212238,-45.464577,-67.950264,54.960752
6090,6.656775,-1.812592,-0.53811,-3.180529,1.104172,-0.278219,-45.904865,-67.623024,53.467353
6091,6.867796,-1.854368,-0.476955,-3.193123,1.070904,-0.34415,-46.331052,-67.343603,51.947846
6092,7.302428,-1.799675,-0.446976,-3.256554,1.011009,-0.394203,-46.824153,-67.110161,50.458429
6093,7.775613,-1.813601,-0.557725,-3.321945,0.968419,-0.449418,-47.349276,-66.924773,48.961059
6094,8.068203,-1.858573,-0.693341,-3.416427,0.936636,-0.515576,-47.91289,-66.78207,47.444588
6095,8.318952,-1.895204,-0.889109,-3.519775,0.887953,-0.590711,-48.515787,-66.699342,45.905428
6096,8.504601,-2.037724,-1.14026,-3.612713,0.82018,-0.682471,-49.166493,-66.685173,44.359498
6097,8.73561,-2.253711,-1.363303,-3.682027,0.733887,-0.784769,-49.847798,-66.758119,42.804278
6098,8.874103,-2.529574,-1.461673,-3.699173,0.644756,-0.893447,-50.537332,-66.915594,41.248372
6099,9.015211,-2.907876,-1.486446,-3.666096,0.542578,-0.992443,-51.215391,-67.164748,39.703209
6100,9.146729,-3.239129,-1.352259,-3.575325,0.445922,-1.094048,-51.850739,-67.497362,38.171146
6101,9.403078,-3.475359,-1.187114,-3.456204,0.338225,-1.184881,-52.435433,-67.918729,36.662505
6102,9.559927,-3.684908,-0.905693,-3.288807,0.240455,-1.276499,-52.938978,-68.417679,35.174436
6103,9.65538,-3.789263,-0.589731,-3.100465,0.151033,-1.349218,-53.342185,-68.988624,33.700178
6104,9.694685,-3.832296,-0.266408,-2.90089,0.069771,-1.399892,-53.655938,-69.610376,32.258214
6105,9.659635,-3.833971,0.082089,-2.711854,0.004194,-1.420127,-53.881205,-70.269619,30.843496
6106,9.55927,-3.624775,0.345929,-2.542361,-0.049502,-1.421694,-54.040769,-70.94577,29.467814
6107,9.59793,-3.370981,0.517099,-2.400882,-0.104387,-1.402969,-54.161121,-71.636255,28.142112
6108,9.85733,-3.122133,0.680255,-2.279479,-0.162537,-1.390592,-54.26576,-72.337826,26.878226
6109,10.416417,-2.770124,0.537133,-2.203831,-0.247159,-1.424955,-54.360606,-73.08776,25.654682
6110,11.704694,-2.596488,0.199309,-2.194848,-0.423634,-1.524969,-54.568608,-73.940633,24.559576
6111,13.413021,-2.695927,-0.140322,-2.190451,-0.594404,-1.671142,-54.827336,-74.923079,23.524858
6112,14.850855,-3.099861,0.04641,-2.179268,-0.647963,-1.793059,-54.968852,-75.977866,22.380519
6113,15.13474,-3.734529,0.440448,-2.112507,-0.590326,-1.830564,-54.80932,-77.034709,20.971233
6114,14.131379,-4.010447,0.822326,-1.98691,-0.489783,-1.768475,-54.32379,-78.02385,19.307529
6115,12.659643,-3.635093,1.304144,-1.908837,-0.355676,-1.681344,-53.428658,-78.926373,17.277302
6116,11.127586,-3.130374,1.741533,-1.856109,-0.325238,-1.593257,-52.351954,-79.767692,15.099088
6117,10.573181,-2.60382,2.085569,-1.839765,-0.343613,-1.492084,-51.23413,-80.565195,12.894272
6118,11.124503,-2.175861,2.275111,-1.893333,-0.362015,-1.365852,-50.217742,-81.303158,10.76599
6119,12.085256,-2.03768,2.237134,-1.971782,-0.367334,-1.232143,-49.319322,-81.981665,8.715521
6120,13.000221,-1.965458,2.284855,-2.023595,-0.316984,-1.090027,-48.456106,-82.572427,6.67383
6121,13.401802,-1.760796,2.330259,-2.078643,-0.227962,-0.940147,-47.53341,-83.063376,4.542879
6122,13.328005,-1.484243,2.272024,-2.143155,-0.141561,-0.785875,-46.667435,-83.449191,2.433845
6123,12.861798,-1.252059,2.010385,-2.205353,-0.035652,-0.64533,-45.755964,-83.733159,0.24453
6124,11.965353,-1.177029,1.682803,-2.226602,0.04667,-0.533348,-44.861964,-83.932311,-1.938388
6125,10.952918,-1.107689,1.405937,-2.217543,0.136677,-0.457164,-43.797707,-84.0619,-4.286679
6126,10.129961,-1.037598,1.233702,-2.261977,0.195222,-0.407943,-42.698545,-84.141247,-6.695147
6127,9.625521,-0.97348,1.107306,-2.355854,0.243386,-0.40007,-41.432454,-84.193513,-9.325252
6128,9.188748,-1.015171,1.055684,-2.503,0.296484,-0.398538,-40.064022,-84.214508,-12.142738
6129,8.828489,-1.276683,1.019305,-2.6501,0.339442,-0.413273,-38.520403,-84.215752,-15.221011
6130,8.508955,-1.503698,1.123204,-2.776009,0.373309,-0.423082,-36.925492,-84.195477,-18.423356
6131,8.227977,-1.649336,1.216306,-2.873319,0.406115,-0.434225,-35.219263,-84.155201,-21.793848
6132,8.001231,-1.912111,1.411761,-2.938552,0.431344,-0.447531,-33.483241,-84.096383,-25.232124
6133,7.722282,-2.086845,1.584869,-2.967239,0.46349,-0.455138,-31.662477,-84.013707,-28.7726
6134,7.397178,-2.208452,1.791482,-2.951206,0.498608,-0.468009,-29.788765,-83.905598,-32.357664
6135,7.106574,-2.265956,2.073932,-2.906176,0.536258,-0.479532,-27.817703,-83.768785,-36.015556
6136,6.833402,-2.201684,2.416225,-2.853443,0.572748,-0.49467,-25.821358,-83.604185,-39.669493
6137,6.58874,-2.125414,2.557536,-2.830251,0.590308,-0.50725,-23.842762,-83.418627,-43.293515
6138,6.42384,-2.022135,2.640861,-2.843396,0.582873,-0.504004,-22.081854,-83.224115,-46.707263
6139,6.331676,-1.89996,2.628791,-2.890515,0.558223,-0.490019,-20.575522,-83.026994,-49.893287
6140,6.253865,-1.846,2.63752,-2.921452,0.534218,-0.476735,-19.330805,-82.832806,-52.834771
6141,6.263641,-1.818448,2.69731,-2.942643,0.525421,-0.463043,-18.262503,-82.631442,-55.612095
6142,6.287261,-1.874636,2.803452,-2.927601,0.501864,-0.440231,-17.429632,-82.435327,-58.144365
6143,6.348666,-1.898904,2.980462,-2.870558,0.475724,-0.426888,-16.720218,-82.244243,-60.520454
6144,6.349336,-1.85073,3.211478,-2.79864,0.451539,-0.408271,-16.158815,-82.062597,-62.706363
6145,6.341675,-1.752139,3.38075,-2.740453,0.423839,-0.381973,-15.745794,-81.886446,-64.710011
6146,6.343151,-1.666294,3.496202,-2.730641,0.368993,-0.340088,-15.60435,-81.735831,-66.434115
6147,6.359056,-1.609969,3.485335,-2.734637,0.304444,-0.304893,-15.685656,-81.611721,-67.936399
6148,6.427125,-1.756049,3.480622,-2.704432,0.260666,-0.27006,-15.952184,-81.510511,-69.233985
6149,6.451604,-1.915309,3.559382,-2.653127,0.18216,-0.232982,-16.410158,-81.443825,-70.309021
6150,6.629082,-2.234356,3.594955,-2.53119,0.128218,-0.200054,-16.987308,-81.406716,-71.192552
6151,6.634597,-2.416684,3.913795,-2.32125,0.074003,-0.180774,-17.569327,-81.392939,-71.950127
6152,6.713356,-2.317925,4.185478,-2.117152,-0.016049,-0.14362,-18.277823,-81.427351,-72.460939
6153,6.846265,-2.207649,4.412426,-1.942909,-0.108437,-0.107534,-19.125569,-81.501451,-72.730581
6154,7.208743,-2.246326,4.714508,-1.759612,-0.173918,-0.085067,-20.044431,-81.612032,-72.821426
6155,7.478433,-2.30909,5.128683,-1.497177,-0.19411,-0.076536,-20.878359,-81.726554,-72.846873
6156,7.647936,-2.15046,5.570302,-1.2369,-0.212368,-0.066649,-21.641102,-81.854183,-72.792806
6157,7.798273,-1.903251,5.775664,-1.027267,-0.217547,-0.053381,-22.349728,-81.97561,-72.672949
6158,7.816241,-1.762666,5.908994,-0.836608,-0.204778,-0.048929,-22.961993,-82.09509,-72.539275
6159,7.855683,-1.563629,6.095418,-0.684761,-0.212882,-0.028734,-23.584316,-82.207389,-72.308591
6160,8.130149,-1.253227,5.948572,-0.599448,-0.23202,-0.008141,-24.288384,-82.331211,-71.945219
6161,8.447932,-1.147929,5.823436,-0.533609,-0.244238,-0.00638,-24.994118,-82.453027,-71.543207
6162,8.696563,-1.162003,5.673395,-0.495074,-0.294736,-0.016987,-25.757331,-82.610221,-71.060092
6163,9.199378,-1.102768,5.516277,-0.466622,-0.36445,-0.033859,-26.59334,-82.798684,-70.488388
6164,9.840221,-1.096985,5.463667,-0.431157,-0.410322,-0.07799,-27.372476,-83.028932,-69.952736
6165,10.493732,-1.046364,5.581085,-0.40309,-0.443531,-0.1257,-28.037657,-83.279365,-69.517025
6166,11.137274,-0.976985,5.869612,-0.372042,-0.459604,-0.17058,-28.581397,-83.558038,-69.184801
6167,11.751868,-0.798805,6.059557,-0.385272,-0.469008,-0.214898,-28.972897,-83.844229,-69.0147
6168,12.208806,-0.655589,6.064319,-0.432686,-0.452528,-0.248513,-29.230263,-84.140522,-69.005735
6169,12.461385,-0.531501,6.073987,-0.492531,-0.433413,-0.272748,-29.335124,-84.4243,-69.185719
6170,12.641492,-0.48227,6.0844,-0.568553,-0.415772,-0.306238,-29.270279,-84.718413,-69.578622
6171,12.975271,-0.435692,6.137345,-0.629486,-0.395164,-0.34198,-28.916561,-85.001614,-70.29774
6172,13.262574,-0.51236,6.338339,-0.676948,-0.340264,-0.367465,-28.218246,-85.274015,-71.388379
6173,13.280177,-0.64937,6.547229,-0.695779,-0.226481,-0.370525,-26.996331,-85.476677,-73.016191
6174,12.988969,-0.93283,6.758913,-0.662966,-0.117469,-0.353363,-25.413569,-85.626947,-74.985272
6175,12.805138,-1.201026,6.770461,-0.559253,-0.012294,-0.312375,-23.59109,-85.69588,-77.136442
6176,12.887647,-1.22265,6.614085,-0.429904,0.097615,-0.236784,-21.877153,-85.697135,-79.102777
6177,13.044388,-1.269851,6.391836,-0.277923,0.222056,-0.138834,-20.431884,-85.594429,-80.714171
6178,13.132371,-1.259606,6.053804,-0.125838,0.372165,-0.031307,-19.358364,-85.400385,-81.863875
6179,13.244422,-1.22987,5.560949,0.014252,0.536351,0.09555,-18.747254,-85.078401,-82.471277
6180,13.310914,-1.191555,4.987528,0.128859,0.706018,0.219628,-18.55196,-84.655233,-82.593769
6181,13.424869,-0.950102,4.389299,0.227943,0.849511,0.340215,-18.702288,-84.117409,-82.313923
6182,13.779012,-0.629661,3.731586,0.255341,0.981001,0.436269,-19.052944,-83.505044,-81.814602
6183,14.151136,-0.337546,3.140103,0.242542,1.134607,0.52384,-19.470205,-82.777562,-81.256777
6184,14.405242,-0.186281,2.671393,0.1667,1.259934,0.593696,-19.943269,-81.983605,-80.683692
6185,14.714739,-0.091742,2.211296,0.046823,1.372027,0.662123,-20.468535,-81.099908,-80.127854
6186,14.808238,-0.121134,1.926625,-0.09001,1.479972,0.724051,-21.045366,-80.160333,-79.596057
6187,14.777085,-0.230379,1.70475,-0.206854,1.601156,0.772976,-21.582169,-79.129852,-79.17306
6188,14.66296,-0.336904,1.724978,-0.311034,1.686168,0.800647,-22.086639,-78.062833,-78.840798
6189,14.43828,-0.385783,1.603078,-0.399596,1.786909,0.843164,-22.563582,-76.917553,-78.58882
6190,13.938121,-0.433297,1.676237,-0.509389,1.878362,0.881675,-23.051898,-75.73007,-78.387204
6191,13.299049,-0.368586,1.657705,-0.670237,1.954033,0.940817,-23.617524,-74.474282,-78.201185
6192,12.455572,-0.381528,1.722069,-0.857703,2.009784,0.991004,-24.284225,-73.191843,-78.019287
6193,11.655565,-0.450008,1.830686,-1.059584,2.039392,1.048911,-25.066008,-71.864858,-77.837744
6194,10.909179,-0.633499,1.863064,-1.249485,2.043709,1.108205,-25.981218,-70.535041,-77.627821
6195,10.179906,-0.695628,1.865675,-1.403872,2.023965,1.179307,-27.014429,-69.181823,-77.38552
6196,9.559025,-0.706458,1.843674,-1.56752,1.993312,1.250613,-28.18028,-67.838224,-77.098432
6197,9.045731,-0.846274,1.71848,-1.707553,1.961315,1.330745,-29.449569,-66.472766,-76.783894
6198,8.516859,-0.982482,1.637604,-1.793625,1.930722,1.401587,-30.786578,-65.11346,-76.445402
6199,7.946248,-1.133365,1.528226,-1.828536,1.867866,1.462665,-32.153126,-63.749897,-76.093025
6200,7.417393,-1.228759,1.304498,-1.794641,1.800779,1.506139,-33.507015,-62.415629,-75.728505
6201,6.825461,-1.281713,1.172807,-1.715733,1.723756,1.531447,-34.802229,-61.092796,-75.374832
6202,6.372141,-1.352143,1.047853,-1.602587,1.638511,1.541625,-36.029953,-59.816424,-75.019745
6203,5.903096,-1.409284,0.911032,-1.490303,1.531817,1.528671,-37.178062,-58.576973,-74.677383
6204,5.52364,-1.557851,0.746897,-1.314642,1.451506,1.50723,-38.210395,-57.391479,-74.348904
6205,5.267721,-1.662071,0.64822,-1.144657,1.331671,1.470946,-39.136599,-56.257431,-74.026054
6206,5.19018,-1.728794,0.642558,-0.928835,1.263675,1.413745,-39.909065,-55.184081,-73.735944
6207,5.252882,-1.753767,0.602547,-0.731114,1.193682,1.342512,-40.527842,-54.15351,-73.49112
6208,5.219542,-1.612425,0.637576,-0.563055,1.129142,1.267535,-41.023433,-53.189927,-73.277087
6209,5.079367,-1.574486,0.62564,-0.425034,1.052697,1.184176,-41.408666,-52.277419,-73.09803
6210,4.918228,-1.492145,0.650067,-0.316214,0.972047,1.100426,-41.719779,-51.443053,-72.933516
6211,4.714874,-1.410261,0.544861,-0.232432,0.895991,1.01166,-41.958283,-50.66272,-72.797682
6212,4.628893,-1.224848,0.596777,-0.181112,0.8121,0.902864,-42.149135,-49.971383,-72.685229
6213,4.775675,-1.119278,0.554379,-0.151214,0.702088,0.780011,-42.301992,-49.362278,-72.597745
6214,5.085559,-1.083812,0.633731,-0.12239,0.604196,0.639675,-42.415333,-48.860194,-72.541291
6215,5.40122,-1.026404,0.756938,-0.10917,0.494531,0.491793,-42.491848,-48.450374,-72.521926
6216,5.73221,-1.039854,0.881633,-0.117369,0.390602,0.326517,-42.543936,-48.159653,-72.542948
6217,5.996684,-1.089341,0.999464,-0.125855,0.286913,0.150248,-42.558197,-47.970421,-72.620021
6218,6.100688,-1.063756,1.097394,-0.145659,0.179544,-0.034605,-42.548209,-47.908715,-72.746606
6219,6.314405,-1.046804,1.21555,-0.181982,0.069272,-0.221375,-42.51446,-47.95571,-72.931661
6220,6.660791,-1.091689,1.267788,-0.240141,-0.057943,-0.422661,-42.478188,-48.144448,-73.166154
6221,7.155759,-1.162239,1.395552,-0.303837,-0.192488,-0.619199,-42.437157,-48.456404,-73.45327
6222,7.732239,-1.28151,1.426409,-0.375625,-0.340081,-0.82758,-42.403471,-48.920771,-73.785355
6223,8.25031,-1.412734,1.45899,-0.428055,-0.487469,-1.027617,-42.358239,-49.515663,-74.168283
6224,8.678213,-1.506514,1.500976,-0.475589,-0.637591,-1.226986,-42.305639,-50.259816,-74.594059
6225,9.052585,-1.557212,1.468845,-0.509544,-0.780067,-1.434919,-42.21675,-51.135923,-75.085508
6226,9.403124,-1.57023,1.545764,-0.525327,-0.933746,-1.613054,-42.10553,-52.153513,-75.611842
6227,9.695373,-1.509672,1.719061,-0.552344,-1.091922,-1.800964,-41.960736,-53.302238,-76.190994
6228,10.165365,-1.48091,1.85288,-0.567851,-1.233213,-1.995269,-41.763909,-54.592049,-76.837518
6229,10.69221,-1.565089,1.958085,-0.572707,-1.390231,-2.179451,-41.503639,-56.010917,-77.552839
6230,11.279523,-1.63655,2.063311,-0.546955,-1.537311,-2.366511,-41.149643,-57.568433,-78.351092
6231,11.993756,-1.715323,2.167807,-0.504962,-1.684756,-2.546366,-40.66895,-59.248038,-79.254834
6232,12.772879,-1.772024,2.238357,-0.429738,-1.82791,-2.726242,-40.021349,-61.058205,-80.285854
6233,13.571445,-1.87395,2.382101,-0.340316,-1.953272,-2.892738,-39.149113,-62.972254,-81.494232
6234,14.393693,-1.932551,2.516268,-0.234734,-2.049557,-3.03685,-37.996157,-64.976012,-82.927347
6235,15.151139,-2.012531,2.705108,-0.110898,-2.120411,-3.138964,-36.489124,-67.027712,-84.646406
6236,15.728232,-2.199442,2.978599,0.050024,-2.149333,-3.203506,-34.524978,-69.09715,-86.733179
6237,16.047865,-2.431058,3.234116,0.256935,-2.159249,-3.222057,-31.977697,-71.140751,-89.28527
6238,16.002173,-2.463677,3.440698,0.523517,-2.080299,-3.178432,-28.668651,-73.090281,-92.447146
6239,15.455133,-2.212044,3.868199,0.747595,-1.940573,-3.070115,-24.486432,-74.868975,-96.352667
6240,14.739935,-1.986319,4.132881,0.927288,-1.783418,-2.915448,-19.384077,-76.442533,-101.070708
6241,13.908963,-1.573426,4.394132,1.094634,-1.653723,-2.704308,-13.421896,-77.786435,-106.543719
6242,12.985597,-1.010667,4.261166,1.095681,-1.562879,-2.457271,-6.827508,-78.91725,-112.635762
6243,12.016566,-0.650396,3.789948,0.994539,-1.391087,-2.240751,0.322693,-79.782762,-119.33208
6244,11.422584,-0.045491,3.365547,0.818951,-1.251115,-2.004485,7.651934,-80.419168,-126.295933
6245,11.331399,0.5312,2.642139,0.523932,-1.080766,-1.799846,14.803104,-80.821677,-133.240749
6246,11.36695,1.040366,2.444096,0.084205,-0.962317,-1.568886,21.294488,-81.067584,-139.765556
6247,11.624083,0.980933,1.788184,-0.346408,-0.860442,-1.374731,26.982011,-81.190911,-145.724122
6248,11.777371,0.726086,1.39741,-0.668686,-0.734659,-1.232215,31.914048,-81.20999,-151.103052
6249,11.743959,0.642585,1.297969,-0.93223,-0.63057,-1.101462,36.036583,-81.152719,-155.816906
6250,11.50153,0.567091,1.296822,-1.168234,-0.549399,-0.979061,39.438097,-81.057758,-159.937828
6251,11.112499,0.545021,1.660481,-1.386472,-0.46859,-0.86537,42.097604,-80.933681,-163.436443
6252,10.763589,0.422197,2.085694,-1.683184,-0.414788,-0.764758,44.138488,-80.807045,-166.48081
6253,10.306665,0.036695,2.340074,-1.995692,-0.371549,-0.66771,45.555796,-80.684989,-169.077087
6254,9.687033,-0.246396,2.537804,-2.255171,-0.313773,-0.568353,46.422104,-80.575067,-171.265241
6255,9.000446,-0.487484,2.769643,-2.526701,-0.255826,-0.487263,46.732959,-80.470254,-173.050041
6256,8.287517,-0.811181,2.861312,-2.736073,-0.211058,-0.411536,46.649309,-80.380999,-174.555553
6257,7.724212,-1.244876,2.913383,-2.867192,-0.176453,-0.342443,46.199526,-80.306058,-175.767799
6258,7.305795,-1.616968,2.91794,-2.937232,-0.139249,-0.274221,45.492893,-80.248298,-176.75885
6259,6.903615,-1.934296,3.014034,-2.939538,-0.085921,-0.201236,44.447597,-80.199434,-177.409514
6260,6.585757,-2.18213,3.059489,-2.898999,-0.063259,-0.137074,43.262643,-80.170572,-177.89318
6261,6.258451,-2.480635,2.954229,-2.780848,-0.058362,-0.083693,41.962342,-80.160808,-178.193108
6262,6.092236,-2.62091,2.802588,-2.613406,-0.055263,-0.031109,40.666492,-80.172269,-178.39818
6263,5.926205,-2.818908,2.837955,-2.397499,-0.054629,0.004689,39.350809,-80.196262,-178.459808
6264,5.9671,-2.942908,2.972349,-2.06475,-0.065104,0.01195,38.276249,-80.229096,-178.57041
6265,5.969359,-2.83458,3.21858,-1.736618,-0.048269,0.021103,37.271787,-80.25688,-178.563848
6266,5.930581,-2.784526,3.242639,-1.437524,-0.05829,0.023762,36.505553,-80.291268,-178.622637
6267,5.877242,-2.710307,3.303072,-1.135757,-0.080797,0.016978,35.910338,-80.332946,-178.682242
6268,5.890381,-2.665974,3.387292,-0.814697,-0.119331,0.007695,35.661992,-80.390506,-178.904355
6269,5.965025,-2.585588,3.36429,-0.52119,-0.158547,-0.007667,35.632941,-80.460387,-179.181235
6270,6.156901,-2.345535,3.437177,-0.285484,-0.196751,-0.012763,35.902898,-80.547101,-179.62133
6271,6.343178,-2.275983,3.477238,-0.048716,-0.24878,-0.030432,36.395279,-80.650662,179.847581
6272,6.616424,-2.301966,3.557592,0.1897,-0.309846,-0.043907,37.282294,-80.777167,179.058378
6273,7.074163,-2.206333,3.741219,0.424026,-0.359491,-0.063607,38.407265,-80.916435,178.161097
6274,7.494683,-2.155148,4.086617,0.665922,-0.398163,-0.068037,39.892336,-81.068219,177.04325
6275,7.884404,-2.059468,4.461624,0.920224,-0.420737,-0.063235,41.514835,-81.226684,175.93075
6276,8.169795,-1.89652,4.881086,1.164923,-0.422071,-0.036913,43.356027,-81.390331,174.742834
6277,8.431674,-1.764281,5.160216,1.365912,-0.399276,-0.005548,45.116164,-81.551685,173.750166
6278,8.476937,-1.60146,5.311991,1.575175,-0.399679,0.026685,47.07292,-81.720896,172.684046
6279,8.672019,-1.229424,5.347516,1.715951,-0.392885,0.083947,48.879908,-81.907213,171.847375
6280,8.895688,-0.989361,5.386403,1.805909,-0.390096,0.136223,50.776583,-82.110378,170.976418
6281,9.065562,-0.846543,5.295441,1.874141,-0.38169,0.190636,52.479203,-82.331748,170.337282
6282,9.285889,-0.77604,5.278377,1.926495,-0.357196,0.238865,54.209081,-82.563027,169.705186
6283,9.538999,-0.779305,5.216612,2.002006,-0.32562,0.283979,55.670018,-82.803354,169.384184
6284,9.84836,-0.789733,5.169382,2.100325,-0.301985,0.333368,57.188231,-83.057445,169.066419
6285,10.129027,-0.802018,5.158775,2.201628,-0.273768,0.378727,58.424232,-83.324485,169.087447
6286,10.3539,-0.686813,5.210287,2.316135,-0.239669,0.418876,59.706641,-83.600175,169.13184
6287,10.596385,-0.508917,5.3439,2.406073,-0.19199,0.4559,60.574106,-83.88095,169.641415
6288,10.930306,-0.313728,5.256491,2.45338,-0.162538,0.481966,61.484677,-84.166872,170.138695
6289,11.453355,-0.158417,5.11812,2.453518,-0.152539,0.491141,62.101097,-84.454889,170.927367
6290,12.133166,-0.050239,4.775533,2.418779,-0.162495,0.476122,63.036507,-84.739115,171.379289
6291,12.907734,-0.156753,4.615533,2.39972,-0.155843,0.431601,63.803836,-84.99817,171.984827
6292,13.591949,-0.415896,4.666999,2.429035,-0.094772,0.380871,64.663473,-85.217497,172.518333
6293,13.703832,-0.629355,4.907082,2.500581,0.014095,0.330143,64.721841,-85.382169,173.892843
6294,13.319059,-0.814892,5.133287,2.60495,0.140304,0.300345,64.381383,-85.502223,175.731103
6295,12.635524,-0.870483,5.397709,2.717718,0.265973,0.27609,62.958167,-85.571617,178.715977
6296,12.178102,-0.738246,5.569088,2.831579,0.386554,0.258636,61.152644,-85.597965,-177.846463
6297,12.396528,-0.364093,5.501767,2.872916,0.507858,0.247661,58.277289,-85.565358,-173.316239
6298,12.72962,-0.044251,5.245925,2.828138,0.645406,0.226618,55.05184,-85.469806,-168.456071
6299,13.078693,0.121574,4.83999,2.705678,0.79283,0.17188,51.072113,-85.261888,-162.912788
6300,13.266822,0.071912,4.364428,2.550862,0.947828,0.117719,47.22279,-84.956703,-157.583095
6301,13.332336,-0.098321,3.87262,2.398959,1.088928,0.054181,43.288146,-84.520476,-152.256497
6302,13.433371,-0.266957,3.381454,2.235495,1.212801,-0.006006,40.006829,-83.99797,-147.671934
6303,13.510611,-0.455626,2.928683,2.091761,1.343389,-0.071013,36.98071,-83.347161,-143.426668
6304,13.65434,-0.61024,2.641608,1.952559,1.461749,-0.142688,34.660986,-82.619404,-139.962869
6305,13.793703,-0.744014,2.392552,1.803797,1.572154,-0.20314,32.621917,-81.779557,-136.867107
6306,13.720328,-0.900722,2.209501,1.643164,1.683308,-0.254559,31.044265,-80.88259,-134.319486
6307,13.476616,-1.020119,2.013616,1.448748,1.785958,-0.282968,29.552633,-79.890477,-131.970541
6308,13.098416,-0.986567,1.840458,1.234824,1.88402,-0.300113,28.283578,-78.861922,-129.960125
6309,12.707515,-1.144123,1.704799,1.039906,1.980145,-0.294685,26.984206,-77.750944,-128.03095
6310,12.393795,-1.219817,1.634758,0.86408,2.058371,-0.27969,25.808242,-76.622828,-126.317851
6311,12.173714,-1.206904,1.657191,0.709819,2.132744,-0.260604,24.608144,-75.425775,-124.668596
6312,12.353768,-1.15186,1.813881,0.570919,2.217357,-0.229869,23.473719,-74.211456,-123.154842
6313,12.490928,-1.039297,1.856475,0.400771,2.285266,-0.176567,22.247643,-72.937714,-121.644134
6314,12.311169,-0.928689,1.724344,0.192229,2.34989,-0.108852,20.987364,-71.662674,-120.206273
6315,11.849652,-0.805236,1.58541,-0.035719,2.44005,-0.018256,19.552113,-70.319784,-118.717159
6316,11.309626,-0.783807,1.317735,-0.268186,2.518157,0.077762,18.033821,-68.967919,-117.262317
6317,10.731285,-0.804363,1.165455,-0.512883,2.569389,0.186404,16.362014,-67.565701,-115.78645
6318,10.180054,-0.888838,1.006607,-0.731469,2.592003,0.292016,14.637691,-66.179036,-114.367885
6319,9.720464,-1.062588,0.868606,-0.912899,2.602599,0.398158,12.829056,-64.757724,-112.962427
6320,9.470977,-1.210958,0.819698,-1.060158,2.597529,0.505316,11.008666,-63.361122,-111.614309
6321,9.693093,-1.30837,0.965689,-1.123887,2.591615,0.611457,9.17484,-61.934401,-110.28247
6322,10.10674,-1.306732,1.164978,-1.213552,2.578178,0.715655,7.354675,-60.531359,-109.000015
6323,10.422839,-1.447675,1.057709,-1.296922,2.568211,0.833071,5.496093,-59.097236,-107.717486
6324,10.485154,-1.539167,0.976843,-1.388731,2.5743,0.940397,3.638011,-57.669787,-106.470718
6325,10.380097,-1.65406,0.953754,-1.446775,2.587725,1.046859,1.766947,-56.192902,-105.235281
6326,10.250544,-1.63963,0.969315,-1.488544,2.615124,1.150537,-0.074581,-54.704442,-104.035736
6327,10.099513,-1.845657,0.773087,-1.53077,2.617893,1.23862,-1.903237,-53.169623,-102.866904
6328,10.00082,-2.096397,0.64329,-1.498109,2.598058,1.311535,-3.64243,-51.646501,-101.756122
6329,10.003522,-2.234084,0.558941,-1.453387,2.551756,1.38409,-5.318247,-50.105593,-100.678037
6330,10.134559,-2.358254,0.608093,-1.365566,2.483319,1.437548,-6.878161,-48.603436,-99.654204
6331,10.212996,-2.550022,0.66167,-1.273543,2.41421,1.474221,-8.341236,-47.10078,-98.674207
6332,10.319339,-2.779151,0.898636,-1.169135,2.350986,1.494555,-9.676669,-45.636476,-97.755537
6333,10.392542,-2.876301,1.273655,-1.043011,2.280792,1.507211,-10.899008,-44.178463,-96.880517
6334,10.63025,-2.978209,1.444518,-0.953119,2.199209,1.510232,-12.011659,-42.771887,-96.057978
6335,10.950212,-3.179565,1.430288,-0.897069,2.105924,1.526179,-13.070164,-41.387986,-95.256365
6336,11.167405,-3.30832,1.364582,-0.835155,2.007485,1.531479,-14.050691,-40.06437,-94.487839
6337,11.053131,-3.364065,1.363102,-0.786426,1.890921,1.538369,-14.989981,-38.780351,-93.73043
6338,10.841402,-3.361337,1.493365,-0.773807,1.765211,1.538237,-15.889459,-37.571123,-92.993408
6339,10.647312,-3.349273,1.727501,-0.807199,1.6163,1.525032,-16.798275,-36.424438,-92.265373
6340,10.397707,-3.315677,1.940811,-0.884726,1.467789,1.524882,-17.728317,-35.362393,-91.544631
6341,10.074558,-3.281218,2.353047,-0.991421,1.29503,1.502994,-18.715931,-34.378141,-90.825946
6342,9.768969,-3.481508,2.661445,-1.104927,1.121769,1.484501,-19.74691,-33.491486,-90.114197
6343,9.540744,-3.702629,2.765992,-1.221209,0.918919,1.469629,-20.853889,-32.697143,-89.385017
6344,9.344803,-3.902363,2.77616,-1.327288,0.700412,1.45511,-22.013185,-32.019332,-88.640912
6345,9.048618,-4.227968,2.929873,-1.40059,0.488381,1.441109,-23.232472,-31.436643,-87.866659
6346,8.387447,-4.720768,3.146514,-1.414355,0.299136,1.451949,-24.461573,-30.943983,-87.059184
6347,7.412149,-4.885682,3.496648,-1.356729,0.115031,1.476101,-25.690545,-30.520404,-86.195483
6348,6.270704,-5.035813,3.791362,-1.241222,-0.055918,1.525528,-26.868831,-30.162607,-85.271883
6349,5.235318,-5.127036,4.035572,-1.017426,-0.18157,1.583066,-27.95777,-29.832588,-84.28155
6350,4.345227,-5.08691,4.408734,-0.761932,-0.337636,1.66449,-28.925102,-29.548988,-83.211091
6351,3.611825,-5.032751,4.66986,-0.410569,-0.467718,1.736983,-29.737729,-29.290281,-82.058794
6352,3.526882,-5.143788,4.771447,-0.054823,-0.555256,1.794643,-30.355034,-29.051339,-80.857886
6353,3.663155,-5.214849,4.745195,0.30714,-0.692118,1.83739,-30.806476,-28.851815,-79.585973
6354,4.095341,-5.10683,4.70893,0.612118,-0.799206,1.855638,-31.085982,-28.698343,-78.277881
6355,4.738096,-5.188717,4.670346,0.835228,-0.924004,1.848599,-31.266925,-28.597168,-76.927307
6356,5.248188,-5.277251,4.717657,1.003703,-1.007657,1.81995,-31.34056,-28.549221,-75.572086
6357,5.337235,-5.359218,4.816974,1.150272,-1.100743,1.797632,-31.353542,-28.546001,-74.191397
6358,5.176844,-5.40134,5.01952,1.334079,-1.234933,1.785578,-31.265832,-28.619426,-72.778161
6359,5.172153,-5.193641,5.113299,1.457443,-1.313067,1.75597,-31.129957,-28.735569,-71.347031
6360,4.956936,-4.961708,5.270911,1.543708,-1.385529,1.729769,-30.938024,-28.905389,-69.911504
6361,4.812587,-4.769486,5.315121,1.53956,-1.462572,1.690019,-30.770775,-29.121641,-68.463304
6362,4.546336,-4.701513,5.357713,1.449499,-1.530974,1.647774,-30.646047,-29.39425,-67.020326
6363,4.454846,-4.720334,5.308546,1.324718,-1.59955,1.620416,-30.620153,-29.702803,-65.55886
6364,4.564577,-4.910847,5.278493,1.194595,-1.633731,1.60598,-30.664517,-30.039729,-64.096607
6365,4.716256,-4.932359,5.471178,1.086028,-1.657732,1.595107,-30.797903,-30.381684,-62.61932
6366,4.62864,-4.95712,5.685459,1.029753,-1.670852,1.580541,-30.957014,-30.73914,-61.147044
6367,4.634694,-5.199379,5.881727,1.032816,-1.704602,1.564176,-31.142573,-31.10564,-59.658036
6368,4.937258,-5.307062,5.985343,1.123817,-1.699766,1.536847,-31.263279,-31.483029,-58.187082
6369,5.114883,-5.273319,5.962362,1.257394,-1.674522,1.499714,-31.318744,-31.848021,-56.731906
6370,5.240348,-5.113026,5.845781,1.388615,-1.653364,1.460481,-31.27853,-32.223321,-55.308825
6371,5.329682,-4.956075,5.574495,1.48364,-1.62458,1.425427,-31.193732,-32.586597,-53.902836
6372,5.318855,-4.848887,5.204713,1.563417,-1.59798,1.389096,-31.041273,-32.959676,-52.530651
6373,5.334197,-4.681516,5.007668,1.622133,-1.579231,1.355894,-30.866398,-33.326609,-51.171797
6374,5.354117,-4.484074,4.772229,1.634629,-1.560167,1.320895,-30.663401,-33.708153,-49.84427
6375,5.445565,-4.386865,4.524219,1.636645,-1.547599,1.288383,-30.471362,-34.086515,-48.527692
6376,5.537554,-4.208222,4.284482,1.621374,-1.533072,1.261773,-30.270345,-34.479393,-47.23627
6377,5.59148,-4.13718,4.205131,1.606004,-1.513902,1.235372,-30.090708,-34.863534,-45.954285
6378,5.631174,-4.042581,4.141349,1.615535,-1.497054,1.201358,-29.88438,-35.262969,-44.703109
6379,5.737333,-3.987106,4.084725,1.688975,-1.467511,1.167813,-29.643316,-35.650812,-43.469561
6380,5.735364,-3.970157,4.108091,1.79604,-1.44269,1.133647,-29.31672,-36.051277,-42.27107
6381,5.736639,-3.871979,4.128729,1.934551,-1.422701,1.093978,-28.916455,-36.448525,-41.091916
6382,5.823839,-3.726115,4.21624,2.039407,-1.39809,1.058269,-28.429779,-36.86093,-39.950703
6383,5.981459,-3.554553,4.172743,2.09608,-1.370225,1.028066,-27.916818,-37.265001,-38.826939
6384,6.126484,-3.369807,4.014487,2.138153,-1.350445,1.000725,-27.356215,-37.685009,-37.735668
6385,6.264679,-3.240193,3.931864,2.171962,-1.33906,0.972934,-26.785775,-38.104719,-36.655428
6386,6.397689,-3.049593,3.793342,2.177155,-1.333255,0.947959,-26.191828,-38.546659,-35.602508
6387,6.496404,-2.884768,3.660242,2.161885,-1.314638,0.923871,-25.615684,-38.98345,-34.560789
6388,6.580389,-2.750018,3.642639,2.135948,-1.295582,0.895272,-25.029035,-39.435513,-33.553705
6389,6.657982,-2.585543,3.631988,2.101588,-1.279683,0.8612,-24.466856,-39.885665,-32.563628
6390,6.693612,-2.427321,3.55608,2.09425,-1.26339,0.834009,-23.883882,-40.350806,-31.607002
6391,6.673531,-2.183626,3.5088,2.117652,-1.26586,0.806328,-23.300687,-40.823066,-30.658759
6392,6.610905,-1.920212,3.329008,2.139181,-1.251214,0.798549,-22.685744,-41.304713,-29.729862
6393,6.498276,-1.673074,3.606931,2.1541,-1.189457,0.789991,-22.070278,-41.755341,-28.815281
6394,6.417282,-1.350991,4.211863,2.162335,-1.107494,0.768263,-21.410246,-42.182125,-27.950397
6395,6.709186,-1.233404,4.832382,2.1268,-1.041478,0.756508,-20.774936,-42.576124,-27.103398
6396,7.135545,-1.285814,5.362055,2.038502,-0.969021,0.758772,-20.162865,-42.944642,-26.285385
6397,7.657332,-1.605438,5.379619,1.90822,-0.926892,0.74169,-19.630559,-43.292801,-25.481693
6398,8.051068,-1.931054,5.105222,1.801964,-0.894086,0.703153,-19.119163,-43.642789,-24.725058
6399,8.308524,-2.253553,4.62157,1.790337,-0.868297,0.626729,-18.591208,-43.991388,-24.022651
6400,8.589208,-2.311979,4.382479,1.87482,-0.838081,0.505845,-17.930288,-44.356935,-23.430345
6401,9.059872,-2.222452,4.263053,1.953465,-0.811727,0.360563,-17.16195,-44.733033,-22.948627
6402,9.678689,-2.053492,4.14005,1.998545,-0.791261,0.224868,-16.269703,-45.130509,-22.591388
6403,10.327759,-1.839818,4.009105,2.010082,-0.7541,0.105247,-15.315526,-45.525928,-22.332557
6404,10.713636,-1.622204,4.133416,1.990493,-0.711603,-0.002916,-14.27981,-45.920851,-22.186989
6405,11.244852,-1.506749,4.318695,1.91697,-0.723894,-0.059382,-13.268865,-46.328875,-22.082437
6406,11.892029,-1.411596,4.750468,1.83837,-0.699239,-0.119278,-12.238119,-46.734981,-22.052079
6407,12.489174,-1.28229,5.35397,1.784008,-0.646113,-0.18386,-11.204844,-47.117299,-22.082672
6408,12.840788,-1.236985,6.096209,1.685203,-0.58338,-0.240021,-10.159547,-47.471487,-22.191915
6409,13.169178,-1.322181,6.195138,1.538554,-0.56469,-0.281872,-9.181843,-47.817455,-22.336903
6410,13.427422,-1.401057,5.985158,1.382954,-0.53685,-0.312781,-8.244079,-48.148853,-22.533311
6411,13.386577,-1.588472,5.513675,1.259741,-0.581581,-0.337885,-7.377183,-48.506794,-22.742668
6412,13.238074,-1.768371,5.057948,1.242332,-0.600912,-0.358823,-6.479887,-48.873557,-22.990317
6413,12.717767,-1.69879,5.002813,1.270826,-0.593949,-0.38159,-5.563137,-49.238299,-23.256058
6414,12.251432,-1.497229,5.341086,1.382899,-0.564949,-0.399133,-4.537629,-49.581015,-23.563802
6415,11.77131,-1.265479,5.711736,1.513246,-0.549993,-0.412285,-3.437956,-49.916148,-23.882126
6416,11.283959,-1.151311,5.797444,1.610169,-0.537689,-0.408169,-2.253976,-50.235566,-24.223699
6417,10.798001,-0.848376,5.753202,1.677672,-0.502886,-0.378914,-1.062071,-50.535616,-24.538104
6418,10.277068,-0.444824,5.830615,1.655132,-0.455202,-0.33832,0.120792,-50.798085,-24.842022
6419,9.857384,-0.067877,5.891974,1.593358,-0.38204,-0.284943,1.216186,-51.021586,-25.091798
6420,9.499051,0.069656,5.845039,1.449564,-0.315781,-0.215643,2.207169,-51.198783,-25.298615
6421,9.155838,0.077003,5.540532,1.296342,-0.271972,-0.149949,3.044793,-51.357389,-25.433909
6422,8.811738,0.057292,5.343931,1.180888,-0.224268,-0.089727,3.795981,-51.482601,-25.530006
6423,8.462146,0.151095,5.058728,1.109539,-0.187928,-0.036738,4.446087,-51.595984,-25.562876
6424,8.163983,0.132389,4.884694,1.069122,-0.148081,0.003754,5.065484,-51.680704,-25.572275
6425,7.863679,0.105716,4.71549,1.048956,-0.118745,0.035778,5.626619,-51.758256,-25.536182
6426,7.604123,0.135972,4.454136,1.056361,-0.103443,0.064421,6.193645,-51.820981,-25.488215
6427,7.415355,0.13132,4.263007,1.099001,-0.082853,0.083856,6.748074,-51.881482,-25.406063
6428,7.343329,0.157145,4.146549,1.156392,-0.057265,0.103531,7.341352,-51.921272,-25.318698
6429,7.253747,0.481396,4.298267,1.238791,-0.013675,0.113024,7.94893,-51.945903,-25.202697
6430,7.155343,0.761576,4.38249,1.280338,0.034352,0.116145,8.595449,-51.935933,-25.092804
6431,6.946435,1.019274,4.438879,1.231133,0.070791,0.133735,9.174234,-51.91627,-24.946444
6432,6.837647,1.122453,4.38511,1.126098,0.096611,0.150341,9.700175,-51.875703,-24.795557
6433,6.909137,1.257239,4.364335,1.002245,0.112517,0.155677,10.127261,-51.836033,-24.622175
6434,7.201285,1.318144,4.425074,0.910713,0.130941,0.142089,10.530818,-51.776721,-24.472403
6435,7.599315,1.240369,4.586609,0.855333,0.161542,0.117755,10.894151,-51.70692,-24.324769
6436,7.932163,1.14555,4.460268,0.838878,0.199281,0.10651,11.271979,-51.606487,-24.19436
6437,7.968894,1.276839,4.479839,0.855464,0.252118,0.095957,11.637567,-51.484666,-24.049181
6438,7.800108,1.506027,4.507917,0.863114,0.306238,0.093601,12.0219,-51.3238,-23.908872
6439,7.373085,1.75101,4.419841,0.854733,0.345406,0.104328,12.367131,-51.151926,-23.736796
6440,6.954912,1.969321,4.360891,0.845297,0.381529,0.113901,12.71453,-50.952575,-23.561428
6441,6.692161,2.046263,4.47673,0.771145,0.400279,0.138345,12.978182,-50.7561,-23.347053
6442,6.844921,2.044274,4.784261,0.642384,0.418606,0.163742,13.169222,-50.543549,-23.118826
6443,7.480561,1.718963,4.919932,0.514542,0.421275,0.193273,13.248722,-50.342754,-22.852194
6444,8.365256,1.252305,4.942463,0.496186,0.422954,0.210574,13.325532,-50.134485,-22.582979
6445,9.010847,0.527582,4.557394,0.600871,0.418553,0.223883,13.436446,-49.940045,-22.29196
6446,9.46314,0.022685,5.033198,0.810413,0.476523,0.239984,13.667264,-49.706685,-21.987034
6447,8.674899,1.912794,5.266148,1.097954,0.57446,0.109523,14.113073,-49.4121,-21.761044
6448,7.620506,3.170973,5.305948,1.095844,0.591718,0.101943,14.578297,-49.097949,-21.547064
6449,6.835136,3.752694,5.607686,0.844203,0.629348,0.125903,14.85834,-48.777511,-21.291965
6450,6.226019,4.312551,5.723774,0.53009,0.683877,0.100744,14.984892,-48.413578,-21.056473
6451,6.415803,3.951721,6.148889,0.145583,0.702217,0.131024,14.855202,-48.053428,-20.783745
6452,7.793377,2.218783,6.347377,-0.143132,0.703482,0.207941,14.533207,-47.693593,-20.460889
6453,10.380784,-0.15782,6.412725,-0.20082,0.666618,0.319358,14.106333,-47.377707,-20.05086
6454,13.256515,-1.695693,6.217622,0.251953,0.634329,0.385491,13.924366,-47.078411,-19.607042
6455,14.450285,-0.448066,6.152745,1.017088,0.794862,0.349639,14.164719,-46.695263,-19.152954
6456,12.364572,2.330482,6.797685,1.346285,0.856186,0.331918,14.614159,-46.267188,-18.709744
6457,10.451973,4.209284,7.001154,1.241698,0.915329,0.321234,14.985559,-45.818192,-18.252116
6458,7.988967,4.307614,7.0798,0.747366,0.93936,0.41703,15.036299,-45.360049,-17.724447
6459,6.185801,3.20956,6.79779,0.377802,0.952919,0.473606,14.832476,-44.913387,-17.146185
6460,4.771677,2.167214,6.658679,0.264064,0.984025,0.501523,14.567851,-44.440778,-16.555403
6461,3.591932,1.703276,6.617713,0.341173,0.986687,0.462266,14.361747,-43.969714,-15.994023
6462,2.751188,1.571476,6.817152,0.460986,0.979903,0.413098,14.274048,-43.484074,-15.48581
6463,2.946578,1.706604,6.76731,0.585632,0.944784,0.381884,14.270059,-43.022451,-15.0051
6464,4.021097,2.159461,6.986415,0.693327,0.929217,0.34889,14.366459,-42.555855,-14.563011
6465,5.335469,2.495377,7.130351,0.693475,0.862218,0.322465,14.474609,-42.131423,-14.148405
6466,6.561644,1.979641,6.629713,0.672462,0.780423,0.270557,14.624495,-41.737386,-13.796947
6467,6.637305,1.305094,6.0655,0.679851,0.701445,0.216667,14.804017,-41.387723,-13.494131
6468,6.218214,1.319946,6.145774,0.714747,0.683679,0.141317,15.05692,-41.029914,-13.257212
6469,6.133614,1.670297,6.647265,0.694878,0.659572,0.079325,15.318721,-40.684634,-13.062422
6470,6.441721,2.179071,7.251506,0.571819,0.670849,0.053683,15.533943,-40.322111,-12.890175
6471,6.480803,2.588074,7.717757,0.384753,0.716736,0.057526,15.622147,-39.942759,-12.69881
6472,6.493018,2.645028,7.904111,0.169354,0.771876,0.102764,15.573408,-39.532438,-12.471621
6473,6.901602,2.556974,7.784351,0.015293,0.831516,0.165161,15.390433,-39.105815,-12.18452
6474,7.370636,2.336933,7.297614,-0.057878,0.887971,0.241242,15.141955,-38.651209,-11.842335
6475,7.381966,2.038932,6.70933,-0.089673,0.950574,0.322799,14.824607,-38.180133,-11.430176
6476,7.033062,1.681575,6.562821,-0.033322,1.004051,0.409831,14.515111,-37.682899,-10.958635
6477,6.434298,1.840091,6.731627,0.147898,1.0793,0.445138,14.280505,-37.154812,-10.449972
6478,5.439942,2.564114,7.259106,0.283497,1.156654,0.485619,14.118891,-36.58043,-9.910765
6479,4.871314,3.018378,7.641301,0.256451,1.209896,0.541312,13.9104,-35.990053,-9.324886
6480,5.080061,2.973564,7.789188,0.143654,1.218584,0.595614,13.635331,-35.393012,-8.713259
6481,5.520936,2.494609,7.52855,0.048306,1.186871,0.650164,13.28591,-34.825014,-8.073355
6482,5.488294,2.571755,7.305593,0.000567,1.174176,0.686404,12.917686,-34.258769,-7.424322
6483,5.084596,2.721038,7.624936,-0.051755,1.164328,0.703613,12.513203,-33.703144,-6.769901
6484,4.562297,2.568655,7.871778,-0.150564,1.152448,0.74993,12.057165,-33.149246,-6.099629
6485,4.070204,2.074291,7.940191,-0.220327,1.145442,0.821184,11.536724,-32.608911,-5.388383
6486,3.738809,1.744849,8.234322,-0.198178,1.147052,0.872118,11.031605,-32.062054,-4.657323
6487,4.112276,1.633882,8.570975,-0.094397,1.136858,0.888587,10.582701,-31.52294,-3.922046
6488,4.369261,1.915563,8.675304,0.026612,1.144352,0.899412,10.218621,-30.970968,-3.191828
6489,4.071648,2.092093,8.770273,0.022146,1.147979,0.926243,9.843479,-30.420441,-2.448333
6490,3.909897,2.085313,8.957374,-0.098324,1.185556,0.970143,9.403142,-29.843548,-1.684465
6491,3.778231,1.438894,9.00452,-0.214224,1.224128,0.993544,8.889833,-29.245677,-0.907704
6492,3.870437,1.180187,9.11419,-0.237269,1.239785,1.011649,8.378055,-28.630314,-0.132101
6493,4.072399,1.284571,9.488563,-0.235336,1.254241,1.019558,7.868703,-28.004958,0.643108
6494,4.531016,1.233922,9.942457,-0.298904,1.269975,1.016477,7.344003,-27.360741,1.402708
6495,4.984073,0.935789,10.370964,-0.403272,1.274526,1.044843,6.756286,-26.712563,2.17353
6496,5.192765,0.6375,10.669853,-0.508007,1.290022,1.076498,6.120052,-26.047209,2.949132
6497,5.148858,0.363357,10.762806,-0.542527,1.291556,1.100807,5.463668,-25.377468,3.731961
6498,4.860112,-0.03769,10.535627,-0.478107,1.240147,1.132847,4.857581,-24.728152,4.51505
6499,4.624822,-0.425836,10.253124,-0.367788,1.241357,1.172851,4.310222,-24.075589,5.317267
6500,4.145816,-0.546416,10.143425,-0.217635,1.231264,1.190625,3.863896,-23.42053,6.11456
6501,3.629626,-0.190886,10.246475,-0.061801,1.283381,1.179485,3.514097,-22.732738,6.903874
6502,3.012768,0.308144,10.449797,0.034855,1.320437,1.162436,3.241863,-22.016743,7.670065
6503,2.670602,0.637598,10.693586,0.017142,1.340829,1.148468,2.967621,-21.287388,8.426982
6504,2.528169,0.804596,10.841922,-0.091818,1.3707,1.137584,2.65138,-20.534937,9.164089
6505,2.372829,0.919704,11.125001,-0.27956,1.380539,1.121126,2.237086,-19.773649,9.889205
6506,2.769575,0.877385,11.252145,-0.452953,1.384128,1.103736,1.745225,-19.003079,10.587426
6507,3.035333,1.209096,11.329406,-0.602853,1.379067,1.055969,1.183593,-18.229775,11.252724
6508,2.638885,1.367349,10.400984,-0.789914,1.198215,0.97908,0.546345,-17.551843,11.852037
6509,2.893464,0.594073,9.354317,-0.967405,1.047567,0.920424,-0.177265,-16.954249,12.412329
6510,2.992927,-0.551088,9.291807,-1.094117,0.919425,0.869981,-0.952285,-16.422646,12.926286
6511,3.535488,-1.778834,10.004703,-1.022961,0.81879,0.810014,-1.676983,-15.943259,13.400731
6512,4.159899,-3.048379,10.838067,-0.769478,0.735699,0.771912,-2.238538,-15.506969,13.844003
6513,4.161587,-3.658115,10.295551,-0.382645,0.599467,0.75512,-2.579929,-15.146033,14.279962
6514,3.23597,-3.210704,9.549034,0.027607,0.462726,0.71414,-2.670699,-14.862556,14.689597
6515,2.741987,-2.410109,9.579253,0.264695,0.377658,0.661773,-2.624595,-14.629472,15.073983
6516,2.520147,-1.80139,9.734467,0.285861,0.327263,0.626642,-2.551852,-14.426051,15.434795
6517,2.114158,-1.43747,9.55899,0.15525,0.271421,0.632741,-2.562642,-14.255009,15.804664
6518,1.632565,-1.765025,8.77844,-0.071851,0.169889,0.664072,-2.69914,-14.140417,16.191157
6519,1.486623,-2.147792,8.514349,-0.170452,0.14607,0.645203,-2.897654,-14.039017,16.570941
6520,1.983692,-1.984965,9.2173,-0.157822,0.15703,0.566554,-3.067957,-13.932392,16.899235
6521,2.453307,-1.670151,10.000342,-0.154761,0.183234,0.485934,-3.233466,-13.812256,17.183122
6522,2.567894,-1.122699,10.096254,-0.171826,0.195664,0.396283,-3.386106,-13.687348,17.408866
6523,2.575288,-0.7789,9.70168,-0.198595,0.215182,0.328402,-3.553351,-13.55283,17.597948
6524,2.315283,-0.559129,9.47279,-0.278991,0.222052,0.281167,-3.750122,-13.415728,17.75399
6525,2.27911,-0.463548,9.31537,-0.36065,0.276599,0.230544,-3.995129,-13.248617,17.881852
6526,2.152106,-0.689495,9.277867,-0.422564,0.281509,0.183877,-4.259422,-13.080295,17.976897
6527,2.241193,-0.856316,9.380342,-0.444832,0.305995,0.182362,-4.544763,-12.897385,18.073306
6528,2.206533,-1.054071,9.320223,-0.463879,0.313325,0.178415,-4.830692,-12.710253,18.161794
6529,2.359675,-1.471873,9.370682,-0.488621,0.314143,0.181787,-5.139878,-12.52181,18.255323
6530,2.48797,-1.933645,9.149816,-0.460085,0.309191,0.207713,-5.426341,-12.334605,18.359025
6531,2.392288,-2.286831,9.065177,-0.346483,0.278384,0.228089,-5.659421,-12.16322,18.479602
6532,2.511872,-2.296435,9.212514,-0.160815,0.252951,0.230114,-5.776896,-12.006035,18.598056
6533,2.627028,-2.024151,9.337596,0.024484,0.207899,0.240444,-5.799295,-11.873718,18.729192
6534,2.54142,-1.622195,9.317797,0.171199,0.187407,0.243121,-5.72828,-11.753056,18.858827
6535,2.258765,-1.068532,9.393508,0.264634,0.169685,0.227896,-5.611717,-11.643623,18.985049
6536,1.949082,-0.599761,9.761476,0.250829,0.162389,0.208271,-5.490865,-11.539631,19.096165
6537,1.755259,-0.356706,9.906745,0.148514,0.148684,0.190185,-5.436181,-11.444663,19.201817
6538,1.697309,-0.515209,9.927804,0.037015,0.150755,0.170708,-5.433301,-11.349567,19.29186
6539,1.608905,-0.624765,9.907907,-0.045776,0.124234,0.148089,-5.484809,-11.270736,19.374188
6540,1.838407,-0.804601,9.757616,-0.094867,0.116982,0.140643,-5.554166,-11.196427,19.448453
6541,1.987546,-1.114457,9.650126,-0.119236,0.097202,0.132958,-5.645941,-11.133575,19.523193
6542,2.00847,-1.1035,9.58914,-0.119585,0.079739,0.139431,-5.72953,-11.080355,19.598653
6543,1.931297,-1.102663,9.531508,-0.138798,0.056449,0.138089,-5.833318,-11.040224,19.678498
6544,1.893564,-1.223161,9.549343,-0.114579,0.045508,0.131364,-5.913388,-11.006747,19.751121
6545,1.784649,-1.305876,9.642086,-0.066719,0.040079,0.129918,-5.975002,-10.976206,19.827045
6546,1.570164,-1.164436,9.645034,-0.014328,0.034829,0.127884,-5.997281,-10.948883,19.898217
6547,1.487506,-1.064192,9.540425,0.034256,0.031037,0.128507,-6.000881,-10.92343,19.973809
6548,1.525108,-1.194017,9.596615,0.078694,0.055358,0.126197,-5.969367,-10.88451,20.04274
6549,1.55698,-1.278722,9.629657,0.092211,0.050546,0.129511,-5.939498,-10.847813,20.117703
6550,1.71426,-1.265605,9.562381,0.100966,0.046674,0.124821,-5.895091,-10.814004,20.186388
6551,1.885339,-1.113282,9.539471,0.10776,0.055953,0.12818,-5.856007,-10.774318,20.260273
6552,1.976222,-1.077789,9.526268,0.073722,0.067818,0.123269,-5.826719,-10.728637,20.326829
6553,1.998781,-1.183184,9.481135,0.036803,0.077616,0.115488,-5.826511,-10.677415,20.392035
6554,1.945497,-1.3675,9.512512,0.01934,0.089025,0.103797,-5.825944,-10.620796,20.446033
6555,1.884306,-1.386191,9.538631,0.03446,0.092771,0.087754,-5.823826,-10.562587,20.494212
6556,1.814136,-1.163209,9.490712,0.072938,0.101411,0.070886,-5.788819,-10.500833,20.528398
6557,1.724799,-0.955124,9.5621,0.099212,0.111876,0.05162,-5.745494,-10.433868,20.554526
6558,1.691352,-1.024377,9.62961,0.098798,0.117359,0.04248,-5.692468,-10.364696,20.571402
6559,1.638841,-1.089206,9.659722,0.079166,0.106105,0.035018,-5.658833,-10.301976,20.588279
6560,1.682721,-1.032329,9.593438,0.073026,0.093768,0.028249,-5.619324,-10.24708,20.59835
6561,1.683531,-0.926096,9.572305,0.056301,0.088397,0.02097,-5.597441,-10.195232,20.608118
6562,1.681948,-1.059576,9.679744,0.007833,0.082238,0.006648,-5.59318,-10.148125,20.606369
6563,1.559865,-1.148958,9.838959,-0.023549,0.074999,0.000626,-5.615015,-10.105043,20.605066
6564,1.48481,-1.187285,9.837965,-0.043468,0.056114,-0.018677,-5.637837,-10.074255,20.590115
6565,1.539834,-1.1068,9.58042,-0.011194,0.036988,-0.031914,-5.649642,-10.054623,20.572092
6566,1.671945,-1.248956,9.556758,0.024774,0.029346,-0.045331,-5.630948,-10.040602,20.543233
6567,1.651123,-1.239071,9.520276,0.059193,0.021439,-0.055049,-5.60023,-10.031106,20.512693
6568,1.719655,-1.29738,9.493169,0.100539,0.01786,-0.050228,-5.537758,-10.023871,20.481666
6569,1.732342,-0.963416,9.610119,0.124274,0.016341,-0.049844,-5.470342,-10.016943,20.454441
6570,1.748686,-0.671056,9.750727,0.107489,0.011371,-0.038372,-5.405155,-10.012696,20.430656
6571,1.63733,-0.410528,9.665026,0.067619,0.015642,-0.028064,-5.372278,-10.004954,20.416042
6572,1.623665,-0.619199,9.692161,-0.004863,0.004755,-0.027543,-5.372621,-10.003873,20.398897
6573,1.567116,-0.967656,9.691916,-0.076575,-0.00057,-0.027477,-5.422362,-10.005338,20.385421
6574,1.651989,-1.137476,9.690989,-0.087666,-0.014351,-0.029623,-5.47012,-10.015291,20.368124
6575,1.594469,-1.080998,9.664552,-0.099296,-0.009681,-0.038559,-5.531793,-10.022569,20.348721
6576,1.79196,-0.935444,9.408843,-0.079348,-0.005823,-0.038155,-5.57384,-10.028163,20.326021
6577,1.89419,-1.349678,9.318538,-0.022702,0.000277,-0.0354,-5.59178,-10.029631,20.307865
6578,1.844765,-1.674824,9.396509,0.056815,0.002495,-0.023967,-5.55716,-10.029699,20.292913
6579,1.796721,-1.519875,9.361971,0.164529,0.006662,-0.004705,-5.470943,-10.025875,20.292202
6580,1.7309,-1.233529,9.5438,0.22948,0.014759,0.003065,-5.340002,-10.017446,20.292236
6581,1.697235,-0.918212,9.663829,0.254505,0.010315,0.004534,-5.20318,-10.011061,20.296709
6582,1.668999,-0.541232,9.691867,0.23261,0.007859,0.001396,-5.070347,-10.006655,20.296177
6583,1.682171,-0.382103,9.734834,0.167285,0.00245,-0.004612,-4.982512,-10.00522,20.295716
6584,1.614481,-0.447894,9.903217,0.07199,0.003921,-0.010006,-4.940597,-10.003626,20.288787
6585,1.5491,-0.686238,9.844102,-0.034499,-0.005239,-0.009736,-4.967702,-10.006811,20.285653
6586,1.530259,-0.820156,9.822338,-0.086411,-0.016654,-0.020749,-5.015641,-10.0175,20.273537
6587,1.640881,-0.966016,9.670162,-0.121753,-0.024194,-0.022028,-5.091547,-10.032086,20.264212
6588,1.706663,-1.22466,9.479044,-0.109122,-0.028584,-0.020994,-5.15258,-10.049622,20.252598
6589,1.722136,-1.334659,9.394998,-0.018686,-0.030827,-0.021488,-5.169529,-10.067988,20.243955
6590,1.755299,-1.30927,9.477843,0.05666,-0.036159,-0.016586,-5.136086,-10.089626,20.2353
6591,1.817554,-1.130947,9.516938,0.105314,-0.038885,-0.006984,-5.083575,-10.111861,20.235485
6592,1.72044,-0.810892,9.574296,0.136242,-0.033665,-0.004814,-5.005699,-10.131466,20.233486
6593,1.736329,-0.761818,9.731791,0.109987,-0.03263,0.006558,-4.951772,-10.149472,20.241133
6594,1.681859,-0.790582,9.677326,0.080392,-0.035968,0.010997,-4.907525,-10.16961,20.248378
6595,1.661816,-0.758484,9.771805,0.060194,-0.035552,0.009931,-4.88239,-10.18912,20.25806
6596,1.679793,-0.748005,9.685132,0.013604,-0.025448,0.006331,-4.875839,-10.203486,20.26206
6597,1.726929,-0.686892,9.780323,-0.014549,-0.016048,-0.009351,-4.891266,-10.212784,20.259545
6598,1.575482,-0.676695,9.636982,-0.078791,-0.022516,-0.014964,-4.93544,-10.226519,20.251056
6599,1.620918,-0.984162,9.611083,-0.182221,-0.069266,-0.024938,-5.045676,-10.266959,20.242164
6600,1.906096,-1.411305,9.400172,-0.213451,-0.097277,-0.02799,-5.166343,-10.324051,20.230039
6601,2.01884,-1.304235,9.24572,-0.082408,-0.060528,-0.02554,-5.219272,-10.359593,20.220497
6602,1.957337,-0.935805,9.451495,0.01929,-0.027681,-0.020718,-5.206689,-10.376618,20.209013
6603,1.860985,-0.563509,9.563112,0.051781,-0.006469,-0.014036,-5.183407,-10.380802,20.203287
6604,1.842265,-0.495729,9.724297,0.013102,0.012034,-0.013669,-5.174726,-10.374793,20.193793
