time,accel_x,accel_y,accel_z,gyro_x,gyro_y,gyro_z,mag_x,mag_y,mag_z
0.0,-0.714257538318634,-9.65384292602539,-1.53858482837677,0.029474247246980667,-0.008246680721640587,-0.011301006190478802,-42.64834976196289,48.94767761230469,-34.2882194519043
0.01,-0.6771687865257263,-9.70528793334961,-1.4919248819351196,0.02672535367310047,-0.006719517521560192,-0.010231993161141872,-42.706809997558594,49.42999267578125,-34.85823059082031
0.02,-0.6161518096923828,-9.694520950317383,-1.483549952507019,0.022907447069883347,-0.006872233934700489,-0.00809396430850029,-42.823734283447266,49.48845672607422,-35.20900344848633
0.03,-0.6161518096923828,-9.656235694885254,-1.4727823734283447,0.02519819140434265,-0.00855211354792118,-0.0088575454428792,-43.072200775146484,49.86845779418945,-34.712074279785156
0.04,-0.5910272002220154,-9.658628463745117,-1.466800332069397,0.02626720443367958,-0.01970040239393711,-0.011453723534941673,-43.14527893066406,49.283836364746094,-35.0043830871582
0.059,-0.6580261588096619,-9.678967475891113,-1.466800332069397,0.02535090781748295,-0.02733621932566166,-0.013286319561302662,-43.23297119140625,50.043846130371094,-34.82899475097656
0.063,-0.6915256977081299,-9.681360244750977,-1.4572290182113647,0.02321287989616394,-0.027947084978222847,-0.01817324012517929,-42.896812438964844,49.94153594970703,-35.12131118774414
0.07,-0.698704183101654,-9.7064847946167,-1.467996597290039,0.025656340643763542,-0.02535090781748295,-0.01924225501716137,-42.57527160644531,50.01461410522461,-34.77053451538086
0.08,-0.6915256977081299,-9.750751495361328,-1.4620145559310913,0.02687807008624077,-0.013744467869400978,-0.016340645030140877,-42.45834732055664,49.44460678100586,-34.785152435302734
0.09,-0.6903292536735535,-9.773483276367188,-1.4500504732131958,0.027947084978222847,-0.010537425056099892,-0.014660765416920185,-42.692195892333984,49.38614273071289,-34.6682243347168
0.1,-0.7070790529251099,-9.751948356628418,-1.5098711252212524,0.029626963660120964,-0.007024950347840786,-0.010231993161141872,-42.79450607299805,49.093833923339844,-34.65361022949219
0.12,-0.7238287925720215,-9.716055870056152,-1.5266207456588745,0.035124752670526505,-0.002138028386980295,-0.0074830991216003895,-42.823734283447266,49.473838806152344,-34.6682243347168
0.123,-0.7058826684951782,-9.716055870056152,-1.4895319938659668,0.03985895588994026,0.007177666295319796,-0.006566801108419895,-42.882198333740234,49.853843688964844,-35.42823791503906
0.13,-0.6927221417427063,-9.726823806762695,-1.4823535680770874,0.03848451003432274,0.005803219974040985,-0.005955935921519995,-42.633731842041016,49.18152618408203,-34.33206558227539
0.14,-0.6508477926254272,-9.716055870056152,-1.4715858697891235,0.03420845419168472,0.004886921960860491,-0.010079275816679,-42.633731842041016,49.12306213378906,-34.6682243347168
0.15,-0.5886343717575073,-9.742377281188965,-1.4572290182113647,0.028405234217643738,0.001679879380390048,-0.009010262787342072,-42.67757797241211,49.166908264160156,-34.85823059082031
0.16,-0.5419743061065674,-9.734002113342285,-1.4811570644378662,0.020311269909143448,-0.0025961773935705423,-0.009468411095440388,-43.04296875,49.34230041503906,-34.916690826416016
0.18,-0.5288137793540955,-9.734002113342285,-1.5194423198699951,0.015882495790719986,-0.016493361443281174,-0.00931569468230009,-42.6045036315918,49.80999755859375,-34.87284469604492
0.183,-0.6065804958343506,-9.718448638916016,-1.5266207456588745,0.01191187184303999,-0.03955352306365967,-0.01038470957428217,-43.3645133972168,49.605377197265625,-34.65361022949219
0.19,-0.6675975322723389,-9.681360244750977,-1.5337992906570435,0.012064589187502861,-0.0455094613134861,-0.01160643994808197,-42.73604202270508,49.473838806152344,-35.20900344848633
0.2,-0.7154539227485657,-9.688538551330566,-1.4656038284301758,0.01191187184303999,-0.04413501173257828,-0.0138971833512187,-43.379127502441406,49.53229904174805,-34.785152435302734
0.21,-0.7369893193244934,-9.701699256896973,-1.4596216678619385,0.006872233934700489,-0.03878994286060333,-0.016798794269561768,-43.3206672668457,49.35691452026367,-34.6682243347168
0.22,-0.7621140480041504,-9.722038269042969,-1.4751750230789185,0.0064140851609408855,-0.029016099870204926,-0.01664607785642147,-43.52528381347656,49.41537857055664,-34.37591552734375
0.239,-0.7920242547988892,-9.6526460647583,-1.4751750230789185,0.016951510682702065,-0.0025961773935705423,-0.015577062964439392,-42.56065368652344,49.210758209228516,-35.63285446166992
0.243,-0.7764708995819092,-9.649056434631348,-1.499103307723999,0.02122756652534008,0.0018325956771150231,-0.01710422709584236,-42.326805114746094,48.99152374267578,-34.63899612426758
0.25,-0.7585247159004211,-9.681360244750977,-1.4871392250061035,0.022449297830462456,0.007788531482219696,-0.016951510682702065,-42.57527160644531,49.63460922241211,-34.63899612426758
0.26,-0.6771687865257263,-9.67537784576416,-1.4739786386489868,0.022449297830462456,0.010231993161141872,-0.015271631069481373,-43.057586669921875,49.19614028930664,-34.9459228515625
0.27,-0.6137589812278748,-9.710074424743652,-1.467996597290039,0.020922133699059486,0.009773843921720982,-0.012980885803699493,-42.48757553100586,49.80999755859375,-34.902076721191406
0.28,-0.6173481941223145,-9.725627899169922,-1.4739786386489868,0.01710422709584236,0.0073303827084600925,-0.006872233934700489,-42.6629638671875,49.75153350830078,-34.87284469604492
0.301,-0.6400800943374634,-9.716055870056152,-1.4883357286453247,0.01160643994808197,0.0039706239476799965,-0.006261368282139301,-42.91142654418945,49.37152862548828,-35.092079162597656
0.305,-0.6664010882377625,-9.7124662399292,-1.5314065217971802,0.00809396430850029,0.00015271631127689034,-0.009621127508580685,-42.72142791748047,49.48845672607422,-34.682838439941406
0.31,-0.6711867451667786,-9.716055870056152,-1.5409777164459229,0.00809396430850029,0.0019853119738399982,-0.010231993161141872,-42.443729400634766,49.54691696166992,-35.57439422607422
0.32,-0.6496513485908508,-9.722038269042969,-1.5230315923690796,0.0073303827084600925,0.0,-0.010231993161141872,-42.502193450927734,49.766151428222656,-34.84361267089844
0.33,-0.6161518096923828,-9.711270332336426,-1.490728497505188,0.0073303827084600925,0.0013744467869400978,-0.01038470957428217,-42.9406623840332,49.63460922241211,-34.916690826416016
0.34,-0.5443671345710754,-9.701699256896973,-1.4979069232940674,0.006566801108419895,0.0007635815418325365,-0.004886921960860491,-43.057586669921875,49.25460433959961,-35.895938873291016
0.36,-0.5479563474655151,-9.644271850585938,-1.5122638940811157,0.011453723534941673,-0.0138971833512187,0.0024434609804302454,-42.73604202270508,49.54691696166992,-35.61824035644531
0.363,-0.6101697683334351,-9.628718376159668,-1.521835207939148,0.010995574295520782,-0.016340645030140877,0.003359758760780096,-42.692195892333984,50.07307434082031,-35.74978256225586
0.37,-0.6412764191627502,-9.634699821472168,-1.5014961957931519,0.013591751456260681,-0.020158551633358,0.0022907445672899485,-43.33528137207031,50.21923065185547,-35.39900588989258
0.38,-0.7154539227485657,-9.628718376159668,-1.466800332069397,0.01313360221683979,-0.02474004216492176,0.0,-42.692195892333984,49.6784553527832,-35.69131851196289
0.39,-0.7262216210365295,-9.6526460647583,-1.466800332069397,0.012675453908741474,-0.019394971430301666,-0.006872233934700489,-42.6629638671875,49.86845779418945,-35.57439422607422
0.4,-0.7154539227485657,-9.639486312866211,-1.4309078454971313,0.014355332590639591,-0.013286319561302662,-0.009773843921720982,-42.999122619628906,49.56153106689453,-34.785152435302734
0.42,-0.680757999420166,-9.66939640045166,-1.5002998113632202,0.02382374368607998,0.0022907445672899485,-0.010079275816679,-43.04296875,49.82461166381836,-35.179771423339844
0.423,-0.6496513485908508,-9.678967475891113,-1.5086746215820312,0.02519819140434265,0.0029016099870204926,-0.009162978269159794,-42.64834976196289,49.69307327270508,-35.15053939819336
0.43,-0.6436693072319031,-9.704092025756836,-1.4919248819351196,0.02825251594185829,0.006566801108419895,-0.005497787147760391,-42.823734283447266,49.89768981933594,-35.12131118774414
0.44,-0.6173481941223145,-9.7124662399292,-1.4775679111480713,0.03375030308961868,0.004581489134579897,-0.0012217304902151227,-42.6629638671875,49.07921600341797,-34.82899475097656
0.45,-0.6281159520149231,-9.719645500183105,-1.4751750230789185,0.028710665181279182,-0.0003054326225537807,-0.0013744467869400978,-43.15989685058594,49.63460922241211,-34.08360290527344
0.46,-0.6281159520149231,-9.728019714355469,-1.4536396265029907,0.02321287989616394,-0.003512475173920393,-0.0032070425804704428,-42.79450607299805,49.663841247558594,-35.16515350341797
0.479,-0.6161518096923828,-9.702895164489746,-1.4847464561462402,0.019089538604021072,-0.013744467869400978,-0.006566801108419895,-42.867584228515625,49.853843688964844,-35.472084045410156
0.483,-0.6221339106559753,-9.719645500183105,-1.4979069232940674,0.01817324012517929,-0.015882495790719986,-0.008399397134780884,-42.999122619628906,49.97077178955078,-35.50131607055664
0.49,-0.5958127975463867,-9.720841407775879,-1.5014961957931519,0.020463986322283745,-0.020005837082862854,-0.0074830991216003895,-42.48757553100586,49.53229904174805,-35.530548095703125
0.5,-0.6257230639457703,-9.739984512329102,-1.4644074440002441,0.021074850112199783,-0.029168814420700073,-0.007177666295319796,-42.429115295410156,49.210758209228516,-34.6682243347168
0.51,-0.6340979933738708,-9.750751495361328,-1.4380862712860107,0.020005837082862854,-0.030695976689457893,-0.002138028386980295,-42.692195892333984,49.7223014831543,-34.88745880126953
0.52,-0.6831508874893188,-9.693324089050293,-1.412961721420288,0.017409659922122955,-0.029626963660120964,0.0003054326225537807,-42.999122619628906,49.839229583740234,-34.755916595458984
0.539,-0.7082754373550415,-9.69093132019043,-1.4045867919921875,0.01572977937757969,-0.021991148591041565,-0.0032070425804704428,-42.6629638671875,49.86845779418945,-34.989768981933594
0.542,-0.727418065071106,-9.723234176635742,-1.4033904075622559,0.014049900695681572,-0.01817324012517929,-0.0029016099870204926,-42.91142654418945,49.92692184448242,-34.799766540527344
0.55,-0.7334001660346985,-9.69930648803711,-1.4045867919921875,0.014202617108821869,-0.01572977937757969,-0.0074830991216003895,-43.02835464477539,49.56153106689453,-34.799766540527344
0.56,-0.727418065071106,-9.713663101196289,-1.4249258041381836,0.012980885803699493,-0.011759155429899693,-0.007635815534740686,-43.17451095581055,49.576148986816406,-35.0043830871582
0.57,-0.7357929348945618,-9.681360244750977,-1.432104229927063,0.012828170321881771,-0.008399397134780884,-0.007177666295319796,-43.33528137207031,50.19000244140625,-35.06284713745117
0.58,-0.7405785322189331,-9.645467758178711,-1.466800332069397,0.013439035043120384,-0.004581489134579897,-0.006566801108419895,-42.47296142578125,49.38614273071289,-34.77053451538086
0.6,-0.6544370055198669,-9.701699256896973,-1.4261221885681152,0.012522736564278603,0.001679879380390048,-0.007788531482219696,-42.999122619628906,49.94153594970703,-34.84361267089844
0.604,-0.6436693072319031,-9.7064847946167,-1.4464612007141113,0.012675453908741474,0.001679879380390048,-0.005955935921519995,-42.98450469970703,49.19614028930664,-35.12131118774414
0.61,-0.6185446381568909,-9.745965957641602,-1.4177473783493042,0.009162978269159794,0.0010690141934901476,-0.003512475173920393,-42.67757797241211,49.50307083129883,-35.179771423339844
0.62,-0.5826523303985596,-9.731609344482422,-1.444068431854248,0.0036651913542300463,-0.0027488935738801956,-0.0010690141934901476,-42.75065612792969,49.25460433959961,-35.58900833129883
0.63,-0.5515456199645996,-9.696913719177246,-1.4751750230789185,0.0032070425804704428,-0.004734205547720194,-0.003512475173920393,-42.98450469970703,49.31306457519531,-36.100555419921875
0.64,-0.5347958207130432,-9.70528793334961,-1.4967105388641357,0.00427605677396059,-0.014508049935102463,-0.004886921960860491,-42.6045036315918,49.45922088623047,-35.82286071777344
0.653,-0.6029912829399109,-9.708877563476562,-1.4967105388641357,0.005650503095239401,-0.03191770985722542,-0.004734205547720194,-42.6629638671875,48.976905822753906,-35.735164642333984
0.66,-0.6783652305603027,-9.66819953918457,-1.4584254026412964,0.005803219974040985,-0.03390302136540413,-0.0044287727214396,-42.57527160644531,48.87459945678711,-35.04823303222656
0.67,-0.7094718813896179,-9.68375301361084,-1.4368900060653687,0.0044287727214396,-0.027641652151942253,-0.007788531482219696,-42.57527160644531,49.766151428222656,-35.13592529296875
0.68,-0.7226324677467346,-9.687341690063477,-1.4560325145721436,0.003512475173920393,-0.020311269909143448,-0.009926560334861279,-42.706809997558594,49.766151428222656,-35.25284957885742
0.69,-0.7310072779655457,-9.731609344482422,-1.4584254026412964,0.0,-0.012980885803699493,-0.010842857882380486,-42.41449737548828,49.6199951171875,-35.325927734375
0.71,-0.6927221417427063,-9.731609344482422,-1.490728497505188,0.0010690141934901476,-0.007024950347840786,-0.0074830991216003895,-42.64834976196289,49.13768005371094,-35.77901077270508
0.713,-0.6412764191627502,-9.713663101196289,-1.4847464561462402,0.007177666295319796,-0.0007635815418325365,-0.005192354787141085,-42.45834732055664,49.31306457519531,-35.179771423339844
0.72,-0.6101697683334351,-9.68255615234375,-1.4895319938659668,0.009010262787342072,0.001527163083665073,-0.0027488935738801956,-42.516807556152344,49.590763092041016,-35.472084045410156
0.73,-0.5802595019340515,-9.68255615234375,-1.4895319938659668,0.007177666295319796,-0.006108652334660292,-0.0019853119738399982,-42.6045036315918,49.26921844482422,-35.06284713745117
0.74,-0.6149553656578064,-9.6526460647583,-1.4979069232940674,0.004886921960860491,-0.019089538604021072,-0.0022907445672899485,-43.08681869506836,49.7223014831543,-34.361297607421875
0.75,-0.6305087208747864,-9.65982437133789,-1.4895319938659668,-0.001679879380390048,-0.029474247246980667,-0.007177666295319796,-42.3414192199707,49.37152862548828,-35.57439422607422
0.769,-0.6616154909133911,-9.702895164489746,-1.4452649354934692,-0.0074830991216003895,-0.03955352306365967,-0.014966198243200779,-42.91142654418945,49.56153106689453,-35.51593017578125
0.773,-0.6747759580612183,-9.686145782470703,-1.4859428405761719,-0.012675453908741474,-0.047800205647945404,-0.01863138936460018,-42.77988815307617,49.26921844482422,-34.902076721191406
0.78,-0.7166503667831421,-9.637092590332031,-1.490728497505188,-0.009621127508580685,-0.04886921867728233,-0.018325956538319588,-42.692195892333984,49.210758209228516,-34.84361267089844
0.79,-0.7214360237121582,-9.634699821472168,-1.5098711252212524,-0.003512475173920393,-0.04337143152952194,-0.01863138936460018,-42.706809997558594,49.63460922241211,-34.6243782043457
1.048,-0.7034898400306702,-9.622735977172852,-1.4967105388641357,0.023976460099220276,0.022602012380957603,-0.005497787147760391,-43.10143280029297,49.766151428222656,-35.325927734375
1.067,-0.6305087208747864,-9.664609909057617,-1.4919248819351196,0.02535090781748295,0.01970040239393711,-0.003512475173920393,-42.48757553100586,49.6784553527832,-34.58053207397461
1.071,-0.6137589812278748,-9.701699256896973,-1.490728497505188,0.021380282938480377,0.011301006190478802,-0.00015271631127689034,-42.73604202270508,49.6784553527832,-34.200523376464844
1.078,-0.638883650302887,-9.708877563476562,-1.4859428405761719,0.021991148591041565,0.005497787147760391,0.0025961773935705423,-42.58988571166992,49.13768005371094,-34.346683502197266
1.088,-0.6592226028442383,-9.695716857910156,-1.502692461013794,0.019394971430301666,0.001679879380390048,0.004886921960860491,-43.01374053955078,49.63460922241211,-35.369773864746094
1.098,-0.6831508874893188,-9.670592308044434,-1.5158531665802002,0.020005837082862854,0.0024434609804302454,0.005345070734620094,-42.54603958129883,49.649227142333984,-35.04823303222656
1.108,-0.6939185857772827,-9.67657470703125,-1.4799607992172241,0.02428189292550087,0.0032070425804704428,0.0050396379083395,-42.47296142578125,49.766151428222656,-35.39900588989258
1.118,-0.7334001660346985,-9.69093132019043,-1.4739786386489868,0.025045473128557205,0.007024950347840786,0.006566801108419895,-42.39988327026367,49.590763092041016,-35.106693267822266
1.138,-0.7058826684951782,-9.704092025756836,-1.4644074440002441,0.0277943667024374,0.02122756652534008,0.009010262787342072,-42.633731842041016,49.50307083129883,-34.916690826416016
1.141,-0.7010970711708069,-9.717252731323242,-1.4715858697891235,0.02672535367310047,0.023060161620378494,0.00855211354792118,-42.633731842041016,49.48845672607422,-35.9836311340332
1.148,-0.6687938570976257,-9.720841407775879,-1.4656038284301758,0.025503622367978096,0.02474004216492176,0.007788531482219696,-42.57527160644531,49.51768493652344,-35.83747482299805
1.159,-0.6616154909133911,-9.701699256896973,-1.4584254026412964,0.024587325751781464,0.025961771607398987,0.005650503095239401,-42.20988082885742,49.42999267578125,-35.852088928222656
1.168,-0.6664010882377625,-9.70528793334961,-1.4584254026412964,0.025656340643763542,0.026114489883184433,0.004734205547720194,-42.37065124511719,49.70768737792969,-35.57439422607422
1.178,-0.6711867451667786,-9.674181938171387,-1.466800332069397,0.02519819140434265,0.025045473128557205,0.003512475173920393,-42.9406623840332,49.35691452026367,-35.16515350341797
1.197,-0.6089733242988586,-9.667003631591797,-1.4584254026412964,0.028099801391363144,0.016951510682702065,0.0029016099870204926,-42.809120178222656,50.11692810058594,-34.88745880126953
1.201,-0.623330295085907,-9.66221809387207,-1.4620145559310913,0.029474247246980667,0.014355332590639591,0.0018325956771150231,-42.633731842041016,49.94153594970703,-35.04823303222656
1.208,-0.6209374666213989,-9.657431602478027,-1.466800332069397,0.028099801391363144,0.01237002108246088,0.005345070734620094,-42.39988327026367,50.30692672729492,-35.39900588989258
1.218,-0.6281159520149231,-9.686145782470703,-1.4751750230789185,0.02626720443367958,0.00855211354792118,0.009468411095440388,-42.516807556152344,49.780765533447266,-34.56591796875
1.228,-0.6616154909133911,-9.68375301361084,-1.4739786386489868,0.029016099870204926,0.009010262787342072,0.00809396430850029,-42.312191009521484,50.43846893310547,-34.65361022949219
1.238,-0.6508477926254272,-9.739984512329102,-1.4656038284301758,0.027947084978222847,0.006108652334660292,0.0074830991216003895,-42.48757553100586,49.6784553527832,-35.282081604003906
1.255,-0.6831508874893188,-9.739984512329102,-1.435693621635437,0.02382374368607998,0.001527163083665073,0.01313360221683979,-42.15141677856445,50.146156311035156,-34.21514129638672
1.258,-0.6915256977081299,-9.760323524475098,-1.4488540887832642,0.02428189292550087,0.0013744467869400978,0.015271631069481373,-42.516807556152344,50.01461410522461,-34.902076721191406
1.269,-0.7429714202880859,-9.768697738647461,-1.4500504732131958,0.020311269909143448,0.0088575454428792,0.013591751456260681,-42.39988327026367,49.88307571411133,-36.01285934448242
1.278,-0.7884350419044495,-9.749555587768555,-1.4225330352783203,0.01970040239393711,0.018020525574684143,0.009010262787342072,-42.6629638671875,49.88307571411133,-35.67670440673828
1.288,-0.7752745151519775,-9.786643981933594,-1.4045867919921875,0.015882495790719986,0.030237827450037003,0.0036651913542300463,-42.619117736816406,50.20461654663086,-35.472084045410156
1.298,-0.6999006271362305,-9.768697738647461,-1.4093725681304932,0.013591751456260681,0.03756821155548096,-0.0010690141934901476,-42.3414192199707,49.89768981933594,-35.69131851196289
1.318,-0.576670229434967,-9.766304969787598,-1.4261221885681152,0.01664607785642147,0.038179077208042145,-0.001527163083665073,-42.37065124511719,50.10231018066406,-34.902076721191406
1.322,-0.5838487148284912,-9.774680137634277,-1.4309078454971313,0.01618792861700058,0.03695734962821007,-0.0006108652451075613,-42.619117736816406,49.53229904174805,-35.15053939819336
1.328,-0.558724045753479,-9.790233612060547,-1.4309078454971313,0.014508049935102463,0.029474247246980667,-0.00015271631127689034,-42.516807556152344,50.13154220581055,-34.6243782043457
1.338,-0.5515456199645996,-9.747162818908691,-1.4404791593551636,0.009468411095440388,0.017562376335263252,-0.0003054326225537807,-42.41449737548828,49.766151428222656,-35.04823303222656
1.348,-0.592223584651947,-9.738787651062012,-1.4500504732131958,0.0044287727214396,0.006719517521560192,-0.0007635815418325365,-42.77988815307617,50.336158752441406,-35.01900100708008
1.358,-0.6065804958343506,-9.707681655883789,-1.4751750230789185,-0.002138028386980295,-0.0009162978385575116,-0.0044287727214396,-42.67757797241211,49.95615005493164,-35.04823303222656
1.375,-0.6735795140266418,-9.69810962677002,-1.451246976852417,-0.010537425056099892,-0.013439035043120384,-0.01160643994808197,-42.54603958129883,49.89768981933594,-35.0043830871582
1.379,-0.6687938570976257,-9.711270332336426,-1.454836130142212,-0.010690141469240189,-0.01237002108246088,-0.010537425056099892,-42.38526916503906,49.795379638671875,-34.93130874633789
1.388,-0.6999006271362305,-9.70528793334961,-1.4309078454971313,-0.013439035043120384,-0.014049900695681572,-0.012675453908741474,-42.516807556152344,50.0,-34.361297607421875
1.398,-0.7262216210365295,-9.7064847946167,-1.4201401472091675,-0.01542434748262167,-0.015882495790719986,-0.016493361443281174,-42.67757797241211,49.75153350830078,-34.85823059082031
1.408,-0.7704888582229614,-9.726823806762695,-1.4189437627792358,-0.01970040239393711,-0.012217304669320583,-0.022143863141536713,-42.326805114746094,50.21923065185547,-35.662086486816406
1.418,-0.8135596513748169,-9.7064847946167,-1.3914263248443604,-0.022602012380957603,-0.005497787147760391,-0.027488935738801956,-42.20988082885742,50.43846893310547,-34.59514617919922
1.437,-0.8039883971214294,-9.647860527038574,-1.4488540887832642,-0.01710422709584236,0.019394971430301666,-0.03497203439474106,-42.326805114746094,50.08769607543945,-34.81438064575195
1.441,-0.794417142868042,-9.66102123260498,-1.4691929817199707,-0.014813481830060482,0.020922133699059486,-0.03481931984424591,-42.3414192199707,49.89768981933594,-34.82899475097656
1.448,-0.7286145091056824,-9.657431602478027,-1.4584254026412964,-0.01313360221683979,0.025656340643763542,-0.0377209298312664,-42.39988327026367,50.146156311035156,-34.726688385009766
1.458,-0.6711867451667786,-9.66819953918457,-1.444068431854248,-0.009773843921720982,0.03084869496524334,-0.03527746722102165,-43.04296875,50.13154220581055,-35.6036262512207
1.468,-0.5958127975463867,-9.714859962463379,-1.4213366508483887,-0.009468411095440388,0.03344487026333809,-0.03130684420466423,-42.312191009521484,49.69307327270508,-34.82899475097656
1.478,-0.558724045753479,-9.725627899169922,-1.4572290182113647,-0.011453723534941673,0.03451388329267502,-0.03039054572582245,-42.39988327026367,49.6784553527832,-34.200523376464844
1.498,-0.5694918036460876,-9.701699256896973,-1.4943177700042725,-0.015577062964439392,0.026419920846819878,-0.029016099870204926,-42.516807556152344,50.043846130371094,-35.48670196533203
1.502,-0.5802595019340515,-9.700502395629883,-1.5194423198699951,-0.014508049935102463,0.022143863141536713,-0.030237827450037003,-42.443729400634766,49.6784553527832,-34.81438064575195
1.508,-0.5623133182525635,-9.70528793334961,-1.5194423198699951,-0.012217304669320583,0.013744467869400978,-0.030085112899541855,-42.67757797241211,50.01461410522461,-35.39900588989258
1.518,-0.5443671345710754,-9.720841407775879,-1.5014961957931519,-0.011453723534941673,0.006719517521560192,-0.029932396486401558,-42.72142791748047,49.82461166381836,-34.09821701049805
1.528,-0.5204389095306396,-9.755537986755371,-1.4644074440002441,-0.013591751456260681,0.0,-0.026572639122605324,-42.6629638671875,49.80999755859375,-34.43437576293945
1.538,-0.46420758962631226,-9.724431037902832,-1.4883357286453247,-0.016798794269561768,-0.004886921960860491,-0.022143863141536713,-42.92604446411133,49.576148986816406,-34.989768981933594
1.555,-0.5048855543136597,-9.68375301361084,-1.4871392250061035,-0.018936822190880775,-0.01924225501716137,-0.019394971430301666,-42.253726959228516,50.160770416259766,-34.96053695678711
1.558,-0.5024927258491516,-9.681360244750977,-1.4919248819351196,-0.019394971430301666,-0.021380282938480377,-0.020311269909143448,-42.809120178222656,49.839229583740234,-34.87284469604492
1.568,-0.5515456199645996,-9.657431602478027,-1.4727823734283447,-0.021074850112199783,-0.032070424407720566,-0.023365594446659088,-42.443729400634766,49.86845779418945,-35.44285202026367
1.578,-0.6281159520149231,-9.643074989318848,-1.4488540887832642,-0.024434609338641167,-0.03527746722102165,-0.023976460099220276,-42.20988082885742,49.7223014831543,-34.37591552734375
1.588,-0.6544370055198669,-9.631111145019531,-1.4464612007141113,-0.02382374368607998,-0.0328340083360672,-0.02626720443367958,-42.282955169677734,49.605377197265625,-34.87284469604492
1.598,-0.6795615553855896,-9.626324653625488,-1.4380862712860107,-0.02168571576476097,-0.02886338159441948,-0.025961771607398987,-42.73604202270508,49.6784553527832,-34.682838439941406
1.618,-0.6879364848136902,-9.644271850585938,-1.4775679111480713,-0.015118913725018501,-0.010995574295520782,-0.028405234217643738,-42.75065612792969,50.08769607543945,-35.19438934326172
1.621,-0.7022933959960938,-9.6526460647583,-1.4811570644378662,-0.01191187184303999,-0.0088575454428792,-0.030237827450037003,-42.54603958129883,49.6199951171875,-34.551300048828125
1.628,-0.6951149702072144,-9.66221809387207,-1.4823535680770874,-0.007177666295319796,-0.0024434609804302454,-0.029932396486401558,-42.823734283447266,49.95615005493164,-33.995906829833984
1.638,-0.6496513485908508,-9.68375301361084,-1.4883357286453247,-0.0012217304902151227,0.0032070425804704428,-0.031612277030944824,-42.999122619628906,50.02922821044922,-34.799766540527344
1.648,-0.5551348328590393,-9.696913719177246,-1.5074782371520996,0.0003054326225537807,0.005650503095239401,-0.027641652151942253,-42.56065368652344,50.336158752441406,-34.96053695678711
1.658,-0.5419743061065674,-9.720841407775879,-1.5122638940811157,-0.0007635815418325365,0.002138028386980295,-0.02672535367310047,-43.21835708618164,49.663841247558594,-35.07746124267578
1.677,-0.5347958207130432,-9.750751495361328,-1.5038889646530151,-0.0073303827084600925,-0.020158551633358,-0.02122756652534008,-42.443729400634766,50.07307434082031,-35.735164642333984
1.681,-0.5443671345710754,-9.759126663208008,-1.5182459354400635,-0.010537425056099892,-0.02428189292550087,-0.019853120669722557,-42.76527404785156,49.42999267578125,-35.662086486816406
1.688,-0.5551348328590393,-9.748359680175781,-1.514656662940979,-0.011301006190478802,-0.02886338159441948,-0.019394971430301666,-42.136802673339844,49.94153594970703,-34.69745635986328
1.698,-0.6125625967979431,-9.729216575622559,-1.5074782371520996,-0.014508049935102463,-0.034666601568460464,-0.017867807298898697,-42.58988571166992,49.795379638671875,-35.44285202026367
1.708,-0.6305087208747864,-9.713663101196289,-1.5014961957931519,-0.014660765416920185,-0.03436116874217987,-0.015882495790719986,-42.37065124511719,49.92692184448242,-35.325927734375
1.718,-0.6161518096923828,-9.66102123260498,-1.4751750230789185,-0.012522736564278603,-0.036193765699863434,-0.013744467869400978,-41.91756820678711,50.146156311035156,-34.346683502197266
1.738,-0.680757999420166,-9.647860527038574,-1.4416755437850952,-0.009926560334861279,-0.021380282938480377,-0.014508049935102463,-43.15989685058594,49.97077178955078,-34.93130874633789
1.741,-0.7094718813896179,-9.629914283752441,-1.4811570644378662,-0.00855211354792118,-0.01817324012517929,-0.015577062964439392,-42.999122619628906,49.94153594970703,-34.6682243347168
1.748,-0.7154539227485657,-9.634699821472168,-1.4799607992172241,-0.005497787147760391,-0.012217304669320583,-0.01618792861700058,-42.54603958129883,50.07307434082031,-35.03361511230469
1.758,-0.6903292536735535,-9.641878128051758,-1.5098711252212524,-0.0029016099870204926,-0.003359758760780096,-0.018325956538319588,-43.13066482543945,50.043846130371094,-34.88745880126953
1.768,-0.6867400407791138,-9.607182502746582,-1.5038889646530151,0.003512475173920393,0.003512475173920393,-0.020311269909143448,-42.6629638671875,49.94153594970703,-34.44898986816406
1.778,-0.62931227684021,-9.617950439453125,-1.4931212663650513,0.0050396379083395,0.012675453908741474,-0.020922133699059486,-42.91142654418945,49.75153350830078,-34.69745635986328
1.798,-0.5168496966362,-9.713663101196289,-1.4919248819351196,0.003359758760780096,0.010842857882380486,-0.021532999351620674,-42.73604202270508,49.86845779418945,-34.81438064575195
1.802,-0.4929214417934418,-9.710074424743652,-1.4596216678619385,0.0036651913542300463,0.00855211354792118,-0.021991148591041565,-42.96989059448242,50.65769958496094,-35.51593017578125
1.808,-0.45463627576828003,-9.704092025756836,-1.4967105388641357,-0.0019853119738399982,0.0025961773935705423,-0.020005837082862854,-42.37065124511719,49.853843688964844,-35.106693267822266
1.818,-0.4582255482673645,-9.66819953918457,-1.5122638940811157,-0.004123340360820293,-0.01038470957428217,-0.0177150908857584,-43.33528137207031,49.75153350830078,-34.84361267089844
1.828,-0.5000999569892883,-9.657431602478027,-1.5266207456588745,-0.0032070425804704428,-0.021074850112199783,-0.01863138936460018,-42.619117736816406,50.08769607543945,-35.296695709228516
1.838,-0.5204389095306396,-9.687341690063477,-1.5170494318008423,-0.006261368282139301,-0.031001411378383636,-0.01817324012517929,-42.239112854003906,50.24846649169922,-34.85823059082031
2.052,-0.6185446381568909,-9.66819953918457,-1.5290136337280273,0.001527163083665073,0.02535090781748295,-0.030695976689457893,-43.3206672668457,49.049983978271484,-34.39052963256836
2.062,-0.5359922647476196,-9.69093132019043,-1.5170494318008423,0.004886921960860491,0.025503622367978096,-0.025045473128557205,-42.91142654418945,49.37152862548828,-34.799766540527344
2.072,-0.5324030518531799,-9.670592308044434,-1.5529417991638184,0.005955935921519995,0.022449297830462456,-0.018478674814105034,-43.04296875,49.26921844482422,-35.325927734375
2.092,-0.5252245664596558,-9.695716857910156,-1.5816556215286255,0.008399397134780884,0.016951510682702065,-0.014508049935102463,-42.96989059448242,49.82461166381836,-34.2882194519043
2.095,-0.5635097026824951,-9.702895164489746,-1.5780664682388306,0.00809396430850029,0.006108652334660292,-0.015882495790719986,-42.67757797241211,49.92692184448242,-34.09821701049805
2.102,-0.5443671345710754,-9.718448638916016,-1.592423439025879,0.007024950347840786,0.0025961773935705423,-0.01572977937757969,-42.45834732055664,49.6199951171875,-34.88745880126953
2.112,-0.5156532526016235,-9.718448638916016,-1.588834285736084,0.0074830991216003895,0.001679879380390048,-0.01664607785642147,-43.072200775146484,49.766151428222656,-35.03361511230469
2.122,-0.47976091504096985,-9.7064847946167,-1.5625131130218506,0.0050396379083395,0.0003054326225537807,-0.015271631069481373,-42.823734283447266,49.63460922241211,-34.200523376464844
2.132,-0.4462614059448242,-9.702895164489746,-1.5553346872329712,0.0022907445672899485,-0.0073303827084600925,-0.013286319561302662,-43.59836196899414,49.42999267578125,-34.49283981323242
2.152,-0.47976091504096985,-9.677770614624023,-1.5684951543807983,0.0006108652451075613,-0.0138971833512187,-0.009468411095440388,-43.34989929199219,49.4007568359375,-34.156681060791016
2.157,-0.4977070689201355,-9.613164901733398,-1.576870083808899,-0.0009162978385575116,-0.022449297830462456,-0.003512475173920393,-43.189125061035156,49.53229904174805,-34.112831115722656
2.162,-0.5551348328590393,-9.603592872619629,-1.5792629718780518,0.0003054326225537807,-0.022907447069883347,-0.0006108652451075613,-42.91142654418945,49.10844802856445,-34.2443733215332
2.172,-0.6317051649093628,-9.615557670593262,-1.5864413976669312,-0.00015271631127689034,-0.023976460099220276,-0.0009162978385575116,-43.01374053955078,49.51768493652344,-34.2443733215332
2.182,-0.6556333899497986,-9.598808288574219,-1.5720844268798828,0.002138028386980295,-0.017867807298898697,-0.00015271631127689034,-42.867584228515625,49.18152618408203,-35.01900100708008
2.192,-0.6245266795158386,-9.608378410339355,-1.592423439025879,0.0064140851609408855,-0.00931569468230009,0.00015271631127689034,-43.01374053955078,49.75153350830078,-33.93744659423828
2.212,-0.5647060871124268,-9.641878128051758,-1.5984054803848267,0.014049900695681572,-0.007635815534740686,-0.0009162978385575116,-43.01374053955078,49.225372314453125,-34.346683502197266
2.216,-0.47138604521751404,-9.674181938171387,-1.5649060010910034,0.013439035043120384,-0.009468411095440388,-0.0004581489192787558,-43.23297119140625,49.31306457519531,-34.69745635986328
2.222,-0.48813581466674805,-9.69810962677002,-1.5708880424499512,0.015118913725018501,-0.012675453908741474,0.0009162978385575116,-42.95527648925781,49.283836364746094,-33.41128158569336
2.232,-0.5240281224250793,-9.69093132019043,-1.6091731786727905,0.015118913725018501,-0.015882495790719986,0.0013744467869400978,-42.516807556152344,49.82461166381836,-34.49283981323242
2.242,-0.5647060871124268,-9.656235694885254,-1.6007983684539795,0.014049900695681572,-0.018478674814105034,0.0018325956771150231,-42.867584228515625,49.31306457519531,-34.127445220947266
2.252,-0.5862414836883545,-9.663414001464844,-1.588834285736084,0.009468411095440388,-0.022143863141536713,-0.0013744467869400978,-43.072200775146484,49.41537857055664,-33.981292724609375
2.272,-0.6005984544754028,-9.678967475891113,-1.5912269353866577,0.00855211354792118,-0.02321287989616394,-0.00015271631127689034,-43.379127502441406,49.73691940307617,-34.112831115722656
2.276,-0.6065804958343506,-9.674181938171387,-1.6031910181045532,0.007024950347840786,-0.01572977937757969,0.0022907445672899485,-43.11604690551758,49.70768737792969,-33.77667236328125
2.283,-0.6041877269744873,-9.66221809387207,-1.643869161605835,0.006261368282139301,-0.01618792861700058,0.0044287727214396,-43.15989685058594,49.69307327270508,-34.21514129638672
2.292,-0.5826523303985596,-9.664609909057617,-1.6701900959014893,0.01114829070866108,-0.014813481830060482,0.0088575454428792,-43.30604934692383,49.6199951171875,-34.185909271240234
2.302,-0.6269195079803467,-9.647860527038574,-1.6462620496749878,0.013591751456260681,-0.013439035043120384,0.012217304669320583,-43.3645133972168,49.7223014831543,-34.229759216308594
2.312,-0.6508477926254272,-9.632307052612305,-1.6378871202468872,0.018936822190880775,-0.004123340360820293,0.020616700872778893,-43.84682846069336,49.48845672607422,-33.922828674316406
2.332,-0.6795615553855896,-9.635896682739258,-1.6390833854675293,0.01878410577774048,0.005955935921519995,0.025961771607398987,-43.65682601928711,49.649227142333984,-33.84975051879883
2.336,-0.6843472719192505,-9.656235694885254,-1.660618782043457,0.022907447069883347,0.024129178375005722,0.03451388329267502,-43.53989791870117,49.473838806152344,-34.127445220947266
2.342,-0.6460620760917664,-9.717252731323242,-1.6546367406845093,0.03084869496524334,0.042302414774894714,0.052228979766368866,-42.91142654418945,49.86845779418945,-34.31745147705078
2.352,-0.48454657196998596,-9.82971477508545,-1.624726414680481,0.04046982154250145,0.07681629806756973,0.11209376901388168,-43.3206672668457,49.035369873046875,-33.77667236328125
2.362,-0.4247260093688965,-9.836893081665039,-1.636690616607666,0.04046982154250145,0.09896016865968704,0.15592335164546967,-43.20374298095703,49.75153350830078,-34.200523376464844
2.372,-0.6520441174507141,-9.700502395629883,-1.8089739084243774,0.03176499158143997,0.09498954564332962,0.16752979159355164,-43.072200775146484,49.166908264160156,-35.106693267822266
2.392,-0.9152546525001526,-9.579665184020996,-1.9405790567398071,0.03039054572582245,0.07696902006864548,0.1508837193250656,-42.47296142578125,49.48845672607422,-34.84361267089844
2.396,-1.0444670915603638,-9.541379928588867,-1.978864312171936,0.054825153201818466,0.07330382615327835,0.1371392458677292,-42.53142547607422,49.7223014831543,-34.77053451538086
2.402,-1.0037890672683716,-9.615557670593262,-1.9381862878799438,0.06658431142568588,0.08109235763549805,0.1440114825963974,-42.92604446411133,49.473838806152344,-34.81438064575195
2.412,-0.9200402498245239,-9.663414001464844,-1.8592231273651123,0.08109235763549805,0.10308350622653961,0.17516560852527618,-42.85296630859375,49.53229904174805,-34.989768981933594
2.422,-0.778863787651062,-9.650253295898438,-1.7958134412765503,0.08292495459318161,0.12263119220733643,0.2041817009449005,-43.057586669921875,50.02922821044922,-35.282081604003906
2.432,-0.6484549045562744,-9.579665184020996,-1.7802599668502808,0.08536841720342636,0.1310305893421173,0.2382374405860901,-42.95527648925781,50.0,-34.6682243347168
2.452,-0.6460620760917664,-9.488738059997559,-1.8005989789962769,0.08567384630441666,0.1290452778339386,0.27718010544776917,-42.502193450927734,50.0584602355957,-35.95439910888672
2.456,-0.906879723072052,-9.393025398254395,-1.805384635925293,0.08307767659425735,0.12751811742782593,0.3228422701358795,-42.326805114746094,49.590763092041016,-35.82286071777344
2.462,-1.0348957777023315,-9.393025398254395,-1.836491346359253,0.07971791177988052,0.13988813757896423,0.33200523257255554,-42.79450607299805,49.86845779418945,-35.179771423339844
2.472,-1.3902299404144287,-9.308079719543457,-1.8795621395111084,0.08048149198293686,0.17058412730693817,0.33505958318710327,-42.72142791748047,49.663841247558594,-34.56591796875
2.482,-1.6139588356018066,-9.253045082092285,-1.920240044593811,0.08155050873756409,0.21273382008075714,0.3275764584541321,-42.58988571166992,50.01461410522461,-35.57439422607422
2.492,-1.7479568719863892,-9.20877742767334,-1.9226329326629639,0.08475754410028458,0.26450464129447937,0.3168863356113434,-42.326805114746094,50.30692672729492,-36.12978744506836
2.512,-1.7599210739135742,-9.20877742767334,-1.9441683292388916,0.09697485715150833,0.33276882767677307,0.30543261766433716,-42.253726959228516,50.01461410522461,-35.79362487792969
2.515,-1.5672988891601562,-9.198010444641113,-1.8963117599487305,0.12553280591964722,0.43646320700645447,0.2961169183254242,-42.078338623046875,49.766151428222656,-35.67670440673828
2.522,-1.3902299404144287,-9.284152030944824,-1.8735800981521606,0.1391245573759079,0.47830748558044434,0.28817567229270935,-41.93218231201172,50.0584602355957,-36.539024353027344
2.532,-1.093519926071167,-9.378667831420898,-1.8963117599487305,0.1498146951198578,0.5146539211273193,0.28008171916007996,-41.74217987060547,50.0,-35.340545654296875
2.542,-0.7908278107643127,-9.446863174438477,-1.9728822708129883,0.1595885455608368,0.5230533480644226,0.27458393573760986,-41.99064636230469,50.160770416259766,-36.115169525146484
2.552,-0.5276173949241638,-9.495916366577148,-2.073380708694458,0.1745547503232956,0.5059491395950317,0.2704605758190155,-41.6252555847168,50.80385971069336,-35.852088928222656
2.572,-0.28594231605529785,-9.578468322753906,-2.1296122074127197,0.1823432743549347,0.45356741547584534,0.26740625500679016,-41.39140701293945,50.950016021728516,-36.14440155029297
2.575,0.038285162299871445,-9.639486312866211,-2.2432711124420166,0.184939444065094,0.38988474011421204,0.2770273983478546,-41.3037109375,50.73078155517578,-36.77287292480469
2.582,0.2069791555404663,-9.644271850585938,-2.287538528442383,0.19517144560813904,0.34147366881370544,0.29184088110923767,-41.142940521240234,50.64308547973633,-36.93364715576172
2.592,0.3074776828289032,-9.643074989318848,-2.045863151550293,0.19394971430301666,0.25473082065582275,0.3199406564235687,-41.25986862182617,50.87693786621094,-37.92750549316406
2.602,0.13160523772239685,-9.592824935913086,-1.88075852394104,0.16065755486488342,0.1774563491344452,0.33887749910354614,-40.66062545776367,51.09617233276367,-37.69365692138672
2.612,-0.0011964113218709826,-9.57368278503418,-1.7778671979904175,0.11835514008998871,0.12400564551353455,0.3491095006465912,-40.6021614074707,51.00847625732422,-37.91289138793945
2.632,-0.1663011610507965,-9.476773262023926,-1.710868239402771,0.06139195337891579,0.08491026610136032,0.32879823446273804,-40.558319091796875,50.86231994628906,-36.90441131591797
2.636,-0.24047866463661194,-9.387042999267578,-1.6307085752487183,-0.019089538604021072,0.06688974052667618,0.27550020813941956,-40.543701171875,51.213096618652344,-36.81671905517578
2.642,-0.08973085135221481,-9.297311782836914,-1.6618152856826782,-0.0780380368232727,0.06291911751031876,0.24144448339939117,-40.41215896606445,50.83308792114258,-37.22595977783203
2.652,0.35892340540885925,-9.113064765930176,-1.6797614097595215,-0.1434006243944168,0.04108068719506264,0.19318613409996033,-40.2660026550293,50.81847381591797,-37.3867301940918
2.662,0.9212366938591003,-8.94676399230957,-1.502692461013794,-0.1924225389957428,-0.017867807298898697,0.14767667651176453,-39.81291961669922,50.964630126953125,-37.7667350769043
2.672,1.561316728591919,-9.030512809753418,-1.3088740110397339,-0.24694228172302246,-0.1641700267791748,0.09193521738052368,-40.09061813354492,50.979244232177734,-37.284420013427734
2.693,2.2947168350219727,-9.492326736450195,-1.2059825658798218,-0.2727513313293457,-0.31093040108680725,0.06658431142568588,-39.43291473388672,50.950016021728516,-36.61210250854492
2.697,2.9108684062957764,-10.023533821105957,-1.4309078454971313,-0.25992316007614136,-0.5471825003623962,0.0455094613134861,-40.002925872802734,50.80385971069336,-36.919029235839844
2.702,2.970689058303833,-10.112068176269531,-1.5074782371520996,-0.24663683772087097,-0.6412557363510132,0.0328340083360672,-39.79830551147461,50.950016021728516,-36.43671417236328
2.712,2.8929224014282227,-10.121639251708984,-1.6175479888916016,-0.21899518370628357,-0.8659014701843262,-0.0044287727214396,-39.62291717529297,51.30078887939453,-35.95439910888672
2.722,2.551945447921753,-10.113264083862305,-1.6199408769607544,-0.16584990918636322,-1.1774427890777588,-0.07742717117071152,-40.19292449951172,51.11078643798828,-36.26132583618164
2.732,1.8197414875030518,-10.152746200561523,-1.4763715267181396,-0.11087203770875931,-1.3901766538619995,-0.14156801998615265,-39.35983657836914,50.964630126953125,-35.76439666748047
2.752,1.1306086778640747,-10.204191207885742,-1.2646067142486572,-0.06154467165470123,-1.5288430452346802,-0.19944749772548676,-39.403682708740234,51.25694274902344,-35.179771423339844
2.757,0.04905286058783531,-10.218547821044922,-1.172482967376709,-0.00427605677396059,-1.5839735269546509,-0.28817567229270935,-39.374454498291016,50.979244232177734,-35.50131607055664
2.762,-0.2548356056213379,-10.14197826385498,-1.2011969089508057,0.014508049935102463,-1.5648839473724365,-0.31841349601745605,-39.28675842285156,51.213096618652344,-35.296695709228516
2.772,-0.8602197170257568,-10.016355514526367,-1.3004990816116333,0.058337628841400146,-1.4607315063476562,-0.4056145250797272,-39.09675598144531,51.03771209716797,-34.09821701049805
2.782,-1.275374412536621,-9.992426872253418,-1.3040882349014282,0.07162395119667053,-1.337183952331543,-0.48747044801712036,-39.47676086425781,50.789241790771484,-34.419761657714844
2.792,-1.3938192129135132,-10.168299674987793,-1.330409288406372,0.06322455406188965,-1.1989758014678955,-0.5786421298980713,-39.5059928894043,51.198482513427734,-34.43437576293945
2.812,-1.176072359085083,-10.442277908325195,-1.3339985609054565,0.03390302136540413,-1.06351637840271,-0.6688974499702454,-39.75445556640625,50.86231994628906,-33.93744659423828
2.816,-0.38644087314605713,-10.675577163696289,-1.5948163270950317,-0.0377209298312664,-0.8804094791412354,-0.7502952218055725,-40.06138610839844,50.92078399658203,-33.572052001953125
2.822,-0.07178467512130737,-10.676774024963379,-1.712064504623413,-0.07376197725534439,-0.8196284174919128,-0.7680103182792664,-39.81291961669922,50.51154327392578,-33.557437896728516
2.832,0.6149553656578064,-10.518848419189453,-2.111665964126587,-0.1036943718791008,-0.7796167731285095,-0.7651087045669556,-39.710609436035156,50.584625244140625,-34.27360534667969
2.842,0.9595218300819397,-10.317851066589355,-2.293520450592041,-0.10934487730264664,-0.7881688475608826,-0.7428121566772461,-40.04676818847656,50.51154327392578,-33.64513397216797
2.852,1.0995019674301147,-10.119246482849121,-2.2947168350219727,-0.10873401165008545,-0.8394815921783447,-0.7209736704826355,-40.499855041503906,50.70154571533203,-33.542823791503906
2.871,1.0839486122131348,-10.028319358825684,-1.9956140518188477,-0.1690569519996643,-0.9853256344795227,-0.7197519540786743,-40.9237060546875,50.233848571777344,-33.10435485839844
2.875,0.9690931439399719,-9.979266166687012,-1.6618152856826782,-0.19562958180904388,-1.0094548463821411,-0.726471483707428,-40.35369873046875,50.45308303833008,-34.08360290527344
2.882,0.8315058350563049,-9.859625816345215,-1.4560325145721436,-0.24068090319633484,-1.0325149297714233,-0.7383833527565002,-40.71908950805664,50.24846649169922,-33.33820343017578
2.892,0.698704183101654,-9.739984512329102,-1.277767300605774,-0.2967277765274048,-1.0393872261047363,-0.7629706859588623,-40.952938079833984,49.80999755859375,-32.59280776977539
2.902,0.4283152222633362,-9.6466646194458,-1.160519003868103,-0.35506540536880493,-1.0314459800720215,-0.7916813492774963,-40.894474029541016,49.63460922241211,-32.32973098754883
2.912,0.1375872939825058,-9.564111709594727,-0.9762716293334961,-0.4115704298019409,-1.0157161951065063,-0.8248208165168762,-40.67523956298828,49.15229415893555,-32.066646575927734
2.932,-0.12203395366668701,-9.477970123291016,-0.8506484627723694,-0.4749477207660675,-0.9640980362892151,-0.8617781400680542,-41.17217254638672,49.093833923339844,-32.242034912109375
2.936,-0.38644087314605713,-9.285347938537598,-0.8721838593482971,-0.521373450756073,-0.826195240020752,-0.903164267539978,-40.952938079833984,49.07921600341797,-32.47588348388672
2.942,-0.31824538111686707,-9.245866775512695,-0.8745766282081604,-0.527634859085083,-0.7345654964447021,-0.9263771176338196,-41.46448516845703,48.611515045166016,-31.262788772583008
2.952,-0.25004997849464417,-9.2255277633667,-0.9726824164390564,-0.5222897529602051,-0.6076582074165344,-0.9543241858482361,-41.82987594604492,49.049983978271484,-31.02893829345703
2.962,-0.11365906894207001,-9.262616157531738,-1.117448091506958,-0.49754971265792847,-0.4973970353603363,-0.9877691268920898,-42.03449249267578,48.479976654052734,-30.312772750854492
2.972,0.10648059844970703,-9.373882293701172,-1.2765707969665527,-0.4628831148147583,-0.4178318381309509,-1.0235047340393066,-42.67757797241211,48.041507720947266,-31.262788772583008
2.991,0.3397807776927948,-9.517451286315918,-1.3387842178344727,-0.4095851480960846,-0.30665433406829834,-1.0658071041107178,-42.867584228515625,47.74919891357422,-30.035078048706055
2.995,0.5048855543136597,-9.55214786529541,-1.5110673904418945,-0.39935314655303955,-0.28619036078453064,-1.0725265741348267,-43.3206672668457,47.74919891357422,-29.961999893188477
3.002,0.5276173949241638,-9.497113227844238,-1.7084753513336182,-0.37033703923225403,-0.24663683772087097,-1.0761919021606445,-43.686058044433594,47.9391975402832,-29.391992568969727
3.012,0.638883650302887,-9.45763111114502,-1.7862420082092285,-0.3275764584541321,-0.2025018185377121,-1.0754282474517822,-43.65682601928711,47.04764938354492,-29.538145065307617
3.022,0.7154539227485657,-9.396614074707031,-1.8089739084243774,-0.2981022298336029,-0.16019940376281738,-1.063821792602539,-43.992984771728516,46.726104736328125,-28.778135299682617
3.032,0.769292414188385,-9.354740142822266,-1.8939191102981567,-0.27061331272125244,-0.11530081182718277,-1.041067123413086,-44.636070251464844,46.57994842529297,-28.89505958557129
3.052,0.9499505758285522,-9.400203704833984,-2.0578272342681885,-0.2460259646177292,-0.08139779418706894,-1.0219775438308716,-45.14761734008789,46.63841247558594,-28.485822677612305
3.056,1.0133603811264038,-9.425328254699707,-2.043470621109009,-0.23289236426353455,-0.03497203439474106,-1.00502610206604,-45.45454788208008,46.185325622558594,-28.383514404296875
3.062,0.9595218300819397,-9.456435203552246,-1.9238293170928955,-0.23777928948402405,-0.012675453908741474,-0.9984592199325562,-45.790706634521484,46.360713958740234,-28.968137741088867
3.072,1.0444670915603638,-9.592824935913086,-1.8017953634262085,-0.26251932978630066,0.015118913725018501,-0.9778425097465515,-46.24378967285156,46.02455520629883,-28.295820236206055
3.082,1.2957134246826172,-9.773483276367188,-1.7455641031265259,-0.3110831081867218,0.05650503188371658,-0.9505062699317932,-46.50687026977539,45.64455032348633,-28.99736976623535
3.092,1.6534403562545776,-9.911070823669434,-1.8412768840789795,-0.3445279896259308,0.09834930300712585,-0.9201157689094543,-46.98918533325195,44.89915466308594,-28.953521728515625
3.112,1.7024933099746704,-9.90748119354248,-1.9525432586669922,-0.3608686327934265,0.12034045159816742,-0.8881980180740356,-47.57380676269531,45.24992752075195,-29.231218338012695
3.115,1.903490424156189,-9.797411918640137,-2.221735715866089,-0.35094207525253296,0.12324206531047821,-0.8394815921783447,-47.77842712402344,44.86991882324219,-29.026599884033203
3.122,2.0853447914123535,-9.745965957641602,-2.3054845333099365,-0.33505958318710327,0.1039998009800911,-0.8104654550552368,-47.74919891357422,45.498390197753906,-28.99736976623535
3.132,2.104487419128418,-9.664609909057617,-2.311466693878174,-0.30344730615615845,0.06612616032361984,-0.7596108913421631,-48.37766647338867,44.70914840698242,-28.354280471801758
3.142,2.1918253898620605,-9.68494987487793,-2.283949136734009,-0.2926044464111328,0.05803219974040985,-0.7116580009460449,-48.50920867919922,44.3437614440918,-28.71967315673828
3.152,2.2600209712982178,-9.713663101196289,-2.2648065090179443,-0.2871066629886627,0.05711590126156807,-0.6511823534965515,-48.8599853515625,43.90529251098633,-28.485822677612305
3.172,2.344965934753418,-9.7124662399292,-2.2301106452941895,-0.30024024844169617,0.04749477282166481,-0.5459607839584351,-49.63460922241211,43.33528137207031,-27.871967315673828
3.176,2.410768747329712,-9.65982437133789,-2.3198413848876953,-0.30512717366218567,0.04092797264456749,-0.5236642360687256,-49.25460433959961,44.03683090209961,-27.842735290527344
3.182,2.451446771621704,-9.590433120727539,-2.3270199298858643,-0.31322115659713745,0.02519819140434265,-0.49296826124191284,-49.53229904174805,43.93452072143555,-28.17889404296875
3.192,2.4406790733337402,-9.57487964630127,-2.407179594039917,-0.32299500703811646,0.008246680721640587,-0.45585817098617554,-49.42999267578125,43.437591552734375,-28.120431900024414
3.202,2.469392776489258,-9.56052303314209,-2.465803623199463,-0.3286454975605011,0.010995574295520782,-0.41523563861846924,-49.853843688964844,43.58374786376953,-27.57965660095215
3.212,2.423929214477539,-9.527023315429688,-2.4777677059173584,-0.3263547420501709,0.03344487026333809,-0.37033703923225403,-49.239986419677734,43.422977447509766,-27.097341537475586
3.232,2.3916261196136475,-9.56770133972168,-2.4634108543395996,-0.31673359870910645,0.07177666574716568,-0.31963521242141724,-49.89768981933594,42.896812438964844,-27.50657844543457
3.235,2.5184457302093506,-9.920642852783203,-2.383251190185547,-0.2967277765274048,0.12889257073402405,-0.24007004499435425,-49.98538589477539,42.9406623840332,-27.696578979492188
3.242,2.5423738956451416,-10.15035343170166,-2.445464611053467,-0.2869539260864258,0.15332716703414917,-0.20525072515010834,-50.365386962890625,42.999122619628906,-27.945045471191406
3.252,2.585444688796997,-10.886146545410156,-2.6668004989624023,-0.2551889419555664,0.18829920887947083,-0.16661350429058075,-50.07307434082031,42.75065612792969,-28.06197166442871
3.262,2.761317014694214,-11.255837440490723,-3.022134780883789,-0.19853119552135468,0.26221391558647156,-0.11591167747974396,-50.45308303833008,42.72142791748047,-27.740427017211914
3.272,3.207578659057617,-11.235498428344727,-3.3499515056610107,-0.12660181522369385,0.36361753940582275,-0.02321287989616394,-50.51154327392578,42.10757064819336,-27.228879928588867
3.293,3.799802303314209,-10.893324851989746,-3.6634113788604736,0.0832303911447525,0.4331034719944,0.3390301764011383,-50.584625244140625,42.692195892333984,-28.26658821105957
3.297,4.552344799041748,-10.390832901000977,-3.665804386138916,0.10644327104091644,0.41111230850219727,0.4187481105327606,-50.40924072265625,42.6045036315918,-27.769657135009766
3.302,4.7365922927856445,-10.217351913452148,-3.4671998023986816,0.15561792254447937,0.3153591752052307,0.49525898694992065,-50.160770416259766,42.882198333740234,-28.368898391723633
3.312,5.033302307128906,-10.103693962097168,-3.177668571472168,0.21670444309711456,0.15256358683109283,0.6583600044250488,-49.89768981933594,43.057586669921875,-28.13504981994629
3.322,5.249852657318115,-10.14197826385498,-2.5459630489349365,0.2483167201280594,-0.022449297830462456,0.8709411025047302,-50.01461410522461,43.52528381347656,-28.295820236206055
3.332,5.033302307128906,-10.182656288146973,-1.9465612173080444,0.204487144947052,-0.21884246170520782,1.079246163368225,-49.035369873046875,43.89067459106445,-28.544286727905273
3.353,3.943371534347534,-10.02592658996582,-1.6103696823120117,0.06673702597618103,-0.5216789245605469,1.1827878952026367,-48.75767135620117,44.84069061279297,-28.953521728515625
3.357,0.7980062961578369,-9.410971641540527,-1.3196415901184082,-0.14935654401779175,-0.8284859657287598,1.084591269493103,-48.34843444824219,44.47529983520508,-28.06197166442871
3.363,-0.004785645287483931,-9.242277145385742,-1.3555339574813843,-0.19425514340400696,-0.863457977771759,1.034500241279602,-48.026893615722656,44.6799201965332,-27.901199340820312
3.372,-1.3567304611206055,-8.910871505737305,-1.4620145559310913,-0.2269364297389984,-0.8304712772369385,0.9529497623443604,-47.32534408569336,44.86991882324219,-28.588130950927734
3.382,-2.2791635990142822,-8.675178527832031,-1.467996597290039,-0.20234911143779755,-0.693026602268219,0.8950702548027039,-47.00379943847656,45.206077575683594,-27.60888671875
3.392,-2.7912275791168213,-8.48614501953125,-1.5409777164459229,-0.11621711403131485,-0.4369213581085205,0.8541423082351685,-46.40456008911133,44.6799201965332,-27.798887252807617
3.411,-2.9623141288757324,-8.243273735046387,-1.5804593563079834,0.047800205647945404,0.024892758578062057,0.8756753206253052,-46.112247467041016,45.45454788208008,-28.032737731933594
3.415,-2.6225335597991943,-8.139185905456543,-1.2921241521835327,0.0809396430850029,0.17562375962734222,0.9062185883522034,-45.41069793701172,45.732242584228516,-27.857351303100586
3.422,-2.4909281730651855,-8.061419486999512,-1.1868400573730469,0.10873401165008545,0.3988949954509735,0.9527970552444458,-45.46916198730469,45.32300567626953,-27.477344512939453
3.432,-2.4837498664855957,-7.654639720916748,-1.5637094974517822,0.1365283876657486,0.6498079299926758,0.9760099053382874,-44.94300079345703,45.366851806640625,-27.345806121826172
3.442,-2.6153552532196045,-7.112664699554443,-2.1296122074127197,0.23121249675750732,0.8851436972618103,0.9705121517181396,-45.08915710449219,46.00994110107422,-27.915815353393555
3.452,-2.7876384258270264,-6.842276096343994,-2.5495524406433105,0.3614795207977295,1.048397421836853,0.9622654914855957,-44.928382873535156,45.8199348449707,-27.842735290527344
3.471,-2.475374937057495,-7.513463020324707,-2.414357900619507,0.6479753255844116,1.2808316946029663,0.9952521920204163,-44.84069061279297,47.38380432128906,-29.655071258544922
3.475,-2.376072883605957,-7.885546684265137,-2.225324869155884,0.6696610450744629,1.293965220451355,0.9992228150367737,-44.72376251220703,47.01841354370117,-29.7281494140625
3.482,-2.2229323387145996,-8.5160551071167,-1.932204246520996,0.7009678483009338,1.3098478317260742,1.0027352571487427,-44.16836929321289,47.471500396728516,-30.225080490112305
3.492,-1.9369899034500122,-9.182456970214844,-1.688136339187622,0.6786712408065796,1.2959506511688232,0.9900597929954529,-44.16836929321289,47.500728607177734,-30.795087814331055
3.502,-1.5589239597320557,-9.628718376159668,-1.758724570274353,0.6462953686714172,1.2559388875961304,0.9689849615097046,-43.94913864135742,47.734580993652344,-31.11663246154785
3.512,-1.384247899055481,-9.934999465942383,-1.8544374704360962,0.6275113224983215,1.1888965368270874,0.9480628371238708,-43.56913375854492,48.056121826171875,-31.74510383605957
3.531,-1.4297115802764893,-10.169495582580566,-1.9142580032348633,0.6020076870918274,1.0743592977523804,0.9275988340377808,-43.496055603027344,48.78690719604492,-32.59280776977539
3.535,-1.730010747909546,-10.277173042297363,-2.087737560272217,0.6036875247955322,1.0656543970108032,0.9260717034339905,-44.066062927246094,49.00613784790039,-32.1689567565918
3.542,-1.987239122390747,-10.201799392700195,-2.1990039348602295,0.623846173286438,1.0555751323699951,0.9179776906967163,-43.15989685058594,48.713829040527344,-32.183570861816406
3.552,-2.5363919734954834,-9.994819641113281,-2.2444677352905273,0.6656904220581055,1.0937541723251343,0.8999572396278381,-43.072200775146484,49.26921844482422,-32.65127182006836
3.562,-2.867797613143921,-9.879964828491211,-2.0925233364105225,0.6922630071640015,1.1930198669433594,0.8674286603927612,-42.999122619628906,49.283836364746094,-33.64513397216797
3.572,-2.99222469329834,-9.69930648803711,-2.018345832824707,0.702189564704895,1.3463469743728638,0.8371908068656921,-42.75065612792969,49.07921600341797,-34.63899612426758
3.591,-2.495713949203491,-9.501898765563965,-1.696511149406433,0.6747006773948669,1.7270687818527222,0.8393288254737854,-42.443729400634766,50.24846649169922,-35.50131607055664
3.595,-2.3605194091796875,-9.4660062789917,-1.6558332443237305,0.6594290137290955,1.819920301437378,0.8565858006477356,-42.03449249267578,50.3215446472168,-35.355159759521484
3.602,-1.9334007501602173,-9.396614074707031,-1.5804593563079834,0.6334671974182129,1.9453002214431763,0.8938485383987427,-42.326805114746094,50.67231750488281,-36.845951080322266
3.612,-1.0695916414260864,-9.267401695251465,-1.5792629718780518,0.5919284224510193,2.0702221393585205,0.9587529897689819,-42.09295654296875,50.51154327392578,-37.0067253112793
3.622,-0.4283152222633362,-9.2255277633667,-1.6462620496749878,0.5479460954666138,2.1349740028381348,1.0348057746887207,-41.888336181640625,51.11078643798828,-37.31365203857422
3.632,0.259621262550354,-9.139386177062988,-1.7611173391342163,0.4967861771583557,2.137722969055176,1.1097893714904785,-41.65448760986328,51.02309036254883,-37.854427337646484
3.651,0.8506484627723694,-8.980262756347656,-1.9836498498916626,0.4156937897205353,1.9500346183776855,1.249372124671936,-41.508331298828125,51.4177131652832,-39.374454498291016
3.656,1.573280930519104,-9.029315948486328,-1.9920247793197632,0.3874412775039673,1.8570303916931152,1.2738066911697388,-41.318328857421875,50.93539810180664,-39.16983413696289
3.662,1.746760368347168,-8.981459617614746,-2.018345832824707,0.3358231484889984,1.6858352422714233,1.3014483451843262,-40.80678176879883,51.373870849609375,-40.06138610839844
3.672,1.6845470666885376,-8.896513938903809,-2.0542380809783936,0.26374107599258423,1.448819637298584,1.3225232362747192,-40.70447540283203,51.84156799316406,-39.374454498291016
3.682,1.676172137260437,-8.805586814880371,-2.0997018814086914,0.1976149082183838,1.213025689125061,1.332908034324646,-39.900611877441406,51.7392578125,-40.42677688598633
3.692,1.2071789503097534,-8.58664321899414,-2.1990039348602295,0.14614950120449066,0.9999863505363464,1.330464482307434,-39.09675598144531,52.090030670166016,-40.762935638427734
3.711,0.2105683833360672,-8.656035423278809,-2.2983059883117676,0.11850785464048386,0.7028005123138428,1.2942707538604736,-38.263668060302734,52.63081359863281,-40.6021614074707
3.715,0.05024927482008934,-8.721837997436523,-2.293520450592041,0.12568552792072296,0.668744683265686,1.275792121887207,-38.1467399597168,52.64542770385742,-40.689857482910156
3.722,-0.39960137009620667,-8.871389389038086,-2.2564315795898438,0.14278973639011383,0.6311764717102051,1.2318097352981567,-38.029815673828125,52.60157775878906,-41.37678909301758
3.732,-0.656829833984375,-9.254240989685059,-1.8544374704360962,0.13820825517177582,0.6036875247955322,1.1505646705627441,-37.45980453491211,52.484657287597656,-41.80064392089844
3.742,-0.8051848411560059,-9.499505043029785,-1.550549030303955,0.07147122919559479,0.62964928150177,1.0702358484268188,-36.31978988647461,53.0985107421875,-41.128326416015625
3.752,-0.5395814776420593,-9.510272979736328,-1.805384635925293,0.00931569468230009,0.7680103182792664,1.0392345190048218,-36.69979476928711,53.17158508300781,-41.91756820678711
3.771,-0.05982056260108948,-9.561718940734863,-2.400001049041748,0.08338310569524765,0.9607383012771606,1.087492823600769,-35.61824035644531,54.063140869140625,-42.633731842041016
3.775,-0.20817556977272034,-9.65982437133789,-2.4885356426239014,0.10903944075107574,0.972955584526062,1.0936014652252197,-35.51593017578125,53.18620300292969,-42.37065124511719
3.782,0.02991028130054474,-9.91585636138916,-2.5399811267852783,0.1267545372247696,0.9822712540626526,1.0968085527420044,-34.989768981933594,53.49312973022461,-42.57527160644531
3.792,0.45583271980285645,-10.249655723571777,-2.583051919937134,0.11759155988693237,0.9100365042686462,1.0844385623931885,-34.2882194519043,53.61005783081055,-42.823734283447266
3.802,0.8602197170257568,-10.426724433898926,-2.5471596717834473,0.11026117950677872,0.7426593899726868,1.0661126375198364,-33.70359420776367,53.30312728881836,-42.999122619628906
3.812,1.1569297313690186,-10.352546691894531,-2.636890411376953,0.11804971098899841,0.5647448897361755,1.0450377464294434,-34.01052474975586,53.59543991088867,-43.627593994140625
3.831,0.9104689955711365,-9.858428955078125,-2.878565549850464,0.16722436249256134,0.14385876059532166,0.9065240025520325,-33.352821350097656,53.332359313964844,-42.253726959228516
3.835,0.605384111404419,-9.745965957641602,-2.83669114112854,0.1725694239139557,0.09758572280406952,0.8793404698371887,-33.060508728027344,53.96083068847656,-42.838348388671875
3.842,0.18065811693668365,-9.754341125488281,-2.6285154819488525,0.17516560852527618,-0.027030786499381065,0.7930558323860168,-32.34434509277344,53.34697341918945,-43.04296875
3.852,-0.3936192989349365,-10.001997947692871,-2.3078773021698,0.1459967941045761,-0.15195272862911224,0.6446155309677124,-32.56357955932617,54.31160354614258,-42.96989059448242
3.862,-0.8051848411560059,-10.287940979003906,-2.132004976272583,0.12812897562980652,-0.16325373947620392,0.5406157374382019,-31.64279556274414,54.12160110473633,-42.22449493408203
3.872,-0.9547362327575684,-10.533205032348633,-2.2360928058624268,0.12660181522369385,-0.1459967941045761,0.44486260414123535,-31.379714965820312,53.87313461303711,-43.15989685058594
3.891,-1.1904292106628418,-10.779664993286133,-2.5256240367889404,0.152105450630188,-0.09544768929481506,0.23319780826568604,-31.20432472229004,53.93159866333008,-43.10143280029297
3.895,-1.277767300605774,-10.798808097839355,-2.555534601211548,0.15775594115257263,-0.08567384630441666,0.20402897894382477,-31.04355239868164,53.72698211669922,-43.13066482543945
3.902,-1.1306086778640747,-10.87418270111084,-2.695514678955078,0.1713476926088333,-0.05360342189669609,0.12690724432468414,-30.91201400756836,53.46390151977539,-43.48143768310547
3.912,-0.9882357120513916,-10.782058715820312,-2.860619306564331,0.2015855312347412,-0.02687807008624077,0.037110064178705215,-30.9266300201416,53.58082580566406,-43.802982330322266
3.922,-0.7070790529251099,-10.526025772094727,-2.8833510875701904,0.25534167885780334,-0.023518310859799385,-0.007177666295319796,-30.751243591308594,53.8585205078125,-43.59836196899414
3.932,-0.3242274522781372,-10.563116073608398,-2.6189444065093994,0.31062498688697815,-0.05054909735918045,-0.035582900047302246,-30.385852813720703,54.37007141113281,-43.65682601928711
3.952,0.11006983369588852,-11.461620330810547,-1.5589239597320557,0.36224305629730225,-0.2698497176170349,-0.07987063378095627,-30.00584602355957,53.8585205078125,-44.89915466308594
3.956,0.10289137810468674,-11.6183500289917,-1.3076776266098022,0.35292738676071167,-0.3338378667831421,-0.08674286305904388,-30.37123680114746,53.96083068847656,-44.636070251464844
3.962,-0.02871387079358101,-11.723634719848633,-1.1078768968582153,0.3139847218990326,-0.41920626163482666,-0.10461067408323288,-30.195850372314453,53.522361755371094,-44.31452941894531
3.972,-0.24885353446006775,-11.536993980407715,-1.1665010452270508,0.24892757833003998,-0.5287038683891296,-0.1466076523065567,-30.239694595336914,53.50774383544922,-45.07453918457031
3.982,-0.380458801984787,-11.058429718017578,-1.5649060010910034,0.21380282938480377,-0.667217493057251,-0.20311269164085388,-30.385852813720703,53.28851318359375,-45.14761734008789
3.992,-0.7166503667831421,-10.668399810791016,-1.9214365482330322,0.22800545394420624,-0.8188648223876953,-0.2719877362251282,-30.28354263305664,53.814674377441406,-45.60070037841797
4.011,-1.2131609916687012,-10.721041679382324,-1.9082759618759155,0.2767219543457031,-1.0283915996551514,-0.4030183255672455,-30.56123924255371,53.77082824707031,-45.87839889526367
4.015,-1.2550355195999146,-10.736595153808594,-1.8269200325012207,0.28038716316223145,-1.0661126375198364,-0.4254676401615143,-30.327388763427734,53.80005645751953,-45.3814697265625
4.022,-1.361515998840332,-10.780862808227539,-1.4560325145721436,0.2788599729537964,-1.1169670820236206,-0.4531092941761017,-30.824321746826172,53.829288482666016,-46.24378967285156
4.032,-1.534995675086975,-10.73180866241455,-1.1473584175109863,0.242513507604599,-1.1997393369674683,-0.49907687306404114,-30.765857696533203,53.96083068847656,-46.185325622558594
4.042,-1.753938913345337,-10.61934757232666,-0.9774680137634277,0.18051066994667053,-1.2930489778518677,-0.5662720799446106,-30.73662757873535,53.90237045288086,-46.375328063964844
4.052,-1.956132411956787,-10.41236686706543,-0.7680960297584534,0.10384708642959595,-1.3761266469955444,-0.6501132845878601,-30.985092163085938,53.94621658325195,-46.185325622558594
4.065,-2.038684844970703,-10.25085163116455,-0.5120640397071838,-0.0009162978385575116,-1.4621058702468872,-0.7518223524093628,-31.4674072265625,53.68313217163086,-45.95147705078125
4.072,-1.9896320104599,-10.240083694458008,-0.2667997181415558,-0.08720101416110992,-1.5195273160934448,-0.8211556077003479,-31.56971549987793,53.80005645751953,-45.68839645385742
4.082,-1.7958134412765503,-10.1336030960083,-0.038285162299871445,-0.16050483286380768,-1.5737415552139282,-0.8617781400680542,-32.02280044555664,53.639286041259766,-46.287635803222656
4.092,-1.6474583148956299,-9.906285285949707,0.14835500717163086,-0.22770002484321594,-1.628719449043274,-0.8735372424125671,-32.1689567565918,53.332359313964844,-46.49225616455078
4.102,-1.6498512029647827,-9.688538551330566,0.26919254660606384,-0.27870726585388184,-1.6875152587890625,-0.8772024512290955,-32.56357955932617,53.56621170043945,-45.77608871459961
4.112,-1.8029918670654297,-9.605986595153809,0.4654039740562439,-0.33429598808288574,-1.7654005289077759,-0.8930849432945251,-33.440513610839844,53.39081954956055,-45.58608627319336
4.132,-2.242074728012085,-9.883553504943848,0.9786643981933594,-0.4645630121231079,-1.846798300743103,-0.9755517840385437,-33.250511169433594,53.36158752441406,-44.95761489868164
4.135,-2.362912178039551,-10.079764366149902,1.062413215637207,-0.48380523920059204,-1.8510743379592896,-0.9902125597000122,-33.425899505615234,53.18620300292969,-44.636070251464844
4.142,-2.6021945476531982,-10.366903305053711,1.2071789503097534,-0.5539020299911499,-1.8559613227844238,-1.047023057937622,-33.5282096862793,53.77082824707031,-45.0599250793457
4.152,-2.847459077835083,-10.642078399658203,1.2897313833236694,-0.6601925492286682,-1.8393152952194214,-1.1368201971054077,-34.419761657714844,53.77082824707031,-44.4022216796875
4.162,-3.080759048461914,-10.643274307250977,1.1294121742248535,-0.7707592248916626,-1.744631052017212,-1.2625057697296143,-34.27360534667969,54.253143310546875,-44.358375549316406
4.172,-3.253042459487915,-10.55115032196045,0.7992027401924133,-0.8147415518760681,-1.6389514207839966,-1.3701707124710083,-35.15053939819336,53.68313217163086,-43.89067459106445
4.189,-3.236292600631714,-10.358529090881348,0.4833501875400543,-0.8344419598579407,-1.4645494222640991,-1.541213035583496,-36.495174407958984,54.267757415771484,-42.502193450927734
4.193,-3.1453652381896973,-10.255638122558594,0.32901307940483093,-0.8290968537330627,-1.4314099550247192,-1.5593862533569336,-36.33440399169922,53.58082580566406,-42.12218475341797
4.202,-2.9659035205841064,-10.061819076538086,-0.003589233849197626,-0.7826710939407349,-1.2971723079681396,-1.6096298694610596,-37.3867301940918,53.59543991088867,-42.73604202270508
4.212,-2.7912275791168213,-9.708877563476562,-0.26440688967704773,-0.7134906053543091,-1.1659890413284302,-1.624748706817627,-37.78135299682617,53.624671936035156,-42.15141677856445
4.222,-2.623729705810547,-9.460023880004883,-0.2141576111316681,-0.6459900140762329,-1.0157161951065063,-1.630552053451538,-38.99444580078125,53.317745208740234,-42.078338623046875
4.232,-2.3126630783081055,-9.144170761108398,-0.32183465361595154,-0.6302602291107178,-0.9049968719482422,-1.616349458694458,-39.49137496948242,52.77696990966797,-40.67523956298828
4.252,-1.612762451171875,-8.721837997436523,-0.40677982568740845,-0.5778785347938538,-0.7623597979545593,-1.5641204118728638,-40.514469146728516,52.19234085083008,-40.134464263916016
4.256,-1.576870083808899,-8.609375,-0.380458801984787,-0.5714644193649292,-0.7359398603439331,-1.5503759384155273,-40.762935638427734,51.593101501464844,-40.25138854980469
4.262,-1.4656038284301758,-8.549554824829102,-0.35054853558540344,-0.568715512752533,-0.7113525867462158,-1.5392277240753174,-42.10757064819336,51.914642333984375,-39.769073486328125
4.272,-1.246660590171814,-8.435895919799805,-0.23808583617210388,-0.5881105065345764,-0.6774495244026184,-1.5291483402252197,-41.888336181640625,52.075416564941406,-40.309852600097656
4.282,-1.0791629552841187,-8.421539306640625,-0.09451649338006973,-0.6180429458618164,-0.6875288486480713,-1.5344934463500977,-42.96989059448242,52.04618453979492,-38.73136520385742
4.292,-1.0085747241973877,-8.45743179321289,0.061016976833343506,-0.671493649482727,-0.6860016584396362,-1.5378532409667969,-44.548377990722656,51.43233108520508,-38.61444091796875
4.309,-0.891326367855072,-8.422735214233398,-0.05623133108019829,-0.7454083561897278,-0.5639813542366028,-1.492038369178772,-45.57147216796875,50.774627685546875,-37.7228889465332
4.313,-1.0193424224853516,-8.372486114501953,-0.07058826088905334,-0.7548767328262329,-0.5021312236785889,-1.47844660282135,-44.94300079345703,50.48231506347656,-38.234432220458984
4.322,-1.0432707071304321,-8.419146537780762,-0.15553347766399384,-0.7548767328262329,-0.3568980097770691,-1.4495831727981567,-46.21455764770508,50.570011138916016,-37.4451904296875
4.332,-0.9846464395523071,-8.489734649658203,-0.21176479756832123,-0.7353289723396301,-0.1924225389957428,-1.411251425743103,-46.95995330810547,49.576148986816406,-36.90441131591797
4.342,-0.7166503667831421,-8.511269569396973,-0.31824538111686707,-0.7142542004585266,-0.054825153201818466,-1.3724615573883057,-47.296112060546875,49.97077178955078,-36.69979476928711
4.361,-0.45224347710609436,-8.560322761535645,-0.3840480148792267,-0.6872233748435974,0.06887505203485489,-1.3358094692230225,-47.8807373046875,48.976905822753906,-36.539024353027344
4.365,-0.2392822504043579,-8.536395072937012,-0.5647060871124268,-0.6255260109901428,0.17440202832221985,-1.3066407442092896,-48.24612808227539,49.166908264160156,-36.451332092285156
4.372,0.044267214834690094,-8.6033935546875,-0.6173481941223145,-0.5786421298980713,0.23289236426353455,-1.2848021984100342,-48.596900939941406,48.099971771240234,-36.37825393676758
4.382,0.4833501875400543,-8.647661209106445,-0.7322037220001221,-0.5375614166259766,0.28955012559890747,-1.2510520219802856,-49.50307083129883,48.24612808227539,-36.21747970581055
4.392,0.7573283314704895,-8.714659690856934,-0.8578268885612488,-0.5117523670196533,0.30741792917251587,-1.2231049537658691,-49.839229583740234,47.89535140991211,-36.20286560058594
4.402,1.117448091506958,-8.739784240722656,-0.9571290016174316,-0.48976120352745056,0.31322115659713745,-1.1974486112594604,-50.45308303833008,47.82227325439453,-35.866703033447266
4.412,1.3866406679153442,-8.85224723815918,-1.0289136171340942,-0.4801400899887085,0.2996293902397156,-1.160185694694519,-51.0815544128418,47.39842224121094,-35.41362380981445
4.431,2.115255117416382,-9.148957252502441,-1.168893814086914,-0.5036584138870239,0.2519819140434265,-1.0545060634613037,-52.002342224121094,46.71148681640625,-35.95439910888672
4.435,2.135594129562378,-9.138189315795898,-1.1976077556610107,-0.5129740834236145,0.2393064647912979,-1.0231993198394775,-51.7392578125,46.65302658081055,-36.100555419921875
4.442,2.3306093215942383,-9.138189315795898,-1.4763715267181396,-0.5152648091316223,0.2197587788105011,-0.9711230397224426,-52.03157043457031,46.477638244628906,-35.6474723815918
4.452,2.5806589126586914,-9.269794464111328,-1.7335999011993408,-0.5022839307785034,0.1892155110836029,-0.8978191614151001,-52.25080108642578,46.21455764770508,-35.311309814453125
4.462,2.7553350925445557,-9.385847091674805,-1.9238293170928955,-0.4813618063926697,0.1618792861700058,-0.8170322775840759,-53.142356872558594,46.24378967285156,-35.545162200927734
4.481,2.904886484146118,-9.462416648864746,-2.266003131866455,-0.41233402490615845,0.1411098688840866,-0.6969972848892212,-52.718502044677734,46.03916931152344,-35.20900344848633
4.485,3.0867412090301514,-9.667003631591797,-2.407179594039917,-0.3428480923175812,0.12064588069915771,-0.5760459303855896,-52.57234573364258,45.29377365112305,-34.60976028442383
4.492,3.150151014328003,-9.786643981933594,-2.465803623199463,-0.3126102685928345,0.12767083942890167,-0.49754971265792847,-53.46390151977539,45.542240142822266,-34.902076721191406
4.502,3.3104701042175293,-10.019944190979004,-2.3772692680358887,-0.29245173931121826,0.16035212576389313,-0.38927385210990906,-53.829288482666016,45.46916198730469,-33.8643684387207
4.512,3.6526436805725098,-10.16590690612793,-2.434696912765503,-0.2973386347293854,0.18997909128665924,-0.2791654169559479,-53.59543991088867,45.32300567626953,-34.56591796875
4.522,3.985246181488037,-10.315458297729492,-2.5363919734954834,-0.2886338233947754,0.19578230381011963,-0.13805553317070007,-53.68313217163086,45.33761978149414,-34.84361267089844
4.532,4.192224979400635,-10.510473251342773,-2.585444688796997,-0.27748554944992065,0.13607022166252136,-0.04566217586398125,-53.8585205078125,44.79684066772461,-34.185909271240234
4.551,4.063012599945068,-10.846664428710938,-2.6045873165130615,-0.2791654169559479,-0.028710665181279182,0.09651671350002289,-54.32621765136719,44.86991882324219,-33.74744415283203
4.555,3.9038898944854736,-10.86461067199707,-2.664407968521118,-0.28099802136421204,-0.04963279888033867,0.10919215530157089,-54.09237289428711,44.548377990722656,-33.557437896728516
4.562,3.597608804702759,-10.786844253540039,-2.7122642993927,-0.2831360399723053,-0.10170906037092209,0.14844025671482086,-53.88775634765625,44.636070251464844,-33.425899505615234
4.572,3.174079179763794,-10.517650604248047,-3.0077779293060303,-0.2641991972923279,-0.13897183537483215,0.20555615425109863,-53.80005645751953,44.6799201965332,-33.805904388427734
4.582,2.956332206726074,-10.210174560546875,-3.211167812347412,-0.15943582355976105,-0.11499537527561188,0.3295617997646332,-53.87313461303711,45.03069305419922,-34.06898498535156
4.592,2.702692985534668,-10.669595718383789,-3.221935510635376,-0.057421330362558365,-0.0630718320608139,0.4456261694431305,-53.17158508300781,44.66530227661133,-33.83513641357422
4.605,2.709871768951416,-11.307282447814941,-3.0484561920166016,0.05421429127454758,0.039706241339445114,0.5975789427757263,-52.908504486083984,45.3814697265625,-33.9082145690918
4.612,2.8833510875701904,-11.456833839416504,-2.746960163116455,0.06994406878948212,0.1371392458677292,0.7070765495300293,-52.80619812011719,44.928382873535156,-34.142066955566406
4.622,3.0664021968841553,-11.205587387084961,-2.8211376667022705,0.018020525574684143,0.2649627923965454,0.874453604221344,-52.76234817504883,45.98070526123047,-33.995906829833984
4.632,3.018545627593994,-10.323833465576172,-3.5712878704071045,0.01710422709584236,0.3052798807621002,1.0438159704208374,-52.64542770385742,45.98070526123047,-34.551300048828125
4.642,2.657229423522949,-9.540183067321777,-3.7698919773101807,0.09498954564332962,0.2272418737411499,1.1275044679641724,-52.63081359863281,46.21455764770508,-33.32358932495117
4.662,2.310270071029663,-9.361918449401855,-3.6083762645721436,0.18677204847335815,0.1414152979850769,1.1966850757598877,-51.344635009765625,46.477638244628906,-33.425899505615234
4.665,1.412961721420288,-9.243474006652832,-2.898904800415039,0.26603180170059204,0.005345070734620094,1.2565498352050781,-51.02309036254883,47.09149169921875,-34.60976028442383
4.672,0.8003991842269897,-9.241080284118652,-2.3509480953216553,0.2623666226863861,-0.015577062964439392,1.2713632583618164,-50.540775299072266,47.25226593017578,-34.6243782043457
4.682,0.003589233849197626,-9.128618240356445,-1.8233308792114258,0.21762074530124664,0.027947084978222847,1.320690631866455,-50.263084411621094,47.70534896850586,-34.47822189331055
4.692,-0.7932206988334656,-8.85942554473877,-1.368694543838501,0.1739438772201538,0.14248430728912354,1.3651310205459595,-50.160770416259766,48.45074462890625,-34.361297607421875
4.702,-1.1521440744400024,-8.775676727294922,-1.2095718383789062,0.09208793193101883,0.2551889419555664,1.4020884037017822,-49.473838806152344,48.684593200683594,-34.916690826416016
4.712,-1.4213366508483887,-8.492127418518066,-1.5110673904418945,0.04352414980530739,0.2971859276294708,1.390481948852539,-48.9184455871582,48.83074951171875,-34.229759216308594
4.725,-1.9334007501602173,-8.298308372497559,-1.7742778062820435,0.058337628841400146,0.3045163154602051,1.344056248664856,-48.20227813720703,49.80999755859375,-34.59514617919922
4.732,-2.20737886428833,-8.292326927185059,-1.9130616188049316,0.12476921826601028,0.3168863356113434,1.2942707538604736,-47.82227325439453,49.25460433959961,-34.69745635986328
4.742,-2.5399811267852783,-8.2695951461792,-2.0171494483947754,0.22800545394420624,0.34025195240974426,1.2579243183135986,-47.661502838134766,50.11692810058594,-34.2882194519043
4.752,-2.7672994136810303,-8.373682022094727,-1.9381862878799438,0.33399054408073425,0.3695734441280365,1.2264646291732788,-47.281497955322266,50.146156311035156,-34.726688385009766
4.762,-3.036491870880127,-8.542376518249512,-1.9010975360870361,0.41233402490615845,0.4098905920982361,1.1945469379425049,-46.95995330810547,50.84770202636719,-36.18824768066406
4.782,-3.2279176712036133,-8.748159408569336,-2.0518453121185303,0.4812090992927551,0.4622722566127777,1.155909776687622,-46.02455520629883,51.03771209716797,-36.159019470214844
4.785,-3.6059837341308594,-8.965906143188477,-1.9968103170394897,0.5900958180427551,0.5954408645629883,1.0955867767333984,-45.542240142822266,51.0815544128418,-36.37825393676758
4.792,-3.765106201171875,-9.067601203918457,-1.8819550275802612,0.6203336119651794,0.70692378282547,1.0731375217437744,-45.58608627319336,51.4615592956543,-36.97748947143555
4.802,-3.8261232376098633,-9.198010444641113,-1.8831512928009033,0.6525567770004272,0.9162978529930115,1.058171272277832,-45.498390197753906,51.65156173706055,-37.62057876586914
4.812,-3.735196113586426,-9.251848220825195,-1.9334007501602173,0.6937901973724365,1.1829404830932617,1.0653489828109741,-44.621456146240234,51.87080001831055,-37.34288024902344
4.822,-3.4707889556884766,-9.354740142822266,-1.8891334533691406,0.7373143434524536,1.4485142230987549,1.0862711668014526,-43.75913619995117,51.92926025390625,-38.49751663208008
4.832,-2.9838497638702393,-9.534201622009277,-1.7670994997024536,0.7582364678382874,1.7316502332687378,1.1129964590072632,-43.75913619995117,51.783103942871094,-38.833675384521484
4.845,-2.2372889518737793,-9.68255615234375,-1.7419748306274414,0.7399104833602905,1.9506453275680542,1.1534663438796997,-43.72990417480469,52.77696990966797,-39.82753372192383
4.852,-1.5182459354400635,-9.741181373596191,-1.8281164169311523,0.7180721163749695,2.037846565246582,1.1814134120941162,-43.58374786376953,53.05466079711914,-39.91522979736328
4.862,-0.6699903011322021,-9.835697174072266,-1.9453648328781128,0.6831000447273254,2.102292776107788,1.2350168228149414,-43.59836196899414,53.30312728881836,-40.85062789916992
4.872,0.2919243574142456,-9.871589660644531,-2.0673987865448,0.6435465216636658,2.082439661026001,1.2941179275512695,-42.37065124511719,53.843902587890625,-41.02601623535156
4.882,1.015753149986267,-9.787840843200684,-2.1918253898620605,0.5859724879264832,1.9685131311416626,1.3614658117294312,-42.29757308959961,54.50160598754883,-42.18064880371094
4.901,1.6079767942428589,-9.678967475891113,-2.287538528442383,0.48349982500076294,1.7397441864013672,1.4451543092727661,-41.93218231201172,54.048526763916016,-42.6629638671875
4.905,2.26959228515625,-9.480362892150879,-2.3605194091796875,0.37980544567108154,1.4376713037490845,1.5413657426834106,-41.142940521240234,54.75007247924805,-42.76527404785156
4.912,2.317448616027832,-9.357131958007812,-2.273181438446045,0.30573806166648865,1.231046199798584,1.592373013496399,-41.17217254638672,54.676998138427734,-43.11604690551758
4.922,2.334198474884033,-9.06161880493164,-2.3401803970336914,0.19776761531829834,0.9288205504417419,1.6342172622680664,-40.017539978027344,54.954689025878906,-43.65682601928711
4.932,1.7455641031265259,-8.6033935546875,-2.495713949203491,0.11972958594560623,0.6302602291107178,1.6549867391586304,-39.1844482421875,54.79391860961914,-44.85530471801758
4.942,1.0887342691421509,-8.227720260620117,-2.468196392059326,0.06459899991750717,0.29535335302352905,1.6545284986495972,-38.40982437133789,55.30546951293945,-43.91990661621094
4.963,0.09451649338006973,-7.974081039428711,-2.3461625576019287,0.04749477282166481,0.12660181522369385,1.638645887374878,-37.57673263549805,55.71470260620117,-44.577606201171875
4.966,-0.8099704384803772,-7.860422611236572,-2.056631088256836,0.052839841693639755,0.03649919852614403,1.5960381031036377,-36.539024353027344,55.773162841796875,-44.431453704833984
4.972,-1.2957134246826172,-7.81854772567749,-1.9501503705978394,0.05665775015950203,0.04260785132646561,1.5725197792053223,-36.465946197509766,55.89009094238281,-44.50453186035156
4.982,-1.6941183805465698,-7.75633430480957,-1.9166508913040161,0.05497787147760391,0.08277223259210587,1.5092952251434326,-35.092079162597656,56.09471130371094,-44.47529983520508
4.992,-2.0518453121185303,-7.864011287689209,-1.887937068939209,0.059406641870737076,0.2295326143503189,1.432020902633667,-35.13592529296875,56.10932540893555,-43.992984771728516
5.002,-2.4777677059173584,-7.910671234130859,-1.7551352977752686,0.07559457421302795,0.4193589985370636,1.3898711204528809,-34.09821701049805,56.86933517456055,-45.24992752075195
5.021,-2.225324869155884,-7.791029930114746,-1.7742778062820435,0.1010981947183609,0.6061310172080994,1.362382173538208,-33.49897384643555,56.75241470336914,-44.84069061279297
5.025,-1.6582260131835938,-7.740781307220459,-1.7527425289154053,0.15363259613513947,0.7848091125488281,1.3512338399887085,-32.25665283203125,57.04472732543945,-45.556854248046875
5.032,-1.4500504732131958,-7.850851058959961,-1.6737794876098633,0.17959438264369965,0.8504770994186401,1.3435980081558228,-32.373573303222656,56.927799224853516,-44.76761245727539
5.042,-1.077966570854187,-8.279166221618652,-1.6079767942428589,0.1941024363040924,0.8967501521110535,1.321606993675232,-31.525867462158203,57.307804107666016,-44.022212982177734
5.052,-0.7130610942840576,-8.785247802734375,-1.6199408769607544,0.18936823308467865,0.9049968719482422,1.3101532459259033,-30.765857696533203,57.03010559082031,-45.176849365234375
5.062,-0.46779680252075195,-9.275776863098145,-1.8424733877182007,0.20265454053878784,0.8686503767967224,1.288162112236023,-30.152002334594727,57.512420654296875,-45.93686294555664
5.082,0.04905286058783531,-9.80100154876709,-2.2133607864379883,0.2382374405860901,0.7736607789993286,1.2606730461120605,-29.31891441345215,57.527042388916016,-45.65916442871094
5.085,0.28953152894973755,-9.940980911254883,-2.8007986545562744,0.33292156457901,0.45921796560287476,1.1672108173370361,-28.82198143005371,57.512420654296875,-45.732242584228516
5.092,0.4283152222633362,-10.009177207946777,-3.0317063331604004,0.3962987959384918,0.2626720666885376,1.0858129262924194,-28.13504981994629,57.83396911621094,-46.22917175292969
5.102,0.24765713512897491,-10.03310489654541,-2.860619306564331,0.45066583156585693,-0.03329215571284294,0.9640980362892151,-27.63811683654785,57.64396286010742,-46.71148681640625
5.112,-0.2464607208967209,-10.213763236999512,-2.4646072387695312,0.46181410551071167,-0.28359419107437134,0.8405505418777466,-27.24349594116211,57.35165023803711,-46.901493072509766
5.122,-1.0301101207733154,-10.432705879211426,-1.975274920463562,0.4509712755680084,-0.4213443100452423,0.7429648041725159,-26.805028915405273,57.307804107666016,-47.36919021606445
5.141,-1.9812570810317993,-10.358529090881348,-1.750349760055542,0.41263946890830994,-0.4674646258354187,0.6429356932640076,-26.32271385192871,57.27857208251953,-46.38994216918945
5.145,-3.0628130435943604,-10.016355514526367,-1.903490424156189,0.4112650156021118,-0.42409318685531616,0.4509712755680084,-25.723472595214844,57.46857452392578,-47.909969329833984
5.152,-3.4983065128326416,-9.790233612060547,-1.9405790567398071,0.4433354437351227,-0.35353827476501465,0.34865131974220276,-26.0304012298584,57.103187561035156,-47.61765670776367
5.162,-3.8356947898864746,-9.722038269042969,-1.9692928791046143,0.5013676285743713,-0.22403483092784882,0.2142609804868698,-25.548086166381836,57.43934631347656,-47.8807373046875
5.172,-3.6251261234283447,-9.943374633789062,-1.8424733877182007,0.5694791078567505,-0.07635815441608429,0.08414668589830399,-25.109615325927734,57.05934143066406,-47.98304748535156
5.182,-3.2590243816375732,-10.479366302490234,-1.5553346872329712,0.6185010671615601,0.06551529467105865,-0.026114489883184433,-25.650394439697266,57.527042388916016,-49.06460189819336
5.202,-2.66560435295105,-11.44965648651123,-1.046859860420227,0.6327036619186401,0.14874568581581116,-0.11804971098899841,-25.796550750732422,57.117801666259766,-48.34843444824219
5.205,-1.9992032051086426,-12.568300247192383,-0.47018963098526,0.5703954100608826,0.11820242553949356,-0.20341812074184418,-26.147327423095703,57.90704345703125,-48.5384407043457
5.212,-1.971685767173767,-12.979866027832031,-0.6819544434547424,0.5102251768112183,0.05314527824521065,-0.26450464129447937,-25.752704620361328,57.98012161254883,-49.12306213378906
5.222,-1.7922240495681763,-13.111471176147461,-1.3244272470474243,0.4179845154285431,-0.12965615093708038,-0.3904955983161926,-25.50423812866211,58.02397155761719,-49.80999755859375
5.232,-1.4452649354934692,-12.025130271911621,-1.9992032051086426,0.35216379165649414,-0.314442902803421,-0.48319438099861145,-26.556564331054688,58.155513763427734,-49.10844802856445
5.242,-1.5457634925842285,-12.300304412841797,-2.2205393314361572,0.33139437437057495,-0.47510045766830444,-0.5539020299911499,-26.61502456665039,57.717044830322266,-50.5992431640625
5.262,-1.5852450132369995,-11.94497013092041,-2.128415822982788,0.28588491678237915,-0.6209444999694824,-0.5664247870445251,-26.717334747314453,58.170127868652344,-50.07307434082031
5.265,-2.100898265838623,-11.156535148620605,-1.5948163270950317,0.24678955972194672,-0.7095199823379517,-0.5722280144691467,-26.96579933166504,58.90090560913086,-50.81847381591797
5.272,-2.396411657333374,-10.85145092010498,-1.2897313833236694,0.2151772677898407,-0.7418957948684692,-0.5960517525672913,-27.141185760498047,58.79859924316406,-50.48231506347656
5.282,-2.757727861404419,-10.666006088256836,-0.9260223507881165,0.1563815027475357,-0.7787004113197327,-0.666454017162323,-26.746564865112305,58.857059478759766,-50.993858337402344
5.292,-2.8247268199920654,-10.62532901763916,-0.6436693072319031,0.06841690838336945,-0.7982481718063354,-0.7590000629425049,-27.62350082397461,58.38935852050781,-50.45308303833008
5.302,-2.548356056213379,-10.701899528503418,-0.4785645008087158,-0.06933320313692093,-0.824362576007843,-0.864679753780365,-27.930429458618164,58.550132751464844,-51.388484954833984
5.321,-1.7778671979904175,-10.852646827697754,-0.45224347710609436,-0.18280142545700073,-0.8929322957992554,-0.9283624291419983,-28.456592559814453,58.3747444152832,-51.06694030761719
5.325,-1.038485050201416,-10.791630744934082,-0.4307080805301666,-0.312304824590683,-1.0746647119522095,-0.9737191796302795,-29.36275863647461,58.243202209472656,-50.70154571533203
5.332,-0.7573283314704895,-10.674381256103516,-0.38165518641471863,-0.3868303894996643,-1.226770043373108,-0.9897544384002686,-29.845073699951172,58.550132751464844,-50.263084411621094
5.342,-0.647258460521698,-10.438688278198242,-0.25722840428352356,-0.48884493112564087,-1.4509576559066772,-1.0080803632736206,-30.56123924255371,59.12014389038086,-49.795379638671875
5.352,-0.7920242547988892,-10.232906341552734,-0.09810572117567062,-0.6206390857696533,-1.721265435218811,-1.042746901512146,-30.049694061279297,58.21397399902344,-49.766151428222656
5.362,-1.179661512374878,-9.979266166687012,0.11365906894207001,-0.7243334650993347,-1.8978055715560913,-1.0760390758514404,-31.525867462158203,58.50628662109375,-48.9184455871582
5.382,-1.643869161605835,-9.882357597351074,0.3122633397579193,-0.8219191431999207,-2.0392208099365234,-1.1091785430908203,-31.438175201416016,58.76936340332031,-48.5384407043457
5.385,-2.3234305381774902,-9.980463027954102,0.5383850932121277,-0.9240863919258118,-2.1616992950439453,-1.169501543045044,-32.5051155090332,58.433204650878906,-47.98304748535156
5.392,-2.7553350925445557,-10.071390151977539,0.607776939868927,-0.9744827747344971,-2.202627182006836,-1.2144001722335815,-32.943580627441406,58.19935607910156,-47.354576110839844
5.402,-3.3475589752197266,-10.170692443847656,0.6448656916618347,-1.0432051420211792,-2.222175121307373,-1.3167200088500977,-33.70359420776367,58.40397644042969,-46.4191780090332
5.412,-4.006781578063965,-10.103693962097168,0.6269195079803467,-1.091310739517212,-2.1844542026519775,-1.4231632947921753,-34.08360290527344,58.243202209472656,-45.4399299621582
5.422,-4.6061835289001465,-9.865607261657715,0.41036906838417053,-1.1200214624404907,-2.0893118381500244,-1.5500705242156982,-34.85823059082031,58.33089828491211,-44.16836929321289
5.441,-4.9052863121032715,-9.505488395690918,0.0813559740781784,-1.095739483833313,-1.9245309829711914,-1.6924021244049072,-35.76439666748047,57.87781524658203,-42.85296630859375
5.445,-5.01296329498291,-9.188438415527344,0.10887342691421509,-1.0560332536697388,-1.6924021244049072,-1.8555032014846802,-36.422096252441406,57.86320114135742,-42.95527648925781
5.458,-4.969892501831055,-8.827122688293457,-0.02153540402650833,-1.036027431488037,-1.2945761680603027,-1.9836320877075195,-37.32826614379883,57.366268157958984,-41.99064636230469
5.462,-4.723431587219238,-8.757730484008789,-0.1339980661869049,-1.0209085941314697,-1.1386528015136719,-2.0062341690063477,-38.43905258178711,57.22011184692383,-42.10757064819336
5.472,-4.086941242218018,-8.598608016967773,-0.2069791555404663,-0.9863946437835693,-0.8477282524108887,-2.0089828968048096,-39.11137008666992,57.04472732543945,-40.879859924316406
5.482,-3.43489670753479,-8.432307243347168,-0.4749752879142761,-0.9419541954994202,-0.6117815375328064,-1.9677497148513794,-40.38292694091797,57.08857345581055,-40.689857482910156
5.492,-2.8390841484069824,-8.175078392028809,-0.4905286133289337,-0.888350784778595,-0.48456883430480957,-1.9422460794448853,-40.894474029541016,56.28471374511719,-39.973690032958984
5.502,-2.2600209712982178,-8.044669151306152,-0.09930214285850525,-0.8860600590705872,-0.41722097992897034,-1.9465219974517822,-41.639869689941406,56.47471618652344,-39.155216217041016
5.523,-1.4787644147872925,-7.700103282928467,-0.41036906838417053,-0.9783006906509399,-0.13255774974822998,-1.8947511911392212,-43.23297119140625,55.87547302246094,-38.585208892822266
5.526,-1.2490533590316772,-7.808976650238037,-0.5048855543136597,-0.9769262671470642,-0.06719517707824707,-1.8791741132736206,-43.876060485839844,55.30546951293945,-38.29289627075195
5.532,-0.8865407705307007,-7.89631462097168,-0.6508477926254272,-0.9703594446182251,-0.016340645030140877,-1.8594738245010376,-43.91990661621094,55.14469909667969,-37.649810791015625
5.542,-0.3278166949748993,-8.086544036865234,-0.8877371549606323,-0.9381362795829773,0.03878994286060333,-1.8241963386535645,-45.235313415527344,54.50160598754883,-38.04443359375
5.552,-0.08015955239534378,-8.244470596313477,-0.9523433446884155,-0.9089674949645996,0.029016099870204926,-1.7945693731307983,-46.316864013671875,54.39929962158203,-37.211341857910156
5.562,0.08614161610603333,-8.374878883361816,-0.989432156085968,-0.9007207751274109,0.005192354787141085,-1.7736471891403198,-46.872257232666016,53.77082824707031,-36.100555419921875
5.581,0.20458632707595825,-8.660820960998535,-0.6711867451667786,-0.9611964225769043,-0.01863138936460018,-1.7618881464004517,-48.43613052368164,52.76234817504883,-35.2674674987793
5.585,0.3517449200153351,-8.685946464538574,-0.7668996453285217,-0.9863946437835693,0.005192354787141085,-1.7545576095581055,-48.479976654052734,52.76234817504883,-34.902076721191406
5.592,0.4618147313594818,-8.662017822265625,-0.9320043921470642,-1.0114400386810303,0.034666601568460464,-1.7466164827346802,-49.239986419677734,52.733116149902344,-35.311309814453125
5.602,0.48574298620224,-8.585447311401367,-1.1282157897949219,-1.0059423446655273,0.0985020250082016,-1.7385224103927612,-50.17538833618164,52.513885498046875,-34.361297607421875
5.612,0.6975077390670776,-8.490930557250977,-1.4859428405761719,-0.944855809211731,0.19837848842144012,-1.7121025323867798,-50.83308792114258,51.710025787353516,-33.83513641357422
5.622,0.794417142868042,-8.405985832214355,-1.7958134412765503,-0.863457977771759,0.2765692174434662,-1.6870570182800293,-51.4615592956543,51.33001708984375,-33.995906829833984
5.641,1.3363914489746094,-8.49571704864502,-2.1164515018463135,-0.6666066646575928,0.3530800938606262,-1.6276503801345825,-52.8208122253418,49.97077178955078,-33.10435485839844
5.645,1.4416755437850952,-8.58664321899414,-2.043470621109009,-0.6455318927764893,0.352011114358902,-1.6209309101104736,-52.99620056152344,49.576148986816406,-32.84127426147461
5.653,1.6941183805465698,-8.812766075134277,-1.8927226066589355,-0.6065891981124878,0.3478877544403076,-1.5989397764205933,-53.741600036621094,49.41537857055664,-33.64513397216797
5.662,2.0207386016845703,-9.152545928955078,-1.8388842344284058,-0.5726861357688904,0.3344487249851227,-1.5528194904327393,-54.50160598754883,49.06460189819336,-33.586673736572266
5.672,2.44785737991333,-9.481559753417969,-1.7850456237792969,-0.5668829083442688,0.32360586524009705,-1.497994303703308,-55.071617126464844,48.099971771240234,-33.39666748046875
5.682,2.709871768951416,-9.66221809387207,-1.9130616188049316,-0.5719225406646729,0.31841349601745605,-1.4196507930755615,-55.46623992919922,47.95381546020508,-32.622039794921875
5.701,3.293720245361328,-9.879964828491211,-2.5710878372192383,-0.5093088746070862,0.3275764584541321,-1.2084441184997559,-56.2993278503418,47.281497955322266,-32.46126937866211
5.705,3.335594892501831,-9.868000030517578,-2.6273193359375,-0.4918992221355438,0.3263547420501709,-1.1772900819778442,-56.78164291381836,46.71148681640625,-32.490501403808594
5.712,3.5748770236968994,-9.858428955078125,-2.840280294418335,-0.4184426963329315,0.317497193813324,-1.042746901512146,-57.000877380371094,47.09149169921875,-32.08126449584961
5.722,3.972085475921631,-9.58923625946045,-3.3367910385131836,-0.3136793076992035,0.2967277765274048,-0.8801040649414062,-57.58550262451172,46.360713958740234,-32.373573303222656
5.732,4.369294166564941,-9.290133476257324,-3.55932354927063,-0.1635591685771942,0.25854870676994324,-0.6795875430107117,-57.541656494140625,45.93686294555664,-32.28588104248047
5.742,4.697110652923584,-9.247062683105469,-3.489931583404541,-0.012064589187502861,0.20357082784175873,-0.46547931432724,-57.98012161254883,45.90762710571289,-32.46126937866211
5.756,4.938785552978516,-9.332008361816406,-3.376272678375244,0.15256358683109283,0.031612277030944824,-0.17608189582824707,-58.38935852050781,46.06840133666992,-32.63665771484375
5.762,4.947160720825195,-9.389435768127441,-3.3678977489471436,0.21624629199504852,-0.07819075137376785,-0.04184426739811897,-58.170127868652344,45.98070526123047,-32.15433883666992
5.772,5.209174633026123,-9.68375301361084,-2.66560435295105,0.26832255721092224,-0.19608773291110992,0.20784689486026764,-58.4185905456543,45.8199348449707,-31.335866928100586
5.782,5.084747791290283,-10.238887786865234,-2.0470597743988037,0.19394971430301666,-0.2742784917354584,0.48090362548828125,-58.667057037353516,46.06840133666992,-32.09587860107422
5.792,4.2006001472473145,-10.249655723571777,-2.1104695796966553,0.04902193322777748,-0.42302414774894714,0.6359107494354248,-57.35165023803711,46.287635803222656,-32.66588592529297
5.802,2.7768707275390625,-9.810572624206543,-2.273181438446045,-0.1014036312699318,-0.5998696684837341,0.645073652267456,-57.68781280517578,46.4191780090332,-31.408945083618164
5.821,0.08733802288770676,-9.4660062789917,-3.6335010528564453,-0.14706581830978394,-0.3897320032119751,0.6055201292037964,-56.85471725463867,46.95995330810547,-31.49663734436035
5.825,-0.30628129839897156,-9.460023880004883,-3.9625141620635986,-0.08735372871160507,-0.2151772677898407,0.6198754906654358,-57.117801666259766,46.56533432006836,-31.55510139465332
5.832,-0.5144568085670471,-9.416953086853027,-4.390829086303711,0.031154125928878784,0.08109235763549805,0.6710354089736938,-57.117801666259766,46.726104736328125,-31.81818199157715
5.842,-0.19381862878799438,-9.340383529663086,-4.567898273468018,0.22831088304519653,0.4505131244659424,0.7799221873283386,-56.27009963989258,47.07687759399414,-31.74510383605957
5.852,0.5132604241371155,-9.329615592956543,-4.321437358856201,0.41722097992897034,0.6513350009918213,0.8703302145004272,-55.977787017822266,46.857643127441406,-31.584331512451172
5.871,1.4141581058502197,-9.8931245803833,-3.2027928829193115,0.5352706909179688,0.696539044380188,0.9535605907440186,-55.802398681640625,47.07687759399414,-32.25665283203125
5.875,2.400001049041748,-10.655238151550293,-1.9369899034500122,0.4479169249534607,0.5858197212219238,1.058171272277832,-55.363929748535156,47.71996307373047,-33.002044677734375
5.882,2.5088744163513184,-10.371689796447754,-1.6271193027496338,0.3543018102645874,0.48869219422340393,1.0958921909332275,-55.14469909667969,48.085357666015625,-33.30897521972656
5.892,1.8257235288619995,-9.68255615234375,-1.5828521251678467,0.22311851382255554,0.35384368896484375,1.114981770515442,-54.5600700378418,48.114585876464844,-33.19205093383789
5.902,0.7405785322189331,-8.890532493591309,-1.8891334533691406,0.13377948105335236,0.2496911585330963,1.109636664390564,-54.3408317565918,49.2984504699707,-33.557437896728516
5.912,-0.3565305471420288,-8.304290771484375,-2.2444677352905273,0.12507465481758118,0.1895209401845932,1.0951286554336548,-53.30312728881836,49.166908264160156,-34.56591796875
5.922,-1.2957134246826172,-8.160720825195312,-2.47896409034729,0.22418753802776337,0.15653420984745026,1.0806206464767456,-53.37620544433594,49.649227142333984,-33.39666748046875
5.941,-2.228914260864258,-8.896513938903809,-2.5710878372192383,0.4378376603126526,0.22876903414726257,1.1175779104232788,-53.06927490234375,49.766151428222656,-33.45513153076172
5.945,-2.334198474884033,-9.154938697814941,-2.551945447921753,0.4960225820541382,0.2649627923965454,1.1244500875473022,-52.923118591308594,50.555397033691406,-33.93744659423828
5.952,-2.4370899200439453,-9.4660062789917,-2.513659954071045,0.5754350423812866,0.317497193813324,1.1412489414215088,-52.090030670166016,49.7223014831543,-33.922828674316406
5.962,-2.5220348834991455,-9.723234176635742,-2.4849462509155273,0.6688974499702454,0.4011857509613037,1.1398744583129883,-51.4615592956543,50.62847137451172,-34.2882194519043
5.972,-2.603391170501709,-9.81655502319336,-2.662015199661255,0.7993171811103821,0.5164865851402283,1.109636664390564,-51.49079132080078,50.92078399658203,-35.25284957885742
5.982,-2.702692985534668,-10.04985523223877,-2.660818576812744,0.9092729091644287,0.6307183504104614,1.0906999111175537,-51.12540054321289,51.7392578125,-35.77901077270508
5.996,-3.0041887760162354,-10.26640510559082,-2.620140552520752,1.0125091075897217,0.8139779567718506,1.0868819952011108,-50.21923065185547,52.19234085083008,-36.451332092285156
6.002,-3.22552490234375,-10.344171524047852,-2.493321180343628,1.056644082069397,0.9589056968688965,1.1012372970581055,-50.13154220581055,52.19234085083008,-36.88979721069336
6.012,-3.4121649265289307,-10.388439178466797,-2.335394859313965,1.0768027305603027,1.2096657752990723,1.1429288387298584,-49.50307083129883,52.04618453979492,-38.13212585449219
6.022,-3.427718162536621,-10.405189514160156,-2.100898265838623,1.0621418952941895,1.5798503160476685,1.2194397449493408,-49.32768249511719,53.34697341918945,-39.5059928894043
6.032,-2.987438917160034,-10.327422142028809,-1.7970097064971924,1.0245736837387085,1.8690948486328125,1.2895365953445435,-49.166908264160156,53.244667053222656,-39.87138366699219
6.042,-2.2707886695861816,-10.24487018585205,-1.6857434511184692,0.9703594446182251,2.108401298522949,1.3698652982711792,-48.88921356201172,54.443145751953125,-40.85062789916992
6.056,-1.2071789503097534,-10.065407752990723,-1.6235301494598389,0.8639161586761475,2.3154845237731934,1.503339409828186,-48.099971771240234,54.662376403808594,-42.35603332519531
6.062,-0.5228317379951477,-9.93140983581543,-1.6342978477478027,0.8231408596038818,2.339613914489746,1.5503759384155273,-47.924583435058594,54.72084426879883,-42.809120178222656
6.072,0.34695929288864136,-9.835697174072266,-1.6773686408996582,0.7012733221054077,2.2763893604278564,1.6643023490905762,-46.872257232666016,55.11546325683594,-43.52528381347656
6.082,1.164108157157898,-9.686145782470703,-1.7802599668502808,0.5929974317550659,2.1481075286865234,1.7470744848251343,-46.550716400146484,55.53931427001953,-43.7006721496582
6.092,1.781456470489502,-9.537790298461914,-1.798206090927124,0.48349982500076294,1.940260648727417,1.8191567659378052,-45.58608627319336,55.68547058105469,-44.38760757446289
6.102,2.0745770931243896,-9.443273544311523,-1.8245272636413574,0.37690383195877075,1.69622004032135,1.8807013034820557,-44.72376251220703,55.89009094238281,-44.928382873535156
6.118,2.166700839996338,-9.312865257263184,-1.8376877307891846,0.18478672206401825,1.2185235023498535,1.9596556425094604,-43.65682601928711,56.53317642211914,-45.615318298339844
6.123,2.056631088256836,-9.28893756866455,-1.8891334533691406,0.1371392458677292,1.0932960510253906,1.9746217727661133,-42.823734283447266,56.313941955566406,-45.27915573120117
6.132,1.5086746215820312,-9.022137641906738,-1.9824535846710205,0.05757404863834381,0.8764389157295227,1.9969184398651123,-41.53756332397461,56.6354866027832,-46.097633361816406
6.142,0.9619146585464478,-8.733802795410156,-1.9597216844558716,0.0027488935738801956,0.698066234588623,2.012342929840088,-40.879859924316406,56.810874938964844,-45.761470794677734
6.152,0.348155677318573,-8.538786888122559,-1.92741858959198,-0.03680463135242462,0.584750771522522,2.0195205211639404,-40.23677444458008,57.14703369140625,-46.44840621948242
6.171,-0.234496608376503,-8.46341323852539,-1.7778671979904175,-0.04199698567390442,0.5754350423812866,2.029447078704834,-39.023677825927734,57.26395797729492,-46.375328063964844
6.175,-0.7740780711174011,-8.218149185180664,-1.605583906173706,-0.019089538604021072,0.6412557363510132,2.034944772720337,-37.37211227416992,57.497806549072266,-45.68839645385742
6.182,-1.0671988725662231,-8.224130630493164,-1.5756735801696777,0.0019853119738399982,0.7134906053543091,2.020742177963257,-37.035953521728516,57.746273040771484,-46.25840377807617
6.192,-1.2275179624557495,-8.672784805297852,-1.2299107313156128,0.013439035043120384,0.835358202457428,2.004707098007202,-35.50131607055664,57.65857696533203,-46.521484375
6.202,-1.234696388244629,-8.861818313598633,-1.2526426315307617,-0.00809396430850029,0.944244921207428,1.9753854274749756,-34.21514129638672,58.155513763427734,-46.95995330810547
6.212,-1.0600204467773438,-8.884550094604492,-1.5625131130218506,0.0088575454428792,1.024420976638794,1.923156499862671,-33.77667236328125,57.84858322143555,-46.24378967285156
6.222,-1.0971091985702515,-8.860621452331543,-1.6043875217437744,0.04596760869026184,1.0697777271270752,1.8866573572158813,-32.5489616394043,58.19935607910156,-46.69687271118164
6.236,-0.94037926197052,-8.689535140991211,-1.956132411956787,0.0754418596625328,1.106735110282898,1.7872389554977417,-31.423559188842773,57.79011917114258,-47.07687759399414
6.242,-0.9284151792526245,-8.584251403808594,-2.14516544342041,0.10903944075107574,1.1094839572906494,1.7285959720611572,-31.014324188232422,58.52090072631836,-46.930721282958984
6.252,-0.8961120247840881,-8.670392990112305,-2.2396819591522217,0.15195272862911224,1.112691044807434,1.6490306854248047,-30.44431495666504,58.7547492980957,-46.57994842529297
6.262,-0.43549370765686035,-9.035297393798828,-2.1930220127105713,0.17348572611808777,1.0772608518600464,1.5760324001312256,-28.924291610717773,59.19321823120117,-46.22917175292969
6.272,-0.25244277715682983,-9.430113792419434,-2.194218397140503,0.18249599635601044,1.0461066961288452,1.5265522003173828,-28.60274887084961,58.59397506713867,-46.50687026977539
6.291,0.09930214285850525,-9.804591178894043,-2.139183282852173,0.1895209401845932,0.95462965965271,1.4918856620788574,-27.930429458618164,59.16398620605469,-47.60304260253906
6.295,0.348155677318573,-10.295119285583496,-1.765903115272522,0.14034628868103027,0.7857254147529602,1.4530956745147705,-26.775794982910156,58.243202209472656,-47.1207275390625
6.302,0.35892340540885925,-10.417153358459473,-1.9190436601638794,0.09972374886274338,0.6829473376274109,1.4286609888076782,-26.834259033203125,58.27243423461914,-47.82227325439453
6.312,0.30628129839897156,-10.405189514160156,-2.3784656524658203,0.08689558506011963,0.5664247870445251,1.4092661142349243,-25.694242477416992,58.49167251586914,-48.69921112060547
6.322,-0.07178467512130737,-10.237690925598145,-2.7218358516693115,0.11972958594560623,0.44455718994140625,1.384526014328003,-24.904998779296875,58.477054595947266,-48.17304992675781
6.332,-0.5515456199645996,-10.284351348876953,-2.803191661834717,0.1820378452539444,0.3269656002521515,1.3442089557647705,-24.32037353515625,58.243202209472656,-47.61765670776367
6.342,-0.7740780711174011,-10.628917694091797,-2.4502503871917725,0.2021963894367218,0.23182335495948792,1.2718214988708496,-23.618824005126953,58.53551483154297,-47.500728607177734
6.355,-1.1198409795761108,-10.689935684204102,-2.24566388130188,0.1869247555732727,0.1543961763381958,1.1259772777557373,-22.624963760375977,58.57936096191406,-47.9391975402832
6.362,-1.2981061935424805,-10.64447021484375,-2.321038007736206,0.19089537858963013,0.13469578325748444,1.036027431488037,-21.879568099975586,58.0385856628418,-47.456886291503906
6.372,-1.2083754539489746,-10.612168312072754,-2.2815563678741455,0.20983220636844635,0.12767083942890167,0.9305005073547363,-21.8503360748291,58.0970458984375,-48.07073974609375
6.382,-1.5074782371520996,-10.472187995910645,-2.3497517108917236,0.25244006514549255,0.16600261628627777,0.8061894178390503,-21.66033363342285,58.667057037353516,-47.471500396728516
6.392,-1.2023932933807373,-10.803593635559082,-2.2121644020080566,0.2915354371070862,0.18814648687839508,0.7055493593215942,-20.944168090820312,57.65857696533203,-47.89535140991211
6.402,-0.4163511395454407,-11.467601776123047,-1.9262220859527588,0.29886582493782043,0.09957103431224823,0.5943718552589417,-20.798011779785156,57.90704345703125,-48.8599853515625
6.415,-0.4342972934246063,-12.284750938415527,-1.3722838163375854,0.29535335302352905,-0.16951508820056915,0.4470006227493286,-20.052616119384766,58.08243179321289,-48.5384407043457
6.422,-0.7405785322189331,-12.786046981811523,-1.0947163105010986,0.2672535479068756,-0.3323107063770294,0.3572034239768982,-20.2718505859375,57.746273040771484,-48.611515045166016
6.432,-1.636690616607666,-12.996615409851074,-1.262213945388794,0.16768251359462738,-0.5862779021263123,0.15042555332183838,-19.774919509887695,57.77550506591797,-49.605377197265625
6.442,-2.362912178039551,-12.368499755859375,-1.8245272636413574,0.10842858254909515,-0.7481572031974792,-0.05925392732024193,-19.7310733795166,57.950889587402344,-48.72844314575195
6.452,-2.715853691101074,-11.2366943359375,-2.2815563678741455,0.08521570265293121,-0.9301950335502625,-0.266184538602829,-19.46799087524414,57.77550506591797,-48.75767135620117
6.471,-2.8390841484069824,-10.730612754821777,-2.266003131866455,0.1189659982919693,-1.093143343925476,-0.41951167583465576,-20.09646224975586,58.053199768066406,-48.669979095458984
6.475,-2.816352128982544,-10.453045845031738,-1.7204394340515137,0.1459967941045761,-1.2409727573394775,-0.52702397108078,-20.476469039916992,58.140892028808594,-48.684593200683594
6.482,-2.898904800415039,-10.213763236999512,-1.4859428405761719,0.12538009881973267,-1.3118330240249634,-0.5694791078567505,-20.63724136352539,58.0970458984375,-48.8599853515625
6.492,-3.2338995933532715,-9.745965957641602,-1.3651052713394165,0.06169738993048668,-1.420719861984253,-0.6606507897377014,-20.754165649414062,58.06781768798828,-48.5822868347168
6.502,-3.6849467754364014,-9.28893756866455,-1.3627125024795532,-0.009010262787342072,-1.5007431507110596,-0.775340735912323,-21.689563751220703,58.345516204833984,-49.6784553527832
6.512,-3.710071325302124,-9.22433090209961,-1.2263215780258179,-0.0910189226269722,-1.593900203704834,-0.9222537875175476,-21.704179763793945,57.950889587402344,-48.90382766723633
6.522,-3.4671998023986816,-9.329615592956543,-0.9044869542121887,-0.1823432743549347,-1.7096590995788574,-1.0644326210021973,-22.332651138305664,58.3747444152832,-49.48845672607422
6.539,-2.9862425327301025,-9.603592872619629,-0.17228323221206665,-0.36254850029945374,-1.9772180318832397,-1.2690725326538086,-23.151124954223633,58.0385856628418,-48.37766647338867
6.542,-2.9443681240081787,-9.65982437133789,-0.08733802288770676,-0.4222606122493744,-2.0621283054351807,-1.320690631866455,-23.56036376953125,57.760887145996094,-48.465362548828125
6.552,-2.898904800415039,-9.719645500183105,0.2991028130054474,-0.5479460954666138,-2.216677188873291,-1.4159855842590332,-23.896520614624023,57.86320114135742,-48.026893615722656
6.562,-2.974278450012207,-9.742377281188965,0.4833501875400543,-0.6753115057945251,-2.34786057472229,-1.505935549736023,-24.75884246826172,57.98012161254883,-48.099971771240234
6.572,-3.238685369491577,-9.713663101196289,0.5491527915000916,-0.783892810344696,-2.45674729347229,-1.6041321754455566,-25.358083724975586,57.936275482177734,-46.81379699707031
6.591,-3.665804386138916,-9.734002113342285,0.7896314859390259,-0.8807149529457092,-2.5331053733825684,-1.7134770154953003,-26.249635696411133,57.83396911621094,-47.36919021606445
6.595,-4.2963128089904785,-9.873982429504395,1.0085747241973877,-1.0261008739471436,-2.5778512954711914,-1.908037543296814,-28.13504981994629,57.65857696533203,-45.39608383178711
6.602,-4.707878589630127,-10.076175689697266,1.093519926071167,-1.078940749168396,-2.5525002479553223,-2.02120041847229,-27.959659576416016,57.80473327636719,-45.118385314941406
6.612,-5.050052165985107,-10.277173042297363,1.3028918504714966,-1.154382586479187,-2.471255302429199,-2.1655170917510986,-28.9096736907959,57.61473083496094,-44.75299835205078
6.622,-5.298905849456787,-10.283154487609863,1.1784651279449463,-1.236543893814087,-2.325105905532837,-2.2933406829833984,-30.181232452392578,57.541656494140625,-43.77375030517578
6.632,-5.375475883483887,-10.108478546142578,0.8147560954093933,-1.2783881425857544,-2.1178698539733887,-2.4045183658599854,-31.394329071044922,57.19087600708008,-43.51066970825195
6.642,-5.3276190757751465,-9.858428955078125,0.3936192989349365,-1.2776246070861816,-1.82572340965271,-2.512794256210327,-32.5489616394043,57.35165023803711,-42.809120178222656
6.656,-4.977071285247803,-9.247062683105469,-0.43549370765686035,-1.2240211963653564,-1.523956060409546,-2.5839600563049316,-34.06898498535156,57.22011184692383,-41.37678909301758
6.662,-4.7796630859375,-8.868996620178223,-0.7716853022575378,-1.1519391536712646,-1.3655892610549927,-2.629316568374634,-34.58053207397461,56.95703125,-40.64601135253906
6.672,-4.208974838256836,-8.630910873413086,-0.5359922647476196,-1.0740537643432617,-1.1934778690338135,-2.6696338653564453,-35.530548095703125,56.44548416137695,-39.769073486328125
6.682,-3.700500249862671,-8.434700012207031,-0.4462614059448242,-1.042594313621521,-1.0100656747817993,-2.668259382247925,-37.13826370239258,56.46010208129883,-39.75445556640625
6.692,-3.1058835983276367,-8.389235496520996,-0.519242525100708,-0.9955576062202454,-0.7437283992767334,-2.623971700668335,-38.13212585449219,56.182403564453125,-39.023677825927734
6.702,-2.660818576812744,-8.35453987121582,-0.6484549045562744,-0.932485818862915,-0.5158756971359253,-2.5694518089294434,-39.65214920043945,55.597774505615234,-37.62057876586914
6.717,-2.0063817501068115,-8.303093910217285,-0.7932206988334656,-0.8484918475151062,-0.2538144886493683,-2.4836254119873047,-41.36217498779297,54.82314682006836,-38.029815673828125
6.723,-1.6857434511184692,-8.330612182617188,-0.662811815738678,-0.8290968537330627,-0.19394971430301666,-2.4727823734283447,-41.55217742919922,54.38468551635742,-36.729026794433594
6.733,-1.6151552200317383,-8.210970878601074,-0.4259223937988281,-0.8327620029449463,-0.13698652386665344,-2.4827089309692383,-42.35603332519531,54.38468551635742,-36.71440887451172
6.742,-1.2885348796844482,-8.030312538146973,-0.2021934986114502,-0.8749117255210876,-0.08277223259210587,-2.5117251873016357,-43.802982330322266,53.94621658325195,-36.23209762573242
6.752,-1.0959126949310303,-7.904689311981201,-0.1423729509115219,-0.9161451458930969,-0.018478674814105034,-2.5048530101776123,-45.235313415527344,53.17158508300781,-36.80210494995117
6.772,-0.9212366938591003,-8.025527000427246,-0.30987051129341125,-0.9399688839912415,0.10949759185314178,-2.47094988822937,-46.02455520629883,53.06927490234375,-36.20286560058594
6.775,-0.2823530435562134,-8.153542518615723,-0.7716853022575378,-0.8964447379112244,0.2848159074783325,-2.411848783493042,-47.60304260253906,51.84156799316406,-34.726688385009766
6.782,0.06580261886119843,-8.244470596313477,-0.8685945868492126,-0.8411614298820496,0.35873058438301086,-2.3800835609436035,-48.45074462890625,51.213096618652344,-34.06898498535156
6.792,0.5108676552772522,-8.331808090209961,-1.046859860420227,-0.7901541590690613,0.38728857040405273,-2.3487768173217773,-49.31306457519531,50.89155578613281,-34.741302490234375
6.802,1.0492527484893799,-8.359325408935547,-1.3375877141952515,-0.7417430877685547,0.36422839760780334,-2.306168794631958,-50.62847137451172,50.13154220581055,-34.52206802368164
6.812,1.3986047506332397,-8.511269569396973,-1.4919248819351196,-0.6945537328720093,0.30405816435813904,-2.2707386016845703,-51.31540298461914,49.210758209228516,-34.09821701049805
6.822,1.5553346872329712,-8.691927909851074,-1.4309078454971313,-0.6818782687187195,0.2379319965839386,-2.230268955230713,-52.74773406982422,48.494590759277344,-33.820518493652344
6.835,1.8580267429351807,-9.020940780639648,-1.6342978477478027,-0.656069278717041,0.2588541507720947,-2.125200033187866,-53.71236038208008,47.51534652709961,-33.71821212768555
6.842,2.069791555404663,-9.074779510498047,-1.8257235288619995,-0.628885805606842,0.2785545587539673,-2.057852268218994,-54.39929962158203,47.237648010253906,-33.177433013916016
6.852,2.2803597450256348,-9.028119087219238,-2.076970100402832,-0.5578727126121521,0.30970868468284607,-1.9391916990280151,-54.50160598754883,46.126861572265625,-33.11897277832031
6.862,2.5674986839294434,-9.117850303649902,-2.2815563678741455,-0.5061018466949463,0.27809640765190125,-1.8504635095596313,-55.758548736572266,46.60917663574219,-33.791290283203125
6.872,2.8666014671325684,-9.183652877807617,-2.361715793609619,-0.47540587186813354,0.23151792585849762,-1.7576119899749756,-56.211631774902344,45.52762222290039,-32.11049270629883
6.892,3.321237564086914,-9.142974853515625,-2.6524438858032227,-0.44516804814338684,0.20005835592746735,-1.637271523475647,-57.000877380371094,45.33761978149414,-33.22127914428711
6.895,3.6873395442962646,-8.940781593322754,-2.63449764251709,-0.4112650156021118,0.15027284622192383,-1.429577350616455,-57.68781280517578,43.91990661621094,-33.01666259765625
6.902,3.8141591548919678,-8.831908226013184,-2.585444688796997,-0.39446622133255005,0.15302173793315887,-1.303586483001709,-58.59397506713867,43.466819763183594,-33.48435974121094
6.912,4.0450663566589355,-8.847461700439453,-2.6081764698028564,-0.3669773042201996,0.17623461782932281,-1.1267409324645996,-58.3747444152832,42.896812438964844,-32.35895919799805
6.922,4.205385684967041,-8.994619369506836,-2.7397818565368652,-0.33017265796661377,0.22189679741859436,-0.9488264322280884,-59.237064361572266,43.33528137207031,-32.28588104248047
6.932,4.459024906158447,-9.148957252502441,-2.8893332481384277,-0.28420504927635193,0.2776382565498352,-0.7725918292999268,-59.57322692871094,42.95527648925781,-31.788951873779297
6.942,4.790431022644043,-9.211170196533203,-3.0305097103118896,-0.23869559168815613,0.29367345571517944,-0.603076696395874,-59.997074127197266,42.502193450927734,-32.47588348388672
6.956,5.371886730194092,-9.157332420349121,-3.046063184738159,-0.17821994423866272,0.23197607696056366,-0.3706424832344055,-59.7778434753418,42.12218475341797,-32.03741455078125
6.962,5.411368370056152,-9.073582649230957,-2.9730820655822754,-0.15546520054340363,0.1641700267791748,-0.26450464129447937,-60.65477752685547,42.063724517822266,-32.89973831176758
6.972,5.38624382019043,-9.017352104187012,-2.7972095012664795,-0.14187344908714294,0.05971207842230797,-0.13820825517177582,-60.12861633300781,41.84449005126953,-32.797428131103516
6.982,5.170889377593994,-9.095118522644043,-2.5639095306396484,-0.15806137025356293,-0.04001167416572571,-0.027641652151942253,-60.27477264404297,41.77141189575195,-32.35895919799805
6.992,4.737788677215576,-8.930013656616211,-2.8247268199920654,-0.16920965909957886,-0.09514226019382477,0.10094548016786575,-60.172462463378906,41.40602111816406,-31.525867462158203
7.012,4.543970108032227,-8.507680892944336,-3.1920251846313477,-0.07513642311096191,-0.031001411378383636,0.3605632185935974,-60.27477264404297,41.5814094543457,-31.75971794128418
7.016,3.981656551361084,-8.761320114135742,-2.768495798110962,0.010842857882380486,0.10980302840471268,0.6516404747962952,-60.50862121582031,42.20988082885742,-31.45279312133789
7.022,3.400200843811035,-9.323633193969727,-2.647658109664917,0.013744467869400978,0.20815233886241913,0.767857551574707,-59.880149841308594,42.35603332519531,-30.89739990234375
7.032,2.654836893081665,-9.911070823669434,-3.0281169414520264,0.004734205547720194,0.39935314655303955,0.8631526231765747,-60.07015609741211,42.502193450927734,-32.47588348388672
7.042,2.3018951416015625,-9.969695091247559,-3.865604877471924,0.062460970133543015,0.6940956115722656,0.9550877809524536,-59.894771575927734,42.03449249267578,-31.788951873779297
7.052,2.662015199661255,-9.403792381286621,-4.782055854797363,0.32070425152778625,1.0821477174758911,1.1563678979873657,-60.24554443359375,42.75065612792969,-32.30049514770508
