time,accel_x,accel_y,accel_z,gyro_x,gyro_y,gyro_z,mag_x,mag_y,mag_z
0.0,3.025723934173584,-8.828319549560547,-3.8392839431762695,0.02733621932566166,0.23594669997692108,0.11071932315826416,-20.008769989013672,48.52382278442383,-14.440221786499023
0.009,2.967099905014038,-8.939584732055664,-3.5341989994049072,0.008704829961061478,0.2519819140434265,0.13255774974822998,-19.99415397644043,48.23151397705078,-14.571762084960938
0.019,2.6847469806671143,-9.072386741638184,-3.324826955795288,-0.039706241339445114,0.18967366218566895,0.09666942805051804,-19.7310733795166,48.39228439331055,-14.674072265625
0.029,2.5603203773498535,-8.920442581176758,-3.772284984588623,-0.08628471195697784,0.07635815441608429,-0.021532999351620674,-19.964923858642578,48.81613540649414,-14.147910118103027
0.048,2.8139593601226807,-8.800801277160645,-3.7459635734558105,-0.09972374886274338,-0.012522736564278603,-0.08124507963657379,-19.891843795776367,48.494590759277344,-13.753289222717285
0.052,2.5363919734954834,-8.757730484008789,-3.638286828994751,-0.10125090926885605,-0.055283304303884506,-0.07467827200889587,-20.18415641784668,48.20227813720703,-13.592517852783203
0.06,2.2085752487182617,-8.525627136230469,-3.8464622497558594,-0.09437867254018784,-0.037110064178705215,-0.07116580009460449,-19.891843795776367,48.39228439331055,-14.250219345092773
0.069,2.0123636722564697,-8.482555389404297,-3.85483717918396,-0.055283304303884506,0.030237827450037003,-0.08109235763549805,-20.608009338378906,48.5822868347168,-14.133294105529785
0.079,2.3437697887420654,-8.465806007385254,-3.9038898944854736,0.0177150908857584,0.1511891484260559,-0.039095375686883926,-20.98801612854004,48.43613052368164,-13.7240571975708
0.089,2.908475875854492,-8.74337387084961,-3.7627134323120117,0.06933320313692093,0.21395555138587952,0.008246680721640587,-20.564163208007812,48.611515045166016,-13.256357192993164
0.109,3.0113673210144043,-8.788837432861328,-3.576073169708252,0.09575312584638596,0.199294775724411,0.06200282275676727,-20.944168090820312,48.669979095458984,-13.344051361083984
0.113,2.348555326461792,-8.987441062927246,-3.239881753921509,0.07849618047475815,0.10812314599752426,0.13958270847797394,-20.18415641784668,48.14381790161133,-14.90792179107666
0.12,1.8293129205703735,-9.016155242919922,-3.126222848892212,0.06123923882842064,0.10415252298116684,0.13561208546161652,-20.154926300048828,48.62613296508789,-14.834843635559082
0.13,1.765903115272522,-9.127422332763672,-3.102294445037842,-0.012064589187502861,0.06872233748435974,-0.014049900695681572,-20.052616119384766,48.289974212646484,-14.35252857208252
0.14,2.8486552238464355,-8.818747520446777,-3.4612178802490234,-0.0455094613134861,0.0013744467869400978,-0.07651086896657944,-20.125694274902344,48.75767135620117,-13.534053802490234
0.15,2.8737800121307373,-8.614161491394043,-3.4157540798187256,-0.036193765699863434,-0.0007635815418325365,0.019547687843441963,-20.403390884399414,48.43613052368164,-14.250219345092773
0.169,2.0853447914123535,-8.60459041595459,-3.541377305984497,-0.025503622367978096,-0.026572639122605324,0.05345070734620094,-20.783395767211914,48.52382278442383,-13.943290710449219
0.173,1.6905291080474854,-8.549554824829102,-3.7950165271759033,0.03191770985722542,-0.011759155429899693,-0.03375030308961868,-20.754165649414062,48.87459945678711,-13.826367378234863
0.18,1.9489539861679077,-8.39162826538086,-3.5054850578308105,0.08811730891466141,0.006719517521560192,-0.060933806002140045,-20.564163208007812,48.33382034301758,-13.884828567504883
0.19,2.1786649227142334,-8.331808090209961,-3.473181962966919,0.1543961763381958,0.02535090781748295,-0.04841107130050659,-20.71031951904297,48.611515045166016,-13.753289222717285
0.2,2.029113531112671,-8.441878318786621,-3.2518458366394043,0.2197587788105011,-0.005803219974040985,-0.05650503188371658,-20.447237014770508,48.684593200683594,-14.410990715026855
0.21,1.8771692514419556,-8.569893836975098,-3.3750762939453125,0.2727513313293457,-0.030543262138962746,-0.08216137439012527,-20.315698623657227,48.5822868347168,-13.636363983154297
0.23,2.0578272342681885,-8.721837997436523,-3.236292600631714,0.32268956303596497,-0.039095375686883926,-0.10583239793777466,-20.067232131958008,49.45922088623047,-14.513299942016602
0.233,2.2791635990142822,-8.956335067749023,-3.0592236518859863,0.33490684628486633,-0.06933320313692093,-0.1039998009800911,-20.286466598510742,49.26921844482422,-14.381760597229004
0.24,2.287538528442383,-9.109475135803223,-2.8151557445526123,0.314442902803421,-0.11789698898792267,-0.10384708642959595,-20.35954475402832,49.34230041503906,-15.097925186157227
0.249,2.1571295261383057,-9.17886734008789,-2.882154941558838,0.2744311988353729,-0.1765400469303131,-0.11591167747974396,-20.82724380493164,48.684593200683594,-14.484068870544434
0.26,2.2983059883117676,-9.232706069946289,-2.919243335723877,0.2347249537706375,-0.1950187236070633,-0.09972374886274338,-20.798011779785156,48.5822868347168,-15.22946548461914
0.27,2.3473589420318604,-9.032905578613281,-3.2470602989196777,0.19975292682647705,-0.21135936677455902,-0.06490442901849747,-20.62262535095215,49.7223014831543,-15.28792667388916
0.289,2.2372889518737793,-8.93838882446289,-3.212364435195923,0.19853119552135468,-0.2554943859577179,-0.04535674676299095,-20.534931182861328,49.239986419677734,-15.507162094116211
0.293,1.7862420082092285,-8.883354187011719,-3.1860432624816895,0.19624045491218567,-0.21639901399612427,0.026419920846819878,-20.228002548217773,49.12306213378906,-15.346389770507812
0.3,1.6067804098129272,-8.939584732055664,-3.104687213897705,0.20066924393177032,-0.1699732542037964,0.06169738993048668,-20.724933624267578,48.976905822753906,-15.711779594421387
0.31,1.5565310716629028,-9.059226036071777,-2.956332206726074,0.21013763546943665,-0.1082758679986,0.0832303911447525,-20.505699157714844,49.41537857055664,-15.872551918029785
0.32,1.636690616607666,-9.150154113769531,-2.801995277404785,0.20357082784175873,-0.05451972037553787,0.10797043144702911,-20.257234573364258,48.94767761230469,-16.033323287963867
0.33,1.6139588356018066,-9.115457534790039,-2.9718856811523438,0.21853703260421753,0.012522736564278603,0.15225815773010254,-20.052616119384766,49.53229904174805,-15.989476203918457
0.349,1.317248821258545,-9.047262191772461,-2.874976396560669,0.22143864631652832,0.10903944075107574,0.18784105777740479,-20.213388442993164,49.31306457519531,-15.931015014648438
0.353,0.9044869542121887,-9.06281566619873,-2.4885356426239014,0.2583959996700287,0.21899518370628357,0.17928895354270935,-20.82724380493164,49.649227142333984,-15.56562328338623
0.36,0.9571290016174316,-9.399006843566895,-2.368894338607788,0.2269364297389984,0.3113885521888733,0.18096882104873657,-20.418006896972656,49.42999267578125,-15.916398048400879
0.37,1.3268201351165771,-9.353543281555176,-2.647658109664917,0.18738290667533875,0.4150829017162323,0.18738290667533875,-20.2718505859375,49.70768737792969,-15.624086380004883
0.38,1.6151552200317383,-9.145367622375488,-2.7290141582489014,0.19226983189582825,0.4297436773777008,0.17898350954055786,-20.447237014770508,49.34230041503906,-16.369482040405273
0.39,1.6043875217437744,-8.9910306930542,-3.0233314037323,0.17699819803237915,0.48380523920059204,0.22678370773792267,-20.491085052490234,50.01461410522461,-15.872551918029785
0.409,1.5840485095977783,-8.772088050842285,-3.231506824493408,0.21853703260421753,0.5149593949317932,0.24419337511062622,-20.46185302734375,49.7223014831543,-15.945630073547363
0.412,1.8017953634262085,-8.973084449768066,-3.022134780883789,0.2226603776216507,0.5025893449783325,0.2522873282432556,-20.242618560791016,49.576148986816406,-16.42794418334961
0.42,1.8735800981521606,-9.031708717346191,-2.946760892868042,0.24663683772087097,0.4836525619029999,0.26481008529663086,-20.08184814453125,50.01461410522461,-15.653318405151367
0.429,2.0195422172546387,-9.452845573425293,-2.720639228820801,0.23900103569030762,0.48197266459465027,0.30344730615615845,-20.344928741455078,49.80999755859375,-15.41946792602539
0.44,2.39401912689209,-9.276973724365234,-3.1920251846313477,0.237321138381958,0.3874412775039673,0.30833423137664795,-19.847997665405273,50.13154220581055,-15.81408977508545
0.45,2.1846470832824707,-9.156135559082031,-2.9180471897125244,0.24724771082401276,0.2974913716316223,0.3425426781177521,-19.92107582092285,50.30692672729492,-16.793336868286133
0.469,1.810170292854309,-9.067601203918457,-2.794816732406616,0.22602012753486633,0.27580565214157104,0.3683517277240753,-19.80415153503418,49.53229904174805,-16.07716941833496
0.473,1.9669002294540405,-9.249455451965332,-2.7038893699645996,0.2070833146572113,0.15363259613513947,0.2900082468986511,-20.344928741455078,49.97077178955078,-16.544870376586914
0.48,1.9645073413848877,-9.144170761108398,-2.9108684062957764,0.18417586386203766,0.12660181522369385,0.27519479393959045,-20.30108070373535,50.64308547973633,-16.486408233642578
0.489,1.9609181880950928,-8.853443145751953,-3.177668571472168,0.17806722223758698,0.11316278576850891,0.24694228172302246,-19.54106903076172,50.745399475097656,-16.033323287963867
0.5,2.449054002761841,-8.664410591125488,-3.3954150676727295,0.18402314186096191,0.076052725315094,0.21624629199504852,-19.62876319885254,50.51154327392578,-16.88102912902832
0.51,2.9012973308563232,-8.5100736618042,-3.452842950820923,0.18875734508037567,0.02076941914856434,0.23105978965759277,-19.117216110229492,50.555397033691406,-16.895645141601562
0.528,2.5052852630615234,-8.069793701171875,-3.544966459274292,0.22067506611347198,-0.14034628868103027,0.26190847158432007,-18.97106170654297,50.92078399658203,-17.80181312561035
0.532,2.310270071029663,-7.909474849700928,-3.5258240699768066,0.22586742043495178,-0.16233743727207184,0.2519819140434265,-18.88336753845215,50.87693786621094,-17.290266036987305
0.54,2.139183282852173,-7.800601482391357,-3.5365920066833496,0.2356412708759308,-0.23625212907791138,0.21365012228488922,-18.63490104675293,50.540775299072266,-17.114879608154297
0.549,2.094916343688965,-7.552944660186768,-3.460021495819092,0.23716843128204346,-0.30283644795417786,0.1518000215291977,-18.72259521484375,50.46770095825195,-16.88102912902832
0.56,2.421536445617676,-7.619943618774414,-3.13938307762146,0.2448042333126068,-0.37461310625076294,0.13576479256153107,-18.591054916381836,50.160770416259766,-17.480268478393555
0.569,2.599801778793335,-7.823333263397217,-3.3966116905212402,0.21166479587554932,-0.4332561492919922,0.13927727937698364,-18.401052474975586,50.745399475097656,-17.290266036987305
0.589,2.6811578273773193,-7.915457248687744,-3.634697675704956,0.1673770695924759,-0.6159048676490784,0.1059851199388504,-17.772581100463867,50.540775299072266,-17.743350982666016
0.592,2.9012973308563232,-8.288737297058105,-3.425325632095337,0.14278973639011383,-0.6543893814086914,0.10751228034496307,-17.43642234802246,50.80385971069336,-17.641040802001953
0.6,2.939582586288452,-8.58066177368164,-3.4911282062530518,0.08521570265293121,-0.7050911784172058,0.10919215530157089,-17.80181312561035,50.86231994628906,-16.837182998657227
0.61,3.3786656856536865,-8.965906143188477,-3.8189449310302734,0.02932153083384037,-0.7574729323387146,0.0959058403968811,-17.290266036987305,50.73078155517578,-17.69950294494629
0.62,3.972085475921631,-9.006584167480469,-4.371686935424805,-0.0025961773935705423,-0.7539604306221008,0.15821409225463867,-17.012569427490234,50.336158752441406,-17.392576217651367
0.63,3.871586799621582,-8.906085968017578,-4.627718925476074,-0.0032070425804704428,-0.6507241725921631,0.3152064383029938,-16.807950973510742,50.11692810058594,-17.304880142211914
0.65,2.179861307144165,-8.941977500915527,-4.284348964691162,0.028405234217643738,-0.2122756689786911,0.4824308156967163,-15.931015014648438,50.90616989135742,-18.415668487548828
0.654,1.9501503705978394,-9.07717227935791,-4.015156269073486,0.028405234217643738,-0.13927727937698364,0.4870122969150543,-15.434082984924316,50.146156311035156,-18.123355865478516
0.66,1.9106688499450684,-9.254240989685059,-3.9003007411956787,0.024434609338641167,0.09957103431224823,0.48808133602142334,-15.887167930603027,50.81847381591797,-18.152587890625
0.669,2.441875457763672,-9.482755661010742,-3.899104356765747,0.022602012380957603,0.4092797338962555,0.4648684561252594,-15.375621795654297,50.24846649169922,-18.123355865478516
0.679,3.2195427417755127,-9.621540069580078,-4.1312079429626465,0.020616700872778893,0.6572909951210022,0.45646902918815613,-15.653318405151367,50.233848571777344,-17.860275268554688
0.69,3.847658634185791,-9.579665184020996,-4.644468784332275,0.030543262138962746,0.8092436790466309,0.41584649682044983,-15.346389770507812,50.21923065185547,-17.407190322875977
0.706,4.734199523925781,-9.445667266845703,-4.924428939819336,0.019089538604021072,0.8182539939880371,0.2535090744495392,-15.887167930603027,49.86845779418945,-17.173341751098633
0.71,5.030909538269043,-9.497113227844238,-4.791627407073975,-0.0006108652451075613,0.7461718320846558,0.17470745742321014,-15.887167930603027,49.50307083129883,-17.81642723083496
0.72,5.648257732391357,-9.554540634155273,-4.867001056671143,-0.08338310569524765,0.5867360830307007,0.051312681287527084,-15.448699951171875,50.0584602355957,-17.72873306274414
0.73,5.824130058288574,-9.044869422912598,-5.083551406860352,-0.15806137025356293,0.45921796560287476,-0.04596760869026184,-16.106401443481445,49.98538589477539,-17.582576751708984
0.739,5.306084156036377,-8.538786888122559,-5.283352375030518,-0.20754145085811615,0.3906483054161072,-0.10064005106687546,-16.267173767089844,49.795379638671875,-16.939491271972656
0.75,4.667200565338135,-7.9657063484191895,-5.504688262939453,-0.22418753802776337,0.3628539741039276,-0.25244006514549255,-16.398714065551758,49.97077178955078,-17.52411651611328
0.769,4.721038818359375,-7.966902732849121,-4.618147850036621,-0.25076019763946533,0.2295326143503189,-0.5810855627059937,-16.88102912902832,49.88307571411133,-16.647178649902344
0.772,4.84187650680542,-8.204988479614258,-4.506881237030029,-0.2646573483943939,0.21059578657150269,-0.6239988207817078,-17.15872573852539,50.07307434082031,-17.860275268554688
0.78,5.190032482147217,-8.49452018737793,-4.640879154205322,-0.3280346393585205,0.161268413066864,-0.7321219444274902,-17.202571868896484,49.7223014831543,-16.734872817993164
0.789,5.5034918785095215,-8.316254615783691,-5.230710506439209,-0.42821651697158813,0.06276640295982361,-0.8460482954978943,-18.00642967224121,49.54691696166992,-16.837182998657227
0.8,5.61834716796875,-8.00399112701416,-5.371886730194092,-0.5177083015441895,-0.144622340798378,-0.9850201606750488,-17.97719955444336,49.576148986816406,-16.866413116455078
0.81,5.344368934631348,-7.743173599243164,-5.507081031799316,-0.5798638463020325,-0.27152958512306213,-1.0577131509780884,-19.570301055908203,49.37152862548828,-16.164865493774414
0.822,5.178067684173584,-7.753941535949707,-5.294119834899902,-0.6259841322898865,-0.3721696436405182,-1.1378892660140991,-19.131834030151367,49.70768737792969,-16.15024757385254
0.83,5.120640754699707,-7.929814338684082,-5.254638671875,-0.6579018235206604,-0.3692680299282074,-1.1476629972457886,-19.05875587463379,49.25460433959961,-15.346389770507812
0.839,4.922036170959473,-8.096115112304688,-5.1457648277282715,-0.7032586336135864,-0.2981022298336029,-1.1296424865722656,-19.497222900390625,49.166908264160156,-15.112540245056152
0.85,4.5786662101745605,-8.12841796875,-5.306084156036377,-0.7579310536384583,-0.14676035940647125,-1.1172724962234497,-20.63724136352539,49.239986419677734,-15.22946548461914
0.859,4.514059543609619,-7.953742504119873,-5.332405090332031,-0.7816020846366882,0.03756821155548096,-1.11085844039917,-20.98801612854004,49.225372314453125,-13.797135353088379
0.87,4.768895149230957,-7.974081039428711,-5.245067119598389,-0.8009970188140869,0.16142113506793976,-1.1232284307479858,-21.748027801513672,48.62613296508789,-14.410990715026855
0.887,5.123033046722412,-8.519644737243652,-4.820341110229492,-0.8252789378166199,0.2574796974658966,-1.1772900819778442,-23.048816680908203,48.406898498535156,-13.548670768737793
0.891,5.205585479736328,-8.678768157958984,-4.602594375610352,-0.8361217975616455,0.27030786871910095,-1.2005029916763306,-23.253435134887695,48.72844314575195,-13.504822731018066
0.9,5.245067119598389,-8.793622970581055,-4.703092575073242,-0.8636107444763184,0.313373863697052,-1.2394455671310425,-23.28266716003418,48.289974212646484,-12.057878494262695
0.909,5.353940486907959,-8.571090698242188,-5.133800983428955,-0.8691084980964661,0.2909245789051056,-1.3257302045822144,-24.364221572875977,47.77842712402344,-12.408652305603027
0.92,5.690132141113281,-8.426324844360352,-4.872982978820801,-0.8448265790939331,0.18448129296302795,-1.4245377779006958,-25.270387649536133,47.32534408569336,-11.940953254699707
0.938,5.964109897613525,-8.623732566833496,-5.038087844848633,-0.8594873547554016,0.09483683109283447,-1.486693263053894,-25.89885902404785,47.1207275390625,-11.940953254699707
0.942,6.427121639251709,-8.841479301452637,-4.737788677215576,-0.8463537693023682,-0.06979135423898697,-1.5456416606903076,-26.220401763916016,46.57994842529297,-11.04940128326416
0.95,6.5216383934021,-8.937192916870117,-4.486542224884033,-0.869719386100769,-0.16554446518421173,-1.5349516868591309,-27.06810760498047,46.44840621948242,-11.385560035705566
0.96,6.092126369476318,-9.06999397277832,-4.418346881866455,-0.9275988340377808,-0.312304824590683,-1.4999794960021973,-27.842735290527344,46.49225616455078,-11.23940372467041
0.97,5.56450891494751,-8.840283393859863,-4.742574214935303,-0.971428394317627,-0.41340306401252747,-1.5192217826843262,-28.383514404296875,45.542240142822266,-10.859397888183594
0.979,5.179264545440674,-8.554340362548828,-4.66241455078125,-0.9798278212547302,-0.4550946056842804,-1.5406020879745483,-28.558900833129883,45.498390197753906,-10.274772644042969
0.99,4.838287353515625,-8.199006080627441,-4.752145767211914,-0.9795224070549011,-0.469449907541275,-1.567785620689392,-28.588130950927734,44.86991882324219,-10.114001274108887
1.003,4.35972261428833,-7.944170951843262,-4.449453830718994,-0.93889981508255,-0.43020185828208923,-1.6093244552612305,-30.137386322021484,44.28529739379883,-8.769365310668945
1.01,4.2006001472473145,-8.007580757141113,-4.2616167068481445,-0.9228646755218506,-0.36819902062416077,-1.6184873580932617,-30.42970085144043,44.16836929321289,-8.623209953308105
1.02,4.095315933227539,-7.8376898765563965,-4.3202409744262695,-0.8953757286071777,-0.25641068816185,-1.6446019411087036,-30.298158645629883,43.61297607421875,-9.50014591217041
1.029,4.351347923278809,-7.808976650238037,-3.9792640209198,-0.8575020432472229,-0.15454889833927155,-1.6351335048675537,-31.350481033325195,43.08681869506836,-8.652440071105957
1.04,4.527220249176025,-7.8376898765563965,-3.94815731048584,-0.8604037165641785,-0.1137736514210701,-1.6097825765609741,-31.81818199157715,42.516807556152344,-8.506284713745117
1.058,4.579862117767334,-7.609175682067871,-3.9828531742095947,-0.8394815921783447,-0.11927143484354019,-1.5949691534042358,-31.993568420410156,42.16603469848633,-7.7901201248168945
1.062,4.634897232055664,-7.311269283294678,-3.94815731048584,-0.8058840036392212,-0.17730362713336945,-1.5693128108978271,-33.22127914428711,41.522945404052734,-7.439345359802246
1.07,4.768895149230957,-7.165307521820068,-4.074976921081543,-0.7855726480484009,-0.23579397797584534,-1.555110216140747,-33.8643684387207,40.74831771850586,-7.147032737731934
1.08,4.7126641273498535,-7.2155561447143555,-3.87876558303833,-0.7739662528038025,-0.3335324227809906,-1.5146403312683105,-33.805904388427734,40.587547302246094,-7.278573513031006
1.09,4.439882278442383,-7.031309127807617,-4.074976921081543,-0.7893905639648438,-0.44455718994140625,-1.47844660282135,-34.49283981323242,40.42677688598633,-6.796258926391602
1.1,4.333401679992676,-6.835097789764404,-3.9948172569274902,-0.7728971838951111,-0.5111414790153503,-1.4199562072753906,-34.27360534667969,40.324466705322266,-6.0800933837890625
1.119,4.140779495239258,-7.018148422241211,-3.73041033744812,-0.7791586518287659,-0.5355761051177979,-1.2974777221679688,-34.56591796875,39.31599044799805,-6.123940467834473
1.123,3.1094729900360107,-6.661618232727051,-3.759124279022217,-0.7725918292999268,-0.41859540343284607,-1.1472049951553345,-35.179771423339844,38.70213317871094,-6.021631240844727
1.13,2.6943180561065674,-6.3421759605407715,-3.816551923751831,-0.7437283992767334,-0.30940327048301697,-1.091310739517212,-35.355159759521484,38.36597442626953,-5.422390937805176
1.14,2.641676187515259,-6.244070529937744,-3.735196113586426,-0.6960809230804443,-0.1670716404914856,-1.0389289855957031,-35.325927734375,38.13212585449219,-5.305466175079346
1.15,3.0269205570220947,-6.289534091949463,-3.912264823913574,-0.6444628238677979,0.004886921960860491,-0.9663887619972229,-35.63285446166992,37.635196685791016,-4.779304027557373
1.159,3.493520736694336,-6.2943196296691895,-3.915853977203369,-0.5690209865570068,0.12965615093708038,-0.8597928285598755,-36.04209518432617,37.18210983276367,-4.1800642013549805
1.179,3.7770702838897705,-6.118447303771973,-4.047459602355957,-0.4870122969150543,0.184939444065094,-0.7590000629425049,-36.56825256347656,36.55363845825195,-4.603917121887207
1.183,4.159922122955322,-6.161518096923828,-4.0079779624938965,-0.37461310625076294,0.18371771275997162,-0.6423248052597046,-36.86056900024414,35.88132095336914,-4.384682655334473
1.19,4.409972190856934,-6.172286033630371,-4.139583110809326,-0.3136793076992035,0.14019358158111572,-0.5618432760238647,-37.57673263549805,36.12978744506836,-4.428529739379883
1.2,4.548755645751953,-6.096912384033203,-4.198206901550293,-0.20754145085811615,0.02672535367310047,-0.45692721009254456,-37.81058120727539,35.910552978515625,-5.0716166496276855
1.21,4.650450706481934,-6.329015731811523,-4.791627407073975,-0.08078692108392715,-0.11468994617462158,-0.2922990024089813,-37.284420013427734,35.57439422607422,-4.092370510101318
1.22,5.219942569732666,-7.128218650817871,-4.342973232269287,0.15241087973117828,-0.28420504927635193,-0.1111774668097496,-37.708274841308594,35.735164642333984,-5.349313259124756
1.239,5.0356950759887695,-8.36411190032959,-3.1728827953338623,0.29596421122550964,-0.43936482071876526,0.11728612333536148,-36.93364715576172,35.67670440673828,-5.1300787925720215
1.243,4.339384078979492,-9.615557670593262,-2.190629005432129,0.29336804151535034,-0.5791002511978149,0.4242459237575531,-37.065185546875,36.159019470214844,-4.355451583862305
1.25,3.772284984588623,-9.152545928955078,-3.0664021968841553,0.2567161023616791,-0.603076696395874,0.4812090992927551,-36.93364715576172,35.99824523925781,-4.530838966369629
1.259,3.183650493621826,-8.2157564163208,-3.4983065128326416,0.27061331272125244,-0.6531676650047302,0.5418374538421631,-36.71440887451172,35.9836311340332,-4.925460338592529
1.27,2.9180471897125244,-7.399803638458252,-4.374079704284668,0.3275764584541321,-0.6681338548660278,0.5922338366508484,-36.275943756103516,36.290557861328125,-4.720841884613037
1.28,2.825923442840576,-7.184449672698975,-4.448256969451904,0.4118758738040924,-0.6531676650047302,0.6368269920349121,-35.866703033447266,36.31978988647461,-4.574686050415039
1.299,2.888136863708496,-6.855436325073242,-5.0464630126953125,0.5028948187828064,-0.6088799238204956,0.6858489513397217,-35.45746612548828,36.465946197509766,-5.217772483825684
1.303,4.240081787109375,-7.28973388671875,-4.975874423980713,0.6165157556533813,-0.669355571269989,0.7635815143585205,-34.551300048828125,37.19672393798828,-5.232388019561768
1.31,4.652843475341797,-7.603193759918213,-4.71744966506958,0.6348416805267334,-0.7353289723396301,0.8200865387916565,-34.44898986816406,37.35749816894531,-5.568547248840332
1.319,4.55354118347168,-7.910671234130859,-4.552344799041748,0.6192646622657776,-0.9488264322280884,0.9892961978912354,-33.572052001953125,37.56211853027344,-5.32008171081543
1.33,3.1573293209075928,-7.875975608825684,-4.342973232269287,0.564592182636261,-1.0836749076843262,1.0981829166412354,-32.72434997558594,37.7667350769043,-5.685472011566162
1.34,1.2299107313156128,-7.695317268371582,-4.603790283203125,0.5099197626113892,-1.0592403411865234,1.1772900819778442,-32.08126449584961,38.30751037597656,-5.700087547302246
1.359,0.24526430666446686,-7.5804619789123535,-4.951946258544922,0.5100724697113037,-0.87735515832901,1.1384999752044678,-31.02893829345703,39.038291931152344,-5.831628322601318
1.363,0.45224347710609436,-7.75633430480957,-4.396811485290527,0.5357288122177124,-0.3355177044868469,1.1762210130691528,-30.882781982421875,38.97983169555664,-4.603917121887207
1.37,0.4402793347835541,-7.95733118057251,-4.291527271270752,0.5372559428215027,-0.014966198243200779,1.241125464439392,-30.590471267700195,38.89213943481445,-5.641624927520752
1.379,0.31824538111686707,-7.739584445953369,-4.618147850036621,0.545044481754303,0.3727805018424988,1.274264931678772,-30.400466918945312,39.05290985107422,-5.977784156799316
1.39,0.9463613033294678,-7.627121925354004,-4.381258010864258,0.5658139586448669,0.6377432942390442,1.2435688972473145,-30.298158645629883,39.43291473388672,-6.167787551879883
1.4,1.590030550956726,-7.808976650238037,-3.9182469844818115,0.5713117122650146,0.8113817572593689,1.2359330654144287,-30.064308166503906,39.75445556640625,-6.723180294036865
1.419,2.1750757694244385,-8.092525482177734,-3.511467218399048,0.4960225820541382,0.8538368940353394,1.2350168228149414,-29.596609115600586,40.04676818847656,-6.533177375793457
1.423,2.586641311645508,-8.248059272766113,-3.4947173595428467,0.4586070775985718,0.8210029006004333,1.233795166015625,-30.34200668334961,39.69599533081055,-5.75855016708374
1.43,2.737389087677002,-8.149953842163086,-3.5844480991363525,0.413097620010376,0.7564038634300232,1.2260066270828247,-29.932767868041992,39.69599533081055,-6.8839521408081055
1.439,2.8426733016967773,-8.072187423706055,-3.7495527267456055,0.3695734441280365,0.6420193314552307,1.2373075485229492,-29.961999893188477,40.28062057495117,-6.387021541595459
1.45,2.7278177738189697,-7.984848976135254,-3.972085475921631,0.3553708493709564,0.5616905689239502,1.253800868988037,-29.46506690979004,40.529083251953125,-7.0447235107421875
1.459,2.6464619636535645,-8.014759063720703,-3.964907169342041,0.3718641996383667,0.48426342010498047,1.2762501239776611,-29.055830001831055,40.09061813354492,-6.8547210693359375
1.478,2.47896409034729,-8.201398849487305,-4.00199556350708,0.4537201523780823,0.4164573848247528,1.3193161487579346,-29.31891441345215,41.39140701293945,-7.0008769035339355
1.482,2.3437697887420654,-8.416753768920898,-4.198206901550293,0.48869219422340393,0.41890081763267517,1.321606993675232,-29.026599884033203,41.46448516845703,-7.147032737731934
1.49,2.3844475746154785,-8.630910873413086,-4.025923728942871,0.5398521423339844,0.4179845154285431,1.327562928199768,-28.368898391723633,41.25986862182617,-7.322420120239258
1.5,2.273181438446045,-9.097511291503906,-3.7782669067382812,0.5853615999221802,0.40653079748153687,1.348179578781128,-28.646595001220703,42.53142547607422,-7.307804584503174
1.51,2.0709879398345947,-9.336793899536133,-3.9397823810577393,0.6058256030082703,0.4355469048023224,1.3487904071807861,-28.06197166442871,41.946800231933594,-8.082432746887207
1.52,2.3401803970336914,-9.379863739013672,-3.9361932277679443,0.6331618428230286,0.437226802110672,1.3130548000335693,-27.930429458618164,42.29757308959961,-7.45396089553833
1.539,2.1954145431518555,-9.272187232971191,-3.823730707168579,0.6352998614311218,0.40653079748153687,1.2933545112609863,-27.62350082397461,43.23297119140625,-8.535516738891602
1.542,2.062613010406494,-9.146564483642578,-3.7698919773101807,0.6346890330314636,0.3988949954509735,1.2754865884780884,-27.594270706176758,43.393741607666016,-9.017830848693848
1.55,1.872383713722229,-8.95992374420166,-3.7076785564422607,0.6328563690185547,0.408974289894104,1.2429579496383667,-26.819643020629883,43.3645133972168,-8.155509948730469
1.559,1.8197414875030518,-8.660820960998535,-3.672982692718506,0.6330090761184692,0.45494186878204346,1.206153392791748,-27.199649810791016,43.6422119140625,-8.257820129394531
1.57,1.9369899034500122,-8.458627700805664,-3.600001335144043,0.6411030292510986,0.4905247688293457,1.1624765396118164,-26.99502944946289,44.007598876953125,-8.71090316772461
1.58,2.0039889812469482,-8.201398849487305,-3.6155548095703125,0.6632469296455383,0.5557346343994141,1.1485792398452759,-26.366558074951172,44.022212982177734,-9.120140075683594
1.599,2.283949136734009,-8.117650985717773,-3.46600341796875,0.725249707698822,0.5480988025665283,1.1455250978469849,-26.483484268188477,44.47529983520508,-10.084770202636719
1.603,2.438286066055298,-8.23848819732666,-3.3810582160949707,0.7379251718521118,0.5326744914054871,1.1542298793792725,-26.23501968383789,44.738380432128906,-9.412452697753906
1.61,2.431107759475708,-8.304290771484375,-3.387040376663208,0.7579310536384583,0.5242750644683838,1.162629246711731,-25.86962890625,44.89915466308594,-9.953229904174805
1.62,2.431107759475708,-8.232505798339844,-3.400200843811035,0.8008443117141724,0.4818199574947357,1.1627819538116455,-25.7088565826416,45.33761978149414,-10.099386215209961
1.63,2.5184457302093506,-8.182256698608398,-3.610769271850586,0.872315526008606,0.43417245149612427,1.1623238325119019,-25.665008544921875,45.90762710571289,-11.546331405639648
1.64,2.7146570682525635,-8.280362129211426,-3.847658634185791,0.9269880056381226,0.36621370911598206,1.1572842597961426,-25.22654151916504,46.15609359741211,-10.552470207214355
1.659,3.091526985168457,-8.706284523010254,-4.042673587799072,1.0248790979385376,0.09346237778663635,1.1305588483810425,-24.071908950805664,46.63841247558594,-11.51710033416748
1.663,3.1142585277557373,-8.775676727294922,-4.046262741088867,1.0393872261047363,0.03497203439474106,1.132085919380188,-24.49576187133789,47.20841979980469,-11.619409561157227
1.67,3.180061101913452,-9.11426067352295,-3.847658634185791,1.0523680448532104,-0.014813481830060482,1.1435396671295166,-24.013446807861328,46.69687271118164,-11.955568313598633
1.68,3.0580272674560547,-9.656235694885254,-3.4372897148132324,1.0296133756637573,-0.06704245507717133,1.213025689125061,-23.56036376953125,46.76995086669922,-12.569424629211426
1.69,2.472982168197632,-10.009177207946777,-3.3056843280792236,0.9703594446182251,-0.0024434609804302454,1.2596040964126587,-22.683425903320312,47.296112060546875,-12.306343078613281
1.7,2.1882362365722656,-10.05823040008545,-3.159722089767456,0.9152288436889648,0.10247264802455902,1.2767083644866943,-22.47880744934082,47.5591926574707,-12.774043083190918
1.712,1.891526222229004,-9.890732765197754,-3.5018956661224365,0.8242099285125732,0.270766019821167,1.275792121887207,-22.084184646606445,48.421512603759766,-12.744811058044434
1.72,1.990828275680542,-9.804591178894043,-3.7220354080200195,0.8037459254264832,0.3400992155075073,1.2402091026306152,-21.075708389282227,48.421512603759766,-12.934814453125
1.73,1.9154545068740845,-9.507880210876465,-4.116851329803467,0.8048149347305298,0.47311511635780334,1.1717921495437622,-20.98801612854004,48.77228546142578,-13.21251106262207
1.74,2.0446667671203613,-9.049654960632324,-4.133601188659668,0.8533787131309509,0.5535966157913208,1.0899362564086914,-20.549545288085938,49.12306213378906,-13.870213508605957
1.75,2.3198413848876953,-8.895318031311035,-4.177868366241455,0.9153815507888794,0.6206390857696533,0.9999863505363464,-20.63724136352539,49.51768493652344,-14.688687324523926
1.76,2.8211376667022705,-8.963513374328613,-3.8668015003204346,0.9805914163589478,0.6159048676490784,0.925308108329773,-20.695703506469727,49.56153106689453,-14.571762084960938
1.776,3.0544381141662598,-9.219545364379883,-3.7710883617401123,1.0004445314407349,0.5064072608947754,0.8252789378166199,-19.979537963867188,50.01461410522461,-15.477930068969727
1.78,3.0556344985961914,-9.181260108947754,-3.7914273738861084,1.001055359840393,0.4622722566127777,0.7890851497650146,-20.30108070373535,49.89768981933594,-15.580240249633789
1.79,3.183650493621826,-8.914461135864258,-4.025923728942871,0.9987646341323853,0.3104722499847412,0.6921103000640869,-20.125694274902344,50.3800048828125,-15.390236854553223
1.8,3.308077335357666,-8.800801277160645,-4.139583110809326,0.9995282292366028,0.14737124741077423,0.6174320578575134,-19.599531173706055,50.760013580322266,-15.492546081542969
1.81,3.029313325881958,-8.818747520446777,-3.8117663860321045,0.9805914163589478,-0.00809396430850029,0.5665775537490845,-19.7310733795166,50.993858337402344,-16.720256805419922
1.828,2.664407968521118,-8.851051330566406,-3.809373378753662,0.9431759119033813,-0.10659598559141159,0.5268712639808655,-18.89798355102539,51.31540298461914,-16.866413116455078
1.832,2.2600209712982178,-8.762516021728516,-4.029513359069824,0.8804094791412354,-0.11331550031900406,0.5079344511032104,-18.89798355102539,51.53464126586914,-17.88950538635254
1.84,1.987239122390747,-8.713462829589844,-3.933800458908081,0.8602509498596191,-0.06719517707824707,0.508698046207428,-18.401052474975586,51.53464126586914,-17.670272827148438
1.85,1.8424733877182007,-8.749356269836426,-4.035495281219482,0.8342891931533813,0.03527746722102165,0.5331326127052307,-18.298744201660156,51.85618591308594,-18.649517059326172
1.859,1.817348837852478,-8.752944946289062,-4.315455436706543,0.8191702961921692,0.19074267148971558,0.5619960427284241,-18.459514617919922,51.87080001831055,-18.3718204498291
1.87,2.0685951709747314,-8.61176872253418,-4.5367913246154785,0.8414669036865234,0.3430008292198181,0.587041437625885,-17.9918155670166,52.0169563293457,-19.131834030151367
1.88,2.6045873165130615,-8.63210678100586,-4.698307037353516,0.8943067193031311,0.4512766897678375,0.6221662163734436,-17.78719711303711,51.56386947631836,-19.7310733795166
1.893,3.3068807125091553,-8.95274543762207,-4.657629013061523,0.9350818991661072,0.3833179175853729,0.6394231915473938,-17.582576751708984,52.36772918701172,-19.80415153503418
1.9,3.5533413887023926,-9.150154113769531,-4.731806755065918,0.9355401396751404,0.31810805201530457,0.6627887487411499,-17.392576217651367,52.528499603271484,-20.783395767211914
1.909,3.452842950820923,-9.141778945922852,-4.825126647949219,0.9214901924133301,0.21471913158893585,0.684779942035675,-17.3341121673584,52.98158645629883,-20.140310287475586
1.919,3.207578659057617,-9.10110092163086,-4.949553489685059,0.9030115604400635,0.1264491081237793,0.6901249885559082,-17.129493713378906,53.127742767333984,-20.958784103393555
1.929,2.9551358222961426,-9.016155242919922,-5.173282623291016,0.8721628189086914,0.10949759185314178,0.6939429044723511,-16.837182998657227,53.2008171081543,-21.38263702392578
1.949,2.915654182434082,-8.784051895141602,-5.245067119598389,0.8604037165641785,0.07360926270484924,0.6446155309677124,-16.588716506958008,53.27389907836914,-21.309558868408203
1.953,3.3894331455230713,-8.642874717712402,-5.5345988273620605,0.8643743395805359,0.005650503095239401,0.5754350423812866,-15.960245132446289,53.46390151977539,-22.011106491088867
1.96,3.728017568588257,-8.847461700439453,-5.606383323669434,0.8585711121559143,-0.09254607558250427,0.5329799056053162,-16.208711624145508,53.55158996582031,-21.8503360748291
1.97,4.025923728942871,-9.139386177062988,-5.846861839294434,0.821461021900177,-0.24129176139831543,0.4833471179008484,-15.85793685913086,53.434669494628906,-22.47880744934082
1.98,3.8177483081817627,-9.531808853149414,-5.769094944000244,0.7637342810630798,-0.39187002182006836,0.4521929919719696,-15.200233459472656,53.624671936035156,-22.94650650024414
1.989,3.3846476078033447,-9.702895164489746,-5.55613374710083,0.6466008424758911,-0.5169447064399719,0.36224305629730225,-15.097925186157227,54.19468307495117,-23.268049240112305
2.009,3.3571300506591797,-10.207781791687012,-5.0811591148376465,0.5006040930747986,-0.5349652171134949,0.3159700334072113,-14.995615005493164,53.91698455810547,-23.50189971923828
2.013,3.428914785385132,-9.590433120727539,-5.748756408691406,0.32650747895240784,-0.40683624148368835,0.31413745880126953,-14.484068870544434,53.77082824707031,-23.39959144592285
2.02,3.1764719486236572,-9.20758056640625,-6.1328043937683105,0.2816088795661926,-0.36361753940582275,0.32162055373191833,-14.513299942016602,54.19468307495117,-23.677288055419922
2.03,3.332005262374878,-9.354740142822266,-6.324230194091797,0.2863430678844452,-0.3332270085811615,0.2919935882091522,-14.367143630981445,54.13621520996094,-24.057292938232422
2.04,3.456432342529297,-9.963712692260742,-6.734599590301514,0.30314186215400696,-0.42562034726142883,0.2047925740480423,-14.045600891113281,54.37007141113281,-23.633440017700195
2.05,3.920639753341675,-10.999804496765137,-6.695117950439453,0.29535335302352905,-0.5690209865570068,0.07849618047475815,-14.045600891113281,54.033905029296875,-23.458053588867188
2.069,4.423132419586182,-12.05623722076416,-5.845665454864502,0.21991148591041565,-0.7290676236152649,-0.010231993161141872,-13.972522735595703,53.97544479370117,-24.451913833618164
2.073,3.8979079723358154,-12.830314636230469,-4.979463577270508,-0.06719517707824707,-0.7982481718063354,-0.05253440886735916,-13.665594100952148,53.56621170043945,-24.364221572875977
2.08,3.142972707748413,-12.81356430053711,-4.650450706481934,-0.19822576642036438,-0.7564038634300232,-0.07269296050071716,-13.373282432556152,53.8585205078125,-23.83806037902832
2.09,2.4370899200439453,-12.156734466552734,-4.400400638580322,-0.4967861771583557,-0.5340489149093628,-0.1673770695924759,-13.972522735595703,54.048526763916016,-23.881906509399414
2.1,2.135594129562378,-11.662616729736328,-4.589433670043945,-0.7130324244499207,-0.3058907687664032,-0.2820670008659363,-13.767904281616211,53.5369758605957,-23.998830795288086
2.11,1.9345970153808594,-10.884950637817383,-5.146961212158203,-0.8547531962394714,-0.06398813426494598,-0.4219551682472229,-14.162525177001953,53.36158752441406,-24.188833236694336
2.129,2.17627215385437,-9.8931245803833,-5.288137912750244,-0.9130908250808716,0.08475754410028458,-0.6241515278816223,-14.001753807067871,53.06927490234375,-23.341127395629883
2.133,2.8103702068328857,-8.900103569030762,-5.162514686584473,-0.9242391586303711,0.12767083942890167,-0.9363037347793579,-14.527915000915527,53.1569709777832,-22.508039474487305
2.14,3.042473793029785,-8.947959899902344,-4.8813581466674805,-0.9285151958465576,0.038026362657547,-1.0713049173355103,-15.273311614990234,53.17158508300781,-22.128032684326172
2.149,3.5054850578308105,-9.07119083404541,-4.865804672241211,-0.9544769525527954,-0.10445795953273773,-1.23394775390625,-15.477930068969727,52.937740325927734,-21.66033363342285
2.159,3.427718162536621,-9.07717227935791,-4.170689582824707,-0.9356928467750549,-0.23182335495948792,-1.3607022762298584,-15.843321800231934,52.733116149902344,-21.01724624633789
2.169,3.5748770236968994,-9.513862609863281,-3.524627685546875,-0.9986119866371155,-0.33628129959106445,-1.4103351831436157,-16.924875259399414,52.76234817504883,-19.54106903076172
2.189,3.5030922889709473,-10.529616355895996,-2.313859462738037,-1.0954340696334839,-0.408363401889801,-1.4020884037017822,-16.822566986083984,52.57234573364258,-20.008769989013672
2.193,2.449054002761841,-11.25942611694336,-1.9477574825286865,-1.353830099105835,-0.37598752975463867,-1.373683214187622,-17.962583541870117,51.885414123535156,-19.17568016052246
2.2,1.9154545068740845,-11.084750175476074,-1.8544374704360962,-1.4853187799453735,-0.33200523257255554,-1.3949108123779297,-17.831043243408203,51.94387435913086,-18.021047592163086
2.21,1.7240287065505981,-10.61575698852539,-2.053041696548462,-1.6337590217590332,-0.3254384398460388,-1.4685200452804565,-18.678749084472656,51.52002716064453,-17.670272827148438
2.22,2.060220241546631,-10.262815475463867,-2.313859462738037,-1.715309500694275,-0.3543018102645874,-1.5494595766067505,-19.482608795166016,51.31540298461914,-15.682548522949219
2.23,2.1894326210021973,-10.132407188415527,-2.4921247959136963,-1.720807433128357,-0.3029891550540924,-1.5454890727996826,-20.344928741455078,50.5992431640625,-14.966383934020996
2.249,2.1583259105682373,-10.076175689697266,-2.3856441974639893,-1.6774359941482544,-0.24419337511062622,-1.5140293836593628,-20.768781661987305,49.42999267578125,-13.665594100952148
2.252,1.956132411956787,-10.63370418548584,-1.4859428405761719,-1.6143640279769897,-0.15134187042713165,-1.43751859664917,-21.046478271484375,49.06460189819336,-14.279450416564941
2.26,1.8281164169311523,-10.943573951721191,-1.4105688333511353,-1.6349807977676392,-0.04520402476191521,-1.356884479522705,-20.90032196044922,49.18152618408203,-13.431745529174805
2.269,1.852044701576233,-11.612367630004883,-0.9176474213600159,-1.6670511960983276,0.0809396430850029,-1.2803735733032227,-22.084184646606445,48.36305236816406,-13.519438743591309
2.28,1.7036895751953125,-12.144770622253418,-0.8243273496627808,-1.729664921760559,0.1924225389957428,-1.2021827697753906,-22.44957733154297,47.529964447021484,-11.575562477111816
2.289,1.6163517236709595,-12.620943069458008,-1.0408778190612793,-1.7637206315994263,0.28267788887023926,-1.1916453838348389,-22.82958221435547,47.25226593017578,-11.9847993850708
2.309,2.6009981632232666,-12.143574714660645,-1.3603196144104004,-1.7368425130844116,0.22770002484321594,-1.3704761266708374,-23.94036865234375,46.44840621948242,-10.757088661193848
2.312,3.0281169414520264,-12.025130271911621,-1.4644074440002441,-1.7176002264022827,0.1670716404914856,-1.3985759019851685,-24.13037109375,45.615318298339844,-9.514761924743652
2.32,3.528217077255249,-11.96770191192627,-1.8412768840789795,-1.6890424489974976,0.038179077208042145,-1.4162909984588623,-24.554224014282227,45.14761734008789,-10.698626518249512
2.329,3.4097721576690674,-11.548957824707031,-2.283949136734009,-1.6140587329864502,-0.18341228365898132,-1.4427108764648438,-24.68576431274414,44.84069061279297,-9.456298828125
2.339,2.6141586303710938,-11.167303085327148,-1.932204246520996,-1.5131131410598755,-0.34773504734039307,-1.5039501190185547,-24.831920623779297,44.59222412109375,-7.921660900115967
2.35,2.3234305381774902,-11.459226608276367,-1.5780664682388306,-1.4862351417541504,-0.38469237089157104,-1.5334244966506958,-25.22654151916504,43.65682601928711,-7.819350719451904
2.369,2.4945175647735596,-11.514262199401855,-1.7491532564163208,-1.5209016799926758,-0.34666600823402405,-1.4869987964630127,-25.86962890625,42.6045036315918,-5.817012310028076
2.372,2.097308874130249,-10.901700019836426,-1.94297194480896,-1.5248724222183228,-0.35643988847732544,-1.4471397399902344,-26.015785217285156,42.47296142578125,-6.123940467834473
2.38,1.3854442834854126,-10.792826652526855,-1.4584254026412964,-1.516014814376831,-0.30543261766433716,-1.4016302824020386,-25.913476943969727,42.268341064453125,-6.138556003570557
2.39,0.8015955090522766,-10.810771942138672,-1.7264214754104614,-1.521512508392334,-0.27870726585388184,-1.4045318365097046,-26.278865814208984,41.2014045715332,-5.656240940093994
2.4,0.7992027401924133,-10.797612190246582,-1.8640087842941284,-1.4995214939117432,-0.21930061280727386,-1.4650075435638428,-26.220401763916016,41.27448272705078,-4.823151111602783
2.41,1.3782658576965332,-10.557132720947266,-1.9728822708129883,-1.4524848461151123,-0.15347988903522491,-1.472796082496643,-26.96579933166504,40.134464263916016,-4.370067119598389
2.429,2.093719720840454,-10.202995300292969,-1.5996018648147583,-1.3823879957199097,-0.19456057250499725,-1.4056010246276855,-26.702720642089844,38.62905502319336,-3.858520746231079
2.433,2.0362918376922607,-10.16471004486084,-1.7192429304122925,-1.3848315477371216,-0.2496911585330963,-1.3909401893615723,-26.629642486572266,38.570594787597656,-3.9608304500579834
2.44,1.7359927892684937,-9.875179290771484,-2.0267207622528076,-1.3897184133529663,-0.3170390725135803,-1.4019356966018677,-26.99502944946289,37.62057876586914,-3.2300498485565186
2.45,1.6546367406845093,-9.272187232971191,-2.482553482055664,-1.3672691583633423,-0.5041165351867676,-1.4984524250030518,-27.769657135009766,37.31365203857422,-3.580824375152588
2.46,1.7048860788345337,-8.775676727294922,-2.4646072387695312,-1.3246612548828125,-0.5768095254898071,-1.5102115869522095,-27.652734756469727,36.6851806640625,-3.2592811584472656
2.469,0.8685945868492126,-8.536395072937012,-2.0039889812469482,-1.2811371088027954,-0.5070181488990784,-1.455844521522522,-27.784273147583008,36.56825256347656,-3.2446651458740234
2.489,0.11605189740657806,-8.628518104553223,-2.2157537937164307,-1.2205086946487427,-0.08765916526317596,-1.3666582107543945,-27.988893508911133,34.989768981933594,-2.645425319671631
2.492,0.1459621787071228,-8.62492847442627,-2.3808584213256836,-1.211498498916626,-0.006261368282139301,-1.3478741645812988,-27.63811683654785,34.88745880126953,-2.1777257919311523
2.5,0.8709874153137207,-8.3629150390625,-2.66560435295105,-1.1542298793792725,0.22220222651958466,-1.3048081398010254,-27.97427749633789,34.50745391845703,-2.016954183578491
2.51,2.204986095428467,-8.183452606201172,-2.583051919937134,-1.0687086582183838,0.19975292682647705,-1.2176071405410767,-28.412744522094727,34.31745147705078,-2.002338409423828
2.52,2.2648065090179443,-7.769495010375977,-3.008974552154541,-0.9944885969161987,0.14508049190044403,-1.1129964590072632,-28.89505958557129,33.557437896728516,-1.783104419708252
2.529,2.060220241546631,-7.17368221282959,-3.3032915592193604,-0.8823947906494141,-0.015577062964439392,-1.0923796892166138,-28.82198143005371,33.41128158569336,-1.0815550088882446
2.548,2.221735715866089,-6.80040168762207,-3.0173492431640625,-0.7035639882087708,-0.38759398460388184,-1.112691044807434,-29.041215896606445,32.32973098754883,-1.4030985832214355
2.551,2.1547367572784424,-6.947559833526611,-2.874976396560669,-0.6925684809684753,-0.4173736572265625,-1.10139000415802,-28.82198143005371,32.490501403808594,-1.6369482278823853
2.56,1.2430713176727295,-7.031309127807617,-2.4598214626312256,-0.6734789609909058,-0.4277583956718445,-1.000749945640564,-29.538145065307617,32.31510925292969,-1.1254018545150757
2.569,0.4091726541519165,-7.061219215393066,-2.3820548057556152,-0.6860016584396362,-0.34834590554237366,-0.9257662296295166,-28.953521728515625,31.584331512451172,-1.4030985832214355
2.579,0.32901307940483093,-6.86261510848999,-2.664407968521118,-0.701578676700592,-0.10293079167604446,-0.8373435139656067,-29.143524169921875,31.525867462158203,-1.2423267364501953
2.589,0.8602197170257568,-6.56829833984375,-2.9551358222961426,-0.722959041595459,0.02977968007326126,-0.7651087045669556,-29.172758102416992,30.692779541015625,-0.5115463137626648
2.602,1.4919248819351196,-6.118447303771973,-3.1034910678863525,-0.6998988389968872,0.19364428520202637,-0.6133086681365967,-29.391992568969727,30.57585334777832,-0.33615902066230774
2.61,1.3698909282684326,-6.050251483917236,-3.201596736907959,-0.7101308107376099,0.2970332205295563,-0.5013676285743713,-29.231218338012695,30.210464477539062,-0.5115463137626648
2.62,1.9764714241027832,-5.399404048919678,-3.4205398559570312,-0.6151412725448608,0.2658790946006775,-0.47189339995384216,-30.00584602355957,29.90353775024414,-0.20461852848529816
2.629,2.2576282024383545,-5.2175493240356445,-3.1824538707733154,-0.5384777188301086,0.1576032191514969,-0.4184426963329315,-30.00584602355957,29.71353530883789,-0.11692487448453903
2.64,2.2743778228759766,-5.0703911781311035,-3.1070802211761475,-0.44455718994140625,0.10995574295520782,-0.33719760179519653,-30.42970085144043,29.231218338012695,0.5700087547302246
2.65,2.3030917644500732,-4.864608287811279,-3.1334011554718018,-0.3510947823524475,0.053908854722976685,-0.27458393573760986,-30.137386322021484,29.09967803955078,-0.029231218621134758
2.666,2.159522294998169,-4.956732273101807,-2.772084951400757,-0.2142609804868698,-0.06627887487411499,-0.1336267739534378,-30.868165969848633,29.143524169921875,0.5992400050163269
2.67,2.122433662414551,-4.996213436126709,-2.7493531703948975,-0.19364428520202637,-0.11698068678379059,-0.11560624837875366,-30.94124412536621,28.69044303894043,-0.14615610241889954
2.68,1.691725492477417,-4.721038818359375,-2.9970104694366455,-0.15363259613513947,-0.22647827863693237,-0.07987063378095627,-30.035078048706055,28.661209106445312,0.6138556003570557
2.689,1.2646067142486572,-4.506881237030029,-3.1896326541900635,-0.08811730891466141,-0.2269364297389984,-0.021838432177901268,-30.327388763427734,28.763521194458008,0.5261619687080383
2.7,1.2526426315307617,-4.792823314666748,-2.9132614135742188,-0.03985895588994026,-0.14034628868103027,0.05161811038851738,-30.152002334594727,28.427358627319336,0.7600116729736328
2.718,1.219143033027649,-4.832304954528809,-2.912065029144287,-0.008704829961061478,0.026419920846819878,0.20173825323581696,-30.37123680114746,28.412744522094727,0.23384974896907806
2.722,0.5527420043945312,-4.58584451675415,-2.904886484146118,0.009468411095440388,0.2197587788105011,0.3039054572582245,-30.47354507446289,29.24583625793457,0.6138556003570557
2.73,0.9116654396057129,-4.632504463195801,-2.9204399585723877,0.005192354787141085,0.312304824590683,0.32268956303596497,-30.108156204223633,28.60274887084961,0.4823150932788849
2.739,1.7096717357635498,-4.837090969085693,-2.8354947566986084,0.0073303827084600925,0.4030183255672455,0.3845396637916565,-30.312772750854492,29.45045280456543,0.891552209854126
2.75,2.2360928058624268,-5.010570526123047,-2.9012973308563232,-0.008704829961061478,0.4245513379573822,0.48838675022125244,-30.853551864624023,29.26045036315918,0.8330897688865662
2.76,2.5148565769195557,-4.884947299957275,-3.397808074951172,0.004734205547720194,0.33887749910354614,0.5621487498283386,-31.072786331176758,29.26045036315918,0.5115463137626648
2.77,3.4265217781066895,-4.742574214935303,-3.647857904434204,0.08170322328805923,0.15195272862911224,0.5826126933097839,-30.868165969848633,29.085063934326172,0.4384683072566986
2.782,3.8524441719055176,-4.941178798675537,-3.452842950820923,0.22479841113090515,-0.10430524498224258,0.7206682562828064,-30.619701385498047,29.304296493530273,0.42385268211364746
2.79,3.5940194129943848,-5.101497650146484,-3.521038293838501,0.3017674386501312,-0.2422080636024475,0.8019133806228638,-30.751243591308594,29.523530960083008,0.07307805120944977
2.8,2.8761725425720215,-5.163711071014404,-3.6287152767181396,0.4395175576210022,-0.36713001132011414,0.8894197344779968,-29.991230010986328,29.91815185546875,1.0669395923614502
2.81,1.7395819425582886,-4.47697114944458,-4.231706619262695,0.6713408827781677,-0.31581732630729675,0.9332493543624878,-30.122772216796875,29.479684829711914,-0.3507746458053589
2.82,3.5018956661224365,-5.419743537902832,-2.596212387084961,0.9028587937355042,-0.46700647473335266,0.8865181803703308,-30.28354263305664,30.210464477539062,-0.14615610241889954
2.839,3.205185890197754,-5.333600997924805,-4.249652862548828,0.8964447379112244,-0.4331034719944,1.0798569917678833,-29.46506690979004,30.54662322998047,0.20461852848529816
2.843,2.63449764251709,-5.332405090332031,-4.310669898986816,1.00197172164917,-0.38438695669174194,1.2625057697296143,-28.851213455200195,31.02893829345703,-0.7746273279190063
2.85,2.1786649227142334,-5.3563337326049805,-4.1347975730896,0.9996809363365173,-0.27550020813941956,1.3715450763702393,-28.63197898864746,31.993568420410156,-0.4823150932788849
2.859,1.7874385118484497,-5.68056058883667,-4.29750919342041,0.9153815507888794,-0.02932153083384037,1.5373951196670532,-28.763521194458008,32.680503845214844,-1.0815550088882446
2.87,1.7910276651382446,-6.10050106048584,-4.338187217712402,0.8910996913909912,0.18325957655906677,1.6203200817108154,-28.032737731933594,33.572052001953125,-1.4177141189575195
2.879,1.7288143634796143,-6.920042991638184,-4.4721856117248535,0.8339837193489075,0.446389764547348,1.6994271278381348,-28.33966636657715,33.89359664916992,-1.2423267364501953
2.898,2.537588357925415,-8.054241180419922,-5.033302307128906,0.7964155077934265,0.5969680547714233,1.6730071306228638,-28.251972198486328,34.01052474975586,-1.3592517375946045
2.903,4.902893543243408,-9.848857879638672,-5.5692949295043945,0.8048149347305298,0.5778785347938538,1.6543757915496826,-28.23735809326172,34.726688385009766,-1.344636082649231
2.91,5.766702175140381,-10.256834030151367,-6.011966705322266,0.8462010622024536,0.4225660264492035,1.6720908880233765,-27.784273147583008,35.04823303222656,-1.9292603731155396
2.92,6.762116432189941,-10.914859771728516,-6.4666032791137695,0.9604328870773315,0.1371392458677292,1.730733871459961,-27.915815353393555,35.41362380981445,-2.002338409423828
2.93,6.373282432556152,-11.065608024597168,-6.611368656158447,1.1061242818832397,-0.12370020896196365,1.7768542766571045,-27.63811683654785,35.866703033447266,-2.046185255050659
2.94,4.930410861968994,-10.968698501586914,-6.129214763641357,1.2450960874557495,-0.31291571259498596,1.6975945234298706,-26.629642486572266,36.64133071899414,-2.1192634105682373
2.959,4.478167533874512,-10.212566375732422,-6.391229152679443,1.3009902238845825,-0.4444044530391693,1.53693687915802,-26.205787658691406,36.97748947143555,-2.76235032081604
2.963,3.369094133377075,-10.518848419189453,-6.233302593231201,1.376584768295288,-0.3940081000328064,1.5218180418014526,-25.78193473815918,37.95673751831055,-3.2885122299194336
2.97,2.8773691654205322,-10.907682418823242,-6.215356349945068,1.3642147779464722,-0.2921462953090668,1.4992159605026245,-25.50423812866211,38.70213317871094,-5.1446943283081055
2.98,2.275574207305908,-11.962916374206543,-6.4319071769714355,1.3784173727035522,-0.13439035415649414,1.4523321390151978,-25.036537170410156,39.330604553222656,-4.808535575866699
2.99,2.5399811267852783,-13.703695297241211,-6.399603843688965,1.325882911682129,-0.0022907445672899485,1.4124730825424194,-24.75884246826172,39.43291473388672,-5.261619567871094
3.0,3.1238298416137695,-15.428919792175293,-7.0061845779418945,1.3101532459259033,0.1667662113904953,1.4633276462554932,-24.32037353515625,40.04676818847656,-5.904706001281738
3.019,2.788834571838379,-16.1910343170166,-7.3639116287231445,1.3333660364151,0.37140607833862305,1.5485433340072632,-23.911136627197266,40.967552185058594,-6.109324932098389
3.023,2.434696912765503,-14.354541778564453,-6.923632621765137,1.3632985353469849,0.4763221740722656,1.393078088760376,-23.458053588867188,41.43525314331055,-6.562408924102783
3.03,2.647658109664917,-13.848461151123047,-6.732206344604492,1.3629930019378662,0.48197266459465027,1.277471899986267,-23.31189727783203,41.53756332397461,-6.328558921813965
3.039,3.049652338027954,-13.227522850036621,-6.5766730308532715,1.363909363746643,0.42439863085746765,1.152855396270752,-23.253435134887695,41.84449005126953,-7.468576908111572
3.049,3.156132936477661,-13.076774597167969,-6.3661041259765625,1.3698652982711792,0.2883284091949463,1.0309878587722778,-23.414207458496094,42.3414192199707,-7.132417678833008
3.059,2.799602508544922,-13.324432373046875,-6.217749118804932,1.3614658117294312,0.1696678102016449,0.9370672702789307,-22.74188804626465,43.34989929199219,-8.827827453613281
3.079,2.65842604637146,-13.330413818359375,-6.185446262359619,1.3710870742797852,-0.060933806002140045,0.7600690722465515,-22.712656021118164,43.262203216552734,-9.251681327819824
3.083,2.7493531703948975,-12.939188003540039,-5.97727108001709,1.4185817241668701,-0.2382374405860901,0.653931200504303,-22.5518856048584,44.29991149902344,-9.280911445617676
3.09,2.803191661834717,-12.742976188659668,-5.843272686004639,1.4161382913589478,-0.3168863356113434,0.6354525089263916,-22.186494827270508,43.978370666503906,-10.523239135742188
3.1,3.0520453453063965,-12.468997955322266,-5.942574977874756,1.4135421514511108,-0.455705463886261,0.6420193314552307,-22.303421020507812,44.75299835205078,-10.21631145477295
3.11,2.9994029998779297,-11.673384666442871,-6.265605926513672,1.419498085975647,-0.5387831330299377,0.6982190012931824,-22.04033851623535,45.29377365112305,-10.96170711517334
3.12,2.2061824798583984,-10.553544044494629,-6.2943196296691895,1.4358388185501099,-0.6438519358634949,0.7480044364929199,-21.178016662597656,46.63841247558594,-12.247880935668945
3.14,1.2658032178878784,-9.635896682739258,-5.973681449890137,1.4445436000823975,-0.7336491346359253,0.734107255935669,-19.687227249145508,47.500728607177734,-13.344051361083984
3.143,0.4307080805301666,-9.378667831420898,-5.0285162925720215,1.373377799987793,-0.7353289723396301,0.682641863822937,-19.27798843383789,47.51534652709961,-13.417129516601562
3.15,-0.19381862878799438,-9.166903495788574,-4.663610935211182,1.3096951246261597,-0.603076696395874,0.7107416987419128,-18.839519500732422,47.51534652709961,-13.227126121520996
3.159,-0.6951149702072144,-8.778069496154785,-4.121636867523193,1.180649757385254,-0.3254384398460388,0.7338019013404846,-18.474130630493164,47.71996307373047,-14.542531967163086
3.17,-0.9296115636825562,-8.37727165222168,-3.838087320327759,1.0219775438308716,-0.023976460099220276,0.7182247638702393,-18.3718204498291,48.07073974609375,-15.331774711608887
3.179,-0.5491527915000916,-7.759923458099365,-3.4372897148132324,0.9138544201850891,0.2664899528026581,0.7399104833602905,-18.240280151367188,47.70534896850586,-14.73253345489502
3.199,0.2021934986114502,-7.026523113250732,-3.696910858154297,0.8463537693023682,0.43508875370025635,0.7480044364929199,-17.81642723083496,48.056121826171875,-14.805611610412598
3.204,1.6689937114715576,-5.8995041847229,-4.169493198394775,0.8828530311584473,0.4331034719944,0.783892810344696,-17.947969436645508,48.494590759277344,-15.551008224487305
3.21,2.0721843242645264,-5.581258773803711,-4.234099388122559,0.9181304574012756,0.35903605818748474,0.7962628602981567,-17.69950294494629,48.27535629272461,-14.980999946594238
3.219,2.6428725719451904,-5.337190628051758,-4.179064750671387,0.9943358302116394,0.04153883829712868,0.8310821652412415,-17.772581100463867,48.114585876464844,-15.273311614990234
3.23,2.396411657333374,-5.745166778564453,-4.127618789672852,1.059698462486267,-0.16814064979553223,0.9224064946174622,-17.027183532714844,48.62613296508789,-15.711779594421387
3.24,1.8005989789962769,-6.535995006561279,-3.964907169342041,1.0700831413269043,-0.34177911281585693,0.9691376686096191,-16.822566986083984,49.239986419677734,-17.15872573852539
3.259,1.098305583000183,-6.729813575744629,-3.783052444458008,1.069166898727417,-0.35506540536880493,1.0198395252227783,-15.638701438903809,49.210758209228516,-18.386436462402344
3.263,0.11246266216039658,-6.2775702476501465,-3.2039895057678223,1.038318157196045,-0.19685132801532745,1.035722017288208,-15.4633150100708,49.53229904174805,-18.06489372253418
3.27,-0.3349951505661011,-6.124429225921631,-2.8175485134124756,1.025948166847229,-0.08994990587234497,1.0451903343200684,-15.52177619934082,49.6199951171875,-18.591054916381836
3.28,-0.6939185857772827,-5.953342914581299,-2.8725833892822266,0.9947940707206726,0.15653420984745026,1.0115928649902344,-14.688687324523926,50.146156311035156,-18.839519500732422
3.289,-0.05862415209412575,-5.9569315910339355,-2.7529425621032715,1.0027352571487427,0.30695977807044983,0.9552405476570129,-14.790996551513672,50.30692672729492,-19.657995223999023
3.3,0.7441678643226624,-6.04546594619751,-3.291327476501465,0.9779952168464661,0.36529740691185,0.9301950335502625,-14.381760597229004,50.3800048828125,-19.760305404663086
3.318,1.8029918670654297,-7.045666217803955,-4.088137149810791,0.8713992834091187,0.16523903608322144,0.9085093140602112,-13.241742134094238,50.584625244140625,-19.424144744873047
3.322,2.0123636722564697,-7.171289443969727,-4.180261135101318,0.8684976100921631,0.13515393435955048,0.9190467596054077,-13.563285827636719,50.68693161010742,-19.90645980834961
3.33,2.311466693878174,-7.4907307624816895,-4.157529354095459,0.8422304391860962,0.010690141469240189,0.9601274132728577,-13.110200881958008,50.789241790771484,-20.73954963684082
3.339,1.4189437627792358,-7.156932353973389,-4.229313850402832,0.8301658034324646,-0.003817907767370343,1.0325149297714233,-12.554807662963867,50.570011138916016,-20.534931182861328
3.349,0.4247260093688965,-7.0923261642456055,-3.5461630821228027,0.8118398785591125,0.08964447677135468,1.0407615900039673,-12.774043083190918,51.33001708984375,-21.10494041442871
3.359,0.13998012244701385,-7.330411911010742,-3.0855445861816406,0.7739662528038025,0.2643519341945648,0.9970847964286804,-12.408652305603027,51.373870849609375,-21.879568099975586
3.379,0.41036906838417053,-7.458428382873535,-2.7972095012664795,0.6036875247955322,0.5108360648155212,0.8805622458457947,-11.838644027709961,51.286170959472656,-22.318035125732422
3.382,0.5718846321105957,-6.701099872589111,-2.933600664138794,0.5642867684364319,0.5299255847930908,0.8385652303695679,-11.809412002563477,51.403099060058594,-22.5518856048584
3.39,0.45583271980285645,-6.20219612121582,-3.267399311065674,0.5112941861152649,0.5497786998748779,0.7670939564704895,-11.283249855041504,51.33001708984375,-22.420345306396484
3.4,0.6771687865257263,-6.215356349945068,-3.69930362701416,0.46563202142715454,0.5300782918930054,0.6806565523147583,-11.180940628051758,51.53464126586914,-22.215726852416992
3.41,1.2179466485977173,-6.669992923736572,-3.3655049800872803,0.44058653712272644,0.5827654004096985,0.6154467463493347,-11.458637237548828,51.6807975769043,-22.72727394104004
3.42,2.0650060176849365,-6.687938690185547,-4.205385684967041,0.4182899594306946,0.5525276064872742,0.665232241153717,-11.064016342163086,51.66618347167969,-23.326513290405273
3.439,2.0470597743988037,-6.558726787567139,-3.7435710430145264,0.5244278311729431,0.3188716471195221,0.7171558141708374,-10.815550804138184,51.900028228759766,-23.38497543334961
3.442,2.1894326210021973,-6.57547664642334,-3.7878382205963135,0.5342016220092773,0.18784105777740479,0.6769914031028748,-10.874013900756836,52.17772674560547,-22.888044357299805
3.45,2.647658109664917,-6.592226505279541,-3.724428415298462,0.5422956347465515,-0.0682641938328743,0.5994114875793457,-10.567085266113281,52.03157043457031,-23.238819122314453
3.46,2.779263496398926,-6.489335060119629,-4.12642240524292,0.5169447064399719,-0.41111230850219727,0.5265658497810364,-10.420929908752441,51.914642333984375,-23.29728126525879
3.47,2.5459630489349365,-6.516852378845215,-4.403989791870117,0.44135013222694397,-0.7313584089279175,0.45494186878204346,-10.377082824707031,52.13387680053711,-23.458053588867188
3.48,2.2612173557281494,-6.88534688949585,-3.9182469844818115,0.3019201457500458,-0.9298896193504333,0.4207334518432617,-9.660917282104492,51.783103942871094,-24.56884002685547
3.499,1.4416755437850952,-6.973881244659424,-3.5916268825531006,0.12308934330940247,-0.6794348359107971,0.573144257068634,-8.900906562805176,51.60771560668945,-24.086524963378906
3.504,0.26440688967704773,-5.934199810028076,-4.986642360687256,0.1791362315416336,-0.5978842973709106,0.48227810859680176,-8.842443466186523,52.002342224121094,-25.43115997314453
3.51,1.903490424156189,-6.825526237487793,-3.806980848312378,0.24938572943210602,-0.7518223524093628,0.4024074673652649,-8.31628131866455,52.04618453979492,-26.0304012298584
3.52,2.11405873298645,-7.700103282928467,-3.7734811305999756,0.12919799983501434,-0.7797694802284241,0.4456261694431305,-7.9947381019592285,51.6807975769043,-25.533470153808594
3.529,2.510071039199829,-8.553144454956055,-4.718646049499512,0.16630806028842926,-0.7338019013404846,0.5016730427742004,-7.717041492462158,51.76848602294922,-26.4104061126709
3.54,3.181257724761963,-10.553544044494629,-4.549952030181885,0.1336267739534378,-0.8017606139183044,0.4873177409172058,-7.585501670837402,51.76848602294922,-27.477344512939453
3.559,2.4634108543395996,-14.70389461517334,-4.132404327392578,-0.118660569190979,-0.7191411256790161,0.5221370458602905,-7.7316575050354,51.63694763183594,-27.857351303100586
3.563,2.210968017578125,-15.019746780395508,-4.147957801818848,-0.16172656416893005,-0.6722572445869446,0.5016730427742004,-7.117801666259766,51.4177131652832,-27.111955642700195
3.57,1.5194423198699951,-15.572489738464355,-4.267599105834961,-0.2987130880355835,-0.46532657742500305,0.3955352306365967,-6.650102138519287,51.213096618652344,-26.819643020629883
3.58,1.2382856607437134,-15.377474784851074,-4.059423446655273,-0.47189339995384216,-0.1408044397830963,0.030695976689457893,-7.263957500457764,51.92926025390625,-26.834259033203125
3.589,1.7551352977752686,-14.754143714904785,-4.3788652420043945,-0.6696610450744629,-0.0074830991216003895,-0.3326161205768585,-7.132417678833008,51.43233108520508,-27.491960525512695
3.6,2.9587249755859375,-14.423934936523438,-4.6157546043396,-0.7878634333610535,0.04520402476191521,-0.6233879327774048,-7.17626428604126,51.31540298461914,-27.50657844543457
3.614,3.87876558303833,-15.314064025878906,-5.452045917510986,-1.0169378519058228,-0.2070833146572113,-1.0314459800720215,-7.877813339233398,51.1400146484375,-25.796550750732422
3.62,4.427917957305908,-16.06182098388672,-5.443671703338623,-1.0827585458755493,-0.35781431198120117,-1.1549934148788452,-8.330897331237793,51.593101501464844,-26.43963623046875
3.63,3.975674629211426,-16.84068489074707,-5.4041900634765625,-1.2657127380371094,-0.6042984127998352,-1.2956451177597046,-8.462437629699707,51.09617233276367,-25.577316284179688
3.64,3.4372897148132324,-17.30967903137207,-4.723431587219238,-1.522581696510315,-0.788627028465271,-1.4862351417541504,-9.31014347076416,50.73078155517578,-25.036537170410156
3.649,1.9680966138839722,-16.609777450561523,-4.82751989364624,-1.7108808755874634,-0.6380487084388733,-1.5260940790176392,-9.982461929321289,50.570011138916016,-24.39345359802246
3.66,0.8626124858856201,-16.03310775756836,-4.616950988769531,-1.7986927032470703,-0.4283692538738251,-1.6131422519683838,-10.289388656616211,50.29231262207031,-23.9695987701416
3.679,0.4821537435054779,-17.070396423339844,-4.329812526702881,-1.8755089044570923,0.2692388594150543,-1.7429511547088623,-11.692487716674805,49.97077178955078,-22.37649917602539
3.682,0.5347958207130432,-17.16969871520996,-4.284348964691162,-1.8790215253829956,0.3700316250324249,-1.7545576095581055,-11.970184326171875,50.07307434082031,-22.288803100585938
3.69,0.7477570176124573,-17.109878540039062,-4.3046875,-1.8777996301651,0.7156286239624023,-1.825570821762085,-12.730195999145508,49.4007568359375,-21.82110595703125
3.7,1.3124631643295288,-16.624135971069336,-4.068994522094727,-1.8813122510910034,0.9408851265907288,-1.9283488988876343,-13.607131958007812,49.26921844482422,-20.315698623657227
3.71,1.8352948427200317,-15.935001373291016,-4.003191947937012,-1.877647042274475,1.0752755403518677,-2.0257818698883057,-14.323297500610352,48.45074462890625,-19.774919509887695
3.728,1.9118653535842896,-14.895320892333984,-3.6813576221466064,-1.8559613227844238,1.1982121467590332,-2.0946569442749023,-15.41946792602539,48.37766647338867,-18.225666046142578
3.732,1.9166508913040161,-13.532608032226562,-3.267399311065674,-1.8342756032943726,1.2085968255996704,-2.261575937271118,-16.70564079284668,48.23151397705078,-17.071033477783203
3.74,2.4047865867614746,-13.009777069091797,-3.1992037296295166,-1.8333592414855957,1.0291552543640137,-2.4727823734283447,-18.06489372253418,48.114585876464844,-16.457176208496094
3.75,3.2374887466430664,-12.381660461425781,-3.2231318950653076,-1.8364136219024658,0.7431175708770752,-2.633134365081787,-19.16106414794922,47.486114501953125,-15.317158699035645
3.76,3.4743783473968506,-12.034701347351074,-3.2853453159332275,-1.8501580953598022,0.3972151279449463,-2.7404942512512207,-19.950305938720703,46.930721282958984,-13.928675651550293
3.769,3.2004001140594482,-11.578868865966797,-3.269791841506958,-1.8562666177749634,0.09834930300712585,-2.777451515197754,-20.724933624267578,46.44840621948242,-13.738672256469727
3.78,2.1954145431518555,-11.196017265319824,-3.0448665618896484,-1.8613063097000122,-0.10094548016786575,-2.763859748840332,-21.967260360717773,45.717628479003906,-12.803274154663086
3.793,0.3649054169654846,-10.816753387451172,-2.3437697887420654,-1.8930712938308716,-0.12996158003807068,-2.7543914318084717,-22.72727394104004,45.03069305419922,-11.458637237548828
3.8,-0.04666003957390785,-10.53799057006836,-2.2169501781463623,-1.922087550163269,-0.021532999351620674,-2.7395777702331543,-23.531131744384766,44.051448822021484,-11.75094985961914
3.81,-0.07776673883199692,-9.963712692260742,-2.2025930881500244,-1.9408715963363647,0.1774563491344452,-2.6981916427612305,-24.247295379638672,43.67144012451172,-10.91786003112793
3.82,0.1411765217781067,-9.239884376525879,-2.2743778228759766,-1.9112446308135986,0.37827828526496887,-2.6230552196502686,-25.182693481445312,42.6045036315918,-10.070155143737793
3.83,0.3158525824546814,-8.751748085021973,-2.2504496574401855,-1.848325490951538,0.5366451144218445,-2.542573928833008,-26.468870162963867,41.873722076416016,-9.0762939453125
3.849,0.7250252366065979,-8.504091262817383,-2.196611166000366,-1.7560847997665405,0.6207917928695679,-2.4909558296203613,-27.404266357421875,41.2014045715332,-9.690149307250977
3.853,1.9226329326629639,-8.374878883361816,-2.128415822982788,-1.6835445165634155,0.525496780872345,-2.4613285064697266,-28.83659553527832,39.783687591552734,-8.272435188293457
3.86,2.489731788635254,-8.176274299621582,-2.413161516189575,-1.6581937074661255,0.3533855378627777,-2.448805809020996,-28.968137741088867,39.69599533081055,-8.140894889831543
3.869,3.0508487224578857,-7.750351905822754,-2.5842483043670654,-1.596648931503296,0.07223481684923172,-2.400852918624878,-29.655071258544922,38.599822998046875,-7.921660900115967
3.879,3.211167812347412,-7.668996334075928,-2.400001049041748,-1.563509464263916,-0.21960605680942535,-2.2988386154174805,-30.54662322998047,37.54750061035156,-7.351651668548584
3.889,2.744567632675171,-7.637889862060547,-2.6632113456726074,-1.556179165840149,-0.5412266254425049,-2.1490237712860107,-30.298158645629883,36.71440887451172,-7.64396333694458
3.909,1.6582260131835938,-7.53021240234375,-2.4323041439056396,-1.5288430452346802,-0.658970832824707,-2.037693738937378,-31.175094604492188,35.939781188964844,-6.957030296325684
3.913,0.873380184173584,-7.256234169006348,-2.3988046646118164,-1.5100587606430054,-0.6540839672088623,-1.9149097204208374,-30.795087814331055,35.296695709228516,-6.313942909240723
3.92,0.5886343717575073,-7.147360801696777,-2.386840581893921,-1.4940236806869507,-0.5829181671142578,-1.8408424854278564,-30.970474243164062,34.31745147705078,-5.407775402069092
3.929,0.3254238963127136,-7.015755653381348,-2.342573404312134,-1.4527901411056519,-0.42470404505729675,-1.736231803894043,-31.218942642211914,33.995906829833984,-5.188541412353516
3.94,0.3038884699344635,-6.988238334655762,-2.293520450592041,-1.4170546531677246,-0.21914789080619812,-1.6244434118270874,-31.262788772583008,33.250511169433594,-4.633148193359375
3.95,0.48574298620224,-6.926024913787842,-2.416750907897949,-1.3645201921463013,0.0018325956771150231,-1.5060882568359375,-31.321250915527344,32.19818878173828,-4.9400763511657715
3.969,0.7716853022575378,-6.628118515014648,-2.4562323093414307,-1.3142764568328857,0.1843285858631134,-1.401477575302124,-31.75971794128418,31.774335861206055,-4.910844802856445
3.973,1.1976077556610107,-6.62931489944458,-2.293520450592041,-1.2525792121887207,0.30512717366218567,-1.2959506511688232,-32.373573303222656,30.56123924255371,-5.0862321853637695
3.98,1.4380862712860107,-6.802794456481934,-2.311466693878174,-1.253495454788208,0.312304824590683,-1.2528846263885498,-33.045894622802734,30.181232452392578,-4.106986045837402
3.989,1.605583906173706,-6.801598072052002,-2.575873613357544,-1.2695306539535522,0.2866485118865967,-1.2064588069915771,-33.2651252746582,29.26045036315918,-4.1654486656188965
4.0,1.84965181350708,-6.626922130584717,-2.550748825073242,-1.299310326576233,0.24129176139831543,-1.144608736038208,-33.572052001953125,28.880443572998047,-3.2885122299194336
4.01,1.9190436601638794,-6.355337142944336,-2.5495524406433105,-1.3180943727493286,0.20402897894382477,-1.0823004245758057,-33.68898010253906,28.763521194458008,-3.0692780017852783
4.029,1.7252249717712402,-5.9916276931762695,-2.4574286937713623,-1.320690631866455,0.17409659922122955,-1.0241155624389648,-34.06898498535156,26.79041290283203,-3.1277403831481934
4.033,1.447657585144043,-5.466403484344482,-2.537588357925415,-1.2840386629104614,0.16310101747512817,-0.9621127247810364,-34.229759216308594,26.68810272216797,-2.718503475189209
4.04,1.4967105388641357,-5.142175674438477,-2.551945447921753,-1.2567025423049927,0.1540907472372055,-0.9506590366363525,-33.922828674316406,25.84039878845215,-2.952353000640869
4.05,1.4883357286453247,-4.737788677215576,-2.583051919937134,-1.1817187070846558,0.1443169116973877,-0.9001098871231079,-33.45513153076172,24.934228897094727,-1.8269511461257935
4.06,1.7096717357635498,-4.018745422363281,-3.7076785564422607,-1.0685560703277588,0.07192938029766083,-0.9034696817398071,-34.06898498535156,24.56884002685547,-2.3969600200653076
4.07,2.4287149906158447,-4.137190341949463,-2.9790639877319336,-0.9272934198379517,-0.13439035415649414,-0.8804094791412354,-33.995906829833984,24.203449249267578,-2.1923413276672363
4.089,2.68953275680542,-4.211367607116699,-3.214756965637207,-0.8471173644065857,-0.2454151064157486,-0.7663304805755615,-34.49283981323242,23.414207458496094,-2.0754165649414062
4.093,3.0029923915863037,-4.90408992767334,-2.935993194580078,-0.682641863822937,-0.5816964507102966,-0.5404630303382874,-34.52206802368164,22.74188804626465,-1.6223325729370117
4.1,2.4741785526275635,-5.133800983428955,-2.9790639877319336,-0.6079636812210083,-0.6531676650047302,-0.3926336169242859,-34.2443733215332,22.318035125732422,-1.446945309638977
4.109,1.0169496536254883,-6.236892223358154,-3.6681969165802,-0.5265658497810364,-0.6317873597145081,-0.2638937830924988,-33.922828674316406,22.274188995361328,-1.2861735820770264
4.12,0.7202395796775818,-6.995416641235352,-4.217350006103516,-0.42928555607795715,-0.4334088861942291,-0.19394971430301666,-33.805904388427734,22.274188995361328,-1.6077170372009277
4.13,1.168893814086914,-7.465606689453125,-4.18145751953125,-0.32681289315223694,-0.1576032191514969,-0.08949175477027893,-33.981292724609375,22.11341667175293,-1.4761765003204346
4.149,1.7252249717712402,-7.901099681854248,-4.19581413269043,-0.25213462114334106,0.12079859524965286,0.06734789162874222,-33.77667236328125,21.324174880981445,-1.4761765003204346
4.152,2.204986095428467,-7.8484578132629395,-4.680360794067383,-0.13240504264831543,0.5763513445854187,0.32238414883613586,-33.76205825805664,21.4703311920166,-1.6661795377731323
4.16,2.3856441974639893,-7.676174640655518,-4.673182487487793,-0.06933320313692093,0.6997461318969727,0.3995058536529541,-34.142066955566406,21.38263702392578,-1.5054078102111816
4.17,3.111865520477295,-7.331608772277832,-5.26181697845459,0.019853120669722557,0.7081454992294312,0.4190535545349121,-34.2443733215332,21.704179763793945,-1.8707979917526245
4.18,4.383650779724121,-7.432106971740723,-5.636293411254883,0.11545352637767792,0.45585817098617554,0.39935314655303955,-34.06898498535156,21.616485595703125,-2.4261913299560547
4.189,5.381457805633545,-7.956134796142578,-5.851647853851318,0.15225815773010254,0.009621127508580685,0.417679101228714,-34.551300048828125,21.587255477905273,-1.6807950735092163
4.208,4.4542388916015625,-7.7180495262146,-6.311069488525391,0.32299500703811646,-0.8778132796287537,0.6834054589271545,-34.02513885498047,21.38263702392578,-1.6807950735092163
4.212,3.3511481285095215,-7.744369983673096,-6.005984783172607,0.38957932591438293,-0.9579893946647644,0.7805330157279968,-34.185909271240234,21.66033363342285,-1.900029182434082
4.22,2.001595973968506,-7.925028324127197,-5.741578102111816,0.4957171380519867,-0.9799805283546448,0.8967501521110535,-33.2651252746582,21.83572006225586,-1.7246419191360474
4.229,0.9020940661430359,-8.395217895507812,-5.897111415863037,0.6919575929641724,-0.7461718320846558,1.063821792602539,-33.031280517578125,22.332651138305664,-2.0900321006774902
4.24,0.35772696137428284,-8.557929992675781,-6.197410583496094,0.917672336101532,-0.3695734441280365,1.2293663024902344,-32.91435241699219,23.2095890045166,-2.2508037090301514
4.25,0.8051848411560059,-8.038687705993652,-6.370890140533447,1.1623238325119019,-0.04841107130050659,1.3095422983169556,-32.73896408081055,23.604209899902344,-1.8415666818618774
4.269,2.1619153022766113,-7.972884654998779,-6.2428741455078125,1.553583025932312,0.2428189367055893,1.648572564125061,-32.27126693725586,25.095001220703125,-1.943876028060913
4.272,3.3296124935150146,-8.97787094116211,-6.4666032791137695,1.626275897026062,0.2687807083129883,1.7791450023651123,-32.28588104248047,25.372699737548828,-2.2946505546569824
4.28,3.297309398651123,-9.561718940734863,-6.751348495483398,1.7336355447769165,0.29657506942749023,1.9686659574508667,-31.949722290039062,26.264249801635742,-2.806197166442871
4.289,3.3164520263671875,-10.54516887664795,-6.803991317749023,1.8251125812530518,0.22999075055122375,2.130392551422119,-31.482023239135742,26.43963623046875,-1.6077170372009277
4.3,3.891925811767578,-11.510672569274902,-6.537191390991211,1.8684840202331543,0.10323622077703476,2.2618813514709473,-31.540485382080078,27.404266357421875,-3.756211757659912
4.31,4.102494239807129,-12.480961799621582,-5.86002254486084,1.7890715599060059,-0.03833179175853729,2.4891233444213867,-30.970474243164062,28.310436248779297,-3.756211757659912
4.33,2.4765713214874268,-10.98185920715332,-6.192624568939209,1.6100881099700928,-0.15164729952812195,2.6502389907836914,-30.45893096923828,29.991230010986328,-4.428529739379883
4.334,1.7682960033416748,-10.208977699279785,-6.072983741760254,1.5942054986953735,-0.08994990587234497,2.665510416030884,-29.333528518676758,30.54662322998047,-4.560070037841797
4.34,1.435693621635437,-9.866804122924805,-5.996413230895996,1.5864169597625732,0.00809396430850029,2.6754369735717773,-29.581993103027344,31.10201644897461,-5.1300787925720215
4.35,0.9690931439399719,-9.07717227935791,-5.8995041847229,1.6137531995773315,0.2554943859577179,2.6653575897216797,-29.538145065307617,31.81818199157715,-5.1300787925720215
4.359,0.98703932762146,-8.475377082824707,-5.674578666687012,1.6858352422714233,0.6186537742614746,2.6421446800231934,-29.055830001831055,32.490501403808594,-4.808535575866699
4.369,1.7335999011993408,-8.548358917236328,-5.454439163208008,1.7602081298828125,0.8756753206253052,2.6196956634521484,-28.924291610717773,33.14820098876953,-5.612394332885742
4.389,2.23848557472229,-8.93838882446289,-5.120640754699707,1.8611537218093872,1.1180360317230225,2.5885415077209473,-28.675825119018555,35.19438934326172,-6.518562316894531
4.393,2.8701906204223633,-9.260223388671875,-4.875375747680664,1.86497163772583,1.1129964590072632,2.55448579788208,-28.16427993774414,34.975154876708984,-7.0885701179504395
4.4,3.510270595550537,-9.475577354431152,-4.658825397491455,1.8643606901168823,1.0464122295379639,2.52165150642395,-27.784273147583008,36.17363357543945,-7.702425956726074
4.409,4.433900356292725,-9.452845573425293,-4.823930263519287,1.8573358058929443,0.7637342810630798,2.436894178390503,-28.018123626708984,36.6851806640625,-8.082432746887207
4.42,5.0596232414245605,-9.083154678344727,-5.0009989738464355,1.8643606901168823,0.4576907753944397,2.3973405361175537,-27.652734756469727,37.56211853027344,-8.403975486755371
4.43,4.977071285247803,-8.792426109313965,-5.060819625854492,1.8451184034347534,0.09987646341323853,2.3548855781555176,-26.673486709594727,38.49751663208008,-9.163987159729004
4.449,4.25084924697876,-7.960920810699463,-4.861019134521484,1.7939584255218506,-0.49785515666007996,2.208735942840576,-25.591930389404297,39.47676086425781,-11.005553245544434
4.452,4.1419758796691895,-7.843672752380371,-4.840680122375488,1.7913622856140137,-0.5494732856750488,2.1933116912841797,-24.77345848083496,39.85676574707031,-10.96170711517334
4.46,3.8249268531799316,-7.537391185760498,-4.852643966674805,1.7912096977233887,-0.6962336897850037,2.13818097114563,-24.39345359802246,40.1636962890625,-11.297865867614746
4.469,2.9036900997161865,-7.424928665161133,-4.875375747680664,1.7927366495132446,-0.7600690722465515,2.105194330215454,-23.545745849609375,40.70447540283203,-11.487869262695312
4.48,2.080559253692627,-7.609175682067871,-4.800002098083496,1.819920301437378,-0.717613935470581,2.029447078704834,-22.537269592285156,41.21601867675781,-12.277112007141113
4.49,1.86520516872406,-8.249256134033203,-4.597808361053467,1.8278615474700928,-0.6430883407592773,1.8945984840393066,-21.674949645996094,41.99064636230469,-13.914060592651367
4.502,2.427518606185913,-9.139386177062988,-4.637290000915527,1.8107572793960571,-0.5085453391075134,1.7230981588363647,-21.397253036499023,42.282955169677734,-14.761765480041504
4.51,2.6249263286590576,-9.570094108581543,-4.773681163787842,1.753335952758789,-0.4404338300228119,1.6777414083480835,-20.228002548217773,42.9406623840332,-14.337912559509277
4.519,2.5531415939331055,-9.728019714355469,-4.89691162109375,1.6804903745651245,-0.3376557528972626,1.599397897720337,-19.599531173706055,43.52528381347656,-15.083308219909668
4.53,2.4849462509155273,-9.518648147583008,-4.716253280639648,1.5787811279296875,-0.2405281811952591,1.4869987964630127,-19.131834030151367,44.13914108276367,-15.945630073547363
4.54,2.5004994869232178,-9.019744873046875,-4.6432719230651855,1.4721851348876953,-0.15546520054340363,1.3871222734451294,-18.63490104675293,44.29991149902344,-16.179479598999023
4.55,2.5591237545013428,-8.648857116699219,-4.431507587432861,1.3797918558120728,-0.13011428713798523,1.2710578441619873,-18.18181800842285,44.72376251220703,-16.96872329711914
4.566,2.390429735183716,-7.921439170837402,-4.58584451675415,1.2846496105194092,-0.09392052888870239,1.0636690855026245,-17.962583541870117,45.4399299621582,-17.81642723083496
4.57,2.3772692680358887,-7.783851623535156,-4.6301116943359375,1.2930489778518677,-0.08506298810243607,0.996626615524292,-17.23180389404297,45.498390197753906,-18.211048126220703
4.58,2.472982168197632,-7.412964344024658,-4.660021781921387,1.3365731239318848,-0.10308350622653961,0.8570439219474792,-17.187957763671875,45.32300567626953,-18.956445693969727
4.59,2.513659954071045,-7.323233604431152,-4.833501815795898,1.3894129991531372,-0.16814064979553223,0.7180721163749695,-16.720256805419922,45.64455032348633,-19.64337921142578
4.6,2.7361927032470703,-7.3878397941589355,-4.595416069030762,1.4306464195251465,-0.32299500703811646,0.5720753073692322,-16.530254364013672,46.25840377807617,-20.447237014770508
4.618,3.1716861724853516,-7.6797637939453125,-4.019941806793213,1.4347697496414185,-0.5099197626113892,0.47510045766830444,-16.179479598999023,46.88687515258789,-20.549545288085938
4.622,3.5126636028289795,-7.4632134437561035,-3.902693510055542,1.3559681177139282,-0.7849618196487427,0.48945578932762146,-15.887167930603027,47.19380569458008,-21.353404998779297
4.63,3.3619158267974854,-6.952345848083496,-4.253242015838623,1.331838846206665,-0.9317222237586975,0.5091561675071716,-15.682548522949219,46.62379455566406,-21.806488037109375
4.639,3.335594892501831,-6.754938125610352,-4.336990833282471,1.3153455257415771,-1.1604912281036377,0.5291619896888733,-15.097925186157227,47.60304260253906,-22.858814239501953
4.649,3.1513471603393555,-6.921239376068115,-4.3896331787109375,1.292285442352295,-1.3607022762298584,0.5522221326828003,-14.600994110107422,47.63227081298828,-24.028060913085938
4.66,3.016152858734131,-6.643671989440918,-5.067997932434082,1.3457361459732056,-1.505019187927246,0.5338962078094482,-14.177140235900879,47.41303634643555,-25.13884925842285
4.678,3.1920251846313477,-6.678368091583252,-4.706681728363037,1.4039210081100464,-1.7279850244522095,0.5271766781806946,-13.241742134094238,47.74919891357422,-24.87576675415039
4.682,2.2576282024383545,-7.183253765106201,-5.130211353302002,1.3920091390609741,-1.8510743379592896,0.5372559428215027,-13.110200881958008,48.37766647338867,-26.49810028076172
4.69,1.8640087842941284,-7.8041911125183105,-4.232903003692627,1.3781119585037231,-1.8755089044570923,0.5296201705932617,-12.510961532592773,48.33382034301758,-25.986553192138672
4.7,1.2969098091125488,-8.212166786193848,-4.29750919342041,1.2915217876434326,-1.7182111740112305,0.5771149396896362,-12.598654747009277,48.37766647338867,-27.959659576416016
4.709,0.916451096534729,-8.647661209106445,-4.0247273445129395,1.1951578855514526,-1.4330898523330688,0.6316346526145935,-11.882491111755371,48.23151397705078,-28.661209106445312
4.72,0.8566304445266724,-8.896513938903809,-4.219742774963379,1.0331257581710815,-1.0122036933898926,0.698677122592926,-11.677871704101562,48.026893615722656,-28.880443572998047
4.739,0.5682953596115112,-9.352347373962402,-4.356133460998535,0.9011789560317993,-0.6472117304801941,0.7367034554481506,-10.96170711517334,48.494590759277344,-29.90353775024414
4.743,0.9810572266578674,-10.278369903564453,-4.71744966506958,0.6843218207359314,-0.23380866646766663,0.7032586336135864,-10.625548362731934,48.52382278442383,-29.947385787963867
4.75,1.7335999011993408,-10.715059280395508,-5.120640754699707,0.5473352670669556,-0.0354301817715168,0.658970832824707,-10.21631145477295,48.80152130126953,-29.845073699951172
4.759,2.880958318710327,-11.408977508544922,-5.349154949188232,0.3845396637916565,0.10476338863372803,0.6291911602020264,-10.318620681762695,48.5822868347168,-29.7281494140625
4.769,3.431307554244995,-11.883954048156738,-5.2283172607421875,0.161268413066864,0.10797043144702911,0.5685628056526184,-10.420929908752441,48.494590759277344,-30.385852813720703
4.779,3.177668571472168,-12.0335054397583,-4.935196399688721,0.0022907445672899485,0.09162978827953339,0.48548513650894165,-9.997076988220215,47.734580993652344,-30.181232452392578
4.798,2.5088744163513184,-11.797811508178711,-5.307280540466309,-0.14706581830978394,0.07254024595022202,0.3208569884300232,-10.157849311828613,47.89535140991211,-30.83893585205078
4.803,1.765903115272522,-11.81336498260498,-5.260620594024658,-0.3130684196949005,0.04245513305068016,-0.06811147183179855,-10.45016098022461,47.80765914916992,-29.932767868041992
4.81,1.5948163270950317,-12.217752456665039,-4.991427898406982,-0.37690383195877075,0.04764748737215996,-0.21319197118282318,-10.128617286682129,47.26688003540039,-30.385852813720703
4.82,2.592623233795166,-12.879366874694824,-6.674778461456299,-0.48426342010498047,0.02626720443367958,-0.4928155243396759,-10.304004669189453,47.95381546020508,-30.166616439819336
4.83,2.8067808151245117,-14.529218673706055,-6.685546398162842,-0.5949827432632446,0.05711590126156807,-0.5665775537490845,-10.362466812133789,47.64688491821289,-29.830459594726562
4.84,2.882154941558838,-15.911073684692383,-6.14716100692749,-0.7620543241500854,0.0024434609804302454,-0.7028005123138428,-10.990938186645508,47.82227325439453,-30.07892417907715
4.859,2.750549554824829,-17.40180206298828,-4.890929222106934,-0.9870055317878723,0.09514226019382477,-0.7432702779769897,-11.137094497680664,47.39842224121094,-29.87430763244629
4.863,1.8843477964401245,-17.662620544433594,-4.2245283126831055,-1.3810136318206787,0.49525898694992065,-0.8316929936408997,-11.078632354736328,47.44226837158203,-27.769657135009766
4.87,1.5936198234558105,-16.76291847229004,-4.309473514556885,-1.527163028717041,0.679129421710968,-0.9656251668930054,-11.79479694366455,47.01841354370117,-28.222742080688477
4.88,2.1643080711364746,-14.92164134979248,-4.637290000915527,-1.640325903892517,0.8263479471206665,-1.162629246711731,-12.043262481689453,46.755332946777344,-26.775794982910156
4.889,2.8283162117004395,-14.380864143371582,-4.738985061645508,-1.6916385889053345,0.8524624109268188,-1.3307698965072632,-12.730195999145508,46.872257232666016,-26.761180877685547
4.9,3.074777126312256,-13.993226051330566,-4.803591251373291,-1.7114917039871216,0.7779368162155151,-1.4772248268127441,-13.387897491455078,46.88687515258789,-25.621164321899414
4.919,3.0077779293060303,-13.648659706115723,-4.692325115203857,-1.7229453325271606,0.6747006773948669,-1.6311628818511963,-14.410990715026855,46.65302658081055,-24.144987106323242
4.923,3.1477580070495605,-13.264612197875977,-4.789234161376953,-1.730886697769165,0.4862487316131592,-1.8562666177749634,-15.41946792602539,46.65302658081055,-24.144987106323242
4.93,3.2207393646240234,-13.24427318572998,-4.723431587219238,-1.723861575126648,0.3897320032119751,-1.9330830574035645,-15.375621795654297,45.922245025634766,-24.11575698852539
4.94,3.0269205570220947,-13.439288139343262,-3.944568157196045,-1.7368425130844116,0.3147483170032501,-1.990657091140747,-16.734872817993164,45.46916198730469,-22.054954528808594
4.949,2.5435705184936523,-13.769497871398926,-3.59043025970459,-1.8211419582366943,0.30115655064582825,-2.0422751903533936,-17.217187881469727,45.805320739746094,-21.631101608276367
4.96,2.0961124897003174,-13.707283973693848,-3.7016966342926025,-1.930639624595642,0.33276882767677307,-2.1032090187072754,-17.567962646484375,45.14761734008789,-21.119556427001953
4.979,1.9082759618759155,-13.350753784179688,-3.6466617584228516,-2.0312795639038086,0.3666718602180481,-2.230116367340088,-18.591054916381836,44.97222900390625,-20.578777313232422
4.983,2.115255117416382,-12.647263526916504,-3.5916268825531006,-2.1563544273376465,0.4896084666252136,-2.3011293411254883,-19.62876319885254,44.15375518798828,-19.307220458984375
4.99,2.524427890777588,-12.095718383789062,-3.5880372524261475,-2.194533348083496,0.5059491395950317,-2.341904401779175,-20.02338409423828,43.817596435546875,-18.137971878051758
5.0,2.1930220127105713,-11.219944953918457,-3.535395383834839,-2.1922426223754883,0.5253441333770752,-2.3709206581115723,-21.411867141723633,43.52528381347656,-17.655654907226562
5.01,1.7934205532073975,-10.38365364074707,-3.4408788681030273,-2.1646008491516113,0.6152939796447754,-2.419790029525757,-21.55802345275879,42.6045036315918,-16.866413116455078
5.02,1.8592231273651123,-9.969695091247559,-3.346362352371216,-2.1204659938812256,0.6015495657920837,-2.5297458171844482,-23.12189483642578,42.6045036315918,-16.194095611572266
5.04,2.1343977451324463,-9.790233612060547,-3.019742250442505,-2.0815231800079346,0.550084114074707,-2.6372578144073486,-25.080385208129883,41.40602111816406,-13.767904281616211
5.043,2.51724910736084,-9.416953086853027,-2.660818576812744,-2.0563249588012695,0.4518875777721405,-2.705827474594116,-25.31423568725586,40.83601379394531,-13.44636058807373
5.05,2.737389087677002,-9.269794464111328,-2.5986053943634033,-2.046092987060547,0.3752239942550659,-2.7183501720428467,-25.957321166992188,40.2660026550293,-14.264835357666016
5.06,2.9312076568603516,-9.251848220825195,-2.3856441974639893,-2.0453295707702637,0.23396137356758118,-2.7046058177948,-26.702720642089844,39.91522979736328,-12.803274154663086
5.069,2.854637384414673,-9.351150512695312,-2.166700839996338,-2.068237066268921,0.0708603635430336,-2.6760478019714355,-27.389652252197266,39.08213806152344,-11.999415397644043
5.08,2.6560330390930176,-9.263812065124512,-2.266003131866455,-2.1178698539733887,-0.1085812970995903,-2.63832688331604,-28.032737731933594,38.29289627075195,-11.546331405639648
5.099,2.414357900619507,-8.882157325744629,-2.495713949203491,-2.1262691020965576,-0.22342397272586823,-2.5841126441955566,-29.567378997802734,36.290557861328125,-10.698626518249512
5.103,1.94297194480896,-8.283951759338379,-2.609373092651367,-2.068084239959717,-0.3280346393585205,-2.4769058227539062,-30.137386322021484,36.159019470214844,-10.172464370727539
5.11,1.6713865995407104,-8.079365730285645,-2.68953275680542,-2.037540912628174,-0.31963521242141724,-2.4274258613586426,-30.298158645629883,35.50131607055664,-9.982461929321289
5.12,1.2837493419647217,-8.073383331298828,-2.54117751121521,-1.9741637706756592,-0.2687807083129883,-2.3347270488739014,-31.18971061706543,34.551300048828125,-9.397836685180664
5.13,1.153340458869934,-8.060222625732422,-2.396411657333374,-1.9084956645965576,-0.1449277698993683,-2.2342395782470703,-31.81818199157715,33.981292724609375,-9.383220672607422
5.14,1.0923235416412354,-7.902296543121338,-2.0003998279571533,-1.8794795274734497,0.008399397134780884,-2.1235201358795166,-31.75971794128418,32.95820236206055,-8.535516738891602
5.158,0.9834501147270203,-7.5912299156188965,-1.8197414875030518,-1.8379408121109009,0.2617557644844055,-1.9480491876602173,-33.14820098876953,31.862030029296875,-7.819350719451904
5.162,1.113858938217163,-7.332805156707764,-1.7012969255447388,-1.8254181146621704,0.30436357855796814,-1.906510353088379,-32.78281021118164,31.233558654785156,-7.3370361328125
5.17,1.332802176475525,-7.162914276123047,-1.8065810203552246,-1.813048005104065,0.33490684628486633,-1.8599319458007812,-33.74744415283203,30.780473709106445,-6.8839521408081055
5.18,1.688136339187622,-6.929614543914795,-1.9621144533157349,-1.7753270864486694,0.3393356204032898,-1.7750216722488403,-34.419761657714844,29.275066375732422,-7.161648750305176
5.19,2.149951219558716,-6.577868938446045,-2.15234375,-1.7273741960525513,0.2785545587539673,-1.708590030670166,-34.25898742675781,28.471206665039062,-6.474714756011963
5.2,2.6392831802368164,-6.470191955566406,-2.4358932971954346,-1.672243595123291,0.1472185254096985,-1.640325903892517,-35.20900344848633,27.842735290527344,-6.781642913818359
5.219,3.0759735107421875,-6.349354267120361,-2.6009981632232666,-1.5335772037506104,-0.24297165870666504,-1.4486669301986694,-35.20900344848633,26.454252243041992,-6.182402610778809
5.222,2.7936203479766846,-6.2428741455078125,-2.5986053943634033,-1.5167783498764038,-0.28557947278022766,-1.417970895767212,-35.25284957885742,25.78193473815918,-5.817012310028076
5.23,2.2408783435821533,-6.228517055511475,-2.455035924911499,-1.4672982692718506,-0.4109595715999603,-1.3083206415176392,-35.545162200927734,25.489622116088867,-6.547792911529541
5.239,1.5840485095977783,-6.198606967926025,-2.255235195159912,-1.430799126625061,-0.4245513379573822,-1.226770043373108,-35.530548095703125,24.890382766723633,-5.510084629058838
5.249,0.9535397887229919,-6.008377552032471,-1.9214365482330322,-1.4149165153503418,-0.3597996234893799,-1.15178644657135,-35.559776306152344,23.925752639770508,-4.969306945800781
5.26,0.29431718587875366,-5.224728107452393,-2.4358932971954346,-1.376584768295288,-0.2405281811952591,-1.0960450172424316,-35.6036262512207,23.414207458496094,-4.647763729095459
5.279,0.4163511395454407,-4.682753562927246,-2.4370899200439453,-1.1887437105178833,-0.050243668258190155,-1.0580185651779175,-36.05670928955078,21.57263946533203,-4.969306945800781
5.282,1.435693621635437,-4.289134502410889,-2.7828526496887207,-1.12506103515625,-0.017867807298898697,-0.9957103133201599,-36.14440155029297,21.38263702392578,-4.472376346588135
5.29,1.9262220859527588,-4.396811485290527,-2.83669114112854,-1.0128145217895508,0.00015271631127689034,-0.8790351152420044,-35.61824035644531,21.338788986206055,-4.311604976654053
5.3,2.1272192001342773,-4.637290000915527,-3.084348201751709,-0.8475754857063293,-0.050854530185461044,-0.7247915863990784,-36.275943756103516,20.856473922729492,-4.1800642013549805
5.31,2.362912178039551,-4.878964900970459,-3.276970386505127,-0.6988298296928406,-0.14004085958003998,-0.625220537185669,-35.69131851196289,20.505699157714844,-5.1154632568359375
5.32,2.912065029144287,-5.558526992797852,-3.0664021968841553,-0.5331326127052307,-0.2973386347293854,-0.4946480989456177,-35.325927734375,20.154926300048828,-4.370067119598389
5.339,2.4299113750457764,-6.460620880126953,-2.6488544940948486,-0.22647827863693237,-0.5421428680419922,-0.13836097717285156,-35.13592529296875,20.052616119384766,-4.750072956085205
5.343,2.029113531112671,-6.620940208435059,-2.5363919734954834,-0.20051652193069458,-0.5406157374382019,-0.06398813426494598,-35.25284957885742,19.935691833496094,-4.998538494110107
5.349,1.3363914489746094,-6.4905314445495605,-2.9491539001464844,-0.1618792861700058,-0.42898011207580566,0.04245513305068016,-35.04823303222656,19.657995223999023,-4.092370510101318
5.359,0.49651068449020386,-6.144768238067627,-2.926422119140625,-0.1007927656173706,-0.1768454760313034,0.12996158003807068,-35.01900100708008,19.131834030151367,-4.048523902893066
5.369,0.18903298676013947,-5.55613374710083,-3.7567315101623535,-0.024434609338641167,0.13958270847797394,0.1592831164598465,-34.989768981933594,19.7310733795166,-4.545454502105713
5.38,0.9188438653945923,-5.349154949188232,-4.068994522094727,0.06780604273080826,0.4164573848247528,0.16814064979553223,-35.0043830871582,19.55568504333496,-3.726980447769165
5.399,4.411168098449707,-5.400600433349609,-5.917449951171875,0.3539963960647583,0.483957976102829,0.28787022829055786,-35.74978256225586,19.935691833496094,-5.2031569480896
5.403,5.357529640197754,-5.940181732177734,-5.454439163208008,0.45723262429237366,0.3646865487098694,0.3352122902870178,-35.7059326171875,19.950305938720703,-4.603917121887207
5.409,5.9952168464660645,-6.16989278793335,-6.459424018859863,0.5803219676017761,0.1039998009800911,0.48426342010498047,-35.20900344848633,19.979537963867188,-5.495469093322754
5.42,6.358925819396973,-6.8410797119140625,-6.489335060119629,0.8339837193489075,-0.33536502718925476,0.6748533248901367,-35.77901077270508,20.052616119384766,-4.983922958374023
5.43,5.697310447692871,-7.432106971740723,-5.735595226287842,0.9845620393753052,-0.8109236359596252,0.8278751373291016,-35.76439666748047,20.783395767211914,-5.393159866333008
5.44,4.298705577850342,-7.584051132202148,-5.706881999969482,1.1093312501907349,-1.1833986043930054,1.028544306755066,-34.551300048828125,21.26571273803711,-5.80239725112915
5.458,1.7312071323394775,-6.754938125610352,-6.611368656158447,1.159727692604065,-1.2073750495910645,1.1913399696350098,-34.05436706542969,22.09880256652832,-5.773165702819824
5.461,1.6151552200317383,-6.6520466804504395,-6.7417778968811035,1.1727086305618286,-1.1644618511199951,1.2231049537658691,-33.38205337524414,21.952646255493164,-5.656240940093994
5.469,1.2921241521835327,-6.626922130584717,-6.726224422454834,1.1921035051345825,-1.0399980545043945,1.312138557434082,-33.01666259765625,22.858814239501953,-6.0654778480529785
5.48,0.9655039310455322,-7.5565338134765625,-6.472585201263428,1.1997393369674683,-0.8006916046142578,1.4844025373458862,-32.21280288696289,23.355743408203125,-6.328558921813965
5.49,0.696311354637146,-8.670392990112305,-6.4833526611328125,1.203404426574707,-0.37461310625076294,1.715767741203308,-32.11049270629883,24.144987106323242,-6.153171539306641
5.508,0.6879364848136902,-9.142974853515625,-6.92482852935791,1.2235630750656128,-0.02122756652534008,1.8478673696517944,-31.803565979003906,24.524991989135742,-7.147032737731934
5.512,1.5242280960083008,-9.079565048217773,-7.106682777404785,1.2822060585021973,0.2816088795661926,1.9536997079849243,-31.218942642211914,25.182693481445312,-7.45396089553833
5.52,2.2301106452941895,-9.18724250793457,-7.133004188537598,1.3497066497802734,0.3643811345100403,2.0201313495635986,-31.20432472229004,26.103479385375977,-7.132417678833008
5.529,3.25663161277771,-9.951748847961426,-7.167700290679932,1.4552338123321533,0.35063666105270386,2.1404716968536377,-30.985092163085938,27.024263381958008,-7.629348278045654
5.54,3.8356947898864746,-10.907682418823242,-7.098308086395264,1.6320792436599731,0.2480112910270691,2.3377814292907715,-31.11663246154785,27.316574096679688,-8.1262788772583
5.549,3.665804386138916,-11.648260116577148,-6.619743347167969,1.7817411422729492,0.1713476926088333,2.4778220653533936,-30.678165435791016,28.383514404296875,-8.140894889831543
5.56,3.2446675300598145,-12.057433128356934,-6.130411148071289,1.9172005653381348,0.07483098655939102,2.546086311340332,-30.53200912475586,28.82198143005371,-8.769365310668945
5.575,2.717050075531006,-11.909078598022461,-5.528616905212402,2.0784690380096436,-0.00931569468230009,2.5749497413635254,-29.508914947509766,30.400466918945312,-9.617071151733398
5.58,2.6500511169433594,-11.638689041137695,-5.676971435546875,2.119091510772705,-0.010537425056099892,2.5789201259613037,-29.45045280456543,30.605087280273438,-9.441683769226074
5.59,2.6297121047973633,-10.932806968688965,-6.01675271987915,2.2401955127716064,-0.0277943667024374,2.5696043968200684,-29.15814208984375,31.64279556274414,-10.903244018554688
5.599,2.7278177738189697,-10.734201431274414,-6.08494758605957,2.325563907623291,-0.0809396430850029,2.54837703704834,-28.485822677612305,32.812042236328125,-10.874013900756836
5.61,2.5591237545013428,-10.956734657287598,-5.90787935256958,2.370157241821289,-0.13072516024112701,2.5167646408081055,-27.842735290527344,33.01666259765625,-10.230926513671875
5.628,2.4095723628997803,-11.140981674194336,-5.717649936676025,2.373211622238159,-0.15653420984745026,2.4697282314300537,-27.08272361755371,34.185909271240234,-11.122478485107422
5.632,2.667997121810913,-11.300105094909668,-5.717649936676025,2.3248002529144287,-0.19425514340400696,2.3773345947265625,-25.89885902404785,35.16515350341797,-12.627885818481445
5.647,2.854637384414673,-11.13619613647461,-5.639883041381836,2.252718210220337,-0.2292271852493286,2.289522886276245,-25.036537170410156,36.115169525146484,-13.855597496032715
5.651,2.750549554824829,-11.0895357131958,-5.56450891494751,2.2429442405700684,-0.22815817594528198,2.2763893604278564,-24.48114585876465,36.34901809692383,-14.060215950012207
5.66,2.431107759475708,-11.051251411437988,-5.48674201965332,2.213470220565796,-0.19837848842144012,2.2093467712402344,-24.305757522583008,37.22595977783203,-14.206372261047363
5.669,2.3222343921661377,-10.934002876281738,-5.175675392150879,2.188119411468506,-0.15653420984745026,2.108248472213745,-22.84419822692871,37.854427337646484,-15.931015014648438
5.68,2.4921247959136963,-10.65284538269043,-5.100301265716553,2.1403191089630127,-0.09529497474431992,1.9978346824645996,-22.683425903320312,38.38058853149414,-16.471790313720703
5.69,2.671586275100708,-9.988838195800781,-5.058426856994629,2.093587875366211,-0.05803219974040985,1.886962652206421,-21.981876373291016,38.71674728393555,-16.530254364013672
5.703,2.335394859313965,-9.073582649230957,-4.813162326812744,2.0231857299804688,-0.1345430612564087,1.659873604774475,-21.221864700317383,39.54983901977539,-17.24641990661621
5.71,1.9956140518188477,-8.935996055603027,-4.394418716430664,1.9628627300262451,-0.15073098242282867,1.5563318729400635,-20.768781661987305,39.66676330566406,-17.80181312561035
5.72,1.4416755437850952,-8.811569213867188,-4.186243057250977,1.8547396659851074,-0.07360926270484924,1.4326316118240356,-20.242618560791016,40.587547302246094,-18.09412384033203
5.73,1.1509475708007812,-8.37129020690918,-4.074976921081543,1.734704613685608,0.06612616032361984,1.3054189682006836,-19.424144744873047,40.558319091796875,-19.117216110229492
5.74,1.310070276260376,-7.884350299835205,-4.089333534240723,1.6488779783248901,0.17959438264369965,1.168279767036438,-19.05875587463379,40.967552185058594,-19.90645980834961
5.75,1.5589239597320557,-7.537391185760498,-4.1659040451049805,1.5867223739624023,0.35445454716682434,1.1007791757583618,-19.029523849487305,41.25986862182617,-20.476469039916992
5.766,1.7754743099212646,-7.137789726257324,-4.140779495239258,1.5586225986480713,0.45753806829452515,0.9900597929954529,-18.56182289123535,41.99064636230469,-20.476469039916992
5.77,1.8747763633728027,-7.009774208068848,-4.132404327392578,1.550681471824646,0.47510045766830444,0.958142101764679,-17.9918155670166,41.61064147949219,-21.10494041442871
5.78,2.0542380809783936,-6.6723856925964355,-4.2963128089904785,1.5570954084396362,0.46929723024368286,0.8930849432945251,-18.137971878051758,41.82987594604492,-22.230342864990234
5.79,2.321038007736206,-6.496513366699219,-4.281955718994141,1.565036654472351,0.3828597962856293,0.8289440870285034,-17.88950538635254,42.312191009521484,-21.66033363342285
5.8,2.724228620529175,-6.571887016296387,-4.098905086517334,1.5212072134017944,0.20952677726745605,0.7933611869812012,-18.108739852905273,42.6045036315918,-22.464191436767578
5.819,2.7804598808288574,-6.8614182472229,-3.7746775150299072,1.434617042541504,0.04734205827116966,0.8159632682800293,-17.670272827148438,43.23297119140625,-22.84419822692871
5.823,2.139183282852173,-7.026523113250732,-3.4815566539764404,1.3037391901016235,-0.11316278576850891,0.8478809595108032,-17.187957763671875,42.9406623840332,-23.794212341308594
5.83,1.9022939205169678,-6.996613025665283,-3.4408788681030273,1.2345587015151978,-0.15821409225463867,0.85368412733078,-17.494884490966797,43.59836196899414,-23.808828353881836
5.839,1.9657037258148193,-6.929614543914795,-3.482753276824951,1.1888965368270874,-0.19608773291110992,0.8506298065185547,-16.720256805419922,43.58374786376953,-24.831920623779297
5.849,2.135594129562378,-6.9164533615112305,-3.6335010528564453,1.1901181936264038,-0.21639901399612427,0.8651378750801086,-16.559486389160156,43.58374786376953,-25.13884925842285
5.859,2.0829520225524902,-6.4079790115356445,-4.158725261688232,1.2518155574798584,-0.2828305959701538,0.8197811841964722,-16.091785430908203,43.93452072143555,-25.197309494018555
5.878,1.939382791519165,-6.234498977661133,-4.340579986572266,1.3266466856002808,-0.375071257352829,0.7521278262138367,-15.667933464050293,44.051448822021484,-26.936567306518555
5.882,2.190629005432129,-6.819544315338135,-4.753342151641846,1.4016302824020386,-0.5184718370437622,0.6553056836128235,-14.86407470703125,43.992984771728516,-27.126571655273438
5.89,2.2372889518737793,-7.422535419464111,-4.802394866943359,1.4110987186431885,-0.582001805305481,0.6462953686714172,-15.18561840057373,44.59222412109375,-26.98041534423828
5.9,2.0243277549743652,-7.050451278686523,-5.606383323669434,1.4483615159988403,-0.6230825781822205,0.5697845816612244,-14.235603332519531,44.32914352416992,-28.06197166442871
5.909,3.3415768146514893,-8.219346046447754,-3.5126636028289795,1.4387402534484863,-0.8416195511817932,0.5830708742141724,-14.133294105529785,44.21221923828125,-28.325050354003906
5.92,2.7696919441223145,-8.70389175415039,-4.191028594970703,1.226770043373108,-0.7443392872810364,0.7822129726409912,-13.811750411987305,44.85530471801758,-29.36275863647461
5.939,1.813759446144104,-8.435895919799805,-4.697110652923584,1.0949759483337402,-0.6727153658866882,0.8613199591636658,-13.621747970581055,45.001461029052734,-29.611223220825195
5.943,1.2873386144638062,-7.6151580810546875,-5.058426856994629,0.9421069025993347,-0.5844453573226929,0.7852672338485718,-13.183279037475586,45.01607894897461,-31.08740234375
5.95,1.5816556215286255,-7.683353424072266,-5.077569484710693,0.8851436972618103,-0.5442808866500854,0.765566885471344,-12.744811058044434,44.86991882324219,-31.876644134521484
5.96,1.97407865524292,-8.544769287109375,-4.910071849822998,0.8051204085350037,-0.5206099152565002,0.7486153841018677,-12.730195999145508,44.95761489868164,-31.832796096801758
5.97,1.7802599668502808,-9.81655502319336,-5.038087844848633,0.6922630071640015,-0.474642276763916,0.7270823121070862,-12.174802780151367,44.91376876831055,-32.1251106262207
5.98,1.5110673904418945,-10.466205596923828,-5.100301265716553,0.5685628056526184,-0.33719760179519653,0.6963863968849182,-11.648640632629395,44.928382873535156,-33.07512283325195
5.998,1.6773686408996582,-11.09791088104248,-4.922036170959473,0.42531490325927734,-0.22708913683891296,0.6218608021736145,-11.882491111755371,44.70914840698242,-32.797428131103516
6.003,2.204986095428467,-12.430712699890137,-5.091926097869873,0.17806722223758698,-0.018325956538319588,0.5766568183898926,-11.078632354736328,44.4022216796875,-32.35895919799805
6.01,2.2648065090179443,-12.604192733764648,-5.43290376663208,0.055894169956445694,0.08903361111879349,0.5462662577629089,-10.698626518249512,44.48991394042969,-32.622039794921875
6.02,2.579462766647339,-12.716655731201172,-5.775076866149902,-0.062460970133543015,0.1463022232055664,0.4303545355796814,-10.464776039123535,44.431453704833984,-33.177433013916016
6.03,3.2961132526397705,-12.760923385620117,-5.343172550201416,-0.21762074530124664,0.1336267739534378,0.28527405858039856,-10.976323127746582,44.24144744873047,-32.65127182006836
6.039,3.541377305984497,-12.625728607177734,-5.142175674438477,-0.3874412775039673,0.03420845419168472,0.13820825517177582,-11.122478485107422,44.13914108276367,-33.2066650390625
6.059,3.1106693744659424,-12.498908996582031,-4.9435715675354,-0.5174028873443604,-0.09957103431224823,-0.03451388329267502,-11.166325569152832,43.86144256591797,-33.29435729980469
6.062,1.891526222229004,-12.607781410217285,-4.299902439117432,-0.7177666425704956,-0.1261436641216278,-0.34177911281585693,-11.093247413635254,44.007598876953125,-33.22127914428711
6.07,1.7419748306274414,-12.984651565551758,-4.35972261428833,-0.8255844116210938,-0.11514809727668762,-0.5170974135398865,-11.195556640625,43.7006721496582,-32.38819122314453
6.079,1.794616937637329,-13.372288703918457,-4.613361835479736,-0.9404270052909851,0.029474247246980667,-0.6537785530090332,-11.51710033416748,43.817596435546875,-32.28588104248047
6.09,1.9968103170394897,-13.385449409484863,-4.937589645385742,-1.0335839986801147,0.1748601794242859,-0.7698429226875305,-12.028646469116211,43.56913375854492,-31.905874252319336
6.1,2.029113531112671,-13.311272621154785,-5.016552448272705,-1.120937705039978,0.25625795125961304,-0.8756753206253052,-11.926337242126465,43.52528381347656,-31.482023239135742
6.12,2.084148406982422,-13.555339813232422,-4.858626365661621,-1.236849308013916,0.3848450779914856,-0.9549350738525391,-13.022507667541504,43.91990661621094,-30.678165435791016
6.124,2.6727828979492188,-14.717055320739746,-4.549952030181885,-1.4094188213348389,0.4967861771583557,-0.9798278212547302,-13.548670768737793,43.94913864135742,-29.684301376342773
6.13,2.7493531703948975,-15.199209213256836,-4.561916351318359,-1.4624114036560059,0.5262603759765625,-0.9805914163589478,-13.417129516601562,43.58374786376953,-29.80122947692871
6.14,2.5435705184936523,-15.365510940551758,-4.636093616485596,-1.5572481155395508,0.5699372291564941,-1.0086911916732788,-14.381760597229004,43.53989791870117,-28.924291610717773
6.149,2.392822504043579,-15.239887237548828,-4.651647090911865,-1.6296356916427612,0.6131559610366821,-1.0711522102355957,-14.922536849975586,43.3206672668457,-28.368898391723633
6.16,2.5531415939331055,-15.07597827911377,-4.681557655334473,-1.6847662925720215,0.6485861539840698,-1.1658363342285156,-15.317158699035645,43.13066482543945,-28.105815887451172
6.179,2.823530673980713,-14.841482162475586,-4.707878589630127,-1.7104226350784302,0.6488915681838989,-1.2400565147399902,-16.018707275390625,43.189125061035156,-27.272727966308594
6.183,2.4849462509155273,-14.45504093170166,-4.377668857574463,-1.7232508659362793,0.6629414558410645,-1.3379476070404053,-16.471790313720703,43.247589111328125,-25.43115997314453
6.19,2.135594129562378,-14.190633773803711,-4.1347975730896,-1.737911581993103,0.688292384147644,-1.4199562072753906,-16.749486923217773,42.73604202270508,-26.001171112060547
6.2,1.9465612173080444,-13.807783126831055,-3.946960687637329,-1.7644842863082886,0.7417430877685547,-1.5517504215240479,-17.743350982666016,42.45834732055664,-24.247295379638672
6.21,2.11405873298645,-13.326825141906738,-3.844069242477417,-1.784031867980957,0.818559467792511,-1.7121025323867798,-18.70798110961914,41.77141189575195,-23.984214782714844
6.22,2.596212387084961,-12.789636611938477,-3.867997646331787,-1.7860172986984253,0.8448265790939331,-1.8220582008361816,-19.08798599243164,41.80064392089844,-23.472667694091797
6.24,2.9419755935668945,-12.394821166992188,-3.847658634185791,-1.7851009368896484,0.7901541590690613,-1.9336940050125122,-21.309558868408203,41.84449005126953,-22.157264709472656
6.243,3.1621150970458984,-11.832507133483887,-3.974478244781494,-1.7967073917388916,0.5728389024734497,-2.1143572330474854,-21.514177322387695,41.27448272705078,-21.777257919311523
6.25,3.0999014377593994,-11.650652885437012,-3.9014973640441895,-1.8008307218551636,0.4792237877845764,-2.165822744369507,-21.733409881591797,41.727561950683594,-21.236480712890625
6.259,2.7290141582489014,-11.277373313903809,-3.6837503910064697,-1.817476749420166,0.32009339332580566,-2.2539401054382324,-22.74188804626465,41.2452507019043,-21.00263023376465
6.27,2.0243277549743652,-10.916056632995605,-3.284149169921875,-1.853365182876587,0.23289236426353455,-2.3328943252563477,-23.794212341308594,41.11370849609375,-20.038002014160156
6.279,1.7922240495681763,-10.50568675994873,-2.987438917160034,-1.907121181488037,0.22082778811454773,-2.391995668411255,-24.56884002685547,40.6021614074707,-19.52645492553711
6.299,1.612762451171875,-9.895517349243164,-2.939582586288452,-1.9533942937850952,0.2597704529762268,-2.4216225147247314,-25.270387649536133,39.66676330566406,-18.795673370361328
6.304,1.3734800815582275,-8.900103569030762,-3.1082763671875,-1.9708038568496704,0.3533855378627777,-2.4616341590881348,-26.746564865112305,38.585208892822266,-17.9918155670166
6.31,1.3603196144104004,-8.70389175415039,-3.129812002182007,-1.9602665901184082,0.3830125033855438,-2.484541416168213,-27.52119255065918,38.263668060302734,-17.494884490966797
6.32,1.4177473783493042,-8.46461009979248,-3.249452829360962,-1.9387335777282715,0.42302414774894714,-2.5105032920837402,-28.018123626708984,37.605960845947266,-16.574100494384766
6.329,1.6701900959014893,-8.070990562438965,-3.2303104400634766,-1.8904752731323242,0.4418082535266876,-2.5418100357055664,-28.71967315673828,36.831336975097656,-16.2525577545166
6.34,1.9477574825286865,-7.954938888549805,-3.0723841190338135,-1.8359553813934326,0.41722097992897034,-2.5586090087890625,-29.391992568969727,36.33440399169922,-16.939491271972656
6.359,2.2683956623077393,-7.983652591705322,-2.964707136154175,-1.7945693731307983,0.3514002561569214,-2.552042245864868,-30.99970817565918,35.06284713745117,-14.688687324523926
6.363,2.7314069271087646,-8.041080474853516,-2.878565549850464,-1.7617353200912476,0.2076941728591919,-2.4825563430786133,-31.02893829345703,34.65361022949219,-14.016368865966797
6.37,2.7768707275390625,-7.998009204864502,-2.8390841484069824,-1.7524195909500122,0.12202033400535583,-2.4277312755584717,-31.920490264892578,34.08360290527344,-14.016368865966797
6.38,2.8007986545562744,-7.8376898765563965,-2.5710878372192383,-1.7611244916915894,-0.01710422709584236,-2.342515468597412,-32.34434509277344,33.27974319458008,-15.01023006439209
6.39,2.898904800415039,-7.794619560241699,-2.496910333633423,-1.7933475971221924,-0.17638733983039856,-2.26432466506958,-32.78281021118164,32.72434997558594,-14.045600891113281
6.4,2.8893332481384277,-7.783851623535156,-2.5160529613494873,-1.8335119485855103,-0.3275764584541321,-2.1627683639526367,-34.01052474975586,31.45279312133789,-12.876352310180664
6.418,2.0171494483947754,-7.171289443969727,-3.1345977783203125,-1.8397732973098755,-0.4792237877845764,-1.9946277141571045,-34.229759216308594,29.90353775024414,-11.911721229553223
6.422,1.9226329326629639,-7.083950996398926,-3.156132936477661,-1.8087719678878784,-0.4657847285270691,-1.9576704502105713,-34.59514617919922,29.201988220214844,-11.809412002563477
6.43,1.6558332443237305,-6.757331371307373,-3.0616164207458496,-1.754252314567566,-0.4366159439086914,-1.9197967052459717,-34.682838439941406,28.500438690185547,-11.064016342163086
6.439,1.4775679111480713,-6.625725269317627,-2.96111798286438,-1.6595680713653564,-0.361174076795578,-1.867567777633667,-34.419761657714844,27.63811683654785,-11.093247413635254
6.45,1.3124631643295288,-6.557530403137207,-2.66560435295105,-1.5734361410140991,-0.23350323736667633,-1.8156441450119019,-35.179771423339844,26.761180877685547,-10.464776039123535
6.46,1.2095718383789062,-6.391229152679443,-2.400001049041748,-1.4978415966033936,-0.08368853479623795,-1.7733417749404907,-35.20900344848633,26.454252243041992,-10.362466812133789
6.479,1.2538390159606934,-6.375675678253174,-2.1092729568481445,-1.4372131824493408,0.15775594115257263,-1.6649131774902344,-36.04209518432617,25.036537170410156,-9.997076988220215
6.482,1.6630116701126099,-6.4426751136779785,-2.321038007736206,-1.4385876655578613,0.20143280923366547,-1.6284139156341553,-35.925167083740234,23.998830795288086,-10.070155143737793
6.49,2.1092729568481445,-6.577868938446045,-2.389233350753784,-1.457066297531128,0.22831088304519653,-1.5581645965576172,-35.99824523925781,23.414207458496094,-9.82168960571289
6.5,2.6703901290893555,-6.632904052734375,-2.7864418029785156,-1.4929546117782593,0.20066924393177032,-1.4451543092727661,-36.465946197509766,23.092662811279297,-9.047061920166016
6.51,2.919243335723877,-6.449853420257568,-2.8654050827026367,-1.512960433959961,0.09712757170200348,-1.335504174232483,-36.62671661376953,22.44957733154297,-8.973984718322754
6.52,3.018545627593994,-6.236892223358154,-3.0759735107421875,-1.5060882568359375,-0.07727444916963577,-1.2090550661087036,-36.94826126098633,22.04033851623535,-8.199357032775879
6.539,2.548356056213379,-5.347958564758301,-3.06999135017395,-1.3816243410110474,-0.30375272035598755,-1.0221302509307861,-37.0067253112793,19.46799087524414,-8.403975486755371
6.542,2.3988046646118164,-5.056034088134766,-3.160918712615967,-1.3593279123306274,-0.3211624026298523,-1.0059423446655273,-36.480560302734375,19.774919509887695,-8.47705364227295
6.55,2.1128623485565186,-4.738985061645508,-3.0137598514556885,-1.2873984575271606,-0.35934150218963623,-0.9605855345726013,-36.26132583618164,19.19029426574707,-8.696288108825684
6.559,1.557727575302124,-4.327419757843018,-2.9766714572906494,-1.2005029916763306,-0.3623957931995392,-0.9071348309516907,-36.3636360168457,18.941829681396484,-7.7901201248168945
6.57,1.0085747241973877,-3.8225340843200684,-3.2434709072113037,-1.0862711668014526,-0.22403483092784882,-0.8527678847312927,-36.495174407958984,18.18181800842285,-7.892428874969482
6.58,1.3543375730514526,-3.37268328666687,-3.4683964252471924,-0.9217956066131592,-0.20662516355514526,-0.8827002644538879,-36.26132583618164,17.43642234802246,-7.9801225662231445
6.599,2.042273998260498,-3.8907296657562256,-3.0544381141662598,-0.7437283992767334,-0.08139779418706894,-0.5801692605018616,-36.3636360168457,16.04793930053711,-8.506284713745117
6.603,2.988635540008545,-4.719842433929443,-3.978067398071289,-0.6461427211761475,-0.10674870014190674,-0.49556440114974976,-36.39286804199219,16.121017456054688,-8.462437629699707
6.61,3.014956474304199,-5.30967378616333,-3.6885359287261963,-0.5783366560935974,-0.09941831976175308,-0.3848450779914856,-36.539024353027344,15.56562328338623,-8.842443466186523
6.62,3.0903303623199463,-5.56450891494751,-4.336990833282471,-0.4599815011024475,-0.09498954564332962,-0.1690569519996643,-36.07132339477539,15.594855308532715,-7.775504112243652
6.629,3.2004001140594482,-5.90668249130249,-4.23529577255249,-0.2457205355167389,-0.2079996019601822,0.024587325751781464,-36.4074821472168,15.711779594421387,-7.220110893249512
6.639,3.040081262588501,-6.181857109069824,-4.260420799255371,-0.10873401165008545,-0.24648413062095642,0.18524488806724548,-36.01285934448242,15.14177131652832,-7.717041492462158
6.659,1.750349760055542,-5.619543552398682,-4.3657050132751465,0.11194105446338654,-0.14248430728912354,0.34208452701568604,-35.79362487792969,14.90792179107666,-7.775504112243652
6.663,1.657029628753662,-5.623133182525635,-4.322634220123291,0.14126259088516235,-0.05757404863834381,0.36911532282829285,-35.45746612548828,15.054078102111816,-8.257820129394531
6.67,1.5804593563079834,-5.72722053527832,-4.737788677215576,0.16798794269561768,0.0354301817715168,0.3998112976551056,-35.58900833129883,15.068693161010742,-8.082432746887207
6.68,2.0889341831207275,-5.910271644592285,-5.449653625488281,0.2742784917354584,0.2460259646177292,0.46441027522087097,-35.76439666748047,15.609471321105957,-8.213972091674805
6.69,3.262613534927368,-5.912664413452148,-6.051447868347168,0.39309176802635193,0.29184088110923767,0.5148066878318787,-35.282081604003906,15.41946792602539,-8.31628131866455
6.7,4.012763500213623,-6.001199245452881,-5.840879917144775,0.5001459121704102,0.2197587788105011,0.5874996781349182,-35.559776306152344,15.434082984924316,-7.9801225662231445
