time,accel_x,accel_y,accel_z,gyro_x,gyro_y,gyro_z,mag_x,mag_y,mag_z
0.0,5.700900077819824,-0.647258460521698,-7.529016494750977,-0.03940080478787422,-0.03329215571284294,0.01664607785642147,-45.96609115600586,23.823442459106445,-13.314821243286133
0.009,5.599205017089844,-0.576670229434967,-7.685746192932129,-0.038637224584817886,0.010842857882380486,0.009010262787342072,-45.556854248046875,23.925752639770508,-14.644840240478516
0.019,5.656632423400879,-0.607776939868927,-7.574480056762695,-0.04398229718208313,0.06185010448098183,0.0,-46.03916931152344,23.954984664916992,-13.475592613220215
0.029,5.781059741973877,-0.558724045753479,-7.660621643066406,-0.052839841693639755,0.1160643994808197,0.003359758760780096,-45.615318298339844,23.808828353881836,-13.972522735595703
0.039,5.856433391571045,-0.4163511395454407,-7.543373107910156,-0.042760565876960754,0.16982053220272064,0.025656340643763542,-46.63841247558594,23.764982223510742,-13.709442138671875
0.059,5.942574977874756,-0.39840495586395264,-7.308876991271973,-0.039706241339445114,0.17898350954055786,0.02535090781748295,-46.02455520629883,23.867290496826172,-14.717918395996094
0.063,6.355337142944336,-0.44745784997940063,-7.3160552978515625,-0.020311269909143448,0.12476921826601028,0.0074830991216003895,-46.097633361816406,23.925752639770508,-13.21251106262207
0.069,6.573083400726318,-0.6005984544754028,-7.408178806304932,-0.017867807298898697,0.08185594528913498,0.0012217304902151227,-46.112247467041016,23.428821563720703,-13.665594100952148
0.079,6.604190349578857,-0.6699903011322021,-7.482356548309326,-0.020005837082862854,0.04657847434282303,0.027030786499381065,-46.360713958740234,23.604209899902344,-13.197896003723145
0.089,6.251248836517334,-0.6687938570976257,-7.397410869598389,-0.035124752670526505,0.05253440886735916,0.03481931984424591,-46.126861572265625,23.5895938873291,-13.49020767211914
0.1,6.122036457061768,-0.6352943778038025,-7.277770042419434,-0.04382958263158798,0.03436116874217987,0.01618792861700058,-46.08301544189453,23.5895938873291,-13.431745529174805
0.119,6.197410583496094,-0.5862414836883545,-7.335197448730469,-0.05451972037553787,0.0050396379083395,0.00427605677396059,-46.302249908447266,23.794212341308594,-13.7240571975708
0.123,6.181857109069824,-0.48574298620224,-7.478766918182373,-0.04642575979232788,-0.03176499158143997,0.0044287727214396,-46.43379211425781,23.253435134887695,-13.519438743591309
0.13,6.16271448135376,-0.47617167234420776,-7.596014976501465,-0.042760565876960754,-0.025656340643763542,0.0039706239476799965,-45.77608871459961,23.5895938873291,-13.051739692687988
0.139,6.117250919342041,-0.48813581466674805,-7.576872825622559,-0.03405573591589928,-0.01313360221683979,0.009773843921720982,-46.02455520629883,23.867290496826172,-13.665594100952148
0.149,5.9916276931762695,-0.436690092086792,-7.579265117645264,-0.02672535367310047,-0.0007635815418325365,0.01878410577774048,-46.40456008911133,23.633440017700195,-13.782519340515137
0.159,5.946164131164551,-0.38165518641471863,-7.6151580810546875,-0.015118913725018501,-0.0039706239476799965,0.003359758760780096,-46.06840133666992,23.66267204284668,-13.329436302185059
0.179,6.0191450119018555,-0.41515469551086426,-7.548158645629883,-0.0003054326225537807,-0.004581489134579897,-0.008704829961061478,-45.90762710571289,23.808828353881836,-13.21251106262207
0.183,5.953342914581299,-0.4941178560256958,-7.361518859863281,-0.0010690141934901476,0.0009162978385575116,0.0025961773935705423,-45.8199348449707,24.042678833007812,-13.650979042053223
0.19,5.893521785736084,-0.4977070689201355,-7.406982421875,-0.005955935921519995,0.012828170321881771,0.0022907445672899485,-45.95147705078125,23.414207458496094,-13.972522735595703
0.2,5.92941427230835,-0.46061834692955017,-7.454838752746582,-0.003817907767370343,0.031612277030944824,0.0013744467869400978,-45.89301300048828,23.355743408203125,-13.840982437133789
0.209,5.972485065460205,-0.4893321990966797,-7.406982421875,-0.01038470957428217,0.04856378585100174,-0.005803219974040985,-45.95147705078125,23.735750198364258,-13.884828567504883
0.219,6.058626651763916,-0.46420758962631226,-7.543373107910156,-0.009468411095440388,0.06582073122262955,-0.016798794269561768,-46.56533432006836,23.618824005126953,-13.884828567504883
0.239,6.1328043937683105,-0.35054853558540344,-7.470392227172852,-0.0003054326225537807,0.054367005825042725,-0.035735614597797394,-46.550716400146484,23.531131744384766,-13.870213508605957
0.242,6.236892223358154,-0.3924228847026825,-7.527820110321045,0.005192354787141085,0.04718933627009392,-0.040622539818286896,-45.95147705078125,23.39959144592285,-13.680211067199707
0.249,6.3146586418151855,-0.4570291042327881,-7.499105453491211,0.012217304669320583,0.03237585723400116,-0.043218713253736496,-46.02455520629883,23.706518173217773,-13.475592613220215
0.259,6.196214199066162,-0.4941178560256958,-7.430910587310791,0.013286319561302662,0.039095375686883926,-0.029932396486401558,-46.1414794921875,23.618824005126953,-13.972522735595703
0.269,6.156732559204102,-0.5096712112426758,-7.337590217590332,0.009621127508580685,0.041691552847623825,-0.028099801391363144,-46.33148193359375,23.50189971923828,-14.337912559509277
0.279,6.150750637054443,-0.5802595019340515,-7.332805156707764,-0.007024950347840786,0.04795292019844055,-0.01618792861700058,-46.43379211425781,23.823442459106445,-13.504822731018066
0.299,6.072983741760254,-0.46779680252075195,-7.4045891761779785,-0.016798794269561768,0.05650503188371658,-0.012828170321881771,-46.302249908447266,23.677288055419922,-14.86407470703125
0.304,6.214160442352295,-0.34695929288864136,-7.342375755310059,-0.018020525574684143,0.046273037791252136,-0.027641652151942253,-46.08301544189453,23.458053588867188,-14.133294105529785
0.309,6.199802875518799,-0.3349951505661011,-7.286144256591797,-0.017409659922122955,0.03329215571284294,-0.029474247246980667,-45.98070526123047,23.38497543334961,-15.127155303955078
0.319,6.226124286651611,-0.35892340540885925,-7.393821716308594,-0.01725694164633751,0.014202617108821869,-0.03237585723400116,-46.287635803222656,23.925752639770508,-14.104063987731934
0.33,6.173482418060303,-0.2967100143432617,-7.445267200469971,-0.01038470957428217,-0.003359758760780096,-0.041691552847623825,-45.77608871459961,23.428821563720703,-14.147910118103027
0.339,6.1950178146362305,-0.31106695532798767,-7.424928665161133,-0.00427605677396059,-0.009773843921720982,-0.04734205827116966,-46.4191780090332,23.29728126525879,-13.840982437133789
0.359,6.094519138336182,-0.3565305471420288,-7.464410305023193,-0.01160643994808197,0.04184426739811897,-0.030237827450037003,-46.49225616455078,23.092662811279297,-13.811750411987305
0.363,5.898307800292969,-0.31106695532798767,-7.488338470458984,-0.011301006190478802,0.049785517156124115,-0.033139437437057495,-46.40456008911133,22.771120071411133,-13.636363983154297
0.369,5.925825119018555,-0.3445664644241333,-7.479963302612305,-0.014660765416920185,0.07696902006864548,-0.04108068719506264,-46.65302658081055,22.888044357299805,-13.417129516601562
0.379,5.983253002166748,-0.4211367666721344,-7.562515735626221,-0.018936822190880775,0.1189659982919693,-0.04489859566092491,-47.07687759399414,22.66880989074707,-12.686349868774414
0.389,6.047859191894531,-0.45104703307151794,-7.496713161468506,-0.02076941914856434,0.1670716404914856,-0.027641652151942253,-46.03916931152344,23.194971084594727,-13.519438743591309
0.4,5.897111415863037,-0.453439861536026,-7.408178806304932,-0.033139437437057495,0.21823160350322723,-0.005192354787141085,-46.872257232666016,22.975738525390625,-14.030985832214355
0.419,5.985645771026611,-0.6664010882377625,-7.447660446166992,-0.07971791177988052,0.25931230187416077,-0.0064140851609408855,-46.901493072509766,23.12189483642578,-14.381760597229004
0.422,5.964109897613525,-0.6843472719192505,-7.433303356170654,-0.08827002346515656,0.26481008529663086,0.007788531482219696,-46.316864013671875,23.31189727783203,-13.7240571975708
0.429,5.958127975463867,-0.696311354637146,-7.4285173416137695,-0.09926559776067734,0.2889392673969269,0.014966198243200779,-46.60917663574219,22.888044357299805,-13.256357192993164
0.439,6.088537216186523,-0.6424728631973267,-7.420142650604248,-0.10613783448934555,0.3170390725135803,0.01237002108246088,-47.20841979980469,22.888044357299805,-13.49020767211914
0.449,6.15433931350708,-0.6113661527633667,-7.35194730758667,-0.10170906037092209,0.3387247622013092,0.014202617108821869,-46.477638244628906,23.12189483642578,-13.577900886535645
0.459,6.174678802490234,-0.5443671345710754,-7.427321434020996,-0.08994990587234497,0.38209620118141174,0.01878410577774048,-46.755332946777344,23.048816680908203,-14.11867904663086
0.479,6.0538411140441895,-0.41994035243988037,-7.3914289474487305,-0.03634648025035858,0.4346306025981903,0.009468411095440388,-47.8807373046875,23.048816680908203,-14.586379051208496
0.483,6.041877269744873,-0.41515469551086426,-7.338787078857422,-0.019853120669722557,0.44974952936172485,0.005650503095239401,-47.471500396728516,22.858814239501953,-14.045600891113281
0.489,6.004787921905518,-0.4211367666721344,-7.2059855461120605,-0.006108652334660292,0.45982882380485535,-0.0044287727214396,-47.63227081298828,22.434959411621094,-13.957907676696777
0.5,6.061019420623779,-0.4977070689201355,-7.115057945251465,0.0064140851609408855,0.4735732972621918,-0.03237585723400116,-47.96842956542969,23.092662811279297,-13.943290710449219
0.509,6.441478729248047,-0.556331217288971,-7.18086051940918,0.00855211354792118,0.4608978033065796,-0.06108652427792549,-47.456886291503906,23.03420066833496,-14.790996551513672
0.52,6.945167541503906,-0.556331217288971,-6.966702938079834,0.016035212203860283,0.4205807149410248,-0.06765332818031311,-47.89535140991211,23.22420310974121,-14.440221786499023
0.537,7.21316385269165,-0.3960121273994446,-6.792026519775391,0.009773843921720982,0.27550020813941956,-0.052228979766368866,-48.494590759277344,23.165740966796875,-14.586379051208496
0.541,7.18086051940918,-0.38165518641471863,-6.81595516204834,0.011301006190478802,0.23396137356758118,-0.05467243865132332,-48.5384407043457,23.443437576293945,-14.834843635559082
0.55,7.144968032836914,-0.314656138420105,-6.928417682647705,0.011301006190478802,0.18325957655906677,-0.0555887334048748,-48.5822868347168,23.063430786132812,-14.527915000915527
0.559,7.058826446533203,-0.2225324958562851,-7.013362884521484,0.02275473065674305,0.12171489745378494,-0.046273037791252136,-49.093833923339844,23.063430786132812,-14.220989227294922
0.569,6.995416641235352,-0.05024927482008934,-6.981059551239014,0.03695734962821007,0.09193521738052368,-0.04856378585100174,-49.06460189819336,22.800350189208984,-15.434082984924316
0.579,7.091129779815674,-0.06340979784727097,-6.920042991638184,0.05115996673703194,0.029168814420700073,-0.04963279888033867,-48.684593200683594,23.531131744384766,-14.440221786499023
0.599,7.014559268951416,-0.10887342691421509,-7.097111225128174,0.054367005825042725,-0.06979135423898697,-0.012980885803699493,-49.26921844482422,22.990352630615234,-14.367143630981445
0.603,6.959524631500244,-0.10648059844970703,-7.062416076660156,0.05574145168066025,-0.08292495459318161,0.0006108652451075613,-49.2984504699707,22.902660369873047,-14.016368865966797
0.609,6.88534688949585,-0.09092725813388824,-7.004988193511963,0.05314527824521065,-0.10537425428628922,0.02122756652534008,-48.9184455871582,22.72727394104004,-13.811750411987305
0.619,6.75374174118042,-0.08853442966938019,-6.831508159637451,0.04856378585100174,-0.15943582355976105,0.03848451003432274,-48.75767135620117,22.902660369873047,-14.235603332519531
0.629,6.860222339630127,-0.14715859293937683,-6.881757736206055,0.040317103266716,-0.204487144947052,0.03390302136540413,-48.30459213256836,22.814966201782227,-14.717918395996094
0.64,7.034898281097412,-0.1615155190229416,-7.074379920959473,0.031154125928878784,-0.2295326143503189,0.028099801391363144,-48.655364990234375,22.683425903320312,-13.972522735595703
0.652,7.110272407531738,-0.02153540402650833,-7.082754611968994,0.05406157299876213,-0.2845104932785034,0.0429132841527462,-48.31920623779297,22.814966201782227,-13.767904281616211
0.66,6.949953079223633,0.009571290574967861,-7.014559268951416,0.06963863968849182,-0.3263547420501709,0.052381694316864014,-48.5822868347168,22.84419822692871,-13.694826126098633
0.669,6.441478729248047,-0.09571290761232376,-7.107879161834717,0.07742717117071152,-0.3442225456237793,0.06643159687519073,-48.30459213256836,23.341127395629883,-14.279450416564941
0.679,6.148357391357422,-0.2464607208967209,-7.244270324707031,0.078343465924263,-0.2955060601234436,0.05711590126156807,-48.2607421875,23.355743408203125,-13.870213508605957
0.689,6.104090690612793,-0.3888336718082428,-7.326822757720947,0.0731511116027832,-0.23671028017997742,0.05467243865132332,-48.39228439331055,23.56036376953125,-14.469453811645508
0.709,5.947360992431641,-0.4809573292732239,-7.264609336853027,0.058337628841400146,-0.16325373947620392,0.078343465924263,-48.07073974609375,23.341127395629883,-13.285589218139648
0.713,5.949753284454346,-0.39960137009620667,-7.1916279792785645,0.02382374368607998,-0.025961771607398987,0.11942415684461594,-47.866119384765625,23.31189727783203,-14.045600891113281
0.72,6.089733123779297,-0.331405907869339,-7.172485828399658,0.011759155429899693,0.028557950630784035,0.12782354652881622,-48.07073974609375,23.764982223510742,-13.344051361083984
0.729,6.385247230529785,-0.32901307940483093,-7.168896198272705,-0.0027488935738801956,0.07910704612731934,0.15027284622192383,-47.51534652709961,23.29728126525879,-13.7240571975708
0.739,6.673582077026367,-0.3696911036968231,-7.098308086395264,-0.0010690141934901476,0.10094548016786575,0.19089537858963013,-48.2607421875,23.078046798706055,-13.534053802490234
0.749,6.953542709350586,-0.44267216324806213,-7.107879161834717,0.008246680721640587,0.08521570265293121,0.22846360504627228,-48.34843444824219,23.414207458496094,-13.592517852783203
0.768,7.014559268951416,-0.5599204897880554,-7.280162334442139,0.011759155429899693,0.009926560334861279,0.2814561426639557,-47.89535140991211,23.165740966796875,-14.162525177001953
0.772,6.320640563964844,-0.7058826684951782,-7.396214485168457,0.0024434609804302454,0.04077525436878204,0.3491095006465912,-47.661502838134766,23.618824005126953,-13.797135353088379
0.78,6.017949104309082,-0.5670989155769348,-7.4261250495910645,0.0018325956771150231,0.08506298810243607,0.3588833212852478,-47.71996307373047,23.648056030273438,-14.07483196258545
0.789,5.9545392990112305,-0.3194418251514435,-7.532605171203613,0.024434609338641167,0.13240504264831543,0.34116825461387634,-47.310726165771484,23.94036865234375,-14.162525177001953
0.8,6.106482982635498,-0.2225324958562851,-7.420142650604248,0.0679587572813034,0.17211127281188965,0.3390301764011383,-48.20227813720703,24.042678833007812,-14.790996551513672
0.809,6.257230758666992,-0.4043869972229004,-7.362715244293213,0.0962112694978714,0.21532998979091644,0.37751469016075134,-47.456886291503906,24.188833236694336,-13.914060592651367
0.829,6.380461692810059,-0.8267201781272888,-7.261020183563232,0.10751228034496307,0.3240639865398407,0.4473060667514801,-47.57380676269531,24.086524963378906,-14.367143630981445
0.833,7.004988193511963,-1.1270194053649902,-7.256234169006348,0.1215621829032898,0.4050036370754242,0.4827362596988678,-47.281497955322266,24.159603118896484,-13.797135353088379
0.84,7.313662052154541,-1.1030912399291992,-7.3639116287231445,0.15012012422084808,0.3536909520626068,0.4914410710334778,-47.60304260253906,24.656532287597656,-14.381760597229004
0.849,7.2430739402771,-1.0001999139785767,-7.515855312347412,0.1866193264722824,0.27718010544776917,0.5120577812194824,-47.61765670776367,24.39345359802246,-14.747150421142578
0.859,7.045666217803955,-0.6675975322723389,-7.399803638458252,0.20723602175712585,0.2532036304473877,0.5166392922401428,-47.51534652709961,24.70037841796875,-14.644840240478516
0.869,7.267002105712891,-0.3278166949748993,-7.314858913421631,0.2741257846355438,0.14935654401779175,0.4934263825416565,-47.354576110839844,25.21192741394043,-13.884828567504883
0.888,7.424928665161133,-0.35413771867752075,-7.045666217803955,0.318566232919693,0.06490442901849747,0.556345522403717,-47.58842468261719,25.32884979248047,-14.73253345489502
0.893,7.125825881958008,-0.6400800943374634,-7.131807804107666,0.3709478974342346,-0.0012217304902151227,0.6992879509925842,-47.38380432128906,25.095001220703125,-14.659457206726074
0.9,6.595815181732178,-0.7369893193244934,-7.3639116287231445,0.4196644127368927,-0.01618792861700058,0.781754732131958,-47.69073486328125,25.591930389404297,-14.381760597229004
0.91,6.361319065093994,-0.92482590675354,-7.540980339050293,0.4917464852333069,0.07147122919559479,0.8382598161697388,-47.310726165771484,25.986553192138672,-14.557147026062012
0.919,6.887739658355713,-0.760917603969574,-7.734798908233643,0.5879577994346619,0.14385876059532166,0.8845328688621521,-47.500728607177734,26.23501968383789,-14.264835357666016
0.929,7.587640285491943,-0.28953152894973755,-7.945367336273193,0.6968445181846619,0.11881328374147415,0.9346237778663635,-46.930721282958984,26.805028915405273,-14.586379051208496
0.949,7.39860725402832,-0.08255238085985184,-7.721638202667236,0.8239044547080994,0.08399397134780884,1.0662652254104614,-47.25226593017578,27.301958084106445,-14.35252857208252
0.953,6.611368656158447,-0.0203389935195446,-7.557730197906494,1.0699304342269897,0.14187344908714294,1.2919800281524658,-46.726104736328125,27.828121185302734,-14.790996551513672
0.96,6.270391464233398,-0.3936192989349365,-7.36630392074585,1.1603385210037231,0.17898350954055786,1.3634512424468994,-46.56533432006836,28.441978454589844,-14.688687324523926
0.97,6.716652870178223,-1.1006983518600464,-7.611568450927734,1.3242030143737793,0.3153591752052307,1.5729780197143555,-46.44840621948242,28.748903274536133,-14.834843635559082
0.979,6.819544315338135,-1.8065810203552246,-7.812565803527832,1.475697636604309,0.4069889783859253,1.7765488624572754,-46.78456497192383,30.254310607910156,-15.156386375427246
0.989,6.783651828765869,-1.9262220859527588,-7.944170951843262,1.6584991216659546,0.5311473608016968,1.8643606901168823,-46.00994110107422,30.809703826904297,-16.340251922607422
1.009,7.9274210929870605,-2.2803597450256348,-7.22871732711792,1.8387043476104736,0.5206099152565002,1.9062049388885498,-45.41069793701172,32.242034912109375,-16.88102912902832
1.013,9.385847091674805,-2.825923442840576,-7.8041911125183105,2.0625863075256348,0.16019940376281738,2.12703275680542,-45.4837760925293,32.987430572509766,-17.59719467163086
1.02,9.456435203552246,-2.9599215984344482,-8.048258781433105,2.171625852584839,-0.09040804952383041,2.230574369430542,-45.60070037841797,34.21514129638672,-17.31949806213379
1.029,8.724230766296387,-2.792423963546753,-8.312665939331055,2.2843306064605713,-0.3758348524570465,2.3130412101745605,-44.6799201965332,34.82899475097656,-17.845659255981445
1.039,7.944170951843262,-2.1714866161346436,-7.534998416900635,2.3631322383880615,-0.5448917746543884,2.364964723587036,-43.58374786376953,35.6474723815918,-18.56182289123535
1.049,7.341179370880127,-1.6869399547576904,-6.4833526611328125,2.459648847579956,-0.7128797769546509,2.4136812686920166,-43.14527893066406,37.19672393798828,-18.28412628173828
1.07,6.58265495300293,-1.3076776266098022,-5.966503143310547,2.507296323776245,-0.8521569967269897,2.4666738510131836,-42.09295654296875,38.5267448425293,-18.737211227416992
1.073,5.452045917510986,-0.8997012972831726,-5.851647853851318,2.5528059005737305,-0.6157521605491638,2.554791212081909,-40.6021614074707,39.69599533081055,-19.83338165283203
1.079,5.649453639984131,-0.94037926197052,-6.404389381408691,2.616030216217041,-0.37262779474258423,2.5506677627563477,-40.28062057495117,40.8652458190918,-20.871089935302734
1.089,6.7680983543396,-1.7886348962783813,-6.649653911590576,2.7534749507904053,-0.22342397272586823,2.5531113147735596,-39.023677825927734,41.74217987060547,-21.83572006225586
1.1,6.879364967346191,-2.7972095012664795,-6.530013084411621,2.886185646057129,-0.28496861457824707,2.711019992828369,-38.07366180419922,42.58988571166992,-21.806488037109375
1.109,5.61116886138916,-3.572484016418457,-6.618546962738037,2.9414689540863037,-0.2967277765274048,2.958725929260254,-36.78749084472656,43.78836441040039,-22.712656021118164
1.129,4.882554531097412,-4.265206336975098,-5.958127975463867,3.017369031906128,-0.2646573483943939,3.110067844390869,-34.59514617919922,45.42531204223633,-24.992692947387695
1.133,5.799005508422852,-5.4687957763671875,-4.3046875,3.084869384765625,-0.4349360466003418,3.134807586669922,-34.21514129638672,45.87839889526367,-26.001171112060547
1.139,6.296712398529053,-5.796612739562988,-3.9385857582092285,3.1064023971557617,-0.5419901609420776,3.1691689491271973,-33.49897384643555,46.302249908447266,-26.001171112060547
1.149,6.370890140533447,-5.770291805267334,-4.074976921081543,3.163365602493286,-0.7002043128013611,3.2035300731658936,-32.56357955932617,47.13534164428711,-27.784273147583008
1.16,5.966503143310547,-5.3934221267700195,-4.455435752868652,3.2791247367858887,-0.8878926634788513,3.1784846782684326,-30.225080490112305,47.851505279541016,-28.398128509521484
1.169,4.815555572509766,-5.2151570320129395,-4.707878589630127,3.395189046859741,-1.0899362564086914,3.1416800022125244,-28.26658821105957,49.10844802856445,-29.172758102416992
1.189,2.7326035499572754,-5.157729148864746,-5.182853698730469,3.4405457973480225,-1.249066710472107,3.1833715438842773,-25.065771102905273,49.80999755859375,-32.70973205566406
1.193,-1.1581261157989502,-5.560919761657715,-4.082155227661133,3.417027473449707,-1.1215486526489258,3.137861967086792,-24.451913833618164,50.65769958496094,-32.432037353515625
1.2,-2.1583259105682373,-6.08494758605957,-3.5186455249786377,3.3505959510803223,-0.8901833295822144,3.0062203407287598,-23.38497543334961,50.570011138916016,-34.77053451538086
1.209,-2.4777677059173584,-6.843472957611084,-2.6979076862335205,3.24094557762146,-0.5395467281341553,2.76951003074646,-22.20111083984375,50.540775299072266,-35.7059326171875
1.219,-1.8771692514419556,-7.611568450927734,-2.090130567550659,3.1083877086639404,-0.1765400469303131,2.506532907485962,-21.00263023376465,51.213096618652344,-37.19672393798828
1.229,-0.5982056260108948,-8.117650985717773,-1.9525432586669922,2.9859092235565186,0.2788599729537964,2.210721254348755,-20.169540405273438,50.89155578613281,-37.839813232421875
1.249,0.5156532526016235,-8.504091262817383,-1.6187443733215332,2.8127288818359375,0.6131559610366821,1.952478051185608,-18.298744201660156,50.62847137451172,-40.207542419433594
1.252,-0.09092725813388824,-8.319844245910645,-1.688136339187622,2.766914129257202,0.669355571269989,1.8947511911392212,-17.451038360595703,51.388484954833984,-41.2014045715332
1.259,-0.8961120247840881,-8.266005516052246,-1.7264214754104614,2.705216646194458,0.7287622690200806,1.7939584255218506,-17.23180389404297,51.87080001831055,-41.2014045715332
1.269,-1.8544374704360962,-8.38684368133545,-1.6474583148956299,2.604576587677002,0.7031058669090271,1.6042847633361816,-17.012569427490234,51.03771209716797,-43.3206672668457
1.279,-2.7732813358306885,-8.939584732055664,-1.3962119817733765,2.470644235610962,0.6117815375328064,1.3564262390136719,-16.13563346862793,51.4177131652832,-44.7822265625
1.29,-2.987438917160034,-9.184849739074707,-0.8398807048797607,2.3376286029815674,0.4934263825416565,1.1317806243896484,-14.893306732177734,51.6807975769043,-45.83454895019531
1.309,-0.26560330390930176,-9.260223388671875,-0.314656138420105,1.9880609512329102,-0.05803219974040985,0.7095199823379517,-14.177140235900879,51.11078643798828,-47.13534164428711
1.312,0.7082754373550415,-9.393025398254395,-0.25363919138908386,1.9365954399108887,-0.1748601794242859,0.6858489513397217,-14.191757202148438,51.33001708984375,-47.529964447021484
1.319,1.6295121908187866,-9.68375301361084,0.03110669180750847,1.7765488624572754,-0.5400048494338989,0.661414384841919,-13.797135353088379,51.3592529296875,-48.421512603759766
1.329,1.6558332443237305,-9.9469633102417,0.4139583110809326,1.4808900356292725,-1.052215337753296,0.7292203903198242,-13.21251106262207,50.789241790771484,-49.06460189819336
1.339,0.04307080805301666,-9.985248565673828,0.6843472719192505,1.269988775253296,-1.2553280591964722,0.7728971838951111,-13.519438743591309,51.31540298461914,-49.4007568359375
1.349,-1.3268201351165771,-10.396814346313477,0.623330295085907,1.0801624059677124,-1.1846203804016113,0.7307475805282593,-13.431745529174805,50.62847137451172,-50.48231506347656
1.369,-1.8161523342132568,-11.133803367614746,0.37926235795021057,0.8046622276306152,-0.31031954288482666,0.6476698517799377,-12.540192604064941,50.61385726928711,-51.403099060058594
1.373,-1.6426726579666138,-12.168699264526367,0.16390834748744965,0.7513642311096191,-0.01114829070866108,0.6623306274414062,-12.408652305603027,50.3800048828125,-51.578487396240234
1.379,-1.5816556215286255,-12.31825065612793,0.08853442966938019,0.6774495244026184,0.4505131244659424,0.7038694620132446,-12.467114448547363,50.81847381591797,-50.93539810180664
1.389,-0.8482555747032166,-12.16271686553955,0.4450649917125702,0.6646214127540588,0.9896016716957092,0.7483099102973938,-11.765565872192383,50.17538833618164,-52.265419006347656
1.4,0.17946170270442963,-12.161520957946777,0.989432156085968,0.6482807397842407,1.369101643562317,0.7744243741035461,-11.429407119750977,50.49692916870117,-52.63081359863281
1.409,1.3782658576965332,-12.838689804077148,0.8721838593482971,0.5648975968360901,1.5471688508987427,0.8077166080474854,-11.137094497680664,50.10231018066406,-52.075416564941406
1.429,1.1772687435150146,-14.796018600463867,2.275574207305908,0.6522513628005981,1.3203850984573364,0.9049968719482422,-10.026308059692383,50.07307434082031,-52.8208122253418
1.433,0.7154539227485657,-14.80558967590332,2.801995277404785,0.6191118955612183,1.1704177856445312,0.8970555663108826,-9.850920677185059,50.043846130371094,-52.23618698120117
1.439,0.2919243574142456,-14.242079734802246,2.1894326210021973,0.5250386595726013,0.9301950335502625,0.8284859657287598,-9.280911445617676,50.350772857666016,-52.689273834228516
1.449,-0.3445664644241333,-12.30867862701416,0.5216353535652161,0.45646902918815613,0.7318165302276611,0.7177666425704956,-9.237065315246582,49.98538589477539,-52.79158401489258
1.459,-0.8410770893096924,-12.19502067565918,-0.5419743061065674,0.4608978033065796,0.7394523620605469,0.6524040699005127,-8.75475025177002,50.17538833618164,-53.025428771972656
1.469,-0.8961120247840881,-13.015758514404297,-1.2969098091125488,0.461355984210968,0.8878926634788513,0.6157521605491638,-8.900906562805176,49.605377197265625,-52.528499603271484
1.489,-0.19740787148475647,-13.423733711242676,-0.7501499056816101,0.583528995513916,1.5109752416610718,0.7777841687202454,-7.380882740020752,49.53229904174805,-52.8792724609375
1.492,-0.22492532432079315,-13.093524932861328,-0.39003005623817444,0.6122397184371948,1.6620116233825684,0.8364272713661194,-7.380882740020752,49.63460922241211,-52.38234329223633
1.5,-0.349352091550827,-12.352946281433105,0.314656138420105,0.7031058669090271,1.8125898838043213,0.8885034918785095,-7.439345359802246,49.91230773925781,-51.7977180480957
1.509,-0.6137589812278748,-11.684152603149414,2.0063817501068115,0.9042332768440247,1.890017032623291,0.8947648406028748,-6.562408924102783,49.53229904174805,-52.002342224121094
1.519,-0.9930213689804077,-11.84447193145752,3.469592809677124,1.021519422531128,1.8132007122039795,0.8249735236167908,-6.0508623123168945,49.166908264160156,-52.66004180908203
1.529,-1.4309078454971313,-12.903295516967773,3.346362352371216,0.896902859210968,1.5505287647247314,0.7102835774421692,-5.846243858337402,48.669979095458984,-53.23004913330078
1.548,-1.7048860788345337,-13.802997589111328,0.348155677318573,0.6563746333122253,0.9028587937355042,0.39156460762023926,-5.217772483825684,48.39228439331055,-53.39081954956055
1.552,-1.5098711252212524,-13.416556358337402,-0.05982056260108948,0.6328563690185547,0.8187121152877808,0.32879823446273804,-4.706226348876953,48.24612808227539,-52.718502044677734
1.559,-0.97148597240448,-12.693923950195312,-0.48813581466674805,0.5881105065345764,0.7641924023628235,0.24678955972194672,-4.925460338592529,48.669979095458984,-52.323883056640625
1.569,0.03110669180750847,-11.43529987335205,-0.9092725515365601,0.5120577812194824,0.7102835774421692,0.16294831037521362,-4.370067119598389,48.31920623779297,-52.99620056152344
1.579,0.9056833982467651,-10.067800521850586,-0.4666004180908203,0.4996877610683441,0.650418758392334,0.10506881773471832,-4.033908367156982,48.39228439331055,-52.323883056640625
1.589,1.5601202249526978,-10.05583667755127,0.13160523772239685,0.44089198112487793,0.5653557777404785,0.08567384630441666,-4.253142356872559,47.99766159057617,-51.43233108520508
1.602,2.0997018814086914,-11.458030700683594,-0.7250252366065979,0.34208452701568604,0.48319438099861145,0.16920965909957886,-3.843905448913574,48.23151397705078,-52.47003936767578
1.61,1.8843477964401245,-12.111270904541016,-0.19501502811908722,0.36743542551994324,0.3660609722137451,0.2525927722454071,-4.06313943862915,48.845367431640625,-52.44080352783203
1.619,0.7082754373550415,-12.491729736328125,1.2681959867477417,0.3271183371543884,0.1618792861700058,0.31413745880126953,-3.3908214569091797,48.52382278442383,-52.689273834228516
1.629,-0.867398202419281,-12.074182510375977,1.636690616607666,0.16065755486488342,0.0029016099870204926,0.270766019821167,-3.2592811584472656,48.27535629272461,-52.893890380859375
1.639,-2.2121644020080566,-10.737792015075684,0.5718846321105957,-0.0009162978385575116,0.032070424407720566,0.10842858254909515,-2.864659309387207,47.96842956542969,-53.215431213378906
1.649,-3.1106693744659424,-8.943174362182617,-0.39003005623817444,-0.019547687843441963,0.2145664095878601,-0.08567384630441666,-2.4261913299560547,48.2607421875,-52.14849853515625
1.666,-2.603391170501709,-7.694121360778809,-0.9774680137634277,-0.0529925599694252,0.6789767146110535,-0.42180243134498596,-2.3384976387023926,47.82227325439453,-51.7977180480957
1.669,-2.001595973968506,-7.609175682067871,-1.2143574953079224,-0.06032294034957886,0.7417430877685547,-0.4518875777721405,-2.3531131744384766,47.909969329833984,-51.85618591308594
1.679,-0.656829833984375,-7.945367336273193,-1.0612168312072754,-0.040317103266716,0.9167559742927551,-0.5045746564865112,-1.9877228736877441,48.78690719604492,-51.94387435913086
1.689,0.7202395796775818,-8.831908226013184,-0.45942193269729614,-0.046731188893318176,0.8825475573539734,-0.5207626223564148,-2.3384976387023926,48.31920623779297,-52.1192626953125
1.7,2.1714866161346436,-9.23031234741211,-0.37806597352027893,-0.1033889427781105,0.6478225588798523,-0.5083925724029541,-1.9877228736877441,48.90382766723633,-50.73078155517578
1.718,2.7625136375427246,-8.773283958435059,-0.35892340540885925,-0.11453723162412643,0.2977968156337738,-0.4492913782596588,-2.835428237915039,48.75767135620117,-51.05232620239258
1.722,1.8041881322860718,-8.103293418884277,0.24167509377002716,-0.12293662130832672,-0.20204368233680725,-0.37629297375679016,-2.835428237915039,48.55305480957031,-50.48231506347656
1.73,1.7575281858444214,-7.835297584533691,0.003589233849197626,-0.1635591685771942,-0.4121812880039215,-0.3527746796607971,-2.5431160926818848,48.62613296508789,-50.71616744995117
1.739,1.026520848274231,-7.561319828033447,-0.3960121273994446,-0.19517144560813904,-0.5765040516853333,-0.2278527319431305,-2.1192634105682373,48.50920867919922,-51.30078887939453
1.749,-0.0849451944231987,-7.775476932525635,-0.5730810165405273,-0.247094988822937,-0.6382014751434326,-0.17928895354270935,-2.1923413276672363,48.55305480957031,-51.44694519042969
1.759,-0.7537391185760498,-8.201398849487305,-0.4630111753940582,-0.3136793076992035,-0.6097962260246277,-0.1699732542037964,-1.9877228736877441,48.43613052368164,-50.964630126953125
1.769,-1.0432707071304321,-8.328218460083008,-0.40319061279296875,-0.3770565688610077,-0.5036584138870239,-0.20586158335208893,-2.1777257919311523,48.596900939941406,-50.964630126953125
1.782,-0.8303093910217285,-7.99681282043457,-0.5670989155769348,-0.4430300295352936,-0.30573806166648865,-0.24526238441467285,-1.943876028060913,48.465362548828125,-51.476173400878906
1.79,-0.5850450992584229,-7.477570533752441,-0.6436693072319031,-0.4645630121231079,-0.15943582355976105,-0.2428189367055893,-1.8707979917526245,48.20227813720703,-50.80385971069336
1.8,-0.12083754688501358,-6.671189785003662,-0.22013966739177704,-0.40393462777137756,0.014355332590639591,-0.19608773291110992,-2.586962938308716,48.421512603759766,-50.80385971069336
1.809,0.23688943684101105,-6.364907741546631,0.8578268885612488,-0.35934150218963623,0.04444044828414917,-0.13973543047904968,-1.7538732290267944,48.026893615722656,-50.964630126953125
1.819,0.4941178560256958,-6.824329853057861,0.7477570176124573,-0.4178318381309509,0.0032070425804704428,-0.1408044397830963,-1.943876028060913,48.37766647338867,-50.570011138916016
1.839,0.9595218300819397,-7.361518859863281,0.1902294009923935,-0.48869219422340393,-0.17012597620487213,-0.18906280398368835,-1.900029182434082,48.18766403198242,-51.33001708984375
1.842,1.1473584175109863,-8.008777618408203,-0.07657032459974289,-0.5285511612892151,-0.42348232865333557,-0.14569135010242462,-2.674656629562378,48.713829040527344,-51.783103942871094
1.85,0.7716853022575378,-8.00399112701416,-0.09690931439399719,-0.5479460954666138,-0.4859433174133301,-0.1010981947183609,-1.9146448373794556,48.20227813720703,-51.53464126586914
1.859,-0.2548356056213379,-7.4632134437561035,-0.17108681797981262,-0.5580253601074219,-0.5038110613822937,-0.09162978827953339,-1.8707979917526245,48.5384407043457,-50.83308792114258
1.869,-0.9391828775405884,-7.034898281097412,-0.30987051129341125,-0.5493205189704895,-0.4491386413574219,-0.1059851199388504,-1.6661795377731323,47.51534652709961,-51.169246673583984
1.879,-1.454836130142212,-6.618546962738037,-0.18544374406337738,-0.4938845634460449,-0.3182607889175415,-0.12476921826601028,-1.856182336807251,48.27535629272461,-50.39461898803711
1.898,-1.832902193069458,-6.680760383605957,0.3684946596622467,-0.41462478041648865,-0.15012012422084808,-0.12660181522369385,-2.3677287101745605,47.734580993652344,-50.64308547973633
1.903,-1.9992032051086426,-6.713063716888428,1.5337992906570435,-0.2474004179239273,0.2298380434513092,-0.12202033400535583,-2.2800350189208984,48.026893615722656,-50.964630126953125
1.91,-1.672582983970642,-7.399803638458252,2.0614166259765625,-0.17088955640792847,0.3300199508666992,-0.1560760736465454,-2.2215726375579834,47.36919021606445,-50.89155578613281
1.919,-1.399801254272461,-8.455039024353027,2.1738791465759277,-0.20143280923366547,0.32620203495025635,-0.20876319706439972,-2.4261913299560547,47.74919891357422,-51.60771560668945
1.93,-0.7465606331825256,-8.860621452331543,1.5589239597320557,-0.2816088795661926,0.21884246170520782,-0.32192596793174744,-2.703887701034546,47.2230339050293,-50.5992431640625
1.939,0.7381857633590698,-8.763712882995605,1.046859860420227,-0.32039880752563477,0.09224064648151398,-0.26313018798828125,-2.5138847827911377,47.734580993652344,-50.3800048828125
1.959,1.4021941423416138,-8.511269569396973,0.8279166221618652,-0.36972618103027344,-0.08032877743244171,-0.07406741380691528,-2.9961998462677,47.486114501953125,-50.584625244140625
1.963,0.6161518096923828,-8.120043754577637,0.5479563474655151,-0.35873058438301086,-0.1921171098947525,0.15500706434249878,-2.5723471641540527,47.39842224121094,-50.10231018066406
1.97,-0.2763710021972656,-8.049454689025879,0.698704183101654,-0.322536826133728,-0.20326539874076843,0.2606867253780365,-2.87927508354187,47.354576110839844,-49.663841247558594
1.979,-1.3758729696273804,-8.084151268005371,1.1892328262329102,-0.24129176139831543,-0.10567968338727951,0.35674530267715454,-2.645425319671631,47.26688003540039,-50.0584602355957
1.989,-1.8484554290771484,-8.288737297058105,1.5230315923690796,-0.1543961763381958,0.06475171446800232,0.40744709968566895,-2.893890619277954,46.78456497192383,-50.3800048828125
2.0,-1.7898313999176025,-8.37727165222168,1.452443242073059,-0.055283304303884506,0.25182920694351196,0.4404338300228119,-2.3969600200653076,46.56533432006836,-49.75153350830078
2.019,-1.368694543838501,-8.571090698242188,0.9355936050415039,0.02367102913558483,0.39125916361808777,0.4715879559516907,-2.1192634105682373,46.69687271118164,-50.336158752441406
2.023,-1.0516455173492432,-9.052047729492188,0.3230310380458832,0.09987646341323853,0.5619960427284241,0.5534439086914062,-2.4261913299560547,46.682254791259766,-50.2776985168457
2.029,-0.9978070259094238,-9.369096755981445,-0.05862415209412575,0.1290452778339386,0.6617197394371033,0.598953366279602,-2.016954183578491,46.755332946777344,-50.146156311035156
2.039,-1.0205388069152832,-9.713663101196289,-0.37806597352027893,0.18631389737129211,0.7710646390914917,0.6453791260719299,-2.0754165649414062,46.44840621948242,-50.48231506347656
2.049,-1.3184452056884766,-10.06301498413086,0.13998012244701385,0.25213462114334106,0.8600982427597046,0.6704245805740356,-2.1923413276672363,45.68839645385742,-50.02922821044922
2.059,-1.574477195739746,-10.453045845031738,0.7226324677467346,0.24877485632896423,0.9103419184684753,0.6446155309677124,-1.6223325729370117,46.1414794921875,-50.10231018066406
2.079,-1.2382856607437134,-10.72702407836914,0.7525426745414734,0.24190261960029602,0.9440922141075134,0.5925393104553223,-1.5346390008926392,45.58608627319336,-49.45922088623047
2.083,-0.5503491759300232,-11.11466121673584,0.41036906838417053,0.27290403842926025,0.983340322971344,0.49754971265792847,-1.0230926275253296,45.64455032348633,-49.97077178955078
2.089,0.45942193269729614,-11.566904067993164,0.35892340540885925,0.299476683139801,1.001055359840393,0.5167919993400574,-1.3154048919677734,44.65068435668945,-49.56153106689453
2.1,1.4273186922073364,-12.283554077148438,0.4127618968486786,0.3315471112728119,0.916450560092926,0.5858197212219238,-1.0084770917892456,45.07453918457031,-49.795379638671875
2.109,2.214557409286499,-12.655638694763184,0.47258248925209045,0.3361286222934723,0.6582072973251343,0.6354525089263916,-0.8038585186004639,44.811458587646484,-50.160770416259766
2.12,2.599801778793335,-13.312468528747559,1.0348957777023315,0.3355177044868469,0.3263547420501709,0.6853907704353333,-0.6138556003570557,44.577606201171875,-49.795379638671875
2.139,2.6117656230926514,-14.377273559570312,1.109073281288147,0.2831360399723053,0.08078692108392715,0.7709118723869324,-0.20461852848529816,44.12452697753906,-49.6784553527832
2.143,2.1547367572784424,-15.029317855834961,0.16749757528305054,0.24266621470451355,-0.09972374886274338,0.9566149711608887,-0.3215433955192566,43.53989791870117,-50.584625244140625
2.15,1.4057832956314087,-14.720643997192383,-0.4570291042327881,0.25366178154945374,-0.12782354652881622,0.9899070858955383,-0.10230926424264908,43.30604934692383,-50.43846893310547
2.159,0.5778666734695435,-13.665410041809082,-1.1365907192230225,0.3358231484889984,-0.1241583600640297,0.9647089242935181,0.3800058364868164,43.3645133972168,-50.43846893310547
2.169,0.2153540402650833,-12.327821731567383,-1.5912269353866577,0.41890081763267517,-0.055436018854379654,0.8796459436416626,0.6430867910385132,42.443729400634766,-50.350772857666016
2.179,0.7800601124763489,-11.71884822845459,-1.6618152856826782,0.46761733293533325,-0.027183502912521362,0.781754732131958,0.8330897688865662,42.54603958129883,-50.90616989135742
2.199,1.0947163105010986,-11.229516983032227,-1.5122638940811157,0.43249258399009705,-0.08643742650747299,0.7454083561897278,0.8038585186004639,41.46448516845703,-51.95848846435547
2.204,1.1425727605819702,-10.579865455627441,-1.8891334533691406,0.27030786871910095,-0.2635883390903473,0.6485861539840698,1.3592517375946045,41.11370849609375,-51.43233108520508
2.209,1.231107234954834,-10.352546691894531,-2.025524377822876,0.21044306457042694,-0.3396410644054413,0.5809328556060791,1.7538732290267944,41.157554626464844,-51.6807975769043
2.219,1.5708880424499512,-10.176674842834473,-2.1990039348602295,0.14278973639011383,-0.3724750578403473,0.5016730427742004,1.7684887647628784,40.894474029541016,-52.04618453979492
2.23,1.7886348962783813,-10.285547256469727,-2.4394824504852295,0.0731511116027832,-0.3217732608318329,0.48915034532546997,1.856182336807251,40.70447540283203,-52.99620056152344
2.239,1.6666009426116943,-10.210174560546875,-2.5387847423553467,0.034666601568460464,-0.25305092334747314,0.4723515212535858,1.8854135274887085,40.64601135253906,-52.19234085083008
2.259,1.1988041400909424,-10.25085163116455,-2.3820548057556152,-0.0884227380156517,-0.06001751124858856,0.3442225456237793,2.016954183578491,40.80678176879883,-51.95848846435547
2.262,0.20937196910381317,-9.803394317626953,-2.605783700942993,-0.12660181522369385,-0.008246680721640587,0.27519479393959045,2.1338791847229004,40.71908950805664,-51.6807975769043
2.269,-0.20099709928035736,-9.121438980102539,-2.5639095306396484,-0.1843285858631134,0.06200282275676727,0.13240504264831543,2.3531131744384766,40.1636962890625,-52.64542770385742
2.279,-0.5946164131164551,-8.293522834777832,-2.337787628173828,-0.25076019763946533,0.1794416606426239,-0.08002334833145142,2.3092663288116455,40.28062057495117,-51.695411682128906
2.289,-0.9451649785041809,-7.494320392608643,-2.3018951416015625,-0.3306308090686798,0.32192596793174744,-0.2580905556678772,2.002338409423828,40.19292449951172,-51.94387435913086
2.3,-1.124626636505127,-6.847061634063721,-2.586641311645508,-0.4184426963329315,0.4473060667514801,-0.4356996417045593,1.5638701915740967,40.67523956298828,-51.81233215332031
2.319,0.6065804958343506,-6.7657060623168945,-2.499303102493286,-0.5655084848403931,0.4092797338962555,-0.8801040649414062,1.344636082649231,40.41215896606445,-50.93539810180664
2.322,1.1832507848739624,-6.936792850494385,-2.403590202331543,-0.6088799238204956,0.3393356204032898,-0.978606104850769,1.0377082824707031,40.572933197021484,-51.22771453857422
2.329,1.904686689376831,-7.267002105712891,-2.242074728012085,-0.6728680729866028,0.21273382008075714,-1.1042916774749756,1.0084770917892456,41.2452507019043,-51.169246673583984
2.339,2.2959132194519043,-7.9788665771484375,-2.0171494483947754,-0.7565565705299377,0.01618792861700058,-1.208749532699585,0.6284711956977844,41.28909683227539,-50.10231018066406
2.349,1.9968103170394897,-8.995816230773926,-1.7072789669036865,-0.8452848196029663,-0.1765400469303131,-1.2872458696365356,0.07307805120944977,41.756797790527344,-49.51768493652344
2.359,1.00259268283844,-9.852446556091309,-1.4045867919921875,-0.9865473508834839,-0.42042800784111023,-1.4039210081100464,-0.8184741139411926,42.45834732055664,-49.6199951171875
2.379,-0.20099709928035736,-10.191031455993652,-1.1988041400909424,-1.2119566202163696,-0.5097670555114746,-1.6644550561904907,-1.446945309638977,43.40835952758789,-47.74919891357422
2.383,-0.9834501147270203,-9.963712692260742,-1.2023932933807373,-1.2333369255065918,-0.4824308156967163,-1.6858352422714233,-2.046185255050659,43.75913619995117,-48.33382034301758
2.389,-1.3746765851974487,-9.780662536621094,-1.2993026971817017,-1.2964086532592773,-0.3527746796607971,-1.730886697769165,-2.835428237915039,43.61297607421875,-47.64688491821289
2.4,-1.5912269353866577,-9.394221305847168,-1.4045867919921875,-1.3555099964141846,-0.0786488950252533,-1.7768542766571045,-3.1131248474121094,44.31452941894531,-48.01227569580078
2.409,-1.7479568719863892,-9.080760955810547,-1.5469597578048706,-1.373683214187622,0.3481931984424591,-1.8303049802780151,-3.624671220779419,45.04530715942383,-46.185325622558594
2.419,-1.561316728591919,-9.305686950683594,-1.576870083808899,-1.3617713451385498,0.7053965926170349,-1.8752036094665527,-4.662379264831543,45.176849365234375,-46.126861572265625
2.438,-1.0121638774871826,-11.175678253173828,-1.5206387042999268,-1.3655892610549927,1.2692252397537231,-1.9653061628341675,-6.021631240844727,46.05378341674805,-43.7445182800293
2.442,-0.8135596513748169,-11.578868865966797,-1.5517455339431763,-1.3710870742797852,1.3127492666244507,-1.981799602508545,-5.846243858337402,46.316864013671875,-43.15989685058594
2.449,-0.31824538111686707,-11.964112281799316,-1.534995675086975,-1.3811663389205933,1.396132469177246,-2.04319167137146,-6.123940467834473,45.89301300048828,-42.67757797241211
2.459,0.5754737854003906,-11.83489990234375,-1.5206387042999268,-1.394605278968811,1.3686436414718628,-2.1351265907287598,-7.278573513031006,47.01841354370117,-41.43525314331055
2.469,1.5254243612289429,-11.233105659484863,-1.466800332069397,-1.4010194540023804,1.1580477952957153,-2.2146918773651123,-7.8339667320251465,47.486114501953125,-40.25138854980469
2.479,2.2636101245880127,-10.680363655090332,-1.34476637840271,-1.3950635194778442,0.9144652485847473,-2.2371413707733154,-8.433206558227539,48.31920623779297,-38.93598175048828
2.499,2.231307029724121,-10.436296463012695,-1.5625131130218506,-1.3869694471359253,0.3455969989299774,-2.2568414211273193,-8.740134239196777,49.06460189819336,-36.495174407958984
2.503,1.9932211637496948,-10.30469036102295,-1.6654045581817627,-1.3739886283874512,0.22800545394420624,-2.261728525161743,-9.427068710327148,48.596900939941406,-36.26132583618164
2.51,1.7419748306274414,-10.12881851196289,-1.7802599668502808,-1.3603968620300293,0.12431107461452484,-2.263866662979126,-9.324758529663086,49.839229583740234,-36.20286560058594
2.519,1.2263215780258179,-9.79860782623291,-1.9501503705978394,-1.304044485092163,-0.04642575979232788,-2.2730295658111572,-9.58784008026123,49.92692184448242,-35.50131607055664
2.529,1.0671988725662231,-9.555736541748047,-2.251646041870117,-1.264796495437622,-0.1518000215291977,-2.305405378341675,-10.201695442199707,50.73078155517578,-35.69131851196289
2.539,1.3052847385406494,-9.570094108581543,-2.3461625576019287,-1.2189815044403076,-0.23090705275535583,-2.314263105392456,-9.807073593139648,50.540775299072266,-34.682838439941406
2.556,1.6642080545425415,-9.67657470703125,-2.376072883605957,-1.1097893714904785,-0.3003929853439331,-2.2368359565734863,-10.508623123168945,51.11078643798828,-34.127445220947266
2.56,1.6869399547576904,-9.677770614624023,-2.421536445617676,-1.0946705341339111,-0.3068070709705353,-2.2270619869232178,-10.537854194641113,50.92078399658203,-34.39052963256836
2.569,1.9501503705978394,-9.6466646194458,-2.7254250049591064,-1.0126618146896362,-0.3321579694747925,-2.1673498153686523,-11.210172653198242,52.22157287597656,-34.6682243347168
2.579,2.331805467605591,-9.852446556091309,-2.8223342895507812,-0.9514226317405701,-0.3732386529445648,-2.104736089706421,-11.341712951660156,52.528499603271484,-35.51593017578125
2.589,2.6739792823791504,-9.998409271240234,-2.957528829574585,-0.9230173230171204,-0.44104471802711487,-2.0529654026031494,-12.1455717086792,52.60157775878906,-35.13592529296875
2.608,2.7972095012664795,-10.219745635986328,-2.723031997680664,-0.9082038998603821,-0.5207626223564148,-2.0030272006988525,-12.70096492767334,52.42618942260742,-35.925167083740234
2.612,2.7840490341186523,-10.305886268615723,-2.5782663822174072,-0.9431759119033813,-0.636521577835083,-1.9361374378204346,-13.855597496032715,53.58082580566406,-36.290557861328125
2.62,2.770888566970825,-10.223334312438965,-2.6249263286590576,-0.9518807530403137,-0.6945537328720093,-1.908342957496643,-14.206372261047363,53.55158996582031,-36.31978988647461
2.629,2.757727861404419,-10.005587577819824,-2.644068956375122,-0.9552405476570129,-0.7728971838951111,-1.8771889209747314,-15.22946548461914,52.86465835571289,-36.159019470214844
2.639,2.66560435295105,-9.626324653625488,-3.0041887760162354,-0.9393580555915833,-0.8539896011352539,-1.867720365524292,-15.887167930603027,53.55158996582031,-36.729026794433594
2.649,2.472982168197632,-9.343972206115723,-3.3966116905212402,-0.9167559742927551,-0.8868235945701599,-1.838398814201355,-16.851797103881836,53.7562141418457,-36.39286804199219
2.659,2.286341905593872,-9.08674430847168,-3.806980848312378,-0.9060658812522888,-0.879493236541748,-1.8150333166122437,-18.035661697387695,53.814674377441406,-36.655948638916016
2.672,2.362912178039551,-9.038887023925781,-3.906282901763916,-0.9137016534805298,-0.872315526008606,-1.8235853910446167,-19.599531173706055,53.653900146484375,-36.24671173095703
2.68,2.6213371753692627,-9.031708717346191,-3.8356947898864746,-0.9146180152893066,-0.8674286603927612,-1.8153388500213623,-19.7310733795166,53.72698211669922,-36.3636360168457
2.689,2.9443681240081787,-9.05563735961914,-3.6634113788604736,-0.9049968719482422,-0.8394815921783447,-1.7783814668655396,-20.447237014770508,53.59543991088867,-36.96287536621094
2.7,3.2004001140594482,-9.013762474060059,-3.6047871112823486,-0.8880453109741211,-0.7903068661689758,-1.7047721147537231,-21.4703311920166,53.78544235229492,-36.55363845825195
2.709,3.160918712615967,-9.110671997070312,-3.2159535884857178,-0.8477282524108887,-0.7376197576522827,-1.6134477853775024,-22.771120071411133,53.317745208740234,-37.1236457824707
2.729,2.78165602684021,-9.198010444641113,-3.1621150970458984,-0.8532260060310364,-0.6612616181373596,-1.532660961151123,-23.253435134887695,53.50774383544922,-36.20286560058594
2.733,2.2564315795898438,-8.738588333129883,-3.816551923751831,-0.8191702961921692,-0.5529857277870178,-1.5007431507110596,-24.451913833618164,53.46390151977539,-36.56825256347656
2.74,2.3186450004577637,-8.408378601074219,-4.023531436920166,-0.7834346890449524,-0.47830748558044434,-1.4947872161865234,-25.24115753173828,53.27389907836914,-35.83747482299805
2.749,2.579462766647339,-7.946564197540283,-4.208974838256836,-0.7102835774421692,-0.37491855025291443,-1.4711161851882935,-25.635778427124023,52.96696853637695,-35.51593017578125
2.76,3.0448665618896484,-7.835297584533691,-4.420739650726318,-0.6461427211761475,-0.2825251817703247,-1.4237741231918335,-26.454252243041992,52.99620056152344,-35.04823303222656
2.769,3.6873395442962646,-7.777869701385498,-4.77248477935791,-0.5948300361633301,-0.2050980031490326,-1.2986994981765747,-26.96579933166504,52.99620056152344,-35.296695709228516
2.788,3.968496322631836,-7.642675399780273,-4.524827480316162,-0.5306891798973083,-0.1817324161529541,-1.1659890413284302,-28.398128509521484,53.0985107421875,-34.229759216308594
2.792,3.748356580734253,-7.152146339416504,-4.3046875,-0.4584543704986572,-0.14523321390151978,-0.9931141138076782,-29.09967803955078,52.952354431152344,-34.81438064575195
2.8,3.4085757732391357,-6.8279194831848145,-4.070191383361816,-0.3901901841163635,-0.09941831976175308,-0.8946121335029602,-29.216602325439453,53.40544128417969,-34.726688385009766
2.809,2.885744094848633,-6.474977493286133,-3.726821184158325,-0.294437050819397,-0.01970040239393711,-0.7820602059364319,-29.947385787963867,52.64542770385742,-34.682838439941406
2.819,2.816352128982544,-6.203392505645752,-3.511467218399048,-0.21991148591041565,0.05100724473595619,-0.708450973033905,-30.35662078857422,52.893890380859375,-34.08360290527344
2.829,3.071187734603882,-6.178267955780029,-3.355933427810669,-0.09544768929481506,0.13087788224220276,-0.5852088928222656,-30.955860137939453,52.8208122253418,-33.64513397216797
2.849,3.4504499435424805,-7.04925537109375,-3.8117663860321045,-0.0029016099870204926,0.16829337179660797,-0.4317289888858795,-31.379714965820312,52.58695983886719,-34.785152435302734
2.853,4.19581413269043,-7.849654674530029,-4.23649263381958,0.17379117012023926,0.12278390675783157,-0.21792617440223694,-31.920490264892578,52.44080352783203,-34.361297607421875
2.86,4.569094657897949,-8.25404167175293,-3.9936206340789795,0.2727513313293457,0.06429356336593628,-0.07467827200889587,-32.02280044555664,52.733116149902344,-34.171295166015625
2.869,4.816751956939697,-8.360522270202637,-3.561716318130493,0.37110063433647156,-0.02932153083384037,0.12736541032791138,-31.701257705688477,52.323883056640625,-35.07746124267578
2.879,4.705485820770264,-8.185846328735352,-3.2063820362091064,0.48319438099861145,-0.17760907113552094,0.3549126982688904,-32.052032470703125,52.64542770385742,-35.852088928222656
2.89,4.431507587432861,-8.021937370300293,-2.853440999984741,0.5736024975776672,-0.3121521472930908,0.4918992221355438,-32.2274169921875,52.55773162841797,-35.7059326171875
2.91,4.25084924697876,-7.987241268157959,-2.6847469806671143,0.6360633969306946,-0.42348232865333557,0.6001750826835632,-31.949722290039062,52.13387680053711,-35.80824279785156
2.914,3.840480089187622,-7.953742504119873,-3.102294445037842,0.6831000447273254,-0.5221370458602905,0.7794640064239502,-31.379714965820312,52.74773406982422,-35.45746612548828
2.92,3.671786069869995,-7.84127950668335,-3.253042459487915,0.702189564704895,-0.5412266254425049,0.8352054357528687,-31.774335861206055,52.61619567871094,-36.07132339477539
2.929,3.339184045791626,-7.786244869232178,-3.3894331455230713,0.7733554244041443,-0.5677992701530457,0.9543241858482361,-31.292020797729492,52.45542526245117,-36.14440155029297
2.939,2.7565317153930664,-8.053044319152832,-3.2039895057678223,0.8071057200431824,-0.5539020299911499,1.0412198305130005,-30.47354507446289,52.952354431152344,-36.97748947143555
2.949,2.5734806060791016,-8.158329010009766,-3.262613534927368,0.8622362613677979,-0.5120577812194824,1.0910053253173828,-29.830459594726562,52.57234573364258,-38.11751174926758
2.969,2.544766664505005,-8.22293472290039,-3.190828800201416,0.9479101300239563,-0.44394633173942566,1.1552988290786743,-29.932767868041992,53.37620544433594,-37.98596954345703
2.973,2.3258235454559326,-8.61057186126709,-2.8067808151245117,1.048397421836853,-0.3488040566444397,1.2409727573394775,-28.99736976623535,52.86465835571289,-38.599822998046875
2.98,2.2636101245880127,-8.677571296691895,-2.65842604637146,1.1107057332992554,-0.29993483424186707,1.282817006111145,-28.73428726196289,53.28851318359375,-38.658287048339844
2.989,2.1032910346984863,-9.038887023925781,-1.9405790567398071,1.1917980909347534,-0.2509129047393799,1.314734697341919,-27.62350082397461,52.66004180908203,-39.11137008666992
2.999,2.2995026111602783,-9.280562400817871,-1.4404791593551636,1.2579243183135986,-0.25564709305763245,1.3290901184082031,-27.375036239624023,53.55158996582031,-39.91522979736328
3.009,2.531606435775757,-9.6526460647583,-0.7908278107643127,1.302059292793274,-0.3124575614929199,1.3559681177139282,-27.038877487182617,53.34697341918945,-40.587547302246094
3.03,2.754138708114624,-9.978070259094238,-0.5611169338226318,1.2748757600784302,-0.4098905920982361,1.3831515312194824,-25.095001220703125,53.127742767333984,-40.36831283569336
3.034,2.9132614135742188,-10.125227928161621,-0.9451649785041809,1.1759155988693237,-0.625220537185669,1.425148606300354,-25.021923065185547,53.23004913330078,-41.46448516845703
3.04,2.922832727432251,-10.027122497558594,-1.2418749332427979,1.132085919380188,-0.7385360598564148,1.4483615159988403,-24.96346092224121,53.025428771972656,-40.71908950805664
3.049,2.7110679149627686,-10.006784439086914,-1.2813564538955688,1.0891727209091187,-0.8388707041740417,1.4953980445861816,-23.735750198364258,52.8208122253418,-42.01987838745117
3.059,2.2803597450256348,-9.964909553527832,-1.384247899055481,1.050840973854065,-0.8239044547080994,1.5439618825912476,-23.443437576293945,53.434669494628906,-42.443729400634766
3.069,1.6342978477478027,-9.91705322265625,-1.672582983970642,1.0338894128799438,-0.6682865619659424,1.6021467447280884,-22.858814239501953,52.58695983886719,-43.86144256591797
3.089,1.137787103652954,-9.728019714355469,-1.9860427379608154,1.061989188194275,-0.350789338350296,1.6392568349838257,-22.09880256652832,53.08388900756836,-44.15375518798828
3.093,0.916451096534729,-9.598808288574219,-2.1020946502685547,1.1162035465240479,0.00809396430850029,1.6595680713653564,-20.63724136352539,52.733116149902344,-44.372989654541016
3.1,1.0528419017791748,-9.639486312866211,-1.9776678085327148,1.1384999752044678,0.20295996963977814,1.6522377729415894,-20.2718505859375,52.58695983886719,-45.26454162597656
3.109,1.277767300605774,-9.65384292602539,-1.7718851566314697,1.175152063369751,0.40164390206336975,1.6351335048675537,-19.482608795166016,52.703887939453125,-46.02455520629883
3.12,1.435693621635437,-9.623931884765625,-1.2897313833236694,1.1988229751586914,0.5209153294563293,1.6155859231948853,-18.327974319458008,52.35311508178711,-46.126861572265625
3.129,1.4572290182113647,-9.449256896972656,-0.7417749762535095,1.1864529848098755,0.5285511612892151,1.528384804725647,-17.59719467163086,51.85618591308594,-45.717628479003906
3.149,1.8005989789962769,-9.3248291015625,-0.6939185857772827,1.0911580324172974,0.34406986832618713,1.406975269317627,-16.471790313720703,51.49079132080078,-46.550716400146484
3.153,2.475374937057495,-8.943174362182617,-1.4404791593551636,0.9882272481918335,0.03955352306365967,1.2811371088027954,-15.989476203918457,51.54925537109375,-47.1207275390625
3.159,2.6560330390930176,-8.657232284545898,-1.6809579133987427,0.934471070766449,-0.15592335164546967,1.216843605041504,-15.434082984924316,51.82695388793945,-47.851505279541016
3.169,2.7876384258270264,-8.492127418518066,-1.887937068939209,0.8878926634788513,-0.3949243724346161,1.1249083280563354,-15.14177131652832,51.3592529296875,-48.216896057128906
3.179,2.4813568592071533,-8.496912956237793,-2.00518536567688,0.8602509498596191,-0.535881519317627,1.0725265741348267,-14.63022518157959,51.56386947631836,-48.30459213256836
3.189,1.8963117599487305,-8.725427627563477,-2.0374884605407715,0.8797986507415771,-0.5760459303855896,1.0036516189575195,-14.060215950012207,50.90616989135742,-48.655364990234375
3.209,1.5194423198699951,-9.024530410766602,-2.0195422172546387,0.9308058619499207,-0.5357288122177124,0.8475754857063293,-12.964046478271484,50.964630126953125,-49.70768737792969
3.213,1.6713865995407104,-9.20159912109375,-2.0685951709747314,0.9393580555915833,-0.5340489149093628,0.8287914395332336,-13.227126121520996,50.774627685546875,-50.0584602355957
3.22,1.9154545068740845,-9.426525115966797,-2.032702684402466,0.9657779335975647,-0.5393940210342407,0.7843509316444397,-12.437883377075195,50.526161193847656,-51.06694030761719
3.229,1.9692928791046143,-9.8871431350708,-1.975274920463562,0.9772316217422485,-0.5629122853279114,0.7499897480010986,-11.809412002563477,50.40924072265625,-51.783103942871094
3.244,1.5361920595169067,-10.364510536193848,-1.5529417991638184,0.912327229976654,-0.6276640295982361,0.6947064995765686,-12.057878494262695,50.67231750488281,-51.52002716064453
3.25,1.1162517070770264,-10.347761154174805,-1.4297115802764893,0.8724682927131653,-0.6346890330314636,0.6702718734741211,-11.356328010559082,49.73691940307617,-52.499271392822266
3.259,0.6699903011322021,-10.14317512512207,-1.2981061935424805,0.808174729347229,-0.5929974317550659,0.5988006591796875,-11.487869262695312,50.2776985168457,-52.77696990966797
3.269,0.4893321990966797,-9.759126663208008,-1.2047861814498901,0.7724390625953674,-0.4547891914844513,0.5387831330299377,-10.888628959655762,49.50307083129883,-52.8792724609375
3.279,0.45104703307151794,-9.33320426940918,-1.1988041400909424,0.7437283992767334,-0.22388210892677307,0.5308418869972229,-10.96170711517334,49.82461166381836,-53.68313217163086
3.289,0.4295116364955902,-8.963513374328613,-1.3112667798995972,0.6927211284637451,0.08338310569524765,0.5274821519851685,-10.318620681762695,49.48845672607422,-54.764686584472656
3.303,0.6508477926254272,-8.833104133605957,-1.2717852592468262,0.6956228017807007,0.3321579694747925,0.527634859085083,-10.070155143737793,49.37152862548828,-55.11546325683594
3.31,0.5539384484291077,-9.06281566619873,-1.054038405418396,0.6968445181846619,0.4642575979232788,0.5558873414993286,-9.529377937316895,49.25460433959961,-55.23238754272461
3.319,0.46061834692955017,-9.4121675491333,-1.1294121742248535,0.6786712408065796,0.5988006591796875,0.5694791078567505,-9.193218231201172,49.093833923339844,-55.10084533691406
3.329,0.5790630578994751,-9.65384292602539,-1.1473584175109863,0.6756169199943542,0.6575964689254761,0.5534439086914062,-9.324758529663086,48.36305236816406,-55.758548736572266
3.34,0.6664010882377625,-9.81416130065918,-0.8973084688186646,0.6849326491355896,0.765566885471344,0.5606215596199036,-8.871675491333008,48.684593200683594,-56.620872497558594
3.358,1.3124631643295288,-9.828518867492676,-0.7381857633590698,0.6911939978599548,0.7336491346359253,0.5421428680419922,-8.827827453613281,48.33382034301758,-56.59164047241211
3.362,3.0077779293060303,-10.073782920837402,-0.41156551241874695,0.7111998200416565,0.4576907753944397,0.4993823170661926,-8.31628131866455,48.845367431640625,-56.22624588012695
3.37,3.891925811767578,-10.465009689331055,-0.30628129839897156,0.6887505650520325,0.26481008529663086,0.5571091175079346,-8.213972091674805,48.55305480957031,-56.56240463256836
3.379,4.11924409866333,-10.923234939575195,-0.6329016089439392,0.636521577835083,-0.010995574295520782,0.7147123217582703,-7.965507507324219,48.20227813720703,-56.503944396972656
3.389,3.3750762939453125,-11.282157897949219,-0.8925228118896484,0.5861251950263977,-0.29397889971733093,0.8781187534332275,-7.351651668548584,47.57380676269531,-57.67319107055664
3.4,1.7862420082092285,-11.536993980407715,-0.672383189201355,0.5659666657447815,-0.3813326060771942,0.9476047158241272,-6.343174934387207,47.63227081298828,-57.79011917114258
3.419,0.5910272002220154,-11.529815673828125,-0.5108676552772522,0.5606215596199036,-0.2814561426639557,1.0005972385406494,-6.299327373504639,47.33995819091797,-57.84858322143555
3.423,-0.5934200286865234,-11.420942306518555,-0.2991028130054474,0.6207917928695679,0.15851953625679016,1.0291552543640137,-5.831628322601318,46.726104736328125,-58.0970458984375
3.43,-1.1030912399291992,-11.479565620422363,-0.2189432680606842,0.650418758392334,0.35842517018318176,1.0306823253631592,-5.188541412353516,46.82841491699219,-59.16398620605469
3.439,-1.330409288406372,-11.475976943969727,-0.24047866463661194,0.7081454992294312,0.7680103182792664,0.9967793822288513,-4.545454502105713,46.8430290222168,-58.71090316772461
3.449,-1.0432707071304321,-11.620741844177246,-0.1615155190229416,0.769079327583313,1.1704177856445312,0.9237809181213379,-3.78544282913208,46.02455520629883,-58.82782745361328
3.459,0.009571290574967861,-11.989237785339355,-0.5324030518531799,0.7666358351707458,1.4110987186431885,0.8885034918785095,-3.1569714546203613,46.27302169799805,-59.12014389038086
3.479,0.9212366938591003,-11.961719512939453,-0.7573283314704895,0.7467827200889587,1.5483906269073486,0.8823947906494141,-3.0546624660491943,46.06840133666992,-58.88629150390625
3.483,2.014756679534912,-11.760723114013672,-0.5838487148284912,0.7790058851242065,1.528690218925476,0.8868235945701599,-2.806197166442871,45.790706634521484,-58.72551727294922
3.49,2.7517459392547607,-11.69013500213623,-0.4259223937988281,0.7695375084877014,1.4741705656051636,0.9046913981437683,-1.8415666818618774,46.170711517333984,-58.27243423461914
3.5,3.1788647174835205,-11.590832710266113,-0.39481574296951294,0.8122979998588562,1.3463469743728638,1.0595457553863525,-1.783104419708252,45.89301300048828,-59.33937454223633
3.51,2.9599215984344482,-12.429516792297363,-0.33379876613616943,0.8880453109741211,1.1969903707504272,1.1986702680587769,-1.4323296546936035,45.07453918457031,-57.921661376953125
3.519,3.0388846397399902,-13.233505249023438,-0.27038896083831787,0.9900597929954529,0.9859365224838257,1.2953397035598755,-0.46769949793815613,45.32300567626953,-58.6378288269043
3.539,3.267399311065674,-13.75753402709961,-0.23330020904541016,1.049924612045288,0.7380779385566711,1.3697125911712646,0.30692780017852783,45.60070037841797,-58.19935607910156
3.543,3.311666488647461,-12.859027862548828,-0.7405785322189331,1.024420976638794,0.3130684196949005,1.4718797206878662,0.8623209595680237,44.97222900390625,-59.95323181152344
3.549,3.008974552154541,-12.252447128295898,-0.8566304445266724,0.9943358302116394,0.11194105446338654,1.496467113494873,0.950014591217041,44.94300079345703,-60.0555419921875
3.559,2.0303099155426025,-10.75454044342041,-0.37806597352027893,0.9891435503959656,-0.12064588069915771,1.475545048713684,1.344636082649231,44.09529113769531,-60.596317291259766
3.569,0.9595218300819397,-9.996016502380371,0.11964112520217896,0.9213374853134155,-0.26572638750076294,1.4091134071350098,1.8415666818618774,43.67144012451172,-60.4940071105957
3.579,0.3672982454299927,-9.428916931152344,-0.28594231605529785,0.848644495010376,-0.2838996350765228,1.3112223148345947,2.9961998462677,43.51066970825195,-61.020172119140625
3.599,0.05503491684794426,-9.250652313232422,-0.8662018179893494,0.7890851497650146,-0.2675589621067047,1.2275335788726807,2.703887701034546,42.92604446411133,-60.771705627441406
3.604,0.07776673883199692,-8.651249885559082,-2.0267207622528076,0.6653849482536316,-0.18707747757434845,1.0662652254104614,3.0254311561584473,43.057586669921875,-61.414791107177734
3.61,0.3002992272377014,-8.155935287475586,-2.2887346744537354,0.6397286653518677,-0.14309518039226532,0.9854783415794373,3.4054369926452637,42.823734283447266,-61.5755615234375
3.619,0.48813581466674805,-7.712067127227783,-2.221735715866089,0.5937610268592834,-0.09605855494737625,0.8817839622497559,3.843905448913574,42.98450469970703,-62.21864700317383
3.629,0.4773681163787842,-7.430910587310791,-2.111665964126587,0.5387831330299377,-0.05604688450694084,0.762817919254303,4.004676818847656,42.35603332519531,-62.24787902832031
3.639,0.30149564146995544,-7.247859477996826,-1.9441683292388916,0.4902193546295166,-0.008246680721640587,0.6403394937515259,4.516223430633545,42.58988571166992,-62.554805755615234
3.659,-0.08733802288770676,-7.094718933105469,-1.820937991142273,0.4489859640598297,0.09376781433820724,0.5103778839111328,4.647763729095459,42.58988571166992,-63.00789260864258
3.663,-1.2562319040298462,-6.863811492919922,-1.5134602785110474,0.42210787534713745,0.215482696890831,0.3904955983161926,4.413913726806641,42.41449737548828,-62.21864700317383
3.669,-1.9920247793197632,-6.842276096343994,-1.23589289188385,0.40393462777137756,0.3191770911216736,0.2773328125476837,4.910844802856445,42.268341064453125,-61.86787414550781
3.679,-2.548356056213379,-7.11146879196167,-1.0061818361282349,0.3614795207977295,0.5143485069274902,0.078343465924263,5.1300787925720215,43.057586669921875,-62.1748046875
3.689,-2.122433662414551,-7.810173034667969,-1.0899306535720825,0.3246748745441437,0.7270823121070862,-0.14737124741077423,4.793920040130615,42.35603332519531,-61.955570220947266
3.7,-0.9858428835868835,-8.398807525634766,-1.1808578968048096,0.23060162365436554,0.954018771648407,-0.3576616048812866,4.983922958374023,43.02835464477539,-61.54633331298828
3.719,0.5300102233886719,-8.673981666564941,-1.428515076637268,0.12370020896196365,1.0760390758514404,-0.5004513263702393,4.501607418060303,43.90529251098633,-60.610931396484375
3.722,1.0348957777023315,-9.20159912109375,-1.262213945388794,0.09437867254018784,1.0769554376602173,-0.5337435007095337,4.735457420349121,44.09529113769531,-61.06401824951172
3.729,1.0636096000671387,-9.528219223022461,-1.1389836072921753,0.03848451003432274,1.0743592977523804,-0.5977316498756409,4.589301109313965,43.86144256591797,-61.28324890136719
3.739,0.92482590675354,-9.726823806762695,-1.3280165195465088,-0.04917465150356293,1.070388674736023,-0.7144068479537964,4.399298667907715,44.182987213134766,-60.420928955078125
3.749,1.2406784296035767,-9.327221870422363,-1.8987046480178833,-0.1420261561870575,0.9592111706733704,-0.8717046976089478,3.9608304500579834,44.47529983520508,-59.690147399902344
3.759,1.5828521251678467,-8.662017822265625,-2.1643080711364746,-0.19593501091003418,0.7982481718063354,-0.9790642261505127,4.3262200355529785,45.30839157104492,-59.12014389038086
3.78,1.9178473949432373,-8.311469078063965,-2.286341905593872,-0.24144448339939117,0.607810914516449,-1.0016663074493408,3.2446651458740234,45.790706634521484,-59.58784103393555
3.784,0.9284151792526245,-7.867600917816162,-2.8151557445526123,-0.3891211450099945,0.3315471112728119,-1.019075870513916,3.2446651458740234,45.4837760925293,-59.20783233642578
3.789,0.7417749762535095,-7.651050090789795,-2.9790639877319336,-0.4046982228755951,0.28878653049468994,-1.0587822198867798,3.3615901470184326,46.1414794921875,-58.56474685668945
3.8,0.2153540402650833,-7.823333263397217,-2.5770697593688965,-0.40225476026535034,0.2773328125476837,-1.1142182350158691,2.776965856552124,46.477638244628906,-59.280914306640625
3.809,-0.06819543987512589,-8.304290771484375,-2.489731788635254,-0.4407392740249634,0.4210388660430908,-1.1485792398452759,2.3823444843292236,47.1791877746582,-59.17860412597656
3.819,0.2620140612125397,-8.904889106750488,-2.585444688796997,-0.50335294008255,0.4790710508823395,-1.2409727573394775,2.1046478748321533,47.41303634643555,-58.82782745361328
3.839,0.7082754373550415,-9.06161880493164,-3.1106693744659424,-0.6265950202941895,0.4862487316131592,-1.332908034324646,1.6369482278823853,48.56766891479492,-57.83396911621094
3.842,0.5730810165405273,-9.141778945922852,-3.239881753921509,-0.6304128766059875,0.48319438099861145,-1.3446670770645142,1.0961706638336182,48.56766891479492,-57.42472839355469
3.85,0.519242525100708,-9.384650230407715,-2.7601208686828613,-0.6374378800392151,0.46364670991897583,-1.3773484230041504,0.7746273279190063,48.8599853515625,-57.60011672973633
3.859,0.4163511395454407,-9.80698299407959,-2.137986898422241,-0.7057020664215088,0.469449907541275,-1.4291192293167114,0.8184741139411926,49.69307327270508,-56.79625701904297
3.869,0.8590232729911804,-10.076175689697266,-2.2671992778778076,-0.773202657699585,0.5038110613822937,-1.452026605606079,0.3800058364868164,50.526161193847656,-55.96316909790039
3.879,1.3316056728363037,-10.115657806396484,-2.688336133956909,-0.8237517476081848,0.526413083076477,-1.4367550611495972,-0.2923122048377991,51.373870849609375,-56.10932540893555
3.899,1.4416755437850952,-10.167102813720703,-2.8797619342803955,-0.8402451872825623,0.5267185568809509,-1.403157353401184,-1.6661795377731323,52.25080108642578,-55.977787017822266
3.904,1.153340458869934,-10.573882102966309,-3.235095977783203,-0.8252789378166199,0.5154175162315369,-1.3857477903366089,-1.4761765003204346,52.280033111572266,-55.2177734375
3.909,1.155733346939087,-10.697113037109375,-3.438485860824585,-0.807563841342926,0.4495968222618103,-1.4196507930755615,-2.002338409423828,51.75387191772461,-55.188541412353516
3.919,1.657029628753662,-10.980663299560547,-3.480360507965088,-0.7948883771896362,0.270766019821167,-1.4538593292236328,-2.1777257919311523,52.499271392822266,-55.787784576416016
3.93,1.743171215057373,-11.164910316467285,-3.4325039386749268,-0.8170322775840759,0.027183502912521362,-1.486387848854065,-2.703887701034546,52.8792724609375,-55.261619567871094
3.939,1.6390833854675293,-11.367104530334473,-2.9718856811523438,-0.850782573223114,-0.23716843128204346,-1.543503761291504,-3.1569714546203613,52.893890380859375,-54.647762298583984
3.959,1.5672988891601562,-11.83489990234375,-2.043470621109009,-0.9604328870773315,-0.559857964515686,-1.6588046550750732,-5.013154029846191,54.13621520996094,-54.41391372680664
3.963,1.4739786386489868,-12.306285858154297,-1.5960125923156738,-0.9876163601875305,-0.6029239296913147,-1.6908749341964722,-5.583162784576416,53.80005645751953,-54.063140869140625
3.969,1.7575281858444214,-12.4271240234375,-1.6067804098129272,-1.0395399332046509,-0.6278167366981506,-1.7018705606460571,-6.0362467765808105,53.434669494628906,-53.88775634765625
3.979,1.8580267429351807,-12.136395454406738,-1.9130616188049316,-1.103986144065857,-0.6044511198997498,-1.6649131774902344,-7.0301079750061035,54.16544723510742,-54.063140869140625
3.989,1.7012969255447388,-11.655439376831055,-2.2157537937164307,-1.1468994617462158,-0.5910121202468872,-1.6543757915496826,-7.600116729736328,53.99005889892578,-53.5369758605957
4.0,1.5170494318008423,-11.278569221496582,-2.414357900619507,-1.165530800819397,-0.5852088928222656,-1.6939293146133423,-7.892428874969482,54.22391128540039,-53.215431213378906
4.018,1.9884356260299683,-10.89452075958252,-2.231307029724121,-1.1258245706558228,-0.5056437253952026,-1.730886697769165,-10.347851753234863,54.881614685058594,-52.80619812011719
4.022,2.1068801879882812,-10.815557479858398,-2.0889341831207275,-1.1114692687988281,-0.47968190908432007,-1.7241671085357666,-10.362466812133789,54.73545837402344,-52.17772674560547
4.029,2.3234305381774902,-10.663613319396973,-1.9920247793197632,-1.081536889076233,-0.44455718994140625,-1.7087427377700806,-11.268634796142578,54.58930206298828,-51.62232971191406
4.04,2.5531415939331055,-10.570293426513672,-1.676172137260437,-1.0147998332977295,-0.40851613879203796,-1.677894115447998,-12.087108612060547,54.443145751953125,-52.499271392822266
4.049,2.9240291118621826,-10.742576599121094,-1.5290136337280273,-0.978606104850769,-0.39477166533470154,-1.6258177757263184,-12.569424629211426,54.98392105102539,-51.44694519042969
4.06,3.355933427810669,-10.797612190246582,-1.5816556215286255,-0.9213374853134155,-0.4752531349658966,-1.5531249046325684,-13.884828567504883,55.13007736206055,-50.80385971069336
4.079,3.6885359287261963,-11.24506950378418,-1.7862420082092285,-0.9175195693969727,-0.8017606139183044,-1.4821116924285889,-14.937153816223145,55.68547058105469,-50.570011138916016
4.082,3.7746775150299072,-11.306086540222168,-1.920240044593811,-0.9260717034339905,-0.84574294090271,-1.4741705656051636,-15.580240249633789,55.802398681640625,-50.73078155517578
4.089,3.768695592880249,-11.391032218933105,-2.1020946502685547,-0.9370672702789307,-0.9518807530403137,-1.4407256841659546,-16.486408233642578,56.211631774902344,-50.2776985168457
4.1,3.644268751144409,-11.467601776123047,-2.4837498664855957,-0.9584475755691528,-1.023352026939392,-1.4230105876922607,-17.275650024414062,56.12394332885742,-50.11692810058594
4.109,3.586841106414795,-11.572885513305664,-2.9072792530059814,-0.9505062699317932,-0.9905179738998413,-1.4074335098266602,-17.78719711303711,56.09471130371094,-49.590763092041016
4.119,3.229114055633545,-11.654241561889648,-2.723031997680664,-0.9355401396751404,-0.8909469246864319,-1.4060590267181396,-18.298744201660156,56.44548416137695,-49.97077178955078
4.135,2.3820548057556152,-11.497512817382812,-2.2169501781463623,-0.8866708874702454,-0.6010913848876953,-1.4216361045837402,-19.950305938720703,56.503944396972656,-48.1584358215332
4.14,2.255235195159912,-11.44128131866455,-1.9848462343215942,-0.8660541772842407,-0.5155702829360962,-1.45004141330719,-19.862613677978516,56.34317398071289,-49.093833923339844
4.15,2.4323041439056396,-11.289337158203125,-1.8281164169311523,-0.8523097634315491,-0.4031710624694824,-1.5335772037506104,-20.18415641784668,56.693946838378906,-48.36305236816406
4.159,2.8115665912628174,-11.014162063598633,-1.9058831930160522,-0.8541423082351685,-0.3732386529445648,-1.6007723808288574,-21.251096725463867,56.620872497558594,-48.20227813720703
4.17,3.1453652381896973,-10.597811698913574,-2.2671992778778076,-0.8801040649414062,-0.39904773235321045,-1.6588046550750732,-21.338788986206055,56.737796783447266,-48.2607421875
4.179,3.1860432624816895,-10.243673324584961,-2.5363919734954834,-0.8848382830619812,-0.4001167118549347,-1.665218710899353,-22.858814239501953,57.0154914855957,-47.67612075805664
4.198,3.311666488647461,-11.12183952331543,-2.6632113456726074,-0.7586946487426758,-0.28939738869667053,-1.5812246799468994,-24.2911434173584,56.913185119628906,-46.7991828918457
4.202,3.43489670753479,-11.424531936645508,-2.599801778793335,-0.7373143434524536,-0.2770273983478546,-1.5360206365585327,-24.714996337890625,56.75241470336914,-46.477638244628906
4.209,3.6191442012786865,-11.783454895019531,-2.4741785526275635,-0.6815729141235352,-0.24159719049930573,-1.4840971231460571,-25.05115509033203,56.53317642211914,-46.302249908447266
4.219,3.751945734024048,-11.891131401062012,-2.5603203773498535,-0.6278167366981506,-0.19486600160598755,-1.3545937538146973,-26.074249267578125,57.26395797729492,-46.53609848022461
4.229,3.87876558303833,-11.199605941772461,-2.531606435775757,-0.568715512752533,-0.1800525188446045,-1.2574660778045654,-26.278865814208984,56.82548904418945,-45.64455032348633
4.248,3.88594388961792,-10.39801025390625,-2.234896183013916,-0.5157229900360107,-0.19624045491218567,-1.175152063369751,-27.1704158782959,57.58550262451172,-45.93686294555664
4.252,3.7806599140167236,-9.458827018737793,-2.221735715866089,-0.483957976102829,-0.24419337511062622,-1.1004737615585327,-28.222742080688477,57.2347297668457,-44.97222900390625
4.26,3.537788152694702,-8.965906143188477,-2.262413740158081,-0.4639521539211273,-0.26450464129447937,-1.065043568611145,-28.73428726196289,57.512420654296875,-45.33761978149414
4.269,3.393022298812866,-8.556733131408691,-2.335394859313965,-0.43188172578811646,-0.3153591752052307,-1.0418306589126587,-28.79275131225586,57.35165023803711,-45.542240142822266
4.279,3.339184045791626,-8.306683540344238,-2.27677059173584,-0.4178318381309509,-0.4031710624694824,-1.047023057937622,-29.508914947509766,57.35165023803711,-44.50453186035156
4.289,3.4743783473968506,-8.432307243347168,-2.17627215385437,-0.4433354437351227,-0.5438227653503418,-1.0699304342269897,-29.523530960083008,57.14703369140625,-44.76761245727539
4.309,3.548555612564087,-8.657232284545898,-1.998006820678711,-0.479834645986557,-0.6522513628005981,-1.0709995031356812,-30.298158645629883,57.62934875488281,-44.46068572998047
4.313,3.2889344692230225,-8.640481948852539,-2.0267207622528076,-0.528245747089386,-0.734107255935669,-1.0157161951065063,-31.423559188842773,57.46857452392578,-43.817596435546875
4.32,3.125026226043701,-8.60459041595459,-2.001595973968506,-0.5322163105010986,-0.7486153841018677,-0.9973902106285095,-31.876644134521484,57.19087600708008,-43.13066482543945
4.329,2.9252257347106934,-8.483752250671387,-2.1511476039886475,-0.525496780872345,-0.7136432528495789,-0.9619600176811218,-32.59280776977539,57.43934631347656,-43.057586669921875
4.34,2.849851608276367,-8.394021987915039,-2.224128484725952,-0.503047525882721,-0.6478225588798523,-0.9101892113685608,-33.177433013916016,57.46857452392578,-43.057586669921875
4.349,2.688336133956909,-8.295915603637695,-1.94297194480896,-0.4378376603126526,-0.5677992701530457,-0.8480336666107178,-33.177433013916016,57.17626190185547,-42.823734283447266
4.369,2.526820659637451,-8.266005516052246,-1.4069796800613403,-0.39309176802635193,-0.49556440114974976,-0.7895433306694031,-33.45513153076172,57.79011917114258,-43.55451583862305
4.373,2.5842483043670654,-8.489734649658203,-0.5252245664596558,-0.2747366428375244,-0.4489859640598297,-0.7289149165153503,-33.8643684387207,57.556270599365234,-42.96989059448242
4.38,2.827119827270508,-8.840283393859863,-0.5730810165405273,-0.2741257846355438,-0.48716503381729126,-0.7093672156333923,-34.56591796875,57.38088607788086,-42.867584228515625
4.389,3.163311243057251,-9.119047164916992,-1.171286702156067,-0.2868012487888336,-0.589790403842926,-0.6647740602493286,-34.9459228515625,57.497806549072266,-42.45834732055664
4.399,3.262613534927368,-9.218348503112793,-1.2215359210968018,-0.28099802136421204,-0.7394523620605469,-0.5962044596672058,-34.9459228515625,57.39550018310547,-41.91756820678711
4.41,3.163311243057251,-9.346364974975586,-0.7094718813896179,-0.26862797141075134,-0.8710938096046448,-0.5141957998275757,-35.340545654296875,57.16164779663086,-41.36217498779297
4.43,2.8211376667022705,-9.456435203552246,-0.4630111753940582,-0.28191429376602173,-0.9654725193977356,-0.3920227587223053,-35.092079162597656,57.48318862915039,-42.58988571166992
4.433,1.987239122390747,-9.053244590759277,-0.6436693072319031,-0.25763240456581116,-0.932485818862915,-0.2580905556678772,-35.559776306152344,57.497806549072266,-41.2014045715332
4.439,1.5122638940811157,-8.69791030883789,-0.6699903011322021,-0.21823160350322723,-0.8491026759147644,-0.18417586386203766,-35.76439666748047,57.541656494140625,-41.91756820678711
4.449,1.0037890672683716,-8.38444995880127,-0.9020940661430359,-0.16554446518421173,-0.660803496837616,-0.11285734921693802,-35.6474723815918,57.42472839355469,-40.9237060546875
4.459,0.8171489238739014,-7.838886737823486,-1.3052847385406494,-0.09178250283002853,-0.44089198112487793,-0.05207626149058342,-35.369773864746094,57.731658935546875,-40.777549743652344
4.469,0.8195416927337646,-7.515855312347412,-1.4943177700042725,0.014660765416920185,-0.2499965876340866,-0.020005837082862854,-35.545162200927734,57.293190002441406,-41.9029541015625
4.489,1.0719845294952393,-7.3806610107421875,-1.5684951543807983,0.13836097717285156,-0.04886921867728233,0.03084869496524334,-35.77901077270508,57.556270599365234,-41.85910415649414
4.493,1.368694543838501,-7.3806610107421875,-1.6031910181045532,0.251218318939209,0.058184914290905,0.09773843735456467,-36.07132339477539,57.96550369262695,-40.73370361328125
4.5,1.5098711252212524,-7.4500532150268555,-1.412961721420288,0.3101668059825897,0.05467243865132332,0.12538009881973267,-35.42823791503906,58.0385856628418,-41.47909927368164
4.509,1.4811570644378662,-7.47637414932251,-1.0504491329193115,0.37140607833862305,0.033597588539123535,0.1670716404914856,-35.41362380981445,57.22011184692383,-42.54603958129883
4.519,1.2885348796844482,-7.438088893890381,-0.8398807048797607,0.42806383967399597,0.01237002108246088,0.21044306457042694,-35.895938873291016,57.80473327636719,-42.15141677856445
4.529,1.1413763761520386,-7.2813591957092285,-0.7118647694587708,0.5090034604072571,-0.03375030308961868,0.24663683772087097,-35.57439422607422,58.25782012939453,-42.75065612792969
4.549,1.0995019674301147,-7.342375755310059,-0.39960137009620667,0.5369505286216736,-0.08827002346515656,0.25915956497192383,-35.19438934326172,57.89242935180664,-43.247589111328125
4.553,1.1868400573730469,-7.226324081420898,-1.0277173519134521,0.5477933883666992,-0.11835514008998871,0.3107776939868927,-35.22361755371094,57.67319107055664,-42.867584228515625
4.56,1.2023932933807373,-7.056434154510498,-1.2993026971817017,0.5823072791099548,-0.12996158003807068,0.3462078869342804,-35.340545654296875,58.00935745239258,-42.73604202270508
4.569,1.1521440744400024,-6.935595989227295,-1.412961721420288,0.6259841322898865,-0.15012012422084808,0.39874228835105896,-35.092079162597656,57.950889587402344,-42.838348388671875
4.579,1.2299107313156128,-6.9511494636535645,-1.557727575302124,0.6853907704353333,-0.1797470897436142,0.44196099042892456,-34.741302490234375,58.00935745239258,-43.11604690551758
4.589,1.3746765851974487,-7.142575740814209,-1.695314884185791,0.7322747111320496,-0.19104810059070587,0.49296826124191284,-34.785152435302734,57.98012161254883,-44.22683334350586
4.609,1.6474583148956299,-7.323233604431152,-1.84965181350708,0.8333728909492493,-0.23273965716362,0.6377432942390442,-33.8643684387207,58.57936096191406,-44.84069061279297
4.612,1.7515461444854736,-7.542176723480225,-1.696511149406433,0.8477282524108887,-0.24465152621269226,0.6559165120124817,-34.01052474975586,58.623207092285156,-44.577606201171875
4.619,1.9010975360870361,-7.630711555480957,-1.521835207939148,0.8888089060783386,-0.285121351480484,0.7031058669090271,-34.09821701049805,58.81321334838867,-45.46916198730469
4.629,2.124826431274414,-7.683353424072266,-1.3830513954162598,0.9640980362892151,-0.3387247622013092,0.8115344643592834,-33.07512283325195,58.88629150390625,-45.62993240356445
4.639,2.132004976272583,-7.767101764678955,-1.117448091506958,1.0112874507904053,-0.37491855025291443,0.921184778213501,-32.943580627441406,58.842445373535156,-45.98070526123047
4.649,2.0542380809783936,-7.838886737823486,-1.4273186922073364,1.0167851448059082,-0.4492913782596588,1.0041097402572632,-32.21280288696289,59.16398620605469,-46.81379699707031
4.669,2.1367905139923096,-7.800601482391357,-1.9633108377456665,1.0306823253631592,-0.5435173511505127,1.0783298015594482,-31.891260147094727,59.13475799560547,-48.20227813720703
4.673,1.9800606966018677,-7.9034929275512695,-2.341376781463623,1.0532844066619873,-0.6259841322898865,1.2318097352981567,-30.91201400756836,59.20783233642578,-48.114585876464844
4.68,1.872383713722229,-7.984848976135254,-2.4047865867614746,1.0613783597946167,-0.6395758986473083,1.3048081398010254,-30.722009658813477,59.12014389038086,-48.62613296508789
4.689,1.6007983684539795,-8.216952323913574,-2.317448616027832,1.0842857360839844,-0.626747727394104,1.3891074657440186,-30.26892852783203,58.81321334838867,-48.94767761230469
4.699,1.4632110595703125,-8.376075744628906,-2.389233350753784,1.108567714691162,-0.5241223573684692,1.4973833560943604,-29.28968048095703,59.032447814941406,-49.020755767822266
4.709,1.4560325145721436,-8.682356834411621,-2.3330020904541016,1.1749993562698364,-0.37690383195877075,1.6105461120605469,-28.33966636657715,59.16398620605469,-50.043846130371094
4.728,2.3054845333099365,-9.919445991516113,-2.2803597450256348,1.236543893814087,-0.11789698898792267,1.783573865890503,-26.936567306518555,58.82782745361328,-51.476173400878906
4.732,2.423929214477539,-10.065407752990723,-2.334198474884033,1.2525792121887207,-0.056810468435287476,1.8507689237594604,-26.278865814208984,58.6962890625,-50.83308792114258
4.74,2.5950162410736084,-10.5152587890625,-2.664407968521118,1.2643383741378784,0.027641652151942253,1.952936053276062,-25.29962158203125,58.82782745361328,-51.30078887939453
4.749,2.4885356426239014,-10.831111907958984,-3.2506494522094727,1.3032809495925903,0.1310305893421173,2.0699169635772705,-24.583454132080078,58.52090072631836,-52.0169563293457
4.759,2.4011974334716797,-11.155338287353516,-3.55932354927063,1.3651310205459595,0.22052235901355743,2.160630226135254,-23.50189971923828,58.3162841796875,-53.332359313964844
4.769,2.489731788635254,-11.493922233581543,-3.6406795978546143,1.4294246435165405,0.2580905556678772,2.2424862384796143,-21.8503360748291,58.433204650878906,-54.647762298583984
4.789,2.6321046352386475,-12.035898208618164,-3.2757742404937744,1.5012012720108032,0.11163561791181564,2.3327414989471436,-20.038002014160156,57.65857696533203,-55.51008605957031
4.792,2.915654182434082,-12.917652130126953,-3.0664021968841553,1.497994303703308,0.05115996673703194,2.3570234775543213,-19.90645980834961,58.46243667602539,-55.40777587890625
4.799,2.768495798110962,-13.35434341430664,-2.9730820655822754,1.4966198205947876,-0.055283304303884506,2.4022274017333984,-18.56182289123535,57.80473327636719,-56.416255950927734
4.81,2.2683956623077393,-13.935798645019531,-2.8342983722686768,1.4831808805465698,-0.1846340149641037,2.4298691749572754,-18.00642967224121,56.942413330078125,-57.05934143066406
4.819,1.9070795774459839,-14.441880226135254,-2.7876384258270264,1.4587461948394775,-0.26251932978630066,2.406961679458618,-16.164865493774414,57.58550262451172,-57.46857452392578
4.829,1.856830358505249,-14.870195388793945,-2.685943365097046,1.429577350616455,-0.279928982257843,2.347402334213257,-15.331774711608887,56.47471618652344,-59.00321578979492
4.849,1.9106688499450684,-14.279169082641602,-2.974278450012207,1.3333660364151,-0.168751522898674,2.2689061164855957,-13.27097225189209,55.29084777832031,-60.187076568603516
4.853,1.856830358505249,-13.862817764282227,-3.0687947273254395,1.3226759433746338,-0.17119498550891876,2.2537875175476074,-12.744811058044434,55.45161819458008,-60.201690673828125
4.859,1.691725492477417,-13.48475170135498,-2.939582586288452,1.2794573307037354,-0.17409659922122955,2.1726949214935303,-11.75094985961914,55.02777099609375,-60.72785949707031
4.869,1.1102696657180786,-13.905887603759766,-3.308077335357666,1.2005029916763306,-0.18997909128665924,2.097100257873535,-10.289388656616211,54.18006134033203,-61.45863342285156
4.879,0.3888336718082428,-14.91446304321289,-3.1716861724853516,1.1688907146453857,-0.1814269870519638,2.0088303089141846,-9.383220672607422,54.32621765136719,-62.759429931640625
4.889,-0.3409772217273712,-15.578471183776855,-2.898904800415039,1.083064079284668,-0.08399397134780884,1.8906278610229492,-8.71090316772461,53.113128662109375,-62.04326248168945
4.906,-0.6699903011322021,-15.31047534942627,-3.0664021968841553,1.0071640014648438,0.21242839097976685,1.736231803894043,-7.220110893249512,52.35311508178711,-63.56328582763672
4.91,-0.4163511395454407,-15.198012351989746,-3.0173492431640625,1.0073168277740479,0.3326161205768585,1.7087427377700806,-6.123940467834473,51.94387435913086,-63.76790237426758
4.92,0.17587246000766754,-15.122639656066895,-2.8929224014282227,0.9815077185630798,0.5540547966957092,1.6982053518295288,-5.627009868621826,51.54925537109375,-64.10406494140625
4.929,0.8709874153137207,-14.725430488586426,-3.0352954864501953,0.9454666376113892,0.7002043128013611,1.7011069059371948,-4.925460338592529,51.388484954833984,-64.90792083740234
4.939,1.4500504732131958,-13.908281326293945,-2.968296527862549,0.9057604670524597,0.7579310536384583,1.7066047191619873,-4.1946797370910645,50.70154571533203,-64.96638488769531
4.949,1.5517455339431763,-12.608979225158691,-3.0664021968841553,0.8390233516693115,0.741284966468811,1.732261061668396,-3.1715874671936035,50.51154327392578,-64.82022857666016
4.968,1.8556338548660278,-10.756933212280273,-3.438485860824585,0.7232643961906433,0.47830748558044434,1.6811010837554932,-1.900029182434082,49.37152862548828,-65.2733154296875
4.972,2.0195422172546387,-10.280762672424316,-3.6358938217163086,0.709061861038208,0.43646320700645447,1.6746870279312134,-1.5931013822555542,49.283836364746094,-65.06869506835938
4.979,2.359323024749756,-9.483952522277832,-3.978067398071289,0.6646214127540588,0.3003929853439331,1.6340645551681519,-0.5846244096755981,48.713829040527344,-65.17100524902344
4.989,2.950350046157837,-8.312665939331055,-4.293920040130615,0.6493497490882874,0.04566217586398125,1.6157385110855103,0.26308098435401917,48.43613052368164,-65.02484893798828
5.0,2.6524438858032227,-7.1054863929748535,-4.115654468536377,0.6151412725448608,-0.15546520054340363,1.6476562023162842,1.0230926275253296,47.95381546020508,-64.70330047607422
5.018,2.042273998260498,-6.363711833953857,-4.408775806427002,0.5813909769058228,-0.3646865487098694,1.6227635145187378,1.5200233459472656,47.310726165771484,-66.57410430908203
5.022,1.9214365482330322,-6.1399827003479,-3.452842950820923,0.6070473194122314,-0.5780312418937683,1.543809175491333,2.4115755558013916,46.78456497192383,-66.32563781738281
5.03,2.042273998260498,-6.351747512817383,-2.847459077835083,0.578489363193512,-0.6742424964904785,1.5083789825439453,2.733119010925293,46.22917175292969,-67.02719116210938
5.039,2.166700839996338,-6.63769006729126,-2.283949136734009,0.5253441333770752,-0.8376489877700806,1.458593487739563,3.610055446624756,45.46916198730469,-67.392578125
5.049,2.225324869155884,-7.107879161834717,-2.190629005432129,0.45295655727386475,-0.9830348491668701,1.394605278968811,3.566208839416504,45.001461029052734,-67.7287368774414
5.059,2.2013967037200928,-7.4811601638793945,-2.3712871074676514,0.3604104816913605,-1.094212293624878,1.3255774974822998,4.428529739379883,44.606842041015625,-67.30487823486328
5.069,1.9417754411697388,-7.75633430480957,-2.4921247959136963,0.2583959996700287,-1.15178644657135,1.263269305229187,3.66851806640625,44.03683090209961,-68.67874908447266
5.085,1.4943177700042725,-8.053044319152832,-2.2205393314361572,0.10690141469240189,-1.0981829166412354,1.0737483501434326,3.9315991401672363,43.90529251098633,-69.38029479980469
5.09,1.3866406679153442,-8.169095993041992,-2.2097716331481934,0.056352317333221436,-1.0595457553863525,1.0279334783554077,4.516223430633545,43.65682601928711,-69.74568939208984
5.1,1.0097711086273193,-8.248059272766113,-2.3856441974639893,-0.04077525436878204,-0.9291260242462158,0.9108000993728638,5.1446943283081055,43.466819763183594,-70.24262237548828
5.109,1.0612168312072754,-8.22293472290039,-2.4741785526275635,-0.10766499489545822,-0.8029823303222656,0.776715099811554,5.1008477210998535,42.98450469970703,-69.42414855957031
5.119,1.4620145559310913,-8.145167350769043,-2.715853691101074,-0.1537853181362152,-0.7003569602966309,0.6409503817558289,4.764688968658447,42.867584228515625,-70.73954772949219
5.139,2.056631088256836,-8.304290771484375,-2.84386944770813,-0.18524488806724548,-0.6840163469314575,0.5232061147689819,4.603917121887207,42.619117736816406,-70.6080093383789
5.143,2.341376781463623,-8.446663856506348,-2.9036900997161865,-0.24908030033111572,-0.7473936080932617,0.3741549551486969,4.662379264831543,42.56065368652344,-70.84185791015625
5.15,2.1535403728485107,-8.554340362548828,-2.693121910095215,-0.28496861457824707,-0.7930558323860168,0.2770273983478546,4.881613731384277,42.72142791748047,-70.54954528808594
5.159,1.588834285736084,-8.6967134475708,-1.9657037258148193,-0.32299500703811646,-0.8014551401138306,0.11255192011594772,5.80239725112915,43.072200775146484,-71.0318603515625
5.169,1.3351950645446777,-8.928817749023438,-1.3722838163375854,-0.37629297375679016,-0.7490735054016113,-0.05772676318883896,5.027769565582275,42.56065368652344,-70.92955017089844
5.179,1.4691929817199707,-9.157332420349121,-1.1772687435150146,-0.4495968222618103,-0.6505715250968933,-0.2376265674829483,4.808535575866699,43.40835952758789,-71.55802154541016
5.198,2.139183282852173,-9.20279598236084,-1.4009976387023926,-0.5267185568809509,-0.603076696395874,-0.408363401889801,4.077754974365234,43.61297607421875,-72.2741928100586
5.203,3.267399311065674,-9.242277145385742,-1.6642080545425415,-0.6148358583450317,-0.722348153591156,-0.6340781450271606,3.9023678302764893,44.13914108276367,-71.54341125488281
5.21,3.7088749408721924,-9.352347373962402,-1.743171215057373,-0.6688974499702454,-0.8585711121559143,-0.7228062748908997,3.3615901470184326,44.16836929321289,-71.82110595703125
5.219,3.8596227169036865,-9.476773262023926,-1.7324036359786987,-0.749531626701355,-1.1158980131149292,-0.8367326259613037,2.703887701034546,45.03069305419922,-71.57263946533203
5.229,3.891925811767578,-9.54496955871582,-1.6163517236709595,-0.8358163237571716,-1.4074335098266602,-0.9708175659179688,2.4261913299560547,45.30839157104492,-72.04033660888672
5.239,3.76151704788208,-9.469594955444336,-1.5876377820968628,-0.9089674949645996,-1.659415364265442,-1.065043568611145,1.783104419708252,46.00994110107422,-71.92341613769531
5.259,3.407379150390625,-9.578468322753906,-1.3854442834854126,-0.9315694570541382,-1.8962783813476562,-1.1603385210037231,0.42385268211364746,46.521484375,-72.82958221435547
5.263,2.885744094848633,-10.419546127319336,-0.9308079481124878,-0.9718866348266602,-2.040289878845215,-1.2460123300552368,-1.2423267364501953,47.529964447021484,-73.00496673583984
5.269,2.7517459392547607,-10.704292297363281,-0.9798608422279358,-0.9952521920204163,-2.105347156524658,-1.2996158599853516,-2.1338791847229004,47.82227325439453,-72.171875
5.279,2.551945447921753,-10.980663299560547,-0.778863787651062,-1.0247265100479126,-2.191173553466797,-1.3730722665786743,-2.747734546661377,48.56766891479492,-73.04882049560547
5.289,2.4263219833374023,-11.274980545043945,-0.4211367666721344,-1.1042916774749756,-2.2847888469696045,-1.4908167123794556,-4.209295749664307,49.283836364746094,-73.26805114746094
5.3,2.423929214477539,-11.505887985229492,-0.44267216324806213,-1.2273809909820557,-2.331519842147827,-1.5945109128952026,-5.378544330596924,50.17538833618164,-73.4872817993164
5.32,2.159522294998169,-11.516655921936035,-0.16390834748744965,-1.3026700019836426,-2.2857048511505127,-1.6843081712722778,-8.462437629699707,51.02309036254883,-72.7272720336914
5.324,2.623729705810547,-11.686545372009277,-0.348155677318573,-1.3643674850463867,-2.099543809890747,-1.8249598741531372,-8.842443466186523,51.24232864379883,-72.47880554199219
5.329,2.902493953704834,-11.895917892456055,-0.43908295035362244,-1.377806544303894,-2.0451767444610596,-1.8545868396759033,-9.792458534240723,51.66618347167969,-72.91727447509766
5.339,3.4719855785369873,-12.502497673034668,-0.3613162338733673,-1.423926830291748,-2.0054705142974854,-1.9062049388885498,-11.385560035705566,52.499271392822266,-72.15726470947266
5.349,3.7902309894561768,-12.990633964538574,0.003589233849197626,-1.463938593864441,-2.0987801551818848,-1.9990564584732056,-12.876352310180664,53.127742767333984,-71.99649047851562
5.359,3.970889091491699,-13.25862979888916,0.6436693072319031,-1.4938708543777466,-2.2368359565734863,-2.0868682861328125,-14.571762084960938,54.22391128540039,-71.16340637207031
5.379,3.779463291168213,-13.300504684448242,0.9810572266578674,-1.5244141817092896,-2.3684773445129395,-2.1558961868286133,-16.661794662475586,54.50160598754883,-71.22186279296875
5.383,3.308077335357666,-13.130614280700684,0.9535397887229919,-1.6053539514541626,-2.4918718338012695,-2.3014347553253174,-18.91259765625,55.802398681640625,-69.30722045898438
5.389,2.991028070449829,-12.79322624206543,0.7178468108177185,-1.6273449659347534,-2.5115723609924316,-2.353205680847168,-19.789535522460938,55.817012786865234,-68.98567962646484
5.399,2.8426733016967773,-12.390035629272461,0.7956134676933289,-1.64414381980896,-2.5642595291137695,-2.503783941268921,-21.499561309814453,56.32855987548828,-69.26337432861328
5.409,3.198007583618164,-12.527623176574707,0.9834501147270203,-1.6919440031051636,-2.576324224472046,-2.612823247909546,-23.50189971923828,56.5770263671875,-68.00643157958984
5.419,3.8775689601898193,-13.112667083740234,0.7537391185760498,-1.7117971181869507,-2.55143141746521,-2.696969985961914,-25.387313842773438,57.2347297668457,-67.30487823486328
5.439,4.052245140075684,-13.858031272888184,0.4893321990966797,-1.7431038618087769,-2.4836254119873047,-2.7183501720428467,-29.742765426635742,57.45396041870117,-64.76176452636719
5.443,3.221935510635376,-14.287544250488281,0.5312066078186035,-1.8128951787948608,-2.2618813514709473,-2.7493515014648438,-30.035078048706055,57.60011672973633,-64.86407470703125
5.45,2.482553482055664,-14.279169082641602,0.696311354637146,-1.831068515777588,-2.0228800773620605,-2.7898216247558594,-31.394329071044922,57.42472839355469,-64.16252899169922
5.459,1.9477574825286865,-14.161920547485352,0.9966105818748474,-1.8188512325286865,-1.5897767543792725,-2.8455631732940674,-33.2651252746582,58.170127868652344,-62.40864944458008
5.469,2.242074728012085,-14.078170776367188,1.1904292106628418,-1.7892242670059204,-1.136362075805664,-2.8909196853637695,-35.3843879699707,57.17626190185547,-62.27711486816406
5.479,3.095116138458252,-14.006386756896973,1.0277173519134521,-1.77975594997406,-0.783892810344696,-2.940094470977783,-36.80210494995117,57.760887145996094,-60.844783782958984
5.499,4.115654468536377,-13.64626693725586,0.2823530435562134,-1.7702873945236206,-0.5994114875793457,-2.970026731491089,-40.543701171875,57.132415771484375,-58.842445373535156
5.504,5.335994243621826,-13.130614280700684,-0.2153540402650833,-1.6522377729415894,-0.6481279730796814,-3.039665460586548,-41.27448272705078,56.44548416137695,-57.921661376953125
5.509,5.639883041381836,-13.12822151184082,-0.16031910479068756,-1.62047278881073,-0.736245334148407,-3.028517246246338,-41.888336181640625,55.84624481201172,-57.83396911621094
5.519,6.0466628074646,-12.951151847839355,-0.8685945868492126,-1.5908458232879639,-0.8904888033866882,-2.9823968410491943,-43.51066970825195,55.977787017822266,-57.19087600708008
5.529,5.688935279846191,-12.624531745910645,-1.2035897970199585,-1.5317444801330566,-1.107040524482727,-2.9529225826263428,-44.95761489868164,54.662376403808594,-55.68547058105469
5.539,4.996213436126709,-12.357732772827148,-0.8925228118896484,-1.464396595954895,-1.3011430501937866,-2.955824136734009,-46.57994842529297,54.019290924072266,-55.071617126464844
5.559,4.362115383148193,-12.16989517211914,-0.40797626972198486,-1.2731958627700806,-1.3165671825408936,-2.9607110023498535,-49.093833923339844,53.08388900756836,-54.12160110473633
5.562,4.238884925842285,-12.355340003967285,0.7800601124763489,-1.2498302459716797,-1.289689302444458,-2.9576566219329834,-49.44460678100586,52.44080352783203,-54.019290924072266
5.569,4.151546955108643,-12.440284729003906,0.8877371549606323,-1.2666290998458862,-1.239292860031128,-2.933833122253418,-50.70154571533203,51.593101501464844,-53.01081466674805
5.579,3.9625141620635986,-11.69611644744873,-0.07896314561367035,-1.256091594696045,-1.2174543142318726,-2.889087200164795,-52.25080108642578,50.39461898803711,-50.979244232177734
5.589,3.73041033744812,-10.931610107421875,-0.41874393820762634,-1.1675162315368652,-1.2122620344161987,-2.886643648147583,-52.79158401489258,49.18152618408203,-50.92078399658203
5.6,3.61435866355896,-10.351350784301758,-0.7836494445800781,-1.0806206464767456,-1.1407908201217651,-2.8710665702819824,-54.048526763916016,48.74305725097656,-50.3800048828125
5.619,3.7902309894561768,-9.416953086853027,-1.466800332069397,-0.7945829629898071,-0.9034696817398071,-2.7811167240142822,-55.96316909790039,47.06226348876953,-49.2984504699707
5.622,3.783052444458008,-9.366703987121582,-1.4787644147872925,-0.7041748762130737,-0.8252789378166199,-2.7485880851745605,-56.416255950927734,46.62379455566406,-49.15229415893555
5.629,4.005584716796875,-9.56770133972168,-1.6749757528305054,-0.5426010489463806,-0.7171558141708374,-2.687654495239258,-56.8985710144043,45.615318298339844,-48.611515045166016
5.64,4.392025947570801,-10.332207679748535,-1.2382856607437134,-0.31932979822158813,-0.6336199641227722,-2.582585573196411,-57.8193473815918,44.85530471801758,-49.13768005371094
5.649,5.006981372833252,-10.675577163696289,-0.8219345808029175,-0.15042555332183838,-0.6724098920822144,-2.4740042686462402,-58.88629150390625,43.802982330322266,-47.734580993652344
5.659,5.504688262939453,-10.63250732421875,-0.34695929288864136,0.016951510682702065,-0.9361509680747986,-2.3793201446533203,-59.7339973449707,43.422977447509766,-48.45074462890625
5.679,5.789434432983398,-10.186245918273926,0.14476576447486877,0.1973094791173935,-1.500285029411316,-2.1685714721679688,-60.406314849853516,41.332942962646484,-47.427650451660156
5.683,5.3934221267700195,-9.749555587768555,0.9032905101776123,0.21532998979091644,-1.5679383277893066,-2.143831491470337,-60.362464904785156,41.449867248535156,-47.354576110839844
5.689,5.065605640411377,-9.41934585571289,1.0456634759902954,0.25014930963516235,-1.7409659624099731,-2.059837579727173,-60.581703186035156,40.93832015991211,-46.95995330810547
5.7,4.317848205566406,-8.997013092041016,0.8135596513748169,0.26939156651496887,-1.9060522317886353,-1.9454530477523804,-60.69862747192383,40.07600402832031,-46.945335388183594
5.709,3.317648410797119,-8.286344528198242,0.14835500717163086,0.33918291330337524,-2.0303633213043213,-1.8128951787948608,-61.4732551574707,39.345218658447266,-45.995323181152344
5.719,2.149951219558716,-7.432106971740723,-0.35413771867752075,0.4036291837692261,-2.0749566555023193,-1.7744108438491821,-61.648643493652344,38.585208892822266,-45.68839645385742
5.739,1.4883357286453247,-6.630511283874512,-0.02751745842397213,0.626747727394104,-1.9578231573104858,-1.6742287874221802,-62.130958557128906,37.474422454833984,-43.7006721496582
5.743,1.499103307723999,-6.561119556427002,0.08973085135221481,0.677602231502533,-1.9100228548049927,-1.6438382863998413,-61.634029388427734,37.679039001464844,-43.53989791870117
5.749,1.6271193027496338,-6.5312089920043945,0.2620140612125397,0.722348153591156,-1.8542814254760742,-1.608255386352539,-61.838645935058594,36.729026794433594,-43.48143768310547
5.759,1.9262220859527588,-6.3900322914123535,0.0203389935195446,0.8374962210655212,-1.7331774234771729,-1.479362964630127,-62.05787658691406,36.67056655883789,-43.59836196899414
5.77,2.045863151550293,-6.486941814422607,-0.4977070689201355,0.9104946255683899,-1.700037956237793,-1.374904990196228,-62.350189208984375,35.74978256225586,-43.057586669921875
5.779,2.0865414142608643,-6.8063836097717285,-0.6508477926254272,0.9812023043632507,-1.7055357694625854,-1.2637274265289307,-62.37942123413086,35.472084045410156,-42.67757797241211
5.799,2.423929214477539,-7.660621643066406,-0.008374879136681557,1.0494664907455444,-1.797471046447754,-1.0876455307006836,-62.46711730957031,34.85823059082031,-41.77141189575195
5.803,2.5746772289276123,-7.886743068695068,0.11246266216039658,1.0651962757110596,-1.8177822828292847,-1.0219775438308716,-62.744815826416016,34.419761657714844,-41.82987594604492
5.809,2.616551399230957,-8.024331092834473,0.11365906894207001,1.0618364810943604,-1.8402315378189087,-0.9140071272850037,-62.29172897338867,34.02513885498047,-41.332942962646484
5.819,2.688336133956909,-7.920242786407471,-0.5659025311470032,1.0589349269866943,-1.8978055715560913,-0.7718282341957092,-62.335575103759766,34.02513885498047,-40.80678176879883
5.829,2.8139593601226807,-7.546962261199951,-1.0277173519134521,1.1498011350631714,-1.959808349609375,-0.6249151229858398,-62.350189208984375,34.142066955566406,-40.82139587402344
5.839,2.47896409034729,-7.691728115081787,-0.696311354637146,1.2397509813308716,-1.9685131311416626,-0.44806966185569763,-62.04326248168945,33.76205825805664,-40.19292449951172
5.857,1.994417667388916,-8.171488761901855,-1.0588239431381226,1.4071279764175415,-1.8860464096069336,-0.20066924393177032,-61.44401931762695,34.43437576293945,-39.31599044799805
5.861,2.025524377822876,-8.270791053771973,-1.0289136171340942,1.4718797206878662,-1.8551976680755615,-0.1345430612564087,-61.2978630065918,34.30283737182617,-38.70213317871094
5.87,2.1643080711364746,-8.365307807922363,-0.8638089299201965,1.6126842498779297,-1.82404363155365,-0.012828170321881771,-61.15170669555664,34.171295166015625,-39.08213806152344
5.879,2.496910333633423,-8.606983184814453,-0.4737788736820221,1.7498234510421753,-1.848325490951538,0.11407908797264099,-60.93247604370117,34.755916595458984,-38.43905258178711
5.889,2.3784656524658203,-8.717052459716797,0.0011964113218709826,1.8643606901168823,-1.9010125398635864,0.242513507604599,-60.45016098022461,34.682838439941406,-38.71674728393555
5.908,2.203789472579956,-8.754141807556152,0.10767702013254166,1.95828115940094,-1.9839375019073486,0.35246923565864563,-60.31861877441406,35.25284957885742,-38.55597686767578
5.912,1.7670994997024536,-9.049654960632324,0.08015955239534378,2.0192148685455322,-2.144442319869995,0.4686863422393799,-59.39783477783203,35.74978256225586,-37.34288024902344
5.92,1.5637094974517822,-9.249455451965332,-0.20817556977272034,2.0254764556884766,-2.222327709197998,0.5036584138870239,-58.94475555419922,35.939781188964844,-37.86904525756836
5.929,1.2801601886749268,-9.272187232971191,-0.5838487148284912,2.035708427429199,-2.2768473625183105,0.5606215596199036,-58.477054595947266,36.23209762573242,-37.32826614379883
5.939,1.0683952569961548,-9.287740707397461,-0.9451649785041809,2.0639607906341553,-2.252871036529541,0.6317873597145081,-57.936275482177734,36.422096252441406,-37.8251953125
5.949,0.6735795140266418,-9.58923625946045,-1.246660590171814,2.10504150390625,-2.160477638244629,0.7057020664215088,-57.38088607788086,37.299034118652344,-37.41596221923828
5.96,0.26560330390930176,-9.678967475891113,-1.5445669889450073,2.1568124294281006,-2.020895004272461,0.7658722400665283,-57.07395553588867,37.13826370239258,-37.3867301940918
5.972,-0.08374878764152527,-9.06281566619873,-1.6749757528305054,2.2682952880859375,-1.821905493736267,0.8206974267959595,-56.27009963989258,38.30751037597656,-37.3867301940918
5.98,0.02991028130054474,-8.951549530029297,-1.4727823734283447,2.3432788848876953,-1.7438675165176392,0.8364272713661194,-55.71470260620117,39.08213806152344,-37.065185546875
5.989,0.3242274522781372,-9.30329418182373,-1.2658032178878784,2.395508050918579,-1.7088954448699951,0.8636107444763184,-55.24700164794922,39.403682708740234,-37.3867301940918
6.0,0.6113661527633667,-9.610772132873535,-1.4033904075622559,2.4002420902252197,-1.766927719116211,0.887739896774292,-54.691612243652344,40.04676818847656,-38.32212829589844
6.009,1.0061818361282349,-10.051051139831543,-1.2681959867477417,2.407114267349243,-1.9185749292373657,0.9179776906967163,-54.472373962402344,40.207542419433594,-38.395206451416016
6.029,1.0121638774871826,-10.6025972366333,-1.1270194053649902,2.358550548553467,-2.163379192352295,0.9662361145019531,-53.59543991088867,41.04063034057617,-38.029815673828125
6.033,0.8542376756668091,-10.99741268157959,-1.5565310716629028,2.319607973098755,-2.3301455974578857,1.0131200551986694,-52.703887939453125,41.66910171508789,-38.08827590942383
6.04,0.6831508874893188,-11.1433744430542,-1.6115659475326538,2.3093760013580322,-2.419790029525757,1.0512990951538086,-52.8208122253418,42.20988082885742,-38.468284606933594
6.05,0.5096712112426758,-11.393424987792969,-1.8029918670654297,2.2821924686431885,-2.543642997741699,1.0740537643432617,-51.76848602294922,42.54603958129883,-38.35136032104492
6.06,0.2548356056213379,-11.548957824707031,-2.121237277984619,2.2591323852539062,-2.621070146560669,1.0960450172424316,-51.24232864379883,42.823734283447266,-39.31599044799805
6.069,-0.044267214834690094,-11.308479309082031,-2.282752752304077,2.2852468490600586,-2.615114212036133,1.135140299797058,-50.365386962890625,43.10143280029297,-39.47676086425781
6.088,-0.09810572117567062,-11.408977508544922,-2.115255117416382,2.3180809020996094,-2.649475336074829,1.1545352935791016,-49.7223014831543,44.16836929321289,-39.038291931152344
6.092,-0.5240281224250793,-11.901899337768555,-2.361715793609619,2.208888530731201,-2.730567455291748,1.2348641157150269,-48.80152130126953,44.13914108276367,-39.374454498291016
6.1,-0.9260223507881165,-11.996416091918945,-2.468196392059326,2.137875556945801,-2.7759244441986084,1.2541064023971558,-47.851505279541016,44.562992095947266,-40.25138854980469
6.109,-1.5134602785110474,-12.107682228088379,-2.0506489276885986,2.102598190307617,-2.7675249576568604,1.2515101432800293,-47.80765914916992,44.7822265625,-39.023677825927734
6.119,-2.163111686706543,-12.369696617126465,-1.3435698747634888,2.0392208099365234,-2.514932155609131,1.2626584768295288,-46.974571228027344,45.96609115600586,-40.11984634399414
6.129,-2.7003002166748047,-12.53001594543457,-1.7934205532073975,1.8513797521591187,-2.163379192352295,1.2927435636520386,-45.96609115600586,46.49225616455078,-40.499855041503906
6.149,-3.1310083866119385,-11.910274505615234,-2.764906644821167,1.7177530527114868,-1.8150333166122437,1.2927435636520386,-44.928382873535156,46.7991828918457,-40.339080810546875
6.153,-3.2590243816375732,-11.072786331176758,-3.864408493041992,1.6129896640777588,-1.4731014966964722,1.2122620344161987,-43.78836441040039,47.33995819091797,-40.09061813354492
6.159,-3.0999014377593994,-10.850253105163574,-4.329812526702881,1.5882495641708374,-1.3385584354400635,1.14873206615448,-43.53989791870117,47.471500396728516,-40.80678176879883
6.169,-2.6464619636535645,-11.005786895751953,-4.0725836753845215,1.5683965682983398,-1.2533427476882935,1.0644326210021973,-43.29143524169922,48.17304992675781,-42.09295654296875
6.179,-1.935793399810791,-11.340782165527344,-3.783052444458008,1.4752395153045654,-1.260825753211975,0.9837984442710876,-42.58988571166992,47.924583435058594,-41.84449005126953
6.189,-1.1916255950927734,-11.341979026794434,-3.5856447219848633,1.3955215215682983,-1.3449724912643433,0.9663887619972229,-42.01987838745117,48.12919998168945,-41.91756820678711
6.209,-0.9104689955711365,-11.068001747131348,-3.1381869316101074,1.334587812423706,-1.4918856620788574,0.9680687189102173,-41.099090576171875,48.17304992675781,-42.619117736816406
6.213,-0.8410770893096924,-10.985447883605957,-2.664407968521118,1.226922869682312,-1.7163785696029663,0.9512698650360107,-40.93832015991211,48.669979095458984,-43.34989929199219
6.22,-0.6783652305603027,-11.040483474731445,-2.5184457302093506,1.187522053718567,-1.789376974105835,0.9468411207199097,-40.017539978027344,48.845367431640625,-42.38526916503906
6.229,-0.4378865361213684,-11.184053421020508,-2.39401912689209,1.0731375217437744,-1.9828685522079468,0.9857837557792664,-39.53522491455078,48.72844314575195,-42.809120178222656
6.239,-0.7980062961578369,-11.266605377197266,-2.4849462509155273,0.9593638181686401,-2.1259636878967285,1.0490082502365112,-38.97983169555664,49.473838806152344,-43.057586669921875
6.249,-1.4596216678619385,-11.25344467163086,-2.4358932971954346,0.8681922554969788,-2.1795670986175537,1.095739483833313,-38.40982437133789,49.53229904174805,-43.437591552734375
6.269,-2.2851455211639404,-11.33838939666748,-2.3234305381774902,0.7779368162155151,-2.1320724487304688,1.1467467546463013,-37.73750305175781,49.663841247558594,-43.51066970825195
6.273,-3.1657042503356934,-10.977072715759277,-2.111665964126587,0.6551529169082642,-1.8507689237594604,1.1972957849502563,-37.971351623535156,49.50307083129883,-44.066062927246094
6.28,-3.4157540798187256,-10.85145092010498,-2.0650060176849365,0.6174320578575134,-1.606575608253479,1.2206615209579468,-37.211341857910156,49.7223014831543,-44.03683090209961
6.289,-3.6299118995666504,-10.555936813354492,-2.139183282852173,0.5734497308731079,-1.2191343307495117,1.2311989068984985,-36.4074821472168,49.92692184448242,-43.59836196899414
6.3,-3.1884360313415527,-10.429117202758789,-2.0614166259765625,0.5641340017318726,-0.8947648406028748,1.2211195230484009,-35.61824035644531,50.570011138916016,-44.29991149902344
6.309,-2.2193429470062256,-10.581061363220215,-1.9453648328781128,0.5522221326828003,-0.6959282159805298,1.1986702680587769,-34.799766540527344,50.350772857666016,-43.84682846069336
6.329,-0.92482590675354,-10.942378044128418,-1.6139588356018066,0.512210488319397,-0.6779077053070068,1.1675162315368652,-34.05436706542969,50.43846893310547,-44.48991394042969
6.333,0.8865407705307007,-11.341979026794434,-1.7359927892684937,0.3686571717262268,-1.0396926403045654,1.1638509035110474,-33.791290283203125,50.46770095825195,-44.6799201965332
6.339,1.1784651279449463,-11.312068939208984,-1.7754743099212646,0.3139847218990326,-1.262047529220581,1.2023354768753052,-33.557437896728516,50.61385726928711,-45.14761734008789
6.349,0.5168496966362,-11.274980545043945,-1.1892328262329102,0.24755313992500305,-1.4691309928894043,1.2942707538604736,-32.85588836669922,50.584625244140625,-44.446067810058594
6.359,-0.6532405614852905,-11.188838005065918,-1.0037890672683716,0.161268413066864,-1.4995214939117432,1.338405728340149,-32.30049514770508,50.993858337402344,-45.04530715942383
6.369,-1.5529417991638184,-11.25942611694336,-0.8889335989952087,0.13484850525856018,-1.342529058456421,1.3370312452316284,-32.19818878173828,51.02309036254883,-44.3437614440918
6.389,-1.782652735710144,-11.819347381591797,-0.6879364848136902,0.1518000215291977,-1.0183123350143433,1.2916744947433472,-30.678165435791016,51.12540054321289,-45.4399299621582
6.393,-1.234696388244629,-12.805190086364746,-1.1449655294418335,0.14217887818813324,-0.7502952218055725,1.21974515914917,-30.605087280273438,51.03771209716797,-44.88453674316406
6.4,-0.672383189201355,-12.993026733398438,-1.1916255950927734,0.15943582355976105,-0.6994407176971436,1.168279767036438,-30.181232452392578,51.1400146484375,-44.97222900390625
6.41,0.11126624792814255,-13.144970893859863,-0.9260223507881165,0.156686931848526,-0.7548767328262329,1.1044442653656006,-29.143524169921875,51.1400146484375,-45.615318298339844
6.419,0.5539384484291077,-12.669995307922363,-1.0145567655563354,0.11392636597156525,-0.8633052706718445,1.0700831413269043,-28.982751846313477,51.505409240722656,-44.70914840698242
6.429,0.35892340540885925,-12.064611434936523,-0.6975077390670776,0.06612616032361984,-1.0254899263381958,1.0183123350143433,-28.515052795410156,51.65156173706055,-45.07453918457031
6.449,-0.14715859293937683,-10.859825134277344,0.05982056260108948,-0.05757404863834381,-1.0896308422088623,0.917672336101532,-27.62350082397461,51.30078887939453,-45.35223388671875
6.452,-0.8039883971214294,-9.66939640045166,0.9296115636825562,-0.11881328374147415,-1.0580185651779175,0.8747590184211731,-27.667348861694336,51.198482513427734,-45.22069549560547
6.459,-0.9200402498245239,-9.125028610229492,0.8985048532485962,-0.23457224667072296,-0.9987646341323853,0.7878634333610535,-27.06810760498047,51.710025787353516,-45.761470794677734
6.469,-0.6735795140266418,-8.322237014770508,0.5479563474655151,-0.3675881624221802,-0.9237809181213379,0.6557638049125671,-26.556564331054688,51.44694519042969,-44.48991394042969
6.479,-0.2919243574142456,-7.5912299156188965,0.47138604521751404,-0.44684794545173645,-0.8229882121086121,0.5343543291091919,-26.351943969726562,51.578487396240234,-44.41683578491211
6.489,0.09092725813388824,-7.155735969543457,0.28115665912628174,-0.5430591702461243,-0.6876814961433411,0.4605923891067505,-25.92809295654297,51.65156173706055,-44.75299835205078
6.508,0.7932206988334656,-6.587440490722656,-0.3445664644241333,-0.6062837243080139,-0.7153232097625732,0.2142609804868698,-25.197309494018555,51.54925537109375,-43.876060485839844
6.512,0.9882357120513916,-6.441478729248047,-0.38644087314605713,-0.5971208214759827,-0.7359398603439331,0.18387043476104736,-22.464191436767578,51.94387435913086,-44.19760513305664
6.519,1.1318050622940063,-6.293123722076416,-0.22971096634864807,-0.5723807215690613,-0.8087855577468872,0.10125090926885605,-25.92809295654297,51.578487396240234,-43.29143524169922
6.529,1.1437692642211914,-5.937789440155029,-0.08614161610603333,-0.5540547966957092,-0.9028587937355042,-0.0009162978385575116,-25.635778427124023,52.0169563293457,-43.72990417480469
6.539,1.0432707071304321,-5.863611698150635,-0.11365906894207001,-0.5224425196647644,-1.0757336616516113,-0.17501288652420044,-25.32884979248047,51.885414123535156,-43.86144256591797
6.549,1.0851449966430664,-6.303890705108643,-0.30628129839897156,-0.5001459121704102,-1.2169963121414185,-0.3182607889175415,-25.21192741394043,51.885414123535156,-43.59836196899414
6.569,0.9116654396057129,-6.953542709350586,0.14835500717163086,-0.5619960427284241,-1.3646730184555054,-0.5971208214759827,-25.372699737548828,51.213096618652344,-43.393741607666016
6.572,0.6017948985099792,-7.95733118057251,0.7908278107643127,-0.5827654004096985,-1.356884479522705,-0.6287330389022827,-25.197309494018555,51.65156173706055,-42.882198333740234
6.579,0.42352959513664246,-8.498109817504883,1.0133603811264038,-0.6420193314552307,-1.3176363706588745,-0.7278459072113037,-26.074249267578125,51.900028228759766,-42.85296630859375
6.589,0.27756741642951965,-9.21715259552002,1.25862455368042,-0.7629706859588623,-1.160185694694519,-0.9112582206726074,-25.942707061767578,51.344635009765625,-43.21835708618164
6.6,0.4666004180908203,-9.89432144165039,1.2023932933807373,-0.8556694388389587,-1.0180069208145142,-1.0618364810943604,-26.30809783935547,51.60771560668945,-42.79450607299805
6.609,0.3840480148792267,-10.218547821044922,1.1102696657180786,-0.9280570149421692,-0.9401216506958008,-1.1789699792861938,-26.351943969726562,51.25694274902344,-41.77141189575195
6.629,0.04666003957390785,-10.437492370605469,0.2715853750705719,-1.0201449394226074,-0.9489791393280029,-1.492038369178772,-26.99502944946289,51.0815544128418,-40.952938079833984
6.633,-0.08853442966938019,-10.541580200195312,0.07776673883199692,-1.0317513942718506,-0.9543241858482361,-1.558011770248413,-27.50657844543457,51.388484954833984,-40.71908950805664
6.639,-0.22013966739177704,-10.579865455627441,-0.09930214285850525,-1.0563386678695679,-0.9578366875648499,-1.6508632898330688,-27.696578979492188,50.993858337402344,-40.09061813354492
6.649,-0.5503491759300232,-10.588239669799805,-0.1986042857170105,-1.0954340696334839,-0.9586002826690674,-1.8014415502548218,-28.17889404296875,50.68693161010742,-39.60830307006836
6.659,-0.25722840428352356,-10.640881538391113,-0.4654039740562439,-1.123533844947815,-0.9640980362892151,-1.9602665901184082,-29.1873722076416,51.286170959472656,-38.96521759033203
6.669,-0.037088751792907715,-10.979466438293457,0.0131605239585042,-1.1365147829055786,-0.921184778213501,-2.0638082027435303,-29.304296493530273,50.570011138916016,-38.5267448425293
