time,accel_x,accel_y,accel_z,gyro_x,gyro_y,gyro_z,mag_x,mag_y,mag_z
0.0,0.0,0.0,0.0,0.0,0.0,0.0,-17.700000762939453,-35.25,-2.25
0.01,77.34229278564453,-14.595053672790527,13.982137680053711,2.6646246910095215,-1.5987749099731445,-1.4655436277389526,-17.55000114440918,-36.60000228881836,-3.9000000953674316
0.029,76.92091369628906,-14.556746482849121,13.48414421081543,4.663093090057373,0.9326186776161194,-0.1332312375307083,-18.450000762939453,-36.45000076293945,-2.700000047683716
0.033,76.03984832763672,-14.97812557220459,13.943830490112305,-3.0643184185028076,2.9310872554779053,-3.86370587348938,-18.150001525878906,-36.900001525878906,-1.9500000476837158
0.04,77.68705749511719,-14.595053672790527,13.828908920288086,1.4655436277389526,-2.797856092453003,2.797856092453003,-19.650001525878906,-36.900001525878906,-3.450000047683716
0.05,75.61846923828125,-14.939818382263184,13.867216110229492,-0.7993874549865723,-1.9984685182571411,-0.7993874549865723,-18.30000114440918,-38.25,-3.3000001907348633
0.06,76.34630584716797,-15.284584045410156,14.058752059936523,-8.526799201965332,3.597243309020996,-7.594180583953857,-18.30000114440918,-38.25,-3.3000001907348633
0.07,76.30799865722656,-15.207969665527344,13.79060173034668,1.0658499002456665,3.597243309020996,0.0,-16.5,-36.30000305175781,-2.8500001430511475
0.08,76.00154113769531,-13.752294540405273,14.058752059936523,-6.395099639892578,-3.3307809829711914,-0.7993874549865723,-18.30000114440918,-36.60000228881836,-2.1000001430511475
0.099,76.03984832763672,-13.445837020874023,14.288596153259277,-4.263399600982666,4.130168437957764,-0.39969372749328613,-18.450000762939453,-37.95000076293945,-3.0
0.104,75.8866195678711,-15.629348754882812,13.369222640991211,-1.1990811824798584,-0.7993874549865723,2.797856092453003,-18.450000762939453,-37.95000076293945,-3.0
0.11,77.07414245605469,-15.169661521911621,14.020444869995117,-0.6661561727523804,3.197549819946289,-1.4655436277389526,-18.450000762939453,-37.95000076293945,-3.0
0.12,76.00154113769531,-15.476119995117188,13.713987350463867,0.6661561727523804,-1.0658499002456665,3.197549819946289,-16.200000762939453,-37.650001525878906,-2.25
0.13,75.8866195678711,-14.518439292907715,13.407529830932617,-8.127105712890625,1.8652373552322388,4.263399600982666,-19.650001525878906,-36.45000076293945,-4.950000286102295
0.149,76.11646270751953,-15.284584045410156,14.824896812438965,-9.192955017089844,1.5987749099731445,-2.2649309635162354,-19.05000114440918,-36.30000305175781,-3.6000001430511475
0.153,76.03984832763672,-14.135366439819336,14.326903343200684,3.7304747104644775,-5.062787055969238,0.5329249501228333,-19.05000114440918,-37.05000305175781,-2.5500001907348633
0.16,75.54185485839844,-15.476119995117188,13.905523300170898,0.5329249501228333,2.797856092453003,0.5329249501228333,-19.05000114440918,-37.05000305175781,-2.5500001907348633
0.17,75.54185485839844,-15.361198425292969,13.943830490112305,-5.8621745109558105,5.728943347930908,-8.39356803894043,-17.55000114440918,-36.30000305175781,-2.5500001907348633
0.18,76.15476989746094,-14.211980819702148,14.09705924987793,-0.2664624750614166,-1.9984685182571411,1.7320060729980469,-16.200000762939453,-37.20000076293945,-3.0
0.19,76.15476989746094,-14.326903343200684,13.637372970581055,0.7993874549865723,-0.5329249501228333,2.6646246910095215,-18.900001525878906,-36.45000076293945,-3.750000238418579
0.21,76.72937774658203,-14.748282432556152,13.560758590698242,-9.859111785888672,3.3307809829711914,-0.7993874549865723,-18.75,-37.5,-1.8000000715255737
0.213,76.69107055664062,-14.824896812438965,14.939818382263184,-10.92496109008789,9.72588062286377,-4.929555892944336,-18.450000762939453,-36.150001525878906,-3.450000047683716
0.22,76.61445617675781,-15.207969665527344,14.135366439819336,-0.9326186776161194,-4.263399600982666,-2.531393527984619,-18.450000762939453,-36.150001525878906,-3.450000047683716
0.23,76.23138427734375,-15.322891235351562,13.292608261108398,0.1332312375307083,-2.531393527984619,-3.0643184185028076,-17.55000114440918,-35.10000228881836,-1.8000000715255737
0.24,76.537841796875,-15.016432762145996,13.752294540405273,-3.197549819946289,10.658498764038086,-4.929555892944336,-18.450000762939453,-36.45000076293945,-3.750000238418579
0.25,76.42292022705078,-15.016432762145996,14.480132102966309,3.3307809829711914,-3.3307809829711914,1.9984685182571411,-18.75,-37.05000305175781,-2.8500001430511475
0.269,75.9249267578125,-14.786589622497559,13.254301071166992,3.7304747104644775,-1.5987749099731445,1.5987749099731445,-19.650001525878906,-36.900001525878906,-3.0
0.273,76.65276336669922,-14.211980819702148,13.10107135772705,-4.130168437957764,8.660030364990234,-7.194486618041992,-18.900001525878906,-36.900001525878906,-3.0
0.28,76.11646270751953,-15.322891235351562,13.062764167785645,-7.594180583953857,9.72588062286377,-5.062787055969238,-18.900001525878906,-36.900001525878906,-3.0
0.29,76.42292022705078,-15.169661521911621,14.595053672790527,-5.329249382019043,-1.5987749099731445,3.7304747104644775,-19.650001525878906,-36.900001525878906,-2.700000047683716
0.3,75.9249267578125,-14.633360862731934,14.326903343200684,-1.9984685182571411,3.597243309020996,-9.192955017089844,-18.30000114440918,-35.85000228881836,-3.6000001430511475
0.31,76.46122741699219,-14.67166805267334,13.905523300170898,-3.3307809829711914,8.260336875915527,0.5329249501228333,-18.150001525878906,-36.45000076293945,-3.0
0.33,76.76768493652344,-14.863204002380371,13.828908920288086,5.8621745109558105,-2.2649309635162354,6.9280242919921875,-18.150001525878906,-36.45000076293945,-3.0
0.333,76.30799865722656,-13.943830490112305,13.407529830932617,3.4640121459960938,-0.6661561727523804,8.260336875915527,-18.900001525878906,-37.650001525878906,-1.9500000476837158
0.34,77.1890640258789,-15.016432762145996,13.828908920288086,-3.3307809829711914,4.529861927032471,-10.258805274963379,-18.900001525878906,-37.650001525878906,-1.9500000476837158
0.35,75.77169799804688,-15.399505615234375,13.713987350463867,1.1990811824798584,1.4655436277389526,-0.5329249501228333,-18.30000114440918,-38.25,-2.8500001430511475
0.36,76.34630584716797,-14.480132102966309,15.476119995117188,2.2649309635162354,-3.3307809829711914,-1.5987749099731445,-17.55000114440918,-35.85000228881836,-1.350000023841858
0.37,75.46524047851562,-13.867216110229492,13.752294540405273,-5.462480545043945,5.462480545043945,-4.396630764007568,-17.25,-36.60000228881836,-3.3000001907348633
0.38,76.80599212646484,-15.054739952087402,13.79060173034668,-6.261868000030518,6.261868000030518,3.3307809829711914,-17.25,-36.60000228881836,-3.3000001907348633
0.393,76.80599212646484,-15.782577514648438,13.48414421081543,1.1990811824798584,-0.5329249501228333,-0.6661561727523804,-18.75,-37.80000305175781,-2.8500001430511475
0.4,76.537841796875,-15.361198425292969,13.752294540405273,3.86370587348938,-0.39969372749328613,17.852985382080078,-17.700000762939453,-36.900001525878906,-1.6500000953674316
0.41,75.58016204833984,-14.709975242614746,13.10107135772705,-8.793261528015137,5.728943347930908,-4.396630764007568,-18.0,-37.5,-2.1000001430511475
0.42,76.26969146728516,-14.480132102966309,13.828908920288086,-2.797856092453003,5.329249382019043,-7.194486618041992,-18.0,-37.5,-2.1000001430511475
0.43,75.9249267578125,-15.744270324707031,13.713987350463867,2.6646246910095215,0.5329249501228333,-1.0658499002456665,-18.30000114440918,-35.85000228881836,-3.9000000953674316
0.449,76.42292022705078,-15.054739952087402,14.97812557220459,-10.92496109008789,6.794793128967285,-1.5987749099731445,-17.400001525878906,-37.20000076293945,-3.450000047683716
0.453,76.92091369628906,-15.629348754882812,13.330915451049805,0.6661561727523804,-1.3323123455047607,4.529861927032471,-16.950000762939453,-34.95000076293945,-2.700000047683716
0.46,75.77169799804688,-15.897499084472656,14.020444869995117,3.3307809829711914,-3.197549819946289,1.4655436277389526,-17.25,-36.60000228881836,-3.6000001430511475
0.47,76.26969146728516,-14.939818382263184,14.36521053314209,0.6661561727523804,0.1332312375307083,-2.531393527984619,-17.25,-36.60000228881836,-3.6000001430511475
0.48,76.69107055664062,-15.399505615234375,13.943830490112305,-9.859111785888672,6.395099639892578,-9.192955017089844,-17.25,-36.60000228881836,-3.6000001430511475
0.49,75.42693328857422,-16.548721313476562,15.131354331970215,1.7320060729980469,-2.6646246910095215,-1.5987749099731445,-17.700000762939453,-36.900001525878906,-1.2000000476837158
0.51,75.00555419921875,-14.595053672790527,14.939818382263184,3.4640121459960938,-3.0643184185028076,3.197549819946289,-18.75,-37.5,-2.8500001430511475
0.513,76.15476989746094,-14.518439292907715,13.48414421081543,-1.1990811824798584,-3.597243309020996,-1.0658499002456665,-19.80000114440918,-35.10000228881836,-2.8500001430511475
0.52,75.84831237792969,-13.599065780639648,14.135366439819336,-4.130168437957764,8.660030364990234,-3.0643184185028076,-18.30000114440918,-35.85000228881836,-1.8000000715255737
0.53,76.72937774658203,-14.633360862731934,13.905523300170898,1.8652373552322388,-3.597243309020996,4.929555892944336,-18.30000114440918,-35.85000228881836,-1.8000000715255737
0.54,77.30398559570312,-14.211980819702148,14.786589622497559,0.9326186776161194,-4.663093090057373,-2.797856092453003,-16.950000762939453,-37.20000076293945,-1.9500000476837158
0.55,76.00154113769531,-15.322891235351562,12.90953540802002,-8.39356803894043,4.663093090057373,-7.9938740730285645,-18.150001525878906,-35.25,-3.450000047683716
0.569,76.00154113769531,-14.786589622497559,14.09705924987793,0.1332312375307083,-4.396630764007568,0.2664624750614166,-19.650001525878906,-36.900001525878906,-1.6500000953674316
0.573,75.73339080810547,-14.97812557220459,14.135366439819336,-8.127105712890625,-0.9326186776161194,-3.4640121459960938,-16.950000762939453,-37.20000076293945,-2.25
0.58,76.19307708740234,-15.169661521911621,13.369222640991211,-5.062787055969238,2.797856092453003,-9.192955017089844,-16.950000762939453,-37.20000076293945,-2.25
0.59,77.07414245605469,-14.748282432556152,13.713987350463867,-7.327718257904053,7.72741174697876,-3.597243309020996,-17.55000114440918,-37.05000305175781,-2.1000001430511475
0.6,76.15476989746094,-15.284584045410156,13.675680160522461,-7.9938740730285645,4.796324729919434,-13.722817420959473,-18.30000114440918,-37.05000305175781,-3.6000001430511475
0.61,76.537841796875,-15.016432762145996,13.522451400756836,1.4655436277389526,-5.329249382019043,1.9984685182571411,-17.25,-35.55000305175781,-3.6000001430511475
0.63,76.11646270751953,-14.863204002380371,12.449849128723145,-1.7320060729980469,5.329249382019043,2.398162364959717,-16.950000762939453,-36.900001525878906,-3.450000047683716
0.633,76.30799865722656,-14.901511192321777,14.020444869995117,2.2649309635162354,1.0658499002456665,0.6661561727523804,-16.950000762939453,-36.900001525878906,-3.450000047683716
0.64,76.07815551757812,-14.556746482849121,13.599065780639648,5.196018218994141,-5.062787055969238,2.2649309635162354,-16.950000762939453,-36.900001525878906,-3.450000047683716
0.65,76.19307708740234,-14.595053672790527,13.21599292755127,-5.8621745109558105,2.131699800491333,-4.396630764007568,-18.450000762939453,-36.45000076293945,-2.25
0.66,75.54185485839844,-15.322891235351562,14.36521053314209,-3.197549819946289,2.9310872554779053,-8.926492691040039,-18.0,-38.25,-4.650000095367432
0.67,75.81000518798828,-14.824896812438965,14.058752059936523,-0.5329249501228333,-3.197549819946289,-0.7993874549865723,-18.450000762939453,-36.45000076293945,-3.450000047683716
0.689,75.61846923828125,-14.403517723083496,14.480132102966309,-0.5329249501228333,-1.7320060729980469,4.529861927032471,-18.30000114440918,-37.05000305175781,-3.6000001430511475
0.693,75.77169799804688,-13.675680160522461,12.947842597961426,1.5987749099731445,-4.263399600982666,-2.398162364959717,-18.30000114440918,-37.05000305175781,-3.6000001430511475
0.7,75.8866195678711,-13.79060173034668,13.905523300170898,-0.1332312375307083,3.0643184185028076,3.86370587348938,-17.55000114440918,-35.85000228881836,-3.6000001430511475
0.71,77.07414245605469,-14.211980819702148,13.752294540405273,-2.6646246910095215,-2.6646246910095215,6.395099639892578,-17.25,-37.80000305175781,-2.5500001907348633
0.72,76.84429931640625,-15.24627685546875,14.480132102966309,-6.9280242919921875,2.131699800491333,-4.263399600982666,-18.150001525878906,-36.150001525878906,-1.6500000953674316
0.73,76.00154113769531,-14.556746482849121,14.480132102966309,-5.995405673980713,3.7304747104644775,-6.661561965942383,-18.0,-36.30000305175781,-2.5500001907348633
0.75,75.9249267578125,-14.403517723083496,13.292608261108398,-3.197549819946289,-0.5329249501228333,7.327718257904053,-18.0,-36.30000305175781,-2.5500001907348633
0.754,76.84429931640625,-15.284584045410156,13.982137680053711,-0.7993874549865723,-0.1332312375307083,-3.197549819946289,-16.650001525878906,-37.20000076293945,-2.25
0.76,74.54586791992188,-15.016432762145996,14.556746482849121,-5.995405673980713,4.796324729919434,-6.261868000030518,-18.30000114440918,-37.05000305175781,-4.350000381469727
0.77,74.58417510986328,-14.403517723083496,14.441824913024902,3.9969370365142822,-2.797856092453003,2.131699800491333,-18.75,-36.60000228881836,-2.5500001907348633
0.78,75.00555419921875,-15.093047142028809,14.211980819702148,1.8652373552322388,-5.062787055969238,6.661561965942383,-18.30000114440918,-37.05000305175781,-2.1000001430511475
0.79,75.61846923828125,-15.820884704589844,13.599065780639648,-7.460949420928955,3.197549819946289,8.926492691040039,-17.55000114440918,-36.30000305175781,-2.5500001907348633
0.81,76.42292022705078,-13.982137680053711,13.867216110229492,2.797856092453003,-3.197549819946289,7.194486618041992,-17.55000114440918,-36.30000305175781,-2.5500001907348633
0.813,76.34630584716797,-14.901511192321777,13.599065780639648,-0.2664624750614166,-3.0643184185028076,-1.3323123455047607,-17.400001525878906,-36.900001525878906,-1.9500000476837158
0.82,77.91690063476562,-14.556746482849121,13.292608261108398,-8.526799201965332,8.793261528015137,-3.597243309020996,-19.80000114440918,-35.85000228881836,-2.8500001430511475
0.83,77.61044311523438,-14.595053672790527,13.867216110229492,-8.127105712890625,5.8621745109558105,-5.595712184906006,-17.700000762939453,-37.650001525878906,-3.450000047683716
0.84,76.80599212646484,-15.207969665527344,14.058752059936523,5.329249382019043,-0.6661561727523804,2.531393527984619,-18.150001525878906,-37.650001525878906,-3.750000238418579
0.85,76.30799865722656,-14.939818382263184,12.526463508605957,4.529861927032471,1.9984685182571411,1.4655436277389526,-18.150001525878906,-37.650001525878906,-3.750000238418579
0.87,76.72937774658203,-15.054739952087402,14.211980819702148,-3.4640121459960938,7.06125545501709,-3.197549819946289,-17.55000114440918,-36.60000228881836,-1.350000023841858
0.874,75.84831237792969,-13.828908920288086,14.67166805267334,-4.263399600982666,3.3307809829711914,-4.263399600982666,-17.25,-37.5,-1.0500000715255737
0.88,74.77571105957031,-15.820884704589844,14.36521053314209,-0.39969372749328613,-6.794793128967285,-0.9326186776161194,-18.450000762939453,-36.900001525878906,-1.2000000476837158
0.89,75.69508361816406,-16.203956604003906,14.288596153259277,-3.9969370365142822,2.9310872554779053,-4.263399600982666,-18.0,-35.10000228881836,-3.9000000953674316
0.9,75.9249267578125,-15.85919189453125,14.211980819702148,-2.6646246910095215,6.395099639892578,-3.0643184185028076,-18.0,-35.10000228881836,-3.9000000953674316
0.91,76.30799865722656,-15.552734375,13.752294540405273,-3.0643184185028076,-4.130168437957764,3.9969370365142822,-18.0,-35.10000228881836,-3.9000000953674316
0.93,76.84429931640625,-14.135366439819336,14.135366439819336,0.1332312375307083,0.0,-5.329249382019043,-18.150001525878906,-36.150001525878906,-3.750000238418579
0.933,75.9249267578125,-15.131354331970215,12.871228218078613,-6.395099639892578,0.6661561727523804,-0.5329249501228333,-16.950000762939453,-36.900001525878906,-2.700000047683716
0.94,76.5761489868164,-14.67166805267334,13.905523300170898,0.6661561727523804,-0.39969372749328613,1.1990811824798584,-19.05000114440918,-37.80000305175781,-3.3000001907348633
0.95,76.11646270751953,-13.905523300170898,14.058752059936523,1.5987749099731445,1.7320060729980469,-4.130168437957764,-16.80000114440918,-37.05000305175781,-2.1000001430511475
0.96,75.00555419921875,-14.633360862731934,13.560758590698242,-7.460949420928955,6.395099639892578,-0.6661561727523804,-16.80000114440918,-37.05000305175781,-2.1000001430511475
0.97,75.9632339477539,-15.284584045410156,14.288596153259277,-6.128636837005615,5.995405673980713,-8.526799201965332,-18.30000114440918,-38.55000305175781,-3.3000001907348633
0.99,74.62248229980469,-15.207969665527344,13.713987350463867,0.2664624750614166,1.9984685182571411,1.4655436277389526,-18.150001525878906,-37.650001525878906,-3.0
0.993,74.77571105957031,-15.093047142028809,14.250288963317871,-0.9326186776161194,7.860642910003662,-4.929555892944336,-17.700000762939453,-37.20000076293945,-2.700000047683716
1.0,75.38862609863281,-15.322891235351562,13.713987350463867,-3.7304747104644775,4.130168437957764,-4.796324729919434,-17.700000762939453,-37.20000076293945,-2.700000047683716
1.01,75.61846923828125,-14.901511192321777,14.173673629760742,6.261868000030518,-3.3307809829711914,-1.1990811824798584,-17.700000762939453,-37.20000076293945,-2.700000047683716
1.02,76.03984832763672,-15.782577514648438,14.173673629760742,6.661561965942383,1.7320060729980469,-2.797856092453003,-19.05000114440918,-37.80000305175781,-2.5500001907348633
1.03,76.00154113769531,-15.054739952087402,13.637372970581055,-1.0658499002456665,5.8621745109558105,-12.25727367401123,-17.55000114440918,-36.30000305175781,-2.5500001907348633
1.05,75.50354766845703,-16.089035034179688,14.786589622497559,-7.06125545501709,7.594180583953857,-6.5283308029174805,-18.450000762939453,-36.900001525878906,-2.700000047683716
1.054,76.95922088623047,-14.748282432556152,14.36521053314209,0.1332312375307083,3.3307809829711914,-16.65390396118164,-17.700000762939453,-36.900001525878906,-3.450000047683716
1.06,76.72937774658203,-14.518439292907715,13.637372970581055,0.9326186776161194,-4.663093090057373,1.0658499002456665,-17.700000762939453,-36.900001525878906,-3.450000047683716
1.07,76.80599212646484,-15.399505615234375,14.09705924987793,-4.663093090057373,4.929555892944336,-11.724349021911621,-17.700000762939453,-36.900001525878906,-3.450000047683716
1.08,76.19307708740234,-15.552734375,13.522451400756836,0.7993874549865723,-3.4640121459960938,-1.1990811824798584,-19.650001525878906,-35.70000076293945,-2.700000047683716
1.09,76.11646270751953,-15.131354331970215,12.90953540802002,-1.0658499002456665,-5.995405673980713,-8.260336875915527,-17.55000114440918,-36.30000305175781,-3.6000001430511475
1.11,77.8019790649414,-15.897499084472656,12.871228218078613,-0.2664624750614166,-1.9984685182571411,-2.398162364959717,-18.30000114440918,-36.60000228881836,-3.3000001907348633
1.113,75.9632339477539,-14.020444869995117,13.292608261108398,-0.5329249501228333,-10.125574111938477,-5.462480545043945,-18.75,-35.85000228881836,-3.9000000953674316
1.12,75.84831237792969,-14.288596153259277,13.21599292755127,5.196018218994141,-1.4655436277389526,-10.125574111938477,-18.75,-35.85000228881836,-3.9000000953674316
1.13,75.9249267578125,-13.752294540405273,14.058752059936523,-0.6661561727523804,3.7304747104644775,-6.5283308029174805,-16.950000762939453,-38.400001525878906,-2.700000047683716
1.14,74.92893981933594,-15.016432762145996,13.828908920288086,2.398162364959717,0.9326186776161194,-9.326186180114746,-18.30000114440918,-35.55000305175781,-3.9000000953674316
1.15,75.81000518798828,-15.85919189453125,13.599065780639648,6.9280242919921875,-7.06125545501709,-8.260336875915527,-18.30000114440918,-37.05000305175781,-2.1000001430511475
1.17,76.88260650634766,-17.276559829711914,12.7946138381958,5.595712184906006,-5.728943347930908,-5.595712184906006,-18.450000762939453,-38.400001525878906,-2.25
1.174,77.61044311523438,-16.318878173828125,13.254301071166992,3.597243309020996,0.2664624750614166,-7.860642910003662,-18.450000762939453,-38.400001525878906,-2.25
1.18,78.29997253417969,-15.744270324707031,12.986149787902832,-8.793261528015137,0.9326186776161194,-13.856048583984375,-18.450000762939453,-38.400001525878906,-2.25
1.19,75.8866195678711,-15.284584045410156,13.828908920288086,-3.3307809829711914,-2.797856092453003,-13.989279747009277,-17.25,-36.60000228881836,-2.8500001430511475
1.2,74.92893981933594,-15.897499084472656,13.599065780639648,-10.658498764038086,1.3323123455047607,-16.12097930908203,-19.5,-36.45000076293945,-2.700000047683716
1.21,74.6990966796875,-13.445837020874023,12.7946138381958,-3.0643184185028076,5.728943347930908,-17.186830520629883,-18.0,-35.55000305175781,-3.3000001907348633
1.23,74.6607894897461,-12.717999458312988,14.135366439819336,-1.7320060729980469,-1.3323123455047607,-14.12251091003418,-18.0,-35.55000305175781,-3.3000001907348633
1.233,76.15476989746094,-12.564770698547363,13.254301071166992,-3.7304747104644775,10.525267601013184,-17.852985382080078,-19.200000762939453,-36.900001525878906,-4.200000286102295
1.24,76.30799865722656,-13.637372970581055,13.943830490112305,-7.9938740730285645,6.128636837005615,-13.189892768859863,-17.400001525878906,-36.45000076293945,-2.25
1.25,77.87859344482422,-14.441824913024902,11.683704376220703,-3.597243309020996,7.327718257904053,-13.056661605834961,-16.05000114440918,-37.5,-3.6000001430511475
1.26,77.45721435546875,-13.982137680053711,11.492168426513672,-4.130168437957764,0.5329249501228333,-14.12251091003418,-18.30000114440918,-36.30000305175781,-2.1000001430511475
1.27,77.1124496459961,-14.518439292907715,11.875240325927734,-8.926492691040039,8.127105712890625,-19.052066802978516,-18.30000114440918,-36.30000305175781,-2.1000001430511475
1.29,76.88260650634766,-14.633360862731934,12.181697845458984,-8.926492691040039,6.261868000030518,-18.652372360229492,-18.30000114440918,-36.30000305175781,-2.1000001430511475
1.293,76.03984832763672,-13.21599292755127,13.48414421081543,-0.7993874549865723,2.2649309635162354,-5.995405673980713,-18.30000114440918,-34.35000228881836,-3.3000001907348633
1.3,75.61846923828125,-13.024456977844238,14.326903343200684,-5.995405673980713,10.392036437988281,-20.251148223876953,-17.700000762939453,-36.45000076293945,-2.700000047683716
1.31,75.9249267578125,-13.177685737609863,13.905523300170898,-9.859111785888672,9.992342948913574,-12.124042510986328,-18.30000114440918,-35.10000228881836,-2.8500001430511475
1.32,75.9632339477539,-13.254301071166992,15.437812805175781,-6.261868000030518,9.192955017089844,-17.586523056030273,-18.30000114440918,-35.10000228881836,-2.5500001907348633
1.33,76.34630584716797,-13.48414421081543,14.97812557220459,1.1990811824798584,6.395099639892578,-4.796324729919434,-18.30000114440918,-35.10000228881836,-2.5500001907348633
1.35,76.15476989746094,-13.752294540405273,14.901511192321777,-10.658498764038086,4.796324729919434,-16.12097930908203,-18.30000114440918,-37.05000305175781,-3.9000000953674316
1.353,76.00154113769531,-14.288596153259277,14.556746482849121,-1.3323123455047607,8.526799201965332,-7.194486618041992,-19.950000762939453,-36.45000076293945,-3.450000047683716
1.36,75.12047576904297,-14.748282432556152,14.250288963317871,-4.796324729919434,6.794793128967285,-14.255742073059082,-19.05000114440918,-35.55000305175781,-3.6000001430511475
1.37,74.50755310058594,-14.633360862731934,14.211980819702148,-4.396630764007568,-0.1332312375307083,-16.25421142578125,-17.700000762939453,-35.70000076293945,-3.0
1.38,75.8866195678711,-13.637372970581055,13.943830490112305,-10.658498764038086,8.660030364990234,-16.12097930908203,-18.150001525878906,-35.70000076293945,-2.700000047683716
1.39,76.537841796875,-13.675680160522461,15.552734375,1.0658499002456665,-1.3323123455047607,-11.191424369812012,-18.150001525878906,-35.70000076293945,-2.700000047683716
1.41,76.23138427734375,-11.30063247680664,15.705963134765625,-3.197549819946289,1.4655436277389526,-12.523736000061035,-17.400001525878906,-36.45000076293945,-3.450000047683716
1.413,74.2777099609375,-13.445837020874023,14.786589622497559,-5.196018218994141,9.326186180114746,-24.248085021972656,-18.900001525878906,-35.70000076293945,-3.0
1.42,77.49552154541016,-12.29662036895752,16.58702850341797,-6.395099639892578,6.395099639892578,-19.052066802978516,-18.900001525878906,-36.150001525878906,-2.25
1.43,75.84831237792969,-13.330915451049805,16.05072784423828,9.992342948913574,-5.196018218994141,-15.854516983032227,-19.200000762939453,-36.45000076293945,-2.700000047683716
1.44,75.9632339477539,-15.131354331970215,15.322891235351562,1.0658499002456665,-3.86370587348938,-13.989279747009277,-19.200000762939453,-36.45000076293945,-2.700000047683716
1.45,76.65276336669922,-13.982137680053711,15.399505615234375,-4.929555892944336,1.7320060729980469,-23.182235717773438,-18.0,-36.60000228881836,-3.3000001907348633
1.469,76.03984832763672,-13.982137680053711,14.595053672790527,2.797856092453003,-4.796324729919434,-15.055130004882812,-18.900001525878906,-36.45000076293945,-3.750000238418579
1.473,76.11646270751953,-12.526463508605957,15.24627685546875,-4.396630764007568,-6.261868000030518,-24.51454734802246,-19.200000762939453,-36.45000076293945,-4.200000286102295
1.48,75.08216857910156,-13.024456977844238,15.591041564941406,-3.4640121459960938,-1.7320060729980469,-27.045940399169922,-18.900001525878906,-37.20000076293945,-3.0
1.49,75.8866195678711,-13.943830490112305,13.637372970581055,-2.2649309635162354,-3.197549819946289,-28.644716262817383,-18.75,-35.85000228881836,-3.6000001430511475
1.5,77.03583526611328,-12.90953540802002,15.093047142028809,-0.2664624750614166,-4.396630764007568,-33.70750427246094,-18.75,-35.85000228881836,-3.6000001430511475
1.51,76.07815551757812,-11.683704376220703,15.322891235351562,-2.9310872554779053,-7.860642910003662,-25.18070411682129,-19.80000114440918,-34.35000228881836,-0.6000000238418579
1.529,76.537841796875,-11.645397186279297,15.016432762145996,-3.7304747104644775,-3.86370587348938,-18.119447708129883,-18.900001525878906,-36.150001525878906,-2.700000047683716
1.533,76.38461303710938,-12.066776275634766,14.786589622497559,5.196018218994141,-16.387441635131836,-18.652372360229492,-19.05000114440918,-36.60000228881836,-2.1000001430511475
1.54,76.23138427734375,-11.760318756103516,14.633360862731934,3.86370587348938,-15.854516983032227,-15.45482349395752,-18.30000114440918,-34.80000305175781,-2.5500001907348633
1.55,76.84429931640625,-12.564770698547363,13.713987350463867,-8.660030364990234,-6.5283308029174805,-25.580398559570312,-18.30000114440918,-34.80000305175781,-2.5500001907348633
1.56,77.1507568359375,-11.60708999633789,14.250288963317871,-11.724349021911621,-8.526799201965332,-15.588054656982422,-18.450000762939453,-34.20000076293945,-3.0
1.57,77.07414245605469,-11.683704376220703,12.679692268371582,-1.9984685182571411,-20.784072875976562,-19.185298919677734,-17.55000114440918,-35.85000228881836,-2.5500001907348633
1.589,75.65677642822266,-9.576807022094727,13.675680160522461,-7.594180583953857,-12.656967163085938,-11.191424369812012,-20.400001525878906,-34.95000076293945,-3.0
1.593,76.61445617675781,-8.734047889709473,14.135366439819336,-7.9938740730285645,-7.460949420928955,-17.852985382080078,-16.950000762939453,-34.95000076293945,-4.200000286102295
1.6,77.57213592529297,-7.814674377441406,13.21599292755127,-0.5329249501228333,-15.45482349395752,-7.72741174697876,-18.30000114440918,-36.30000305175781,-2.8500001430511475
1.61,76.99752807617188,-7.508216381072998,14.020444869995117,-5.196018218994141,-14.388973236083984,-13.056661605834961,-18.30000114440918,-36.30000305175781,-2.8500001430511475
1.62,76.4995346069336,-7.891288757324219,14.09705924987793,-6.261868000030518,-11.990811347961426,-8.39356803894043,-19.950000762939453,-34.5,-2.700000047683716
1.63,78.07012939453125,-8.427590370178223,14.786589622497559,-9.192955017089844,-10.258805274963379,-5.196018218994141,-18.0,-35.85000228881836,-3.9000000953674316
1.649,77.8019790649414,-8.427590370178223,14.556746482849121,-3.3307809829711914,-14.655436515808105,-0.5329249501228333,-18.30000114440918,-36.30000305175781,-2.1000001430511475
1.653,77.61044311523438,-8.734047889709473,13.522451400756836,-5.062787055969238,-14.255742073059082,2.531393527984619,-17.400001525878906,-34.20000076293945,-3.0
1.66,77.53382873535156,-9.53849983215332,12.947842597961426,-5.728943347930908,-6.661561965942383,-2.398162364959717,-17.400001525878906,-34.20000076293945,-3.0
1.67,77.03583526611328,-10.649409294128418,12.48815631866455,-1.1990811824798584,-13.189892768859863,11.591117858886719,-17.700000762939453,-36.45000076293945,-4.950000286102295
1.68,76.76768493652344,-11.30063247680664,12.02846908569336,-2.797856092453003,-13.989279747009277,8.526799201965332,-18.75,-35.85000228881836,-2.8500001430511475
1.69,75.69508361816406,-12.105083465576172,12.679692268371582,-11.324655532836914,-3.3307809829711914,3.86370587348938,-18.900001525878906,-34.5,-3.0
1.709,77.41890716552734,-10.649409294128418,12.48815631866455,-22.649311065673828,-3.597243309020996,1.7320060729980469,-19.200000762939453,-35.70000076293945,-2.700000047683716
1.713,76.537841796875,-9.84495735168457,13.48414421081543,-20.784072875976562,-4.263399600982666,-0.2664624750614166,-19.200000762939453,-35.70000076293945,-2.700000047683716
1.72,76.34630584716797,-10.266336441040039,12.22000503540039,-20.117916107177734,-3.597243309020996,11.324655532836914,-19.200000762939453,-35.70000076293945,-2.700000047683716
1.73,76.99752807617188,-7.929595947265625,13.867216110229492,-13.056661605834961,-7.72741174697876,3.597243309020996,-19.05000114440918,-35.10000228881836,-3.9000000953674316
1.74,75.46524047851562,-9.691728591918945,13.828908920288086,-8.660030364990234,-9.592649459838867,18.385910034179688,-19.950000762939453,-35.70000076293945,-3.0
1.75,77.07414245605469,-9.998186111450195,12.717999458312988,-12.790199279785156,-7.06125545501709,15.588054656982422,-16.950000762939453,-34.95000076293945,-3.750000238418579
1.769,75.69508361816406,-9.883264541625977,12.066776275634766,-18.519142150878906,0.1332312375307083,0.1332312375307083,-18.150001525878906,-35.25,-3.450000047683716
1.773,74.35432434082031,-11.453861236572266,13.177685737609863,-7.460949420928955,-5.728943347930908,17.719755172729492,-18.150001525878906,-35.25,-3.450000047683716
1.78,74.2777099609375,-11.338939666748047,14.786589622497559,-6.261868000030518,-5.462480545043945,19.31852912902832,-18.30000114440918,-36.60000228881836,-4.350000381469727
1.79,75.12047576904297,-10.764330863952637,12.871228218078613,-12.25727367401123,-5.8621745109558105,12.523736000061035,-17.700000762939453,-36.45000076293945,-3.450000047683716
1.8,75.15878295898438,-12.832921028137207,12.066776275634766,-14.522205352783203,-8.793261528015137,26.379785537719727,-18.900001525878906,-36.150001525878906,-4.200000286102295
1.81,77.53382873535156,-11.951854705810547,11.798625946044922,-12.790199279785156,-14.788667678833008,29.444103240966797,-18.900001525878906,-35.70000076293945,-4.5
1.829,76.61445617675781,-5.592854976654053,12.48815631866455,10.525267601013184,-12.390504837036133,36.238895416259766,-18.900001525878906,-35.70000076293945,-4.5
1.833,76.30799865722656,3.332728862762451,18.88546371459961,5.196018218994141,-4.529861927032471,31.042879104614258,-18.30000114440918,-35.10000228881836,-3.6000001430511475
1.84,74.96724700927734,3.9839515686035156,19.460071563720703,26.513015747070312,-19.718223571777344,35.972434997558594,-18.30000114440918,-35.10000228881836,-3.6000001430511475
1.85,75.77169799804688,2.4133553504943848,20.456058502197266,43.56661605834961,-22.382848739624023,45.96477508544922,-17.700000762939453,-34.95000076293945,-4.200000286102295
1.86,77.61044311523438,-6.282385349273682,18.923770904541016,31.975496292114258,-14.388973236083984,40.23583221435547,-18.150001525878906,-36.150001525878906,-4.950000286102295
1.87,77.7253646850586,-13.905523300170898,15.897499084472656,30.110260009765625,-23.581928253173828,44.23276901245117,-17.400001525878906,-37.20000076293945,-4.5
1.889,77.763671875,-20.379444122314453,12.60307788848877,24.381317138671875,-24.11485481262207,60.22052001953125,-17.400001525878906,-37.20000076293945,-4.5
1.893,79.10442352294922,-16.66364288330078,12.258312225341797,18.652372360229492,-28.911178588867188,51.560489654541016,-16.80000114440918,-38.25,-4.350000381469727
1.9,76.65276336669922,-15.782577514648438,11.798625946044922,16.387441635131836,-30.776416778564453,45.831546783447266,-16.80000114440918,-38.25,-4.350000381469727
1.91,76.26969146728516,-15.322891235351562,13.292608261108398,19.185298919677734,-37.304744720458984,51.4272575378418,-18.0,-36.60000228881836,-3.9000000953674316
1.92,79.0278091430664,-20.992361068725586,12.29662036895752,6.9280242919921875,-43.30015182495117,53.69218826293945,-17.700000762939453,-37.20000076293945,-4.950000286102295
1.93,78.4148941040039,-25.20615577697754,10.036493301391602,-7.194486618041992,-31.709033966064453,37.03828430175781,-17.700000762939453,-37.20000076293945,-4.950000286102295
1.95,76.11646270751953,-23.558944702148438,7.469909191131592,-4.396630764007568,-35.439510345458984,31.44257164001465,-16.950000762939453,-37.95000076293945,-5.700000286102295
1.953,75.73339080810547,-15.514427185058594,5.056553840637207,-0.39969372749328613,-24.914241790771484,45.298622131347656,-16.80000114440918,-36.60000228881836,-4.350000381469727
1.96,75.65677642822266,-15.207969665527344,5.018246650695801,-0.1332312375307083,-25.04747200012207,31.575803756713867,-16.80000114440918,-36.60000228881836,-4.350000381469727
1.97,76.61445617675781,-14.058752059936523,5.286397457122803,4.396630764007568,-17.32006072998047,30.24349021911621,-16.950000762939453,-38.400001525878906,-4.950000286102295
1.98,76.4995346069336,-16.012420654296875,1.8770540952682495,14.255742073059082,-19.185298919677734,33.17457962036133,-16.950000762939453,-36.45000076293945,-5.25
1.99,77.57213592529297,-21.298818588256836,2.5665841102600098,9.592649459838867,-14.788667678833008,37.17151641845703,-16.950000762939453,-36.45000076293945,-5.25
2.003,76.38461303710938,-19.536685943603516,0.8044517636299133,14.655436515808105,-10.92496109008789,35.17304611206055,-15.15000057220459,-37.650001525878906,-4.5
2.01,74.16278839111328,-14.058752059936523,4.750096321105957,15.588054656982422,2.131699800491333,15.987748146057129,-17.400001525878906,-36.45000076293945,-4.5
2.02,76.19307708740234,-12.986149787902832,6.205770969390869,29.177640914916992,-1.7320060729980469,26.113323211669922,-17.400001525878906,-39.150001525878906,-5.700000286102295
2.03,76.23138427734375,-15.629348754882812,8.006210327148438,30.24349021911621,6.5283308029174805,32.37519073486328,-17.400001525878906,-39.150001525878906,-5.700000286102295
2.04,76.23138427734375,-20.149600982666016,9.883264541625977,24.248085021972656,8.39356803894043,18.652372360229492,-16.950000762939453,-76.35000610351562,-5.700000286102295
2.05,76.92091369628906,-21.75850486755371,9.078812599182129,20.650842666625977,-1.4655436277389526,33.4410400390625,-18.0,-38.55000305175781,-3.9000000953674316
2.069,74.85232543945312,-18.272546768188477,8.542511940002441,21.84992218017578,8.526799201965332,34.64012145996094,-16.650001525878906,-37.95000076293945,-3.450000047683716
2.073,76.65276336669922,-12.679692268371582,8.389283180236816,21.050535202026367,16.12097930908203,24.914241790771484,-16.5,-39.0,-5.400000095367432
2.08,75.08216857910156,-12.411541938781738,8.65743350982666,21.316997528076172,9.992342948913574,23.04900360107422,-16.5,-39.0,-5.400000095367432
2.09,75.54185485839844,-13.48414421081543,8.006210327148438,30.509952545166016,5.062787055969238,32.90811538696289,-15.90000057220459,-38.400001525878906,-5.25
2.1,78.3765869140625,-19.919757843017578,7.048529624938965,18.119447708129883,9.859111785888672,35.705970764160156,-18.900001525878906,-39.900001525878906,-3.450000047683716
2.11,78.9511947631836,-26.31706428527832,6.129156112670898,14.255742073059082,5.728943347930908,24.248085021972656,-15.90000057220459,-39.150001525878906,-4.200000286102295
2.122,74.50755310058594,-21.98834800720215,9.576807022094727,27.578866958618164,2.131699800491333,30.643184661865234,-16.950000762939453,-38.400001525878906,-5.25
2.13,74.92893981933594,-14.058752059936523,14.020444869995117,28.378253936767578,-0.6661561727523804,33.84073257446289,-16.950000762939453,-40.35000228881836,-4.200000286102295
2.14,74.96724700927734,-16.28057098388672,13.943830490112305,22.782541275024414,11.724349021911621,34.64012145996094,-16.950000762939453,-40.35000228881836,-4.200000286102295
2.15,75.9249267578125,-21.75850486755371,9.500192642211914,9.192955017089844,8.39356803894043,34.24042892456055,-17.400001525878906,-37.95000076293945,-4.5
2.16,74.92893981933594,-20.379444122314453,7.7763671875,25.313934326171875,8.39356803894043,35.17304611206055,-15.000000953674316,-39.0,-2.8500001430511475
2.17,74.16278839111328,-16.931795120239258,9.730035781860352,14.655436515808105,15.854516983032227,32.5084228515625,-17.55000114440918,-39.0,-3.9000000953674316
2.189,74.96724700927734,-16.548721313476562,9.615114212036133,15.055130004882812,14.388973236083984,42.90045928955078,-16.5,-39.0,-3.3000001907348633
2.193,74.46924591064453,-15.935806274414062,9.576807022094727,11.857580184936523,23.448698043823242,39.16998291015625,-16.5,-39.0,-3.3000001907348633
2.2,75.46524047851562,-16.89348793029785,12.181697845458984,21.050535202026367,15.588054656982422,47.56355285644531,-15.90000057220459,-38.85000228881836,-3.0
2.21,74.6990966796875,-21.0689754486084,11.91354751586914,4.796324729919434,32.77488327026367,38.90352249145508,-16.5,-40.95000076293945,-3.3000001907348633
2.22,73.20510864257812,-27.121517181396484,7.929595947265625,2.9310872554779053,27.17917251586914,47.430320739746094,-15.15000057220459,-39.900001525878906,-3.0
2.23,74.77571105957031,-26.278757095336914,7.201758861541748,-5.728943347930908,38.23736572265625,50.09494400024414,-16.05000114440918,-40.20000076293945,-3.6000001430511475
2.242,75.42693328857422,-25.20615577697754,7.086836814880371,-8.926492691040039,35.839202880859375,44.09954071044922,-17.25,-40.20000076293945,-2.8500001430511475
2.25,74.2777099609375,-22.37141990661621,3.485957622528076,-17.852985382080078,49.02909469604492,38.77029037475586,-17.25,-40.20000076293945,-2.8500001430511475
2.26,74.85232543945312,-19.07699966430664,3.141192674636841,-9.059723854064941,45.43185043334961,43.30015182495117,-15.300000190734863,-39.75,-3.3000001907348633
2.27,76.11646270751953,-20.187908172607422,11.645397186279297,0.5329249501228333,45.03215789794922,49.02909469604492,-15.000000953674316,-41.70000076293945,-2.5500001907348633
2.28,73.97125244140625,-27.236438751220703,12.526463508605957,-15.987748146057129,57.422664642333984,30.37672233581543,-15.750000953674316,-41.25,-3.6000001430511475
2.29,73.28172302246094,-32.25468444824219,9.53849983215332,-19.052066802978516,49.02909469604492,31.975496292114258,-15.450000762939453,-41.10000228881836,-3.750000238418579
2.303,73.16680145263672,-27.811046600341797,10.879252433776855,-20.251148223876953,55.15773391723633,33.57427215576172,-15.450000762939453,-41.10000228881836,-3.750000238418579
2.31,71.71112823486328,-19.421764373779297,14.901511192321777,-11.857580184936523,56.62327575683594,26.513015747070312,-16.200000762939453,-40.650001525878906,-2.700000047683716
2.32,73.39664459228516,-20.30282974243164,16.510414123535156,-19.718223571777344,57.955589294433594,26.779478073120117,-17.25,-40.95000076293945,-2.5500001907348633
2.33,75.38862609863281,-26.66183090209961,16.855180740356445,-16.12097930908203,42.101070404052734,21.983154296875,-15.000000953674316,-40.95000076293945,-4.650000095367432
2.34,77.03583526611328,-29.879636764526367,20.072986602783203,-21.583459854125977,37.70444107055664,23.98162269592285,-15.450000762939453,-41.55000305175781,-1.9500000476837158
2.35,74.7374038696289,-27.542896270751953,17.468095779418945,-28.111791610717773,39.83613967895508,1.3323123455047607,-15.15000057220459,-41.10000228881836,-1.9500000476837158
2.369,74.2777099609375,-25.933992385864258,19.460071563720703,-19.052066802978516,28.24502182006836,8.926492691040039,-15.300000190734863,-41.25,-3.3000001907348633
2.373,74.39263153076172,-23.597251892089844,19.843143463134766,-15.721285820007324,29.044410705566406,-0.39969372749328613,-15.300000190734863,-41.25,-3.3000001907348633
2.38,75.9249267578125,-23.52063751220703,21.528661727905273,-11.058192253112793,19.31852912902832,4.130168437957764,-15.15000057220459,-41.10000228881836,-1.9500000476837158
2.39,76.99752807617188,-23.44402313232422,21.6818904876709,-12.656967163085938,20.251148223876953,5.595712184906006,-15.750000953674316,-40.95000076293945,-2.5500001907348633
2.4,72.05589294433594,-24.325088500976562,16.242263793945312,-6.128636837005615,6.9280242919921875,-3.597243309020996,-15.90000057220459,-40.650001525878906,-1.9500000476837158
2.41,74.77571105957031,-24.708162307739258,18.655620574951172,-17.719755172729492,18.2526798248291,1.7320060729980469,-15.90000057220459,-40.650001525878906,-1.9500000476837158
2.422,72.66880798339844,-26.048913955688477,12.411541938781738,-9.059723854064941,12.656967163085938,9.72588062286377,-15.90000057220459,-41.55000305175781,-2.25
2.43,73.47325897216797,-21.643583297729492,16.012420654296875,-7.327718257904053,14.655436515808105,13.856048583984375,-15.15000057220459,-41.85000228881836,-3.0
2.44,75.84831237792969,-24.018630981445312,14.863204002380371,-10.525267601013184,11.591117858886719,6.395099639892578,-15.15000057220459,-39.900001525878906,-2.700000047683716
2.45,75.69508361816406,-23.82709503173828,13.369222640991211,-17.186830520629883,21.050535202026367,2.797856092453003,-16.5,-41.70000076293945,-2.1000001430511475
2.46,73.24341583251953,-23.13756561279297,15.016432762145996,-16.520673751831055,17.719755172729492,-8.793261528015137,-14.550000190734863,-40.95000076293945,-2.1000001430511475
2.47,72.97526550292969,-24.89969825744629,16.855180740356445,-9.592649459838867,12.656967163085938,5.728943347930908,-14.550000190734863,-40.95000076293945,-2.1000001430511475
2.489,76.30799865722656,-30.79901123046875,14.288596153259277,-31.575803756713867,16.78713607788086,-1.8652373552322388,-15.15000057220459,-38.85000228881836,-1.9500000476837158
2.493,72.70711517333984,-24.554933547973633,12.60307788848877,-24.11485481262207,14.522205352783203,10.125574111938477,-15.15000057220459,-38.85000228881836,-1.9500000476837158
2.5,74.46924591064453,-22.639572143554688,14.36521053314209,-22.51607894897461,14.12251091003418,5.062787055969238,-16.05000114440918,-40.95000076293945,-2.5500001907348633
2.51,74.81401824951172,-20.570980072021484,16.127342224121094,-5.728943347930908,4.263399600982666,11.591117858886719,-15.450000762939453,-40.35000228881836,-3.450000047683716
2.52,75.08216857910156,-21.87342643737793,19.843143463134766,-2.9310872554779053,8.793261528015137,4.396630764007568,-15.450000762939453,-40.35000228881836,-3.450000047683716
2.539,73.51156616210938,-22.83110809326172,16.510414123535156,-3.4640121459960938,12.390504837036133,39.83613967895508,-14.250000953674316,-40.20000076293945,-2.8500001430511475
2.543,75.69508361816406,-24.210166931152344,15.054739952087402,4.929555892944336,7.594180583953857,9.059723854064941,-16.200000762939453,-39.900001525878906,-2.25
2.55,74.2394027709961,-25.167848587036133,12.02846908569336,-1.8652373552322388,17.186830520629883,18.91883659362793,-16.5,-40.5,-2.5500001907348633
2.56,74.04786682128906,-25.665842056274414,14.09705924987793,-1.9984685182571411,15.588054656982422,9.992342948913574,-14.250000953674316,-40.20000076293945,-1.8000000715255737
2.57,72.89865112304688,-28.117504119873047,11.377246856689453,-15.321592330932617,14.12251091003418,10.392036437988281,-14.250000953674316,-41.25,-3.6000001430511475
2.58,73.39664459228516,-31.067161560058594,12.90953540802002,-28.24502182006836,20.251148223876953,10.658498764038086,-14.250000953674316,-41.25,-3.6000001430511475
2.59,74.58417510986328,-28.92195701599121,11.951854705810547,-47.430320739746094,31.042879104614258,3.86370587348938,-15.000000953674316,-41.70000076293945,-2.1000001430511475
2.603,74.00955963134766,-26.815059661865234,11.990161895751953,-49.02909469604492,29.444103240966797,18.91883659362793,-13.950000762939453,-39.900001525878906,-2.700000047683716
2.61,73.6264877319336,-26.66183090209961,13.982137680053711,-44.63246536254883,33.97396469116211,7.327718257904053,-13.950000762939453,-39.900001525878906,-2.700000047683716
2.62,72.51557922363281,-28.423961639404297,13.522451400756836,-58.355281829833984,43.83307647705078,16.65390396118164,-16.200000762939453,-41.10000228881836,-2.25
2.63,72.70711517333984,-28.692113876342773,14.824896812438965,-73.0107192993164,43.30015182495117,12.390504837036133,-16.200000762939453,-41.10000228881836,-2.25
2.64,73.24341583251953,-24.095245361328125,21.298818588256836,-71.54517364501953,41.967838287353516,17.852985382080078,-14.550000190734863,-40.95000076293945,-2.1000001430511475
2.65,73.0518798828125,-21.337125778198242,22.946029663085938,-77.14088439941406,41.30168533325195,26.246553421020508,-15.450000762939453,-39.900001525878906,-2.25
2.663,70.94498443603516,-21.605276107788086,25.627534866333008,-90.06431579589844,42.23430252075195,37.57120895385742,-15.15000057220459,-40.650001525878906,-3.0
2.67,71.94097137451172,-22.524648666381836,24.9763126373291,-85.13475799560547,38.90352249145508,53.42572784423828,-15.15000057220459,-40.650001525878906,-3.0
2.68,71.2514419555664,-20.992361068725586,23.405715942382812,-89.26493072509766,39.43644714355469,53.558956146240234,-15.15000057220459,-40.650001525878906,-3.0
2.69,66.5396499633789,-23.980323791503906,35.89387130737305,-127.90198516845703,49.42878723144531,63.418067932128906,-15.15000057220459,-40.650001525878906,-3.0
2.7,72.55388641357422,-27.542896270751953,32.71437072753906,-150.151611328125,42.23430252075195,71.54517364501953,-15.750000953674316,-40.5,-3.9000000953674316
2.72,78.68304443359375,-31.7183837890625,33.05913543701172,-175.33230590820312,39.30321502685547,73.67687225341797,-15.450000762939453,-41.55000305175781,-2.700000047683716
2.723,75.9249267578125,-28.155811309814453,25.627534866333008,-181.46095275878906,38.50382614135742,72.74425506591797,-15.300000190734863,-40.5,-3.9000000953674316
2.73,80.7899398803711,-26.355371475219727,18.272546768188477,-181.46095275878906,43.30015182495117,58.355281829833984,-15.300000190734863,-40.5,-3.9000000953674316
2.74,81.01978302001953,-31.488540649414062,15.016432762145996,-180.66156005859375,38.37059783935547,72.87748718261719,-15.300000190734863,-40.5,-3.9000000953674316
2.75,82.74361419677734,-28.38565444946289,10.074800491333008,-163.0750274658203,19.31852912902832,79.80551147460938,-15.000000953674316,-40.5,-4.350000381469727
2.76,87.26386260986328,-26.508602142333984,6.933608055114746,-149.21897888183594,19.31852912902832,91.52986145019531,-14.550000190734863,-39.75,-4.350000381469727
2.779,90.17520904541016,-23.13756561279297,5.937620162963867,-129.36753845214844,13.056661605834961,96.19295501708984,-13.800000190734863,-39.75,-6.150000095367432
2.783,90.06028747558594,-24.325088500976562,8.925583839416504,-118.30934143066406,7.06125545501709,101.38896942138672,-14.700000762939453,-40.650001525878906,-5.25
2.79,92.1288833618164,-30.14778709411621,6.742072105407715,-104.85298156738281,-1.1990811824798584,104.45329284667969,-14.700000762939453,-40.650001525878906,-5.25
2.8,94.77207946777344,-33.365596771240234,7.4316020011901855,-107.51760864257812,-13.58958625793457,122.17304229736328,-15.000000953674316,-39.75,-5.400000095367432
2.81,105.19164276123047,-30.530860900878906,6.320692539215088,-90.33078002929688,-46.764163970947266,135.22970581054688,-14.250000953674316,-40.20000076293945,-5.850000381469727
2.82,115.87936401367188,-20.456058502197266,13.407529830932617,-82.7365951538086,-28.111791610717773,130.69984436035156,-13.500000953674316,-40.20000076293945,-6.150000095367432
2.84,102.51013946533203,-25.51261329650879,13.21599292755127,-104.18682861328125,-32.5084228515625,145.6217498779297,-13.65000057220459,-39.900001525878906,-6.750000476837158
2.844,98.79434204101562,-29.76471519470215,11.224017143249512,-130.56661987304688,-46.764163970947266,173.33384704589844,-13.65000057220459,-39.900001525878906,-6.750000476837158
2.85,107.0303955078125,-24.478317260742188,14.709975242614746,-134.69677734375,-45.831546783447266,188.65542602539062,-13.800000190734863,-40.20000076293945,-6.600000381469727
2.86,105.57471466064453,-19.766529083251953,17.238252639770508,-154.41500854492188,-46.231239318847656,180.26187133789062,-12.750000953674316,-40.20000076293945,-6.900000095367432
2.87,104.46380615234375,-17.966089248657227,20.532672882080078,-183.7258758544922,-44.76569747924805,187.05665588378906,-11.40000057220459,-40.650001525878906,-9.0
2.88,113.1595458984375,-14.97812557220459,18.157625198364258,-209.1730499267578,-48.62940216064453,205.1761016845703,-12.300000190734863,-40.5,-9.15000057220459
2.899,119.7483901977539,-8.044517517089844,15.476119995117188,-229.0244903564453,-48.76263427734375,225.42726135253906,-12.300000190734863,-40.5,-9.15000057220459
2.904,118.56086730957031,-1.9919757843017578,10.687716484069824,-245.9448699951172,-36.771820068359375,229.95712280273438,-12.750000953674316,-40.20000076293945,-8.700000762939453
2.91,114.19384765625,11.798625946044922,-1.4173674583435059,-266.9953918457031,-23.715160369873047,253.67227172851562,-9.75,-39.0,-9.15000057220459
2.92,110.6695785522461,21.87342643737793,-3.869029998779297,-256.3369140625,-38.10413360595703,279.252685546875,-10.950000762939453,-39.900001525878906,-10.350000381469727
2.93,107.71992492675781,32.82929229736328,-6.435614109039307,-227.02603149414062,-46.09800720214844,290.444091796875,-10.800000190734863,-40.5,-10.65000057220459
2.94,103.69766235351562,40.49073791503906,-4.175487995147705,-176.7978515625,-33.57427215576172,295.7733459472656,-10.800000190734863,-40.5,-10.65000057220459
2.96,98.56449890136719,37.42616271972656,0.9576807022094727,-61.15313720703125,-51.693721771240234,298.30474853515625,-11.550000190734863,-38.55000305175781,-12.0
2.963,97.41527557373047,28.423961639404297,3.026270866394043,124.17151641845703,-35.839202880859375,324.5513000488281,-9.15000057220459,-39.900001525878906,-10.050000190734863
2.97,94.23577880859375,-11.951854705810547,18.88546371459961,197.44869995117188,-32.90811538696289,366.9188232421875,-9.0,-40.5,-10.200000762939453
2.98,93.69947814941406,-30.722396850585938,23.44402313232422,212.9035186767578,-10.92496109008789,408.22052001953125,-8.700000762939453,-39.900001525878906,-10.050000190734863
2.99,92.51195526123047,-28.155811309814453,32.82929229736328,171.86830139160156,0.39969372749328613,388.23583984375,-7.650000095367432,-39.150001525878906,-9.0
3.0,85.08035278320312,-23.903709411621094,28.462270736694336,67.14854431152344,22.915773391723633,318.02294921875,-7.650000095367432,-39.150001525878906,-9.0
3.02,78.989501953125,-14.824896812438965,16.778566360473633,52.093414306640625,47.163856506347656,237.81776428222656,-6.450000286102295,-41.10000228881836,-7.800000190734863
3.023,65.65858459472656,-10.994174003601074,15.667655944824219,10.658498764038086,43.83307647705078,199.04747009277344,-6.450000286102295,-41.85000228881836,-10.050000190734863
3.03,73.89463806152344,-4.6734819412231445,15.284584045410156,-27.31240463256836,31.842266082763672,161.2097930908203,-5.550000190734863,-42.45000076293945,-8.700000762939453
3.04,80.71332550048828,8.159439086914062,11.91354751586914,-58.08882141113281,30.24349021911621,74.74272155761719,-6.150000095367432,-43.05000305175781,-7.500000476837158
3.05,72.32404327392578,25.81907081604004,10.228029251098633,-44.89892578125,29.577335357666016,9.326186180114746,-6.150000095367432,-43.05000305175781,-7.500000476837158
3.06,54.35795593261719,27.504589080810547,14.173673629760742,-11.591117858886719,12.25727367401123,-30.509952545166016,-5.25,-40.5,-9.90000057220459
3.08,46.35174560546875,19.19192123413086,12.871228218078613,8.260336875915527,22.249616622924805,-80.07197570800781,-5.25,-40.5,-9.15000057220459
3.084,47.232810974121094,11.1474027633667,15.284584045410156,41.701377868652344,7.327718257904053,-140.95864868164062,-5.550000190734863,-40.95000076293945,-7.650000095367432
3.09,51.44660568237305,-0.15322890877723694,15.169661521911621,46.497703552246094,4.396630764007568,-183.45941162109375,-5.550000190734863,-39.30000305175781,-10.200000762939453
3.1,51.52322006225586,-4.060565948486328,17.00840950012207,48.09647750854492,6.5283308029174805,-251.80703735351562,-6.0,-37.80000305175781,-8.40000057220459
3.11,51.02522659301758,-0.727837324142456,18.004396438598633,61.9525260925293,0.6661561727523804,-295.3736572265625,-6.0,-37.80000305175781,-8.40000057220459
3.12,47.46265411376953,4.558559894561768,15.705963134765625,80.33843994140625,4.663093090057373,-347.2005920410156,-7.200000286102295,-38.400001525878906,-9.75
3.14,46.696510314941406,2.9879636764526367,14.36521053314209,114.04593658447266,-6.128636837005615,-382.7733459472656,-6.150000095367432,-37.95000076293945,-10.050000190734863
3.143,49.79939651489258,-7.086836814880371,15.284584045410156,132.9647674560547,-0.5329249501228333,-441.9280090332031,-7.050000190734863,-37.80000305175781,-10.200000762939453
3.15,56.235008239746094,-24.095245361328125,22.562957763671875,135.0964813232422,-7.327718257904053,-454.71820068359375,-4.950000286102295,-37.650001525878906,-10.050000190734863
3.16,59.68265914916992,-30.4925537109375,21.37543296813965,117.37671661376953,-19.718223571777344,-480.1653747558594,-4.950000286102295,-37.650001525878906,-10.050000190734863
3.17,64.89244079589844,-33.672054290771484,15.974113464355469,88.46553802490234,-20.117916107177734,-514.006103515625,-5.550000190734863,-37.05000305175781,-9.90000057220459
3.18,71.213134765625,-33.90189743041992,13.867216110229492,56.22358322143555,-16.387441635131836,-544.2496337890625,-6.150000095367432,-37.20000076293945,-12.300000190734863
3.199,73.47325897216797,-38.2689208984375,12.29662036895752,49.96171569824219,-31.176109313964844,-555.174560546875,-5.550000190734863,-40.20000076293945,-9.90000057220459
3.204,78.64473724365234,-44.704532623291016,12.641385078430176,30.110260009765625,-27.71209716796875,-597.0091552734375,-5.700000286102295,-40.35000228881836,-10.050000190734863
3.21,86.26787567138672,-48.650177001953125,16.970102310180664,15.188361167907715,-32.5084228515625,-606.0689086914062,-5.700000286102295,-40.35000228881836,-10.050000190734863
3.22,88.48969268798828,-48.99494171142578,17.238252639770508,5.995405673980713,-33.57427215576172,-608.6002807617188,-5.400000095367432,-42.30000305175781,-10.050000190734863
3.23,89.60060119628906,-44.0150032043457,17.161638259887695,16.920366287231445,-40.9019889831543,-607.6676635742188,-7.050000190734863,-42.900001525878906,-9.90000057220459
3.24,91.36273956298828,-38.49876403808594,19.421764373779297,39.30321502685547,-37.97090148925781,-614.595703125,-6.900000095367432,-43.80000305175781,-8.550000190734863
3.26,94.73377227783203,-36.27694320678711,19.153614044189453,57.689125061035156,-30.509952545166016,-621.5237426757812,-9.15000057220459,-45.75,-9.300000190734863
3.264,99.17741394042969,-37.34954833984375,17.659631729125977,90.4640121459961,-31.44257164001465,-597.9417724609375,-11.25,-46.650001525878906,-7.350000381469727
3.27,104.69364929199219,-41.71657180786133,14.939818382263184,114.44563293457031,-37.4379768371582,-582.8866577148438,-11.25,-46.650001525878906,-7.350000381469727
3.28,105.72794342041016,-45.73883056640625,13.062764167785645,124.30474090576172,-33.84073257446289,-571.2955322265625,-15.15000057220459,-47.70000076293945,-4.950000286102295
3.29,108.52437591552734,-49.87601089477539,10.802638053894043,133.23123168945312,-35.306278228759766,-560.37060546875,-17.700000762939453,-49.20000076293945,-4.200000286102295
3.3,107.29854583740234,-55.96685791015625,8.389283180236816,130.43338012695312,-31.709033966064453,-559.9708862304688,-19.5,-48.30000305175781,-2.5500001907348633
3.32,105.22994995117188,-61.942787170410156,8.006210327148438,120.57427215576172,-42.23430252075195,-536.921875,-23.25,-48.30000305175781,-1.8000000715255737
3.323,101.24600219726562,-70.0256118774414,9.346963882446289,69.94640350341797,-27.978559494018555,-545.3154296875,-23.25,-48.30000305175781,-1.8000000715255737
3.33,100.5181655883789,-69.75746154785156,9.691728591918945,49.16232681274414,-33.30780792236328,-527.8621826171875,-27.30000114440918,-45.900001525878906,-1.350000023841858
3.34,101.82061004638672,-69.91069030761719,11.109095573425293,22.782541275024414,-24.248085021972656,-513.3399658203125,-30.000001907348633,-43.20000076293945,-0.30000001192092896
3.35,96.64913177490234,-69.9489974975586,16.089035034179688,-6.661561965942383,2.2649309635162354,-486.6937255859375,-30.750001907348633,-42.150001525878906,-0.6000000238418579
3.36,93.04825592041016,-66.23319244384766,15.361198425292969,-28.111791610717773,11.324655532836914,-467.10870361328125,-34.05000305175781,-39.75,0.30000001192092896
3.38,95.53822326660156,-62.09601593017578,11.262324333190918,-43.96630859375,12.390504837036133,-422.7427062988281,-34.05000305175781,-39.75,0.30000001192092896
3.383,98.14311981201172,-56.733001708984375,7.316680431365967,-56.22358322143555,28.911178588867188,-365.7197570800781,-37.20000076293945,-34.20000076293945,1.2000000476837158
3.39,94.88700103759766,-55.085792541503906,0.9959878921508789,-48.62940216064453,31.176109313964844,-326.4165344238281,-37.5,-33.150001525878906,0.0
3.4,98.02819061279297,-57.26930618286133,-1.8387469053268433,-31.842266082763672,27.17917251586914,-256.20367431640625,-38.400001525878906,-30.600000381469727,1.6500000953674316
3.41,96.53421020507812,-62.13432312011719,-5.5545477867126465,0.6661561727523804,25.846860885620117,-184.6584930419922,-38.25,-28.500001907348633,1.0500000715255737
3.42,89.8687515258789,-65.42874145507812,-6.205770969390869,5.728943347930908,24.381317138671875,-125.50382232666016,-39.150001525878906,-28.80000114440918,1.2000000476837158
3.44,87.30216979980469,-63.85814666748047,-9.653421401977539,19.584991455078125,17.32006072998047,-56.356815338134766,-39.150001525878906,-28.80000114440918,1.2000000476837158
3.444,86.03803253173828,-55.698707580566406,-11.60708999633789,65.41653442382812,3.0643184185028076,44.49923324584961,-40.05000305175781,-27.750001907348633,2.1000001430511475
3.45,83.62467956542969,-51.71475601196289,-9.117119789123535,77.67381286621094,0.1332312375307083,67.814697265625,-40.05000305175781,-27.750001907348633,2.1000001430511475
3.46,82.20730590820312,-51.82967758178711,-7.967903137207031,111.64777374267578,2.531393527984619,129.76722717285156,-40.650001525878906,-27.150001525878906,1.9500000476837158
3.47,82.55207824707031,-50.79538345336914,-4.252102375030518,139.2266387939453,-14.655436515808105,183.5926513671875,-41.70000076293945,-26.850000381469727,2.700000047683716
3.48,85.73157501220703,-46.504974365234375,0.4213795065879822,166.1393585205078,-13.58958625793457,221.69677734375,-41.70000076293945,-26.850000381469727,2.700000047683716
3.5,86.65094757080078,-37.311241149902344,3.294421434402466,176.26492309570312,-12.923430442810059,241.9479217529297,-40.95000076293945,-27.600000381469727,1.2000000476837158
3.504,83.6629867553711,-32.25468444824219,8.619126319885254,171.06890869140625,18.119447708129883,282.5834655761719,-39.150001525878906,-28.350000381469727,3.0
3.51,72.97526550292969,-28.347347259521484,38.99675750732422,135.62939453125,38.90352249145508,297.2388916015625,-39.150001525878906,-28.350000381469727,3.0
3.52,75.73339080810547,-15.169661521911621,64.93074798583984,-32.77488327026367,25.313934326171875,272.0581970214844,-41.25,-29.250001907348633,5.400000095367432
3.53,119.93992614746094,46.811431884765625,79.83226013183594,-233.42112731933594,-78.47319793701172,179.9954071044922,-41.25,-29.250001907348633,5.400000095367432
3.54,186.05819702148438,99.44556427001953,-62.862159729003906,84.33537292480469,23.182235717773438,238.6171417236328,-41.25,-29.250001907348633,5.400000095367432
3.56,101.20769500732422,47.309425354003906,-35.31926345825195,205.30934143066406,75.27565002441406,326.4165344238281,-38.55000305175781,-30.900001525878906,5.100000381469727
3.563,43.70854568481445,-32.44622039794922,-3.907337188720703,70.61255645751953,57.289432525634766,283.78253173828125,-39.0,-33.900001525878906,3.9000000953674316
3.57,69.45100402832031,-72.89865112304688,22.026655197143555,-24.51454734802246,46.63093185424805,268.9938659667969,-39.0,-33.900001525878906,3.9000000953674316
3.58,74.7374038696289,-53.476890563964844,21.183897018432617,-79.0061264038086,24.248085021972656,254.87135314941406,-38.55000305175781,-34.35000228881836,6.150000095367432
3.59,74.96724700927734,-1.7621324062347412,23.3291015625,-37.97090148925781,26.64624786376953,223.16232299804688,-38.55000305175781,-34.35000228881836,6.150000095367432
3.6,72.93695831298828,29.381643295288086,10.342951774597168,49.29555892944336,32.24195861816406,216.36752319335938,-35.70000076293945,-36.150001525878906,5.25
3.62,70.37037658691406,12.22000503540039,4.788403511047363,76.4747314453125,23.581928253173828,205.44256591796875,-36.30000305175781,-36.60000228881836,5.850000381469727
3.623,70.33206939697266,-16.81687355041504,1.4173674583435059,67.94792938232422,45.03215789794922,180.66156005859375,-36.0,-38.25,5.100000381469727
3.63,75.8866195678711,-26.815059661865234,21.643583297729492,75.27565002441406,65.15007781982422,171.3353729248047,-36.0,-38.25,5.100000381469727
3.64,83.1266860961914,-28.8453426361084,27.925968170166016,75.00918579101562,51.693721771240234,189.45481872558594,-36.0,-38.25,5.100000381469727
3.65,88.71953582763672,-33.25067138671875,17.73624610900879,30.110260009765625,42.23430252075195,176.7978515625,-33.75,-39.0,6.600000381469727
3.66,84.77389526367188,-30.339323043823242,6.971915245056152,-12.390504837036133,50.09494400024414,160.94332885742188,-34.5,-40.95000076293945,7.950000286102295
3.68,79.71733856201172,-14.633360862731934,10.036493301391602,0.2664624750614166,48.8958625793457,157.612548828125,-34.20000076293945,-40.650001525878906,8.25
3.684,79.44918823242188,-6.3973069190979,18.617311477661133,4.396630764007568,35.972434997558594,144.02296447753906,-34.20000076293945,-40.650001525878906,8.25
3.69,76.38461303710938,-9.423578262329102,18.923770904541016,9.592649459838867,22.249616622924805,148.28636169433594,-33.75,-42.150001525878906,8.700000762939453
3.7,76.95922088623047,-9.040505409240723,11.683704376220703,3.9969370365142822,12.390504837036133,133.36447143554688,-33.900001525878906,-41.85000228881836,8.25
3.71,78.87458038330078,-8.35097599029541,20.685903549194336,7.860642910003662,-2.797856092453003,121.77335357666016,-33.900001525878906,-43.80000305175781,6.750000476837158
3.72,79.94718170166016,-5.669469833374023,18.617311477661133,22.782541275024414,5.329249382019043,117.37671661376953,-32.400001525878906,-43.80000305175781,7.800000190734863
3.74,78.79796600341797,-2.451662540435791,7.4316020011901855,20.91730499267578,19.185298919677734,112.71363067626953,-32.70000076293945,-43.05000305175781,8.25
3.743,78.52981567382812,-6.933608055114746,13.867216110229492,51.693721771240234,11.591117858886719,103.25421142578125,-32.70000076293945,-43.05000305175781,8.25
3.75,76.84429931640625,-16.089035034179688,4.32871675491333,55.55742645263672,9.72588062286377,99.65696716308594,-33.0,-43.650001525878906,7.950000286102295
3.76,77.03583526611328,-22.946029663085938,4.367023944854736,45.69831466674805,10.525267601013184,96.19295501708984,-31.650001525878906,-43.80000305175781,9.0
3.77,76.26969146728516,-32.484527587890625,2.2218191623687744,15.987748146057129,32.77488327026367,70.07962799072266,-31.650001525878906,-44.55000305175781,7.800000190734863
3.78,77.87859344482422,-34.93619155883789,-1.455674648284912,-0.6661561727523804,27.978559494018555,67.01531219482422,-31.500001907348633,-45.60000228881836,6.600000381469727
3.8,77.64875030517578,-33.17405700683594,0.9193734526634216,-17.852985382080078,34.10719680786133,60.48698043823242,-31.500001907348633,-45.60000228881836,6.600000381469727
3.804,78.64473724365234,-23.060951232910156,1.9153614044189453,-1.4655436277389526,37.304744720458984,63.684532165527344,-31.500001907348633,-45.60000228881836,6.900000095367432
3.81,77.03583526611328,-8.274360656738281,8.006210327148438,1.0658499002456665,44.63246536254883,51.560489654541016,-30.150001525878906,-45.75,9.300000190734863
3.82,78.10843658447266,-5.5545477867126465,13.713987350463867,23.715160369873047,25.7136287689209,52.493106842041016,-32.55000305175781,-45.900001525878906,7.350000381469727
3.83,78.4148941040039,-8.772355079650879,14.441824913024902,28.644716262817383,30.24349021911621,56.62327575683594,-29.55000114440918,-45.900001525878906,8.40000057220459
3.84,79.41088104248047,-16.47210693359375,15.207969665527344,8.660030364990234,30.110260009765625,42.36753463745117,-29.55000114440918,-45.900001525878906,8.40000057220459
3.86,79.21934509277344,-21.87342643737793,10.955866813659668,-4.130168437957764,32.64165496826172,33.17457962036133,-28.950000762939453,-46.5,9.300000190734863
3.863,75.23539733886719,-23.903709411621094,12.105083465576172,-28.511484146118164,32.108726501464844,41.701377868652344,-29.400001525878906,-45.30000305175781,7.500000476837158
3.87,75.50354766845703,-19.80483627319336,13.254301071166992,-33.04134750366211,39.70290756225586,21.050535202026367,-30.150001525878906,-47.25,8.550000190734863
3.88,77.34229278564453,-17.046716690063477,11.070788383483887,-16.520673751831055,38.37059783935547,20.517610549926758,-29.700000762939453,-46.95000076293945,7.800000190734863
3.89,78.03182220458984,-8.35097599029541,10.457873344421387,15.188361167907715,27.71209716796875,40.23583221435547,-29.55000114440918,-45.900001525878906,9.15000057220459
3.9,78.4148941040039,-8.044517517089844,11.262324333190918,15.987748146057129,36.905052185058594,33.57427215576172,-29.55000114440918,-45.900001525878906,9.15000057220459
3.919,77.91690063476562,-11.1474027633667,12.02846908569336,9.992342948913574,36.771820068359375,32.37519073486328,-28.650001525878906,-46.20000076293945,9.300000190734863
3.923,75.00555419921875,-17.659631729125977,14.518439292907715,11.724349021911621,28.911178588867188,43.43338394165039,-28.05000114440918,-46.35000228881836,10.65000057220459
3.93,74.7374038696289,-18.195932388305664,14.709975242614746,1.0658499002456665,29.444103240966797,44.09954071044922,-28.950000762939453,-47.25,9.300000190734863
3.94,75.15878295898438,-15.322891235351562,16.012420654296875,3.597243309020996,36.905052185058594,37.83767318725586,-29.400001525878906,-46.20000076293945,9.75
3.95,79.67903137207031,-18.11931800842285,24.13355255126953,18.119447708129883,33.4410400390625,9.592649459838867,-29.400001525878906,-46.20000076293945,9.75
3.96,84.39082336425781,-8.274360656738281,9.385271072387695,12.25727367401123,37.304744720458984,37.17151641845703,-28.500001907348633,-47.55000305175781,8.700000762939453
3.979,75.9632339477539,-16.089035034179688,19.07699966430664,-33.4410400390625,45.69831466674805,25.980091094970703,-28.80000114440918,-48.60000228881836,10.65000057220459
3.983,78.29997253417969,-24.325088500976562,13.599065780639648,-64.75038146972656,45.43185043334961,33.97396469116211,-28.650001525878906,-47.25,10.350000381469727
3.99,79.44918823242188,-16.510414123535156,10.802638053894043,-58.08882141113281,41.035221099853516,49.96171569824219,-28.650001525878906,-48.0,10.800000190734863
4.0,79.25765228271484,-10.189722061157227,11.760318756103516,-55.02450180053711,39.70290756225586,55.4241943359375,-28.650001525878906,-48.0,10.800000190734863
4.01,75.12047576904297,-8.848969459533691,14.288596153259277,-46.364471435546875,36.372127532958984,78.47319793701172,-28.650001525878906,-48.0,10.800000190734863
4.02,73.0518798828125,-7.4316020011901855,21.222204208374023,-47.830013275146484,28.644716262817383,82.47013854980469,-27.750001907348633,-48.60000228881836,9.450000762939453
4.039,76.19307708740234,-4.596867084503174,27.389667510986328,-49.29555892944336,4.796324729919434,114.3124008178711,-27.750001907348633,-47.85000228881836,11.40000057220459
4.043,69.87238311767578,2.1068975925445557,29.53487205505371,-40.36906433105469,6.395099639892578,137.22817993164062,-26.700000762939453,-49.650001525878906,11.550000190734863
4.05,70.37037658691406,2.604891538619995,32.599449157714844,-33.17457962036133,10.392036437988281,131.36599731445312,-27.750001907348633,-49.80000305175781,9.90000057220459
4.06,73.51156616210938,-4.9799394607543945,28.61549949645996,-32.64165496826172,-5.196018218994141,151.48391723632812,-27.750001907348633,-49.80000305175781,9.90000057220459
4.07,75.8866195678711,-12.832921028137207,23.558944702148438,-43.56661605834961,3.9969370365142822,150.6845245361328,-26.55000114440918,-49.80000305175781,9.15000057220459
4.08,78.4148941040039,-21.0689754486084,20.83913230895996,-72.47779083251953,4.929555892944336,153.21592712402344,-25.80000114440918,-49.500003814697266,9.15000057220459
4.099,81.70931243896484,-23.482330322265625,17.774553298950195,-96.59264373779297,5.462480545043945,162.27565002441406,-25.05000114440918,-49.500003814697266,10.950000762939453
4.103,76.03984832763672,-21.222204208374023,22.026655197143555,-86.3338394165039,10.92496109008789,156.81317138671875,-24.900001525878906,-50.85000228881836,10.050000190734863
4.11,83.62467956542969,-28.500577926635742,-0.1149216815829277,-94.46094512939453,7.460949420928955,165.2067413330078,-24.900001525878906,-50.85000228881836,10.050000190734863
4.12,83.50975799560547,-31.794998168945312,1.9153614044189453,-82.07044219970703,-9.592649459838867,164.4073486328125,-24.150001525878906,-50.85000228881836,9.300000190734863
4.13,84.81220245361328,-33.02082824707031,-0.8810662031173706,-82.33690643310547,-13.323123931884766,173.86676025390625,-22.950000762939453,-50.85000228881836,7.800000190734863
4.14,85.5783462524414,-35.16603469848633,6.473921298980713,-92.72894287109375,-21.716691970825195,165.2067413330078,-23.700000762939453,-53.85000228881836,9.0
4.16,90.09859466552734,-33.90189743041992,13.79060173034668,-102.45481872558594,-19.584991455078125,162.27565002441406,-21.75,-52.95000076293945,5.850000381469727
4.163,92.28211212158203,-25.627534866333008,19.613300323486328,-86.20060729980469,-26.379785537719727,168.67074584960938,-24.150001525878906,-53.10000228881836,8.25
4.17,92.89502716064453,-22.792800903320312,18.310853958129883,-75.14241790771484,-39.30321502685547,170.93568420410156,-24.150001525878906,-53.10000228881836,8.25
4.18,92.39703369140625,-24.095245361328125,17.238252639770508,-84.4686050415039,-41.30168533325195,178.5298614501953,-22.200000762939453,-54.30000305175781,6.750000476837158
4.19,91.89904022216797,-29.22841453552246,15.054739952087402,-97.25880432128906,-43.56661605834961,191.71975708007812,-20.700000762939453,-55.05000305175781,5.700000286102295
4.2,92.47364807128906,-29.419950485229492,14.67166805267334,-105.91883087158203,-45.43185043334961,197.9816131591797,-19.950000762939453,-54.60000228881836,6.0
4.22,98.10481262207031,-24.9763126373291,17.583017349243164,-95.12710571289062,-75.94180297851562,206.24195861816406,-19.200000762939453,-55.80000305175781,4.5
4.223,115.91767120361328,-16.203956604003906,21.37543296813965,-75.5421142578125,-81.8039779663086,223.69525146484375,-19.200000762939453,-55.80000305175781,4.5
4.23,111.78048706054688,-17.50640296936035,17.161638259887695,-80.33843994140625,-78.60643005371094,226.62632751464844,-18.150001525878906,-54.60000228881836,4.950000286102295
4.24,103.23797607421875,-24.325088500976562,18.847156524658203,-115.51148223876953,-76.4747314453125,223.29554748535156,-17.25,-55.650001525878906,3.6000001430511475
4.25,104.1190414428711,-27.121517181396484,12.411541938781738,-158.9448699951172,-84.20214080810547,229.69065856933594,-17.400001525878906,-55.35000228881836,2.25
4.26,116.37735748291016,-20.494365692138672,7.316680431365967,-185.4578857421875,-92.72894287109375,248.7427215576172,-16.05000114440918,-57.900001525878906,2.1000001430511475
4.28,124.23033905029297,-3.332728862762451,14.36521053314209,-189.5880584716797,-95.66002655029297,266.46246337890625,-16.05000114440918,-57.900001525878906,2.1000001430511475
4.283,124.72833251953125,9.308655738830566,15.476119995117188,-205.84225463867188,-88.06584930419922,278.0535888671875,-12.90000057220459,-57.000003814697266,1.6500000953674316
4.29,128.67398071289062,18.732234954833984,9.423578262329102,-216.76722717285156,-87.26646423339844,291.50994873046875,-12.90000057220459,-57.000003814697266,1.6500000953674316
4.3,127.94613647460938,25.20615577697754,5.5545477867126465,-221.43031311035156,-84.60183715820312,305.09954833984375,-13.800000190734863,-59.55000305175781,-0.6000000238418579
4.31,122.69805145263672,37.34954833984375,3.3710360527038574,-185.5911102294922,-100.05665588378906,315.8912658691406,-12.300000190734863,-56.70000076293945,-1.0500000715255737
4.32,115.03660583496094,50.5655403137207,8.159439086914062,-96.05972290039062,-93.79479217529297,307.76416015625,-9.90000057220459,-58.20000076293945,-1.2000000476837158
4.34,104.88518524169922,42.21456527709961,5.439626216888428,77.54058074951172,-91.3966293334961,354.7947998046875,-7.800000190734863,-61.05000305175781,-2.1000001430511475
4.343,101.59076690673828,-17.62132453918457,27.15982437133789,220.76416015625,-80.20520782470703,440.8621520996094,-6.450000286102295,-60.000003814697266,-1.6500000953674316
4.35,105.22994995117188,-16.970102310180664,25.28277015686035,230.88973999023438,-70.87902069091797,431.4027404785156,-6.450000286102295,-60.000003814697266,-1.6500000953674316
4.36,104.04242706298828,-11.951854705810547,34.13174057006836,194.117919921875,-58.4885139465332,424.8744201660156,-6.750000476837158,-60.60000228881836,-1.0500000715255737
4.37,93.77609252929688,-15.820884704589844,23.865402221679688,104.32006072998047,-48.09647750854492,363.5880432128906,-3.1500000953674316,-60.900001525878906,-0.45000001788139343
4.38,82.78192138671875,-48.07556915283203,11.645397186279297,9.592649459838867,-26.379785537719727,269.1271057128906,-3.1500000953674316,-60.900001525878906,-0.45000001788139343
4.399,77.84028625488281,-39.456443786621094,11.03248119354248,-9.72588062286377,10.791729927062988,193.85145568847656,-0.15000000596046448,-61.95000076293945,0.9000000357627869
4.404,86.38279724121094,36.8132438659668,25.28277015686035,-7.860642910003662,-3.597243309020996,161.07656860351562,1.2000000476837158,-63.60000228881836,0.15000000596046448
4.41,86.03803253173828,49.79939651489258,22.218191146850586,42.500762939453125,-12.923430442810059,108.58345794677734,1.2000000476837158,-63.60000228881836,0.15000000596046448
4.42,74.35432434082031,57.7289924621582,16.81687355041504,114.84532928466797,-2.2649309635162354,28.511484146118164,2.25,-63.000003814697266,1.350000023841858
4.43,49.18648147583008,50.144161224365234,17.62132453918457,166.40582275390625,1.0658499002456665,-9.859111785888672,2.25,-63.000003814697266,1.350000023841858
4.44,38.46045684814453,24.36339569091797,22.218191146850586,179.595703125,0.1332312375307083,-43.56661605834961,2.25,-63.000003814697266,1.350000023841858
4.459,40.988731384277344,3.5625722408294678,20.264522552490234,138.16079711914062,6.261868000030518,-150.41806030273438,1.5,-63.000003814697266,5.100000381469727
4.463,47.309425354003906,-3.9456443786621094,19.306842803955078,125.23736572265625,2.531393527984619,-172.93414306640625,1.0500000715255737,-63.000003814697266,5.400000095367432
4.47,47.15619659423828,-2.2601263523101807,18.77054214477539,121.3736572265625,-3.597243309020996,-223.56201171875,-1.6500000953674316,-62.400001525878906,5.700000286102295
4.48,45.24083709716797,2.9879636764526367,17.161638259887695,129.76722717285156,-19.85145378112793,-264.86370849609375,-1.6500000953674316,-62.400001525878906,5.700000286102295
4.49,42.980709075927734,9.27034854888916,15.514427185058594,143.88973999023438,-13.323123931884766,-326.2832946777344,-2.5500001907348633,-62.400001525878906,5.700000286102295
4.5,42.09964370727539,5.018246650695801,16.05072784423828,179.4624786376953,-29.7105655670166,-364.6539001464844,-2.700000047683716,-60.900001525878906,7.800000190734863
4.512,44.78114700317383,-6.167463779449463,15.552734375,181.46095275878906,-35.17304611206055,-432.73504638671875,-4.950000286102295,-59.250003814697266,7.050000190734863
4.52,50.71876907348633,-18.004396438598633,17.92778205871582,173.46707153320312,-46.764163970947266,-471.2388916015625,-5.700000286102295,-58.95000076293945,8.25
4.53,54.81764221191406,-21.911733627319336,17.00840950012207,138.6937255859375,-47.297088623046875,-524.264892578125,-5.700000286102295,-58.95000076293945,8.25
4.54,59.29958724975586,-27.542896270751953,19.000385284423828,100.9892807006836,-55.29096221923828,-546.9142456054688,-7.950000286102295,-58.95000076293945,9.0
4.55,63.704917907714844,-34.476505279541016,16.47210693359375,75.94180297851562,-56.889739990234375,-560.5038452148438,-12.0,-56.70000076293945,7.350000381469727
4.56,68.56993865966797,-38.34553527832031,19.230228424072266,53.026031494140625,-47.163856506347656,-600.2067260742188,-13.950000762939453,-57.000003814697266,7.800000190734863
4.58,74.62248229980469,-40.107666015625,22.333112716674805,46.231239318847656,-49.96171569824219,-617.1270751953125,-15.750000953674316,-55.20000076293945,8.700000762939453
4.583,88.22154235839844,-44.35976791381836,22.677879333496094,21.183767318725586,-44.76569747924805,-633.6477661132812,-17.400001525878906,-55.35000228881836,7.500000476837158
4.59,90.9030532836914,-44.12992477416992,22.7161865234375,20.38437843322754,-54.22511291503906,-653.6324462890625,-17.400001525878906,-55.35000228881836,7.500000476837158
4.6,92.97164154052734,-43.82346725463867,22.409727096557617,4.263399600982666,-52.75957107543945,-652.5665893554688,-21.450000762939453,-52.650001525878906,7.800000190734863
4.61,95.46160888671875,-43.32547378540039,24.286781311035156,0.5329249501228333,-40.23583221435547,-644.039794921875,-23.55000114440918,-51.750003814697266,7.650000095367432
4.62,99.75202178955078,-42.94240188598633,24.708162307739258,0.1332312375307083,-36.372127532958984,-643.5068969726562,-27.900001525878906,-50.400001525878906,6.750000476837158
4.632,104.1190414428711,-41.67826461791992,26.087221145629883,1.4655436277389526,-13.189892768859863,-641.241943359375,-28.05000114440918,-48.30000305175781,6.150000095367432
4.64,106.68563079833984,-45.31745147705078,25.014619827270508,10.92496109008789,-10.658498764038086,-626.320068359375,-28.05000114440918,-48.30000305175781,6.150000095367432
4.65,104.770263671875,-47.232810974121094,23.252487182617188,23.182235717773438,-2.531393527984619,-616.0612182617188,-33.0,-43.650001525878906,6.150000095367432
4.66,104.34888458251953,-51.063533782958984,22.103269577026367,22.51607894897461,3.3307809829711914,-598.3414916992188,-35.70000076293945,-42.30000305175781,6.750000476837158
4.67,103.39120483398438,-54.31964874267578,20.992361068725586,3.597243309020996,14.788667678833008,-596.343017578125,-36.45000076293945,-39.60000228881836,6.0
4.68,103.27628326416016,-58.80159378051758,17.8128604888916,-7.327718257904053,20.38437843322754,-600.2067260742188,-39.150001525878906,-35.70000076293945,6.300000190734863
4.7,108.94575500488281,-60.372188568115234,20.76251792907715,-33.04134750366211,27.71209716796875,-592.4793090820312,-39.150001525878906,-35.70000076293945,6.300000190734863
4.704,108.98406219482422,-70.44699096679688,13.177685737609863,-94.86064147949219,40.502296447753906,-575.6921997070312,-39.150001525878906,-35.70000076293945,6.300000190734863
4.71,104.46380615234375,-70.86837005615234,11.951854705810547,-116.44409942626953,46.09800720214844,-552.1102294921875,-42.45000076293945,-27.900001525878906,6.0
4.72,100.21170806884766,-70.6385269165039,11.41555404663086,-145.48851013183594,49.96171569824219,-529.5941772460938,-41.55000305175781,-25.05000114440918,7.650000095367432
4.73,97.87496185302734,-70.86837005615234,7.738059997558594,-158.67840576171875,57.955589294433594,-491.6232604980469,-41.70000076293945,-22.5,6.750000476837158
4.74,100.59477996826172,-67.4973373413086,6.512228488922119,-162.40887451171875,71.2787094116211,-441.2618713378906,-42.150001525878906,-21.0,6.750000476837158
4.758,102.51013946533203,-63.283538818359375,4.520252704620361,-148.55282592773438,73.41041564941406,-351.3307800292969,-40.5,-16.200000762939453,6.600000381469727
4.762,104.54042053222656,-60.985107421875,-4.788403511047363,-132.29861450195312,67.94792938232422,-318.42266845703125,-40.5,-16.200000762939453,6.600000381469727
4.77,103.27628326416016,-62.59400939941406,-6.282385349273682,-115.51148223876953,60.08728790283203,-256.4701232910156,-42.0,-16.200000762939453,6.600000381469727
4.78,99.94355773925781,-65.69689178466797,-11.91354751586914,-106.4517593383789,57.02296829223633,-197.0489959716797,-40.20000076293945,-14.850000381469727,6.750000476837158
4.79,97.6068115234375,-68.22517395019531,-16.05072784423828,-63.28483963012695,38.77029037475586,-102.05513000488281,-40.650001525878906,-15.15000057220459,6.750000476837158
4.809,93.8910140991211,-65.00736236572266,-16.970102310180664,-37.83767318725586,37.304744720458984,-45.03215789794922,-40.650001525878906,-15.15000057220459,6.750000476837158
4.813,93.46963500976562,-59.41450881958008,-16.05072784423828,19.98468589782715,17.32006072998047,53.69218826293945,-39.900001525878906,-13.65000057220459,6.750000476837158
4.82,90.13690185546875,-52.71074295043945,-11.41555404663086,54.091880798339844,10.92496109008789,104.45329284667969,-40.20000076293945,-15.600000381469727,6.300000190734863
4.83,88.48969268798828,-50.48892593383789,-5.70777702331543,81.27105712890625,-1.9984685182571411,172.80091857910156,-41.25,-14.550000190734863,5.850000381469727
4.84,92.0522689819336,-45.31745147705078,-5.822698593139648,124.97090148925781,0.7993874549865723,220.8973846435547,-38.70000076293945,-16.80000114440918,6.300000190734863
4.85,89.44737243652344,-39.41813659667969,-7.814674377441406,176.13169860839844,-3.3307809829711914,263.1316833496094,-39.75,-15.750000953674316,6.150000095367432
4.86,85.38681030273438,-38.8818359375,-9.691728591918945,214.7687530517578,-9.992342948913574,302.7013854980469,-39.75,-15.750000953674316,6.150000095367432
4.876,86.61264038085938,-40.988731384277344,-13.10107135772705,186.3905029296875,-6.661561965942383,298.8376770019531,-39.30000305175781,-21.600000381469727,6.150000095367432
4.88,85.42511749267578,-20.800825119018555,18.77054214477539,95.39356231689453,6.128636837005615,285.91424560546875,-39.30000305175781,-21.600000381469727,6.150000095367432
4.89,93.8910140991211,15.399505615234375,56.34992980957031,-187.98927307128906,-71.81163787841797,194.91729736328125,-39.150001525878906,-22.950000762939453,6.750000476837158
4.9,177.7072296142578,120.43791961669922,29.726408004760742,-107.91730499267578,-58.355281829833984,96.59264373779297,-38.70000076293945,-22.5,4.5
4.91,163.72508239746094,148.6320343017578,-77.26567840576172,365.7197570800781,34.64012145996094,266.8621826171875,-38.70000076293945,-22.5,4.5
4.929,53.8216552734375,-9.346963882446289,3.7924153804779053,278.5865173339844,46.231239318847656,290.7105712890625,-38.400001525878906,-24.450000762939453,6.750000476837158
4.933,36.8515510559082,-110.01835632324219,43.3637809753418,-87.79938507080078,7.327718257904053,253.00611877441406,-38.400001525878906,-26.400001525878906,6.0
4.94,66.15657806396484,-95.38499450683594,16.778566360473633,-244.34608459472656,1.0658499002456665,245.545166015625,-37.5,-26.250001907348633,6.150000095367432
4.95,76.00154113769531,-38.99675750732422,15.897499084472656,-258.4685974121094,-8.39356803894043,197.9816131591797,-36.900001525878906,-26.400001525878906,5.25
4.96,81.82423400878906,16.625335693359375,12.48815631866455,-124.03828430175781,-11.990811347961426,180.5283203125,-36.900001525878906,-26.400001525878906,5.25
4.97,74.85232543945312,27.389667510986328,19.881450653076172,-7.860642910003662,15.588054656982422,175.0658416748047,-36.900001525878906,-26.400001525878906,5.25
4.98,73.32003021240234,16.58702850341797,42.367794036865234,83.80245208740234,17.186830520629883,174.1332244873047,-35.400001525878906,-28.80000114440918,4.950000286102295
4.999,90.59659576416016,-4.558559894561768,36.8515510559082,81.27105712890625,7.72741174697876,170.4027557373047,-35.400001525878906,-32.25,5.25
5.003,80.21533203125,-25.742456436157227,26.240449905395508,67.5482406616211,-6.395099639892578,178.5298614501953,-35.400001525878906,-32.25,5.25
5.01,78.49150848388672,-24.13355255126953,20.877439498901367,41.568145751953125,-6.261868000030518,165.3399658203125,-34.95000076293945,-34.20000076293945,5.700000286102295
5.02,81.51777648925781,-19.038692474365234,7.6997528076171875,30.24349021911621,5.196018218994141,155.88055419921875,-34.95000076293945,-34.20000076293945,5.700000286102295
5.03,75.9632339477539,-6.933608055114746,10.84094524383545,30.37672233581543,-3.86370587348938,155.6140899658203,-35.25,-34.35000228881836,4.650000095367432
5.04,76.26969146728516,-3.907337188720703,9.959878921508789,30.509952545166016,-10.791729927062988,148.68606567382812,-34.20000076293945,-34.20000076293945,4.5
5.053,76.19307708740234,-7.4316020011901855,8.389283180236816,21.84992218017578,2.797856092453003,131.7657012939453,-34.05000305175781,-35.10000228881836,5.100000381469727
5.06,77.8019790649414,-6.742072105407715,12.60307788848877,25.18070411682129,-4.396630764007568,134.83001708984375,-32.55000305175781,-34.80000305175781,4.350000381469727
5.07,76.4995346069336,-4.443638324737549,8.504204750061035,22.649311065673828,-6.261868000030518,129.36753845214844,-32.55000305175781,-34.80000305175781,4.350000381469727
5.08,76.69107055664062,-2.9496564865112305,11.683704376220703,27.17917251586914,-1.8652373552322388,125.10413360595703,-33.75,-37.05000305175781,2.8500001430511475
5.09,77.34229278564453,-5.51624059677124,9.691728591918945,32.108726501464844,-9.592649459838867,119.5084228515625,-32.55000305175781,-38.55000305175781,4.650000095367432
5.11,80.02379608154297,-5.477933406829834,14.556746482849121,47.696781158447266,-14.655436515808105,116.71056365966797,-33.150001525878906,-37.20000076293945,5.700000286102295
5.113,77.95520782470703,-9.423578262329102,13.139378547668457,43.03369140625,-3.86370587348938,105.11944580078125,-33.30000305175781,-39.0,5.400000095367432
5.12,73.58818054199219,-14.36521053314209,16.47210693359375,43.56661605834961,-5.728943347930908,88.99846649169922,-33.30000305175781,-39.0,5.400000095367432
5.13,76.26969146728516,-14.67166805267334,8.887276649475098,53.42572784423828,3.3307809829711914,90.33078002929688,-33.30000305175781,-39.0,5.400000095367432
5.14,77.57213592529297,-17.353174209594727,8.504204750061035,46.764163970947266,3.86370587348938,83.26952362060547,-32.400001525878906,-39.150001525878906,5.25
5.15,75.9249267578125,-14.250288963317871,19.230228424072266,46.497703552246094,10.92496109008789,68.61408996582031,-31.05000114440918,-39.30000305175781,6.900000095367432
5.169,76.92091369628906,-7.929595947265625,4.9799394607543945,71.81163787841797,14.655436515808105,71.41194152832031,-31.05000114440918,-40.5,6.150000095367432
5.173,77.1890640258789,-9.959878921508789,15.705963134765625,72.47779083251953,22.915773391723633,69.94640350341797,-31.650001525878906,-39.60000228881836,6.0
5.18,77.53382873535156,-16.318878173828125,5.363011837005615,70.87902069091797,12.390504837036133,75.8085708618164,-31.650001525878906,-39.60000228881836,6.0
5.19,76.69107055664062,-16.855180740356445,6.282385349273682,53.42572784423828,19.185298919677734,59.4211311340332,-31.650001525878906,-40.35000228881836,6.0
5.2,77.34229278564453,-21.337125778198242,7.546523571014404,37.03828430175781,19.718223571777344,53.558956146240234,-30.000001907348633,-41.70000076293945,6.150000095367432
5.21,77.61044311523438,-18.655620574951172,8.695740699768066,23.848390579223633,20.91730499267578,57.689125061035156,-29.400001525878906,-42.60000228881836,6.0
5.23,77.8019790649414,-16.127342224121094,10.41956615447998,-2.6646246910095215,27.84532928466797,47.430320739746094,-30.150001525878906,-41.55000305175781,7.050000190734863
5.233,77.38059997558594,-15.131354331970215,12.48815631866455,5.8621745109558105,29.044410705566406,37.03828430175781,-30.150001525878906,-41.55000305175781,7.050000190734863
5.24,77.38059997558594,-12.373234748840332,12.832921028137207,5.062787055969238,19.31852912902832,43.56661605834961,-30.150001525878906,-41.55000305175781,7.050000190734863
5.25,78.4148941040039,-8.619126319885254,15.169661521911621,5.196018218994141,28.77794647216797,36.372127532958984,-30.150001525878906,-43.5,7.800000190734863
5.26,76.07815551757812,-5.746084213256836,13.369222640991211,22.382848739624023,27.978559494018555,47.830013275146484,-30.450000762939453,-41.85000228881836,7.050000190734863
5.27,76.84429931640625,-8.312667846679688,13.48414421081543,30.110260009765625,16.920366287231445,54.4915771484375,-30.30000114440918,-42.45000076293945,7.350000381469727
5.289,79.29595947265625,-10.72602367401123,14.824896812438965,25.04747200012207,15.188361167907715,52.75957107543945,-30.30000114440918,-42.45000076293945,7.350000381469727
5.293,77.45721435546875,-12.717999458312988,13.905523300170898,13.323123931884766,11.990811347961426,45.831546783447266,-30.000001907348633,-42.45000076293945,8.40000057220459
5.3,77.07414245605469,-14.403517723083496,10.611102104187012,-4.263399600982666,18.119447708129883,56.356815338134766,-30.450000762939453,-44.25,7.800000190734863
5.31,77.1124496459961,-11.41555404663086,15.131354331970215,-8.127105712890625,16.25421142578125,67.94792938232422,-29.400001525878906,-43.80000305175781,7.050000190734863
5.32,76.07815551757812,-6.205770969390869,15.207969665527344,-11.058192253112793,16.387441635131836,72.21133422851562,-29.250001907348633,-44.85000228881836,7.950000286102295
5.33,77.1507568359375,-4.32871675491333,19.68991470336914,-7.194486618041992,13.056661605834961,77.54058074951172,-29.250001907348633,-44.85000228881836,7.950000286102295
5.35,78.10843658447266,-6.665457725524902,17.42978858947754,-7.860642910003662,6.661561965942383,95.9264907836914,-29.400001525878906,-43.80000305175781,7.050000190734863
5.353,76.07815551757812,-4.481945514678955,17.966089248657227,-9.992342948913574,15.854516983032227,106.71822357177734,-29.250001907348633,-42.45000076293945,8.40000057220459
5.36,74.43093872070312,-4.941632270812988,19.421764373779297,-7.327718257904053,5.8621745109558105,110.18223571777344,-29.250001907348633,-45.60000228881836,6.150000095367432
5.37,75.12047576904297,-6.358999729156494,19.19192123413086,-8.793261528015137,12.923430442810059,118.70903015136719,-28.05000114440918,-45.150001525878906,7.950000286102295
5.38,76.46122741699219,-11.262324333190918,17.92778205871582,-8.39356803894043,-1.4655436277389526,131.0995330810547,-27.150001525878906,-46.95000076293945,7.800000190734863
5.39,76.537841796875,-21.45204734802246,13.407529830932617,-39.16998291015625,9.192955017089844,133.36447143554688,-27.150001525878906,-46.95000076293945,7.800000190734863
5.41,78.45320129394531,-21.643583297729492,10.41956615447998,-37.03828430175781,-6.395099639892578,168.27105712890625,-27.450000762939453,-46.95000076293945,7.500000476837158
5.413,77.68705749511719,-13.369222640991211,16.318878173828125,-40.102603912353516,-4.396630764007568,149.7519073486328,-27.150001525878906,-48.900001525878906,7.500000476837158
5.42,74.2777099609375,-11.109095573425293,18.617311477661133,-36.10566711425781,-7.594180583953857,152.68299865722656,-25.80000114440918,-47.85000228881836,7.650000095367432
5.43,76.11646270751953,-13.292608261108398,16.89348793029785,-36.372127532958984,-3.9969370365142822,150.01837158203125,-26.250001907348633,-47.10000228881836,6.150000095367432
5.44,80.59840393066406,-21.37543296813965,14.901511192321777,-37.70444107055664,-4.130168437957764,156.28024291992188,-26.250001907348633,-47.10000228881836,6.150000095367432
5.45,80.33025360107422,-24.9763126373291,12.22000503540039,-35.972434997558594,-16.25421142578125,169.0704345703125,-25.650001525878906,-49.20000076293945,7.500000476837158
5.469,80.33025360107422,-27.88766098022461,10.72602367401123,-59.4211311340332,-12.523736000061035,160.14395141601562,-26.55000114440918,-49.05000305175781,6.900000095367432
5.473,83.96944427490234,-24.401702880859375,14.288596153259277,-56.49004364013672,-13.989279747009277,164.67381286621094,-25.500001907348633,-49.80000305175781,5.850000381469727
5.48,88.71953582763672,-23.980323791503906,16.510414123535156,-56.356815338134766,-14.788667678833008,164.00765991210938,-24.150001525878906,-50.400001525878906,7.050000190734863
5.49,90.36675262451172,-23.558944702148438,13.867216110229492,-63.418067932128906,-8.660030364990234,180.66156005859375,-24.150001525878906,-50.400001525878906,7.050000190734863
5.5,90.78813171386719,-26.508602142333984,9.040505409240723,-76.74119567871094,-3.4640121459960938,176.6646270751953,-24.150001525878906,-50.400001525878906,7.050000190734863
5.51,91.4776611328125,-26.12552833557129,5.4013190269470215,-71.54517364501953,-19.185298919677734,196.1163787841797,-21.75,-51.30000305175781,5.850000381469727
5.53,95.42330169677734,-26.240449905395508,-3.332728862762451,-91.52986145019531,-15.721285820007324,212.37059020996094,-22.650001525878906,-51.60000228881836,5.25
5.533,93.85270690917969,-24.478317260742188,16.127342224121094,-100.72281646728516,-13.722817420959473,215.7013702392578,-20.25,-52.95000076293945,5.400000095367432
5.54,95.30838012695312,-21.75850486755371,21.490354537963867,-106.18529510498047,-18.119447708129883,215.96783447265625,-19.5,-54.45000076293945,5.850000381469727
5.55,99.10079956054688,-23.21417999267578,22.754493713378906,-105.91883087158203,-23.715160369873047,223.29554748535156,-19.5,-54.45000076293945,5.850000381469727
5.56,97.6068115234375,-28.38565444946289,19.268535614013672,-122.3062744140625,-28.378253936767578,226.7595672607422,-18.150001525878906,-53.10000228881836,4.5
5.57,98.56449890136719,-31.948226928710938,15.322891235351562,-134.29708862304688,-41.168453216552734,230.4900360107422,-16.650001525878906,-54.60000228881836,4.950000286102295
5.589,111.58895111083984,-29.190107345581055,8.35097599029541,-142.29095458984375,-50.89433288574219,238.75038146972656,-15.000000953674316,-54.45000076293945,3.3000001907348633
5.593,119.59516143798828,-30.14778709411621,3.8307228088378906,-199.84686279296875,-39.43644714355469,243.5467071533203,-15.15000057220459,-56.250003814697266,2.700000047683716
5.6,121.08914184570312,-45.04929733276367,-11.798625946044922,-277.1209716796875,-38.23736572265625,235.55282592773438,-15.15000057220459,-56.250003814697266,2.700000047683716
5.61,125.53278350830078,-38.49876403808594,-10.764330863952637,-340.2725830078125,-63.151607513427734,273.1240234375,-14.250000953674316,-55.650001525878906,1.0500000715255737
5.62,133.0792999267578,-1.1875240802764893,-5.477933406829834,-285.91424560546875,-91.79632568359375,304.83306884765625,-13.050000190734863,-55.95000076293945,0.0
5.63,136.02896118164062,25.972299575805664,-3.026270866394043,-233.0214385986328,-97.39203643798828,285.2480773925781,-12.750000953674316,-55.650001525878906,0.0
5.65,132.08331298828125,30.569168090820312,-10.917559623718262,-219.16539001464844,-103.7871322631836,283.2496032714844,-9.90000057220459,-58.500003814697266,-1.2000000476837158
5.654,126.60538482666016,31.641769409179688,-14.748282432556152,-185.4578857421875,-132.0321502685547,318.5558776855469,-9.0,-57.150001525878906,-2.8500001430511475
5.66,124.91986846923828,52.44259262084961,-14.556746482849121,-177.73046875,-134.43031311035156,328.814697265625,-9.0,-57.150001525878906,-2.8500001430511475
5.67,121.24237060546875,63.475074768066406,-8.810662269592285,-68.61408996582031,-144.55589294433594,298.4379577636719,-6.900000095367432,-58.500003814697266,-1.9500000476837158
5.68,116.41566467285156,89.217529296875,7.086836814880371,75.5421142578125,-134.96324157714844,265.3966369628906,-6.750000476837158,-59.85000228881836,-4.350000381469727
5.69,93.85270690917969,76.11646270751953,5.286397457122803,331.0796203613281,-139.09341430664062,323.3522033691406,-4.050000190734863,-59.10000228881836,-1.8000000715255737
5.71,72.59219360351562,11.875240325927734,28.500577926635742,442.4609375,-133.6309356689453,368.3843688964844,-3.9000000953674316,-60.45000076293945,-1.9500000476837158
5.714,82.85853576660156,-52.174442291259766,42.7508659362793,274.3231201171875,-127.5022964477539,345.3353576660156,-3.9000000953674316,-60.45000076293945,-1.9500000476837158
5.72,96.91728210449219,-28.270732879638672,38.19230651855469,175.19908142089844,-114.17916870117188,277.7871398925781,0.30000001192092896,-62.250003814697266,0.30000001192092896
5.73,86.1912612915039,-11.377246856689453,28.53888511657715,165.4731903076172,-68.08116149902344,173.33384704589844,3.0,-63.000003814697266,2.8500001430511475
5.74,69.48931121826172,16.318878173828125,43.3637809753418,145.6217498779297,-74.34303283691406,135.36293029785156,2.5500001907348633,-62.55000305175781,2.5500001907348633
5.75,71.74943542480469,20.64759635925293,37.84754180908203,128.7013702392578,-77.14088439941406,89.93108367919922,3.450000047683716,-61.95000076293945,3.0
5.77,72.55388641357422,23.75048065185547,29.113492965698242,119.10872650146484,-83.40275573730469,28.378253936767578,3.450000047683716,-61.95000076293945,3.0
5.773,64.66259765625,23.44402313232422,29.22841453552246,100.72281646728516,-102.45481872558594,-49.16232681274414,6.150000095367432,-63.150001525878906,5.700000286102295
5.78,54.281341552734375,19.038692474365234,28.883649826049805,109.64930725097656,-111.38131713867188,-81.8039779663086,5.550000190734863,-63.000003814697266,4.650000095367432
5.79,54.702720642089844,18.004396438598633,29.266721725463867,139.89280700683594,-136.9617156982422,-123.10566711425781,5.400000095367432,-62.400001525878906,6.300000190734863
5.8,56.34992980957031,19.843143463134766,33.17405700683594,195.1837615966797,-148.28636169433594,-166.67227172851562,4.650000095367432,-63.900001525878906,6.300000190734863
5.81,56.426544189453125,21.183897018432617,36.315250396728516,249.5421142578125,-152.81622314453125,-214.63552856445312,4.650000095367432,-63.900001525878906,9.300000190734863
5.83,54.51118469238281,12.143390655517578,39.60967254638672,287.9126892089844,-167.47166442871094,-262.3323059082031,4.650000095367432,-63.900001525878906,9.300000190734863
5.833,55.392250061035156,2.9879636764526367,46.73481750488281,308.56353759765625,-190.65390014648438,-302.16845703125,3.750000238418579,-63.750003814697266,9.15000057220459
5.84,60.21895980834961,2.030282974243164,50.41231155395508,319.2220458984375,-205.04287719726562,-335.7427062988281,1.9500000476837158,-63.900001525878906,11.550000190734863
5.85,61.329872131347656,1.8770540952682495,52.32767105102539,333.0780944824219,-216.90045166015625,-379.7090148925781,-0.75,-63.750003814697266,13.200000762939453
5.86,60.48711013793945,-7.967903137207031,57.0777702331543,342.4042663574219,-233.0214385986328,-408.7534484863281,-0.30000001192092896,-64.5,14.250000953674316
5.87,62.555702209472656,-20.341136932373047,62.01940155029297,325.6171569824219,-248.60948181152344,-438.3307800292969,-0.30000001192092896,-64.5,14.250000953674316
5.889,68.91470336914062,-28.8453426361084,68.30178833007812,301.10260009765625,-251.67381286621094,-466.5758056640625,-4.650000095367432,-63.150001525878906,17.700000762939453
5.893,75.31201171875,-35.43418502807617,71.71112823486328,265.9295349121094,-246.21133422851562,-488.6921691894531,-7.950000286102295,-62.70000076293945,19.650001525878906
5.9,76.19307708740234,-39.4947509765625,71.09821319580078,260.3338317871094,-251.80703735351562,-487.49310302734375,-7.950000286102295,-62.70000076293945,19.650001525878906
5.91,75.46524047851562,-41.065345764160156,72.66880798339844,244.74578857421875,-226.62632751464844,-515.4716796875,-11.40000057220459,-61.95000076293945,21.450000762939453
5.92,76.42292022705078,-44.47468948364258,77.57213592529297,237.55130004882812,-206.90811157226562,-522.2664794921875,-11.40000057220459,-61.95000076293945,21.450000762939453
5.93,78.10843658447266,-46.54328155517578,82.4754638671875,237.6845245361328,-189.5880584716797,-536.921875,-11.40000057220459,-61.95000076293945,21.450000762939453
5.95,80.7899398803711,-49.07155990600586,82.93515014648438,236.08575439453125,-158.81163024902344,-546.3812866210938,-19.650001525878906,-58.500003814697266,24.450000762939453
5.953,83.7012939453125,-52.51920700073242,83.43314361572266,234.35374450683594,-134.16384887695312,-564.3674926757812,-27.30000114440918,-54.000003814697266,27.450000762939453
5.96,90.71151733398438,-55.085792541503906,80.56009674072266,237.81776428222656,-120.30780792236328,-556.5068969726562,-27.30000114440918,-54.000003814697266,27.450000762939453
5.97,93.16317749023438,-55.392250061035156,77.763671875,250.20826721191406,-91.79632568359375,-565.5665893554688,-31.80000114440918,-52.20000076293945,29.400001525878906
5.98,93.9676284790039,-53.89826965332031,71.8643569946289,259.4012145996094,-64.88361358642578,-538.787109375,-31.80000114440918,-52.20000076293945,29.400001525878906
5.99,95.07853698730469,-56.50315856933594,66.8844223022461,274.056640625,-67.814697265625,-534.1240234375,-36.45000076293945,-42.60000228881836,31.05000114440918
6.01,95.69145202636719,-59.37620162963867,62.09601593017578,295.3736572265625,-67.28177642822266,-513.073486328125,-37.80000305175781,-40.95000076293945,31.200000762939453
6.013,99.2157211303711,-57.805606842041016,55.73701477050781,298.4379577636719,-69.94640350341797,-497.4854431152344,-41.400001525878906,-33.45000076293945,32.55000305175781
6.02,100.63308715820312,-58.49513626098633,49.109867095947266,298.1715087890625,-64.3506851196289,-490.9571228027344,-41.400001525878906,-33.45000076293945,32.55000305175781
6.03,94.31239318847656,-59.87419509887695,48.26710510253906,292.5758056640625,-51.82695007324219,-474.3031921386719,-41.400001525878906,-33.45000076293945,32.55000305175781
6.04,84.42913055419922,-61.751251220703125,56.46485137939453,285.3813171386719,-41.035221099853516,-481.89739990234375,-43.80000305175781,-25.500001907348633,34.20000076293945
6.05,83.47145080566406,-60.90849304199219,58.18867874145508,243.81317138671875,-4.796324729919434,-476.16845703125,-42.900001525878906,-21.450000762939453,32.85000228881836
6.07,86.8041763305664,-70.10222625732422,57.26930618286133,186.25726318359375,10.92496109008789,-448.9892578125,-44.400001525878906,-17.100000381469727,35.400001525878906
6.074,87.26386260986328,-74.89063262939453,48.99494171142578,116.9770278930664,37.83767318725586,-412.7503662109375,-43.05000305175781,-10.800000190734863,36.0
6.08,85.23358154296875,-68.34009552001953,34.85957717895508,89.13169860839844,58.355281829833984,-413.6829833984375,-43.05000305175781,-10.800000190734863,36.0
6.09,86.95740509033203,-62.90046691894531,31.29700469970703,71.94486999511719,71.01225280761719,-383.7059631347656,-43.05000305175781,-10.800000190734863,36.0
6.1,92.43534088134766,-54.85594940185547,22.792800903320312,95.12710571289062,72.21133422851562,-331.74578857421875,-42.150001525878906,-4.350000381469727,35.85000228881836
6.11,99.9052505493164,-47.07958221435547,10.917559623718262,136.0290985107422,53.42572784423828,-292.309326171875,-39.30000305175781,-1.5,36.30000305175781
6.13,97.6068115234375,-41.02703857421875,-0.3064578175544739,184.92495727539062,55.02450180053711,-243.5467071533203,-40.20000076293945,0.15000000596046448,36.150001525878906
6.133,96.61082458496094,-42.061336517333984,-5.286397457122803,261.13323974609375,46.231239318847656,-160.01071166992188,-40.20000076293945,0.15000000596046448,36.150001525878906
6.14,95.57653045654297,-50.37400436401367,-3.600879430770874,292.0428771972656,48.49617004394531,-131.23277282714844,-37.5,5.400000095367432,36.30000305175781
6.15,91.59258270263672,-53.859962463378906,-0.15322890877723694,322.15313720703125,50.36140823364258,-71.01225280761719,-37.05000305175781,8.850000381469727,36.0
6.16,89.98367309570312,-55.58378601074219,0.15322890877723694,341.4716491699219,59.55436325073242,-25.580398559570312,-34.5,8.40000057220459,36.0
6.17,89.8304443359375,-54.702720642089844,-2.3367409706115723,366.3858947753906,46.231239318847656,31.575803756713867,-35.400001525878906,9.450000762939453,34.650001525878906
6.19,84.314208984375,-49.60786056518555,-2.2601263523101807,402.8912658691406,50.76110076904297,83.13629150390625,-35.400001525878906,9.450000762939453,34.650001525878906
6.194,80.02379608154297,-50.335697174072266,0.8427590131759644,437.1316833496094,49.29555892944336,134.03062438964844,-35.400001525878906,9.450000762939453,34.650001525878906
6.2,81.36454772949219,-53.055511474609375,-0.8427590131759644,452.3200378417969,41.434913635253906,166.2725830078125,-35.25,13.050000190734863,33.45000076293945
6.21,86.68925476074219,-55.698707580566406,0.5363011956214905,452.0535888671875,26.513015747070312,225.2940216064453,-33.30000305175781,13.500000953674316,32.25
6.22,105.88117218017578,-57.53745651245117,-6.703764915466309,384.6385803222656,6.261868000030518,290.8437805175781,-34.05000305175781,14.550000190734863,32.25
6.23,156.48501586914062,-43.05732345581055,11.03248119354248,182.52679443359375,-6.661561965942383,331.3460998535156,-34.95000076293945,13.65000057220459,32.10000228881836
6.25,195.213623046875,35.0128059387207,-59.98911666870117,238.084228515625,80.60489654541016,292.309326171875,-34.95000076293945,13.65000057220459,32.10000228881836
6.253,83.01176452636719,74.04786682128906,-10.649409294128418,325.2174377441406,74.8759536743164,225.69371032714844,-36.900001525878906,11.40000057220459,30.30000114440918
6.26,17.889474868774414,0.8427590131759644,-5.899312973022461,296.7059631347656,61.81929397583008,221.96324157714844,-34.95000076293945,12.15000057220459,29.850000381469727
6.27,51.7530632019043,-40.49073791503906,-0.07661445438861847,188.2557373046875,49.29555892944336,232.62173461914062,-35.55000305175781,11.100000381469727,30.450000762939453
6.28,79.71733856201172,-78.79796600341797,19.19192123413086,75.67534637451172,54.75803756713867,207.84072875976562,-36.150001525878906,11.40000057220459,28.80000114440918
6.29,90.78813171386719,-61.67463684082031,21.87342643737793,-4.796324729919434,58.222049713134766,197.18223571777344,-36.150001525878906,11.40000057220459,28.80000114440918
6.309,79.83226013183594,-30.68408966064453,16.70195198059082,-32.37519073486328,34.906585693359375,188.2557373046875,-36.0,10.050000190734863,29.700000762939453
6.313,69.10623931884766,10.189722061157227,-0.8427590131759644,9.592649459838867,31.176109313964844,136.82847595214844,-36.0,10.050000190734863,30.450000762939453
6.32,81.17301177978516,31.067161560058594,-3.4093432426452637,79.80551147460938,42.633995056152344,132.9647674560547,-36.150001525878906,8.25,28.80000114440918
6.33,83.43314361572266,11.453861236572266,8.96389102935791,159.61102294921875,74.74272155761719,134.03062438964844,-37.20000076293945,8.25,29.850000381469727
6.34,90.06028747558594,-24.554933547973633,15.322891235351562,122.43950653076172,78.47319793701172,160.2771759033203,-36.30000305175781,7.200000286102295,30.150001525878906
6.35,92.51195526123047,-40.7205810546875,4.481945514678955,42.633995056152344,74.07656860351562,160.54364013671875,-36.30000305175781,7.200000286102295,30.150001525878906
6.37,72.24742889404297,-23.82709503173828,11.951854705810547,30.24349021911621,77.14088439941406,134.83001708984375,-36.0,8.850000381469727,29.400001525878906
6.373,65.9267349243164,2.5282769203186035,8.274360656738281,69.67993927001953,66.74884796142578,117.9096450805664,-36.45000076293945,7.500000476837158,28.05000114440918
6.38,79.25765228271484,-5.477933406829834,16.35718536376953,122.70597076416016,37.97090148925781,119.5084228515625,-36.900001525878906,6.300000190734863,29.850000381469727
6.39,87.60862731933594,0.9576807022094727,6.435614109039307,110.04900360107422,60.48698043823242,97.7917251586914,-37.05000305175781,6.900000095367432,31.200000762939453
6.4,78.9511947631836,-21.56696891784668,34.20835494995117,72.61102294921875,41.30168533325195,101.2557373046875,-37.05000305175781,6.900000095367432,31.200000762939453
6.41,83.50975799560547,-27.351360321044922,-4.9799394607543945,31.575803756713867,40.23583221435547,80.33843994140625,-37.650001525878906,6.750000476837158,30.30000114440918
6.429,79.10442352294922,-19.19192123413086,5.669469833374023,15.721285820007324,34.24042892456055,57.422664642333984,-36.0,6.900000095367432,30.450000762939453
6.433,76.61445617675781,-2.5665841102600098,-5.784391403198242,72.74425506591797,23.315465927124023,71.2787094116211,-36.150001525878906,6.750000476837158,30.30000114440918
6.44,83.62467956542969,2.9879636764526367,6.627150535583496,66.74884796142578,33.17457962036133,59.55436325073242,-36.75,7.200000286102295,29.700000762939453
6.45,81.70931243896484,-4.788403511047363,4.8267107009887695,99.79019927978516,18.2526798248291,52.3598747253418,-36.75,7.200000286102295,30.150001525878906
6.46,83.35652923583984,-7.546523571014404,2.451662540435791,69.81317138671875,18.119447708129883,38.90352249145508,-36.75,7.200000286102295,30.150001525878906
6.47,75.9632339477539,-22.792800903320312,3.9456443786621094,60.35375213623047,17.453292846679688,42.500762939453125,-36.45000076293945,5.850000381469727,28.05000114440918
6.49,81.97746276855469,-15.591041564941406,-10.074800491333008,36.238895416259766,11.990811347961426,30.90964698791504,-36.45000076293945,7.050000190734863,29.55000114440918
6.493,78.18505096435547,-10.41956615447998,2.873042106628418,49.69525146484375,-5.329249382019043,20.251148223876953,-36.30000305175781,7.200000286102295,30.450000762939453
6.5,86.88079071044922,11.568782806396484,-15.514427185058594,48.8958625793457,33.70750427246094,15.055130004882812,-36.75,4.950000286102295,30.150001525878906
6.51,71.63451385498047,-4.252102375030518,18.34916114807129,90.4640121459961,8.526799201965332,17.986217498779297,-36.75,4.950000286102295,30.150001525878906
6.52,76.00154113769531,-1.072602391242981,-12.334927558898926,154.814697265625,10.92496109008789,20.784072875976562,-36.30000305175781,6.150000095367432,29.700000762939453
6.53,83.27991485595703,5.286397457122803,16.242263793945312,128.43490600585938,32.108726501464844,15.45482349395752,-36.900001525878906,6.750000476837158,28.500001907348633
6.551,71.59620666503906,-7.891288757324219,27.619510650634766,133.89739990234375,10.658498764038086,26.779478073120117,-36.75,6.900000095367432,28.650001525878906
6.555,82.4371566772461,-12.105083465576172,-3.5242648124694824,101.12251281738281,18.119447708129883,7.327718257904053,-35.70000076293945,7.800000190734863,28.500001907348633
6.56,69.10623931884766,-15.552734375,10.802638053894043,119.64165496826172,15.987748146057129,13.323123931884766,-35.70000076293945,7.800000190734863,28.500001907348633
6.57,74.54586791992188,-8.389283180236816,11.492168426513672,83.26952362060547,12.390504837036133,19.85145378112793,-36.45000076293945,7.050000190734863,28.80000114440918
6.58,80.8282470703125,-12.258312225341797,-13.905523300170898,63.684532165527344,5.995405673980713,11.724349021911621,-37.5,7.200000286102295,28.200000762939453
6.59,72.97526550292969,-11.1474027633667,-11.41555404663086,95.39356231689453,-3.4640121459960938,33.97396469116211,-37.80000305175781,6.900000095367432,27.900001525878906
6.609,77.22737121582031,-0.49799394607543945,-11.109095573425293,96.45941925048828,1.9984685182571411,24.248085021972656,-36.75,6.150000095367432,28.650001525878906
6.613,89.8687515258789,1.8770540952682495,-3.907337188720703,117.77641296386719,3.597243309020996,13.323123931884766,-37.650001525878906,5.850000381469727,29.55000114440918
6.62,83.39483642578125,-1.6855180263519287,25.51261329650879,81.53751373291016,9.859111785888672,9.326186180114746,-37.650001525878906,5.850000381469727,29.55000114440918
6.63,72.36235046386719,-17.697938919067383,9.998186111450195,71.41194152832031,5.462480545043945,13.456355094909668,-37.80000305175781,7.200000286102295,27.900001525878906
6.64,80.7899398803711,-12.449849128723145,14.556746482849121,57.02296829223633,15.854516983032227,-5.8621745109558105,-37.80000305175781,6.150000095367432,27.900001525878906
6.65,74.92893981933594,-4.6734819412231445,10.84094524383545,73.81010437011719,18.2526798248291,7.594180583953857,-37.650001525878906,7.500000476837158,28.80000114440918
6.67,72.13250732421875,10.304644584655762,3.7924153804779053,116.71056365966797,8.793261528015137,2.9310872554779053,-37.80000305175781,7.200000286102295,27.450000762939453
6.674,79.25765228271484,1.3024457693099976,-5.5545477867126465,134.96324157714844,10.92496109008789,10.125574111938477,-37.80000305175781,7.200000286102295,27.450000762939453
6.68,85.46342468261719,-11.951854705810547,-11.070788383483887,119.64165496826172,6.794793128967285,14.522205352783203,-37.20000076293945,6.300000190734863,28.05000114440918
6.69,85.31019592285156,-25.51261329650879,-10.036493301391602,82.33690643310547,-17.986217498779297,19.31852912902832,-36.30000305175781,7.200000286102295,27.450000762939453
6.7,100.78631591796875,-17.659631729125977,-13.713987350463867,73.9433364868164,20.784072875976562,6.395099639892578,-36.30000305175781,7.650000095367432,27.450000762939453
6.71,67.95702362060547,-12.832921028137207,47.57757568359375,17.053598403930664,-16.65390396118164,16.520673751831055,-37.20000076293945,7.500000476837158,27.30000114440918
6.729,86.26787567138672,-10.84094524383545,4.060565948486328,-11.724349021911621,-19.85145378112793,10.525267601013184,-37.5,6.900000095367432,27.900001525878906
6.733,82.70530700683594,-3.485957622528076,48.61186981201172,-36.63859176635742,-31.575803756713867,27.578866958618164,-37.5,6.900000095367432,27.900001525878906
6.74,68.26348114013672,10.84094524383545,45.54729461669922,-76.20826721191406,-31.575803756713867,26.912710189819336,-36.0,7.650000095367432,28.200000762939453
6.75,70.6002197265625,14.480132102966309,1.0342950820922852,-50.4946403503418,-26.379785537719727,46.897396087646484,-36.900001525878906,6.750000476837158,26.55000114440918
6.76,75.38862609863281,21.950040817260742,17.8128604888916,-0.2664624750614166,-32.37519073486328,76.20826721191406,-36.45000076293945,7.500000476837158,27.30000114440918
6.77,75.69508361816406,25.780763626098633,-2.6815059185028076,50.22817611694336,-27.978559494018555,91.3966293334961,-36.900001525878906,8.25,25.500001907348633
6.79,82.0923843383789,18.272546768188477,2.1068975925445557,77.27411651611328,-28.378253936767578,96.59264373779297,-36.900001525878906,8.25,25.500001907348633
6.793,86.53602600097656,-1.7621324062347412,3.4093432426452637,58.754974365234375,-40.502296447753906,105.25267791748047,-37.20000076293945,5.550000190734863,26.250001907348633
6.8,78.29997253417969,-8.389283180236816,14.97812557220459,53.29249572753906,-49.29555892944336,103.92036437988281,-37.20000076293945,5.550000190734863,26.250001907348633
6.81,75.08216857910156,-8.810662269592285,30.339323043823242,15.45482349395752,-48.49617004394531,89.7978515625,-37.650001525878906,6.300000190734863,27.750001907348633
6.82,74.16278839111328,-7.738059997558594,25.09123420715332,-8.39356803894043,-56.62327575683594,91.52986145019531,-39.150001525878906,6.750000476837158,25.80000114440918
6.83,69.02962493896484,-10.457873344421387,17.00840950012207,14.92189884185791,-64.21745300292969,106.31852722167969,-39.150001525878906,6.750000476837158,25.80000114440918
6.85,75.8866195678711,-8.274360656738281,0.9193734526634216,20.91730499267578,-84.06890869140625,122.70597076416016,-39.150001525878906,4.050000190734863,26.55000114440918
6.853,84.39082336425781,-8.810662269592285,-12.717999458312988,17.186830520629883,-71.2787094116211,120.4410400390625,-38.70000076293945,4.350000381469727,23.25
6.86,85.38681030273438,-23.75048065185547,0.8810662031173706,10.92496109008789,-99.25727081298828,133.49769592285156,-38.70000076293945,4.350000381469727,23.25
6.87,86.91909790039062,-18.579004287719727,-6.588842868804932,0.39969372749328613,-90.99693298339844,138.2940216064453,-39.150001525878906,2.8500001430511475,24.0
6.88,78.83627319335938,-11.30063247680664,3.9839515686035156,16.65390396118164,-95.12710571289062,110.98162078857422,-39.0,3.0,23.55000114440918
6.89,80.52178955078125,-21.56696891784668,-2.0685901641845703,12.790199279785156,-100.85604858398438,110.58192443847656,-39.0,3.0,23.55000114440918
6.909,83.43314361572266,-31.41192626953125,-7.086836814880371,-13.189892768859863,-106.85145568847656,100.05665588378906,-38.70000076293945,0.15000000596046448,21.450000762939453
6.913,90.40505981445312,-33.48051834106445,-13.560758590698242,-42.90045928955078,-114.97856140136719,100.18988800048828,-39.45000076293945,0.15000000596046448,21.75
6.92,94.35070037841797,-26.776752471923828,-6.627150535583496,-54.89126968383789,-144.95558166503906,104.98621368408203,-40.95000076293945,1.350000023841858,21.150001525878906
6.93,104.1190414428711,-12.90953540802002,-17.544710159301758,-13.58958625793457,-155.08116149902344,109.64930725097656,-40.95000076293945,1.350000023841858,21.150001525878906
6.94,109.63528442382812,-1.6089035272598267,-7.240066051483154,10.92496109008789,-154.54823303222656,119.64165496826172,-40.95000076293945,1.350000023841858,21.150001525878906
6.95,109.5203628540039,-7.316680431365967,-11.185709953308105,8.526799201965332,-139.7595672607422,118.30934143066406,-39.45000076293945,-1.350000023841858,20.700000762939453
6.97,100.59477996826172,-12.986149787902832,-12.143390655517578,-6.9280242919921875,-150.95098876953125,129.90045166015625,-39.75,-1.8000000715255737,19.5
6.973,102.24198913574219,-13.330915451049805,-15.437812805175781,-8.660030364990234,-156.28024291992188,142.95712280273438,-40.650001525878906,-1.350000023841858,16.650001525878906
6.98,101.16938781738281,0.0,-7.010222434997559,-2.531393527984619,-171.46859741210938,154.814697265625,-40.95000076293945,-2.4000000953674316,18.450000762939453
6.99,102.73998260498047,0.07661445438861847,-11.683704376220703,11.191424369812012,-176.39816284179688,163.20826721191406,-40.95000076293945,-2.4000000953674316,18.450000762939453
7.0,103.88919830322266,7.316680431365967,4.175487995147705,20.650842666625977,-198.9142303466797,183.99234008789062,-40.95000076293945,-3.6000001430511475,17.100000381469727
7.01,107.75823211669922,3.869029998779297,-3.9839515686035156,22.51607894897461,-203.57733154296875,186.79019165039062,-40.95000076293945,-5.100000381469727,15.15000057220459
7.029,107.75823211669922,0.3064578175544739,8.389283180236816,-0.6661561727523804,-210.50535583496094,203.57733154296875,-41.25,-4.200000286102295,16.05000114440918
7.033,107.37516021728516,6.971915245056152,12.334927558898926,-6.128636837005615,-213.4364471435547,197.848388671875,-40.05000305175781,-6.900000095367432,14.250000953674316
7.04,107.87315368652344,9.346963882446289,10.15141487121582,1.0658499002456665,-224.62786865234375,214.3690643310547,-40.05000305175781,-6.900000095367432,14.250000953674316
7.05,108.79252624511719,9.155426979064941,8.848969459533691,15.854516983032227,-220.76416015625,213.30320739746094,-40.80000305175781,-8.100000381469727,11.40000057220459
7.06,104.57872772216797,11.109095573425293,10.381258964538574,26.64624786376953,-219.29861450195312,214.63552856445312,-37.95000076293945,-7.500000476837158,12.300000190734863
7.07,102.73998260498047,22.48634147644043,11.951854705810547,64.21745300292969,-238.2174530029297,222.4961700439453,-38.55000305175781,-10.050000190734863,10.200000762939453
7.089,102.01214599609375,27.849353790283203,8.427590370178223,103.65390014648438,-264.73046875,246.477783203125,-40.05000305175781,-10.050000190734863,9.450000762939453
