time,accel_x,accel_y,accel_z,gyro_x,gyro_y,gyro_z,mag_x,mag_y,mag_z
0.0,0.0,0.0,0.0,0.0,0.0,0.0,32.400001525878906,29.55000114440918,20.700000762939453
0.018,-1.1109095811843872,65.42874145507812,40.069358825683594,-4.130168437957764,4.529861927032471,8.926492691040039,32.70000076293945,29.55000114440918,19.650001525878906
0.022,0.49799394607543945,65.96504211425781,40.145973205566406,-4.663093090057373,3.3307809829711914,9.859111785888672,32.70000076293945,29.55000114440918,19.650001525878906
0.029,-0.4213795065879822,65.888427734375,40.64396667480469,-11.058192253112793,12.25727367401123,-3.0643184185028076,32.70000076293945,29.55000114440918,19.650001525878906
0.039,-1.1492167711257935,66.8844223022461,41.37180709838867,-0.39969372749328613,5.462480545043945,-2.398162364959717,33.150001525878906,30.600000381469727,20.700000762939453
0.049,-0.19153612852096558,66.15657806396484,40.29920196533203,0.2664624750614166,6.395099639892578,-1.8652373552322388,31.650001525878906,27.600000381469727,21.75
0.059,-0.7661445140838623,66.15657806396484,41.180267333984375,-5.062787055969238,10.125574111938477,-1.4655436277389526,33.45000076293945,29.100000381469727,21.75
0.079,-1.1492167711257935,65.96504211425781,40.64396667480469,3.4640121459960938,3.86370587348938,7.06125545501709,32.70000076293945,29.100000381469727,21.75
0.083,-1.6855180263519287,65.8501205444336,40.988731384277344,1.0658499002456665,5.462480545043945,-3.9969370365142822,32.70000076293945,29.100000381469727,21.75
0.09,-0.4596867263317108,65.9267349243164,40.60565948486328,0.0,6.5283308029174805,-4.396630764007568,32.25,29.700000762939453,22.05000114440918
0.1,-1.4939818382263184,65.35212707519531,39.456443786621094,-2.531393527984619,10.392036437988281,0.1332312375307083,31.950000762939453,28.80000114440918,21.75
0.109,-1.9536685943603516,64.39444732666016,40.52904510498047,5.462480545043945,2.131699800491333,5.995405673980713,32.25,29.700000762939453,20.850000381469727
0.12,-1.6089035272598267,64.39444732666016,40.107666015625,-7.327718257904053,3.7304747104644775,-3.9969370365142822,32.400001525878906,28.80000114440918,20.400001525878906
0.139,0.15322890877723694,65.19889831542969,39.341522216796875,-6.5283308029174805,5.995405673980713,-7.327718257904053,32.400001525878906,28.80000114440918,20.400001525878906
0.143,-0.6512228846549988,64.89244079589844,40.29920196533203,-14.522205352783203,7.06125545501709,-5.595712184906006,32.55000305175781,28.200000762939453,20.55000114440918
0.15,-1.5322890281677246,66.30980682373047,40.758888244628906,-1.1990811824798584,3.3307809829711914,0.6661561727523804,31.650001525878906,30.30000114440918,21.150001525878906
0.159,-0.7661445140838623,66.30980682373047,41.29519271850586,-3.7304747104644775,6.9280242919921875,-9.059723854064941,33.30000305175781,28.950000762939453,20.850000381469727
0.169,0.3064578175544739,66.9610366821289,41.333499908447266,5.728943347930908,1.0658499002456665,3.0643184185028076,33.0,28.500001907348633,22.05000114440918
0.179,0.4596867263317108,65.54366302490234,40.452430725097656,8.39356803894043,-7.860642910003662,0.39969372749328613,31.200000762939453,31.05000114440918,20.700000762939453
0.199,0.0,66.4630355834961,40.758888244628906,-0.39969372749328613,7.72741174697876,-8.39356803894043,31.200000762939453,31.05000114440918,20.700000762939453
0.203,-0.5746083855628967,64.85413360595703,40.145973205566406,3.86370587348938,-1.8652373552322388,0.5329249501228333,31.80000114440918,28.950000762939453,19.5
0.21,-1.37906014919281,65.00736236572266,40.79719543457031,4.130168437957764,-3.197549819946289,-5.462480545043945,32.25,27.450000762939453,19.80000114440918
0.219,-1.1875240802764893,65.16059112548828,40.60565948486328,1.9984685182571411,1.7320060729980469,-5.595712184906006,32.70000076293945,29.100000381469727,18.450000762939453
0.229,-0.49799394607543945,64.81582641601562,40.873809814453125,-5.995405673980713,5.995405673980713,-0.39969372749328613,30.750001907348633,28.950000762939453,19.5
0.239,-1.072602391242981,67.03765106201172,40.79719543457031,2.531393527984619,0.0,3.4640121459960938,30.750001907348633,28.950000762939453,19.5
0.259,-0.9193734526634216,66.00334930419922,41.29519271850586,1.1990811824798584,0.0,8.260336875915527,32.400001525878906,29.55000114440918,20.700000762939453
0.263,-0.26815059781074524,65.62027740478516,40.95042419433594,5.062787055969238,-3.3307809829711914,2.797856092453003,32.55000305175781,28.500001907348633,22.05000114440918
0.27,0.07661445438861847,66.65457153320312,40.375816345214844,5.595712184906006,5.995405673980713,-3.197549819946289,31.05000114440918,29.250001907348633,19.05000114440918
0.279,-0.727837324142456,65.39043426513672,40.375816345214844,8.926492691040039,0.9326186776161194,1.8652373552322388,32.25,28.950000762939453,21.30000114440918
0.289,-1.9919757843017578,65.46704864501953,40.52904510498047,6.794793128967285,1.7320060729980469,9.859111785888672,32.25,28.950000762939453,21.30000114440918
0.3,-1.072602391242981,66.27149963378906,40.260894775390625,7.194486618041992,-0.7993874549865723,3.197549819946289,32.25,28.950000762939453,21.30000114440918
0.319,-0.15322890877723694,66.69288635253906,41.065345764160156,9.859111785888672,6.128636837005615,-0.2664624750614166,31.650001525878906,29.55000114440918,19.950000762939453
0.323,-1.455674648284912,64.58598327636719,40.49073791503906,10.125574111938477,5.462480545043945,0.2664624750614166,32.55000305175781,30.150001525878906,20.100000381469727
0.329,-1.9536685943603516,63.781532287597656,38.8818359375,-1.9984685182571411,9.326186180114746,-5.595712184906006,31.650001525878906,28.350000381469727,19.200000762939453
0.339,-2.719813108444214,64.81582641601562,39.26490783691406,-9.059723854064941,11.724349021911621,0.0,32.25,29.700000762939453,20.850000381469727
0.349,-1.6855180263519287,65.9267349243164,40.22258758544922,-1.5987749099731445,3.4640121459960938,3.86370587348938,32.25,29.700000762939453,20.850000381469727
0.359,-0.4213795065879822,65.62027740478516,40.873809814453125,-0.6661561727523804,4.663093090057373,4.796324729919434,31.650001525878906,30.30000114440918,21.450000762939453
0.379,-1.072602391242981,65.39043426513672,39.226600646972656,-10.392036437988281,9.592649459838867,-8.260336875915527,32.25,29.250001907348633,18.75
0.382,-0.6129156351089478,66.69288635253906,39.456443786621094,2.531393527984619,3.9969370365142822,-1.3323123455047607,30.750001907348633,28.500001907348633,20.100000381469727
0.389,0.15322890877723694,67.42072296142578,41.14196014404297,6.5283308029174805,-1.3323123455047607,1.9984685182571411,31.80000114440918,28.950000762939453,19.5
0.4,0.0,65.9267349243164,40.452430725097656,9.72588062286377,-5.062787055969238,2.9310872554779053,31.80000114440918,28.950000762939453,19.5
0.409,0.3447650372982025,65.00736236572266,41.25688552856445,8.526799201965332,3.0643184185028076,-9.992342948913574,31.05000114440918,30.150001525878906,19.05000114440918
0.419,-0.8427590131759644,65.00736236572266,40.29920196533203,7.194486618041992,-2.797856092453003,-0.7993874549865723,33.150001525878906,30.600000381469727,19.950000762939453
0.44,-0.19153612852096558,64.47106170654297,38.728607177734375,0.2664624750614166,7.860642910003662,-4.396630764007568,33.150001525878906,27.900001525878906,21.150001525878906
0.444,-2.030282974243164,63.74322509765625,40.107666015625,-1.5987749099731445,-3.597243309020996,-0.39969372749328613,32.25,29.700000762939453,19.80000114440918
0.45,-1.9536685943603516,63.62830352783203,40.375816345214844,1.8652373552322388,0.2664624750614166,1.1990811824798584,32.25,29.700000762939453,19.80000114440918
0.459,-1.3024457693099976,64.0113754272461,38.76691436767578,-3.4640121459960938,0.7993874549865723,10.392036437988281,32.25,29.700000762939453,19.80000114440918
0.47,-1.4939818382263184,64.73921203613281,40.452430725097656,-11.990811347961426,6.128636837005615,1.8652373552322388,32.25,29.250001907348633,20.850000381469727
0.479,-0.3064578175544739,66.80780792236328,40.758888244628906,-9.859111785888672,8.526799201965332,-7.72741174697876,30.900001525878906,29.850000381469727,19.650001525878906
0.499,-0.19153612852096558,67.61225891113281,40.375816345214844,2.797856092453003,0.1332312375307083,0.0,32.55000305175781,29.700000762939453,20.100000381469727
0.503,-0.6129156351089478,65.96504211425781,39.87782287597656,2.398162364959717,-1.7320060729980469,2.2649309635162354,31.80000114440918,30.450000762939453,20.100000381469727
0.51,-0.8810662031173706,66.99934387207031,39.226600646972656,0.39969372749328613,6.5283308029174805,3.4640121459960938,31.80000114440918,30.450000762939453,20.100000381469727
0.519,-1.4939818382263184,67.11426544189453,39.60967254638672,6.261868000030518,2.398162364959717,2.131699800491333,32.400001525878906,28.350000381469727,20.400001525878906
0.53,-0.8427590131759644,66.5013427734375,40.41412353515625,1.0658499002456665,3.7304747104644775,7.72741174697876,32.25,29.700000762939453,19.5
0.539,-0.8427590131759644,64.50936889648438,41.065345764160156,-3.0643184185028076,10.392036437988281,-3.0643184185028076,31.650001525878906,29.100000381469727,20.700000762939453
0.559,-1.3407529592514038,64.93074798583984,40.452430725097656,-0.1332312375307083,2.2649309635162354,1.9984685182571411,32.70000076293945,29.55000114440918,20.400001525878906
0.562,-0.9959878921508789,67.07595825195312,39.18829345703125,5.995405673980713,0.0,-4.929555892944336,32.70000076293945,29.55000114440918,20.400001525878906
0.569,-0.2298433631658554,66.57795715332031,40.069358825683594,-9.459418296813965,8.793261528015137,-4.263399600982666,32.70000076293945,29.55000114440918,20.400001525878906
0.579,-0.1149216815829277,66.99934387207031,40.33750915527344,-2.2649309635162354,9.059723854064941,-3.9969370365142822,32.400001525878906,30.30000114440918,20.400001525878906
0.589,-0.1149216815829277,66.8844223022461,39.57136535644531,5.728943347930908,3.9969370365142822,2.6646246910095215,32.400001525878906,28.350000381469727,20.400001525878906
0.608,-0.19153612852096558,65.46704864501953,38.19230651855469,-5.595712184906006,7.460949420928955,-3.7304747104644775,30.750001907348633,30.150001525878906,19.5
0.612,-0.38307225704193115,66.30980682373047,40.03105163574219,3.86370587348938,-2.131699800491333,-7.327718257904053,30.750001907348633,30.150001525878906,19.5
0.62,-0.6129156351089478,65.62027740478516,39.11167907714844,1.7320060729980469,0.5329249501228333,3.4640121459960938,30.750001907348633,30.150001525878906,19.5
0.629,-0.6512228846549988,63.93476104736328,41.065345764160156,1.3323123455047607,0.5329249501228333,-7.194486618041992,31.80000114440918,29.250001907348633,20.55000114440918
0.639,-1.0342950820922852,65.58197021484375,40.069358825683594,-6.395099639892578,2.398162364959717,-4.529861927032471,30.900001525878906,28.80000114440918,19.950000762939453
0.65,-1.1875240802764893,66.9610366821289,39.954437255859375,-5.595712184906006,0.1332312375307083,-12.923430442810059,32.70000076293945,29.55000114440918,19.200000762939453
0.66,-1.2258312702178955,65.9267349243164,40.375816345214844,5.062787055969238,-3.4640121459960938,-5.329249382019043,32.70000076293945,29.55000114440918,19.200000762939453
0.675,-0.6512228846549988,65.16059112548828,39.41813659667969,1.8652373552322388,2.2649309635162354,-3.4640121459960938,32.70000076293945,30.30000114440918,20.700000762939453
0.68,-1.4173674583435059,65.9267349243164,40.03105163574219,-8.260336875915527,6.128636837005615,0.6661561727523804,33.900001525878906,31.500001907348633,20.400001525878906
0.689,-0.9959878921508789,66.23319244384766,40.29920196533203,-1.5987749099731445,-4.263399600982666,1.5987749099731445,32.55000305175781,29.700000762939453,20.850000381469727
0.7,-1.5322890281677246,67.65056610107422,41.21857833862305,3.597243309020996,-1.3323123455047607,-2.797856092453003,32.25,28.500001907348633,18.75
0.71,-0.19153612852096558,65.00736236572266,40.95042419433594,-3.597243309020996,1.4655436277389526,-7.594180583953857,31.80000114440918,29.700000762939453,20.55000114440918
0.729,-1.1109095811843872,64.12629699707031,39.533058166503906,2.9310872554779053,-1.9984685182571411,0.1332312375307083,31.80000114440918,29.700000762939453,20.55000114440918
0.733,-2.75812029838562,65.77350616455078,40.18428039550781,-6.794793128967285,9.059723854064941,-4.663093090057373,33.0,28.950000762939453,20.850000381469727
0.74,-0.5363011956214905,66.30980682373047,40.069358825683594,-5.995405673980713,5.462480545043945,-1.5987749099731445,33.75,30.150001525878906,20.100000381469727
0.749,-0.8044517636299133,66.27149963378906,40.83550262451172,-5.595712184906006,5.595712184906006,-7.9938740730285645,32.25,30.150001525878906,19.80000114440918
0.759,-1.2258312702178955,66.11827087402344,40.069358825683594,-1.4655436277389526,-2.398162364959717,-0.6661561727523804,32.55000305175781,28.950000762939453,21.30000114440918
0.769,-2.5282769203186035,65.54366302490234,40.03105163574219,4.263399600982666,-1.0658499002456665,1.3323123455047607,32.55000305175781,28.950000762939453,21.30000114440918
0.788,-1.8387469053268433,66.15657806396484,39.91613006591797,0.6661561727523804,7.72741174697876,-3.597243309020996,32.70000076293945,29.100000381469727,19.650001525878906
0.792,-1.3024457693099976,65.39043426513672,39.533058166503906,-6.794793128967285,8.926492691040039,-5.595712184906006,31.950000762939453,27.900001525878906,18.900001525878906
1.054,-0.19153612852096558,65.54366302490234,39.07337188720703,3.0643184185028076,6.128636837005615,-7.327718257904053,31.05000114440918,30.450000762939453,20.100000381469727
1.063,-1.2258312702178955,65.50535583496094,40.758888244628906,1.0658499002456665,2.6646246910095215,-5.728943347930908,33.150001525878906,29.55000114440918,20.400001525878906
1.073,-0.49799394607543945,65.39043426513672,40.107666015625,1.3323123455047607,-6.9280242919921875,7.9938740730285645,33.0,30.450000762939453,19.80000114440918
1.093,0.4596867263317108,65.2372055053711,39.533058166503906,-7.72741174697876,6.395099639892578,-1.5987749099731445,31.500001907348633,28.500001907348633,19.950000762939453
1.096,-0.4213795065879822,66.65457153320312,39.11167907714844,-9.192955017089844,1.8652373552322388,-19.584991455078125,31.500001907348633,28.500001907348633,19.80000114440918
1.104,-0.8427590131759644,67.03765106201172,40.22258758544922,-2.2649309635162354,-4.796324729919434,-5.196018218994141,31.500001907348633,28.500001907348633,19.80000114440918
1.114,-0.4213795065879822,66.5396499633789,40.64396667480469,0.39969372749328613,-5.595712184906006,-2.131699800491333,31.80000114440918,30.150001525878906,18.75
1.124,-1.0342950820922852,65.96504211425781,40.03105163574219,0.9326186776161194,3.197549819946289,-4.929555892944336,33.75,29.700000762939453,20.100000381469727
1.134,-1.2258312702178955,66.07996368408203,38.8818359375,-2.398162364959717,0.39969372749328613,-7.9938740730285645,31.950000762939453,29.100000381469727,18.450000762939453
1.153,-0.6129156351089478,64.77751922607422,39.41813659667969,4.663093090057373,-2.531393527984619,6.661561965942383,31.950000762939453,29.100000381469727,18.450000762939453
1.158,-0.7661445140838623,66.30980682373047,40.22258758544922,5.995405673980713,-2.398162364959717,0.1332312375307083,32.55000305175781,29.250001907348633,18.75
1.164,-0.19153612852096558,64.43275451660156,39.41813659667969,-8.260336875915527,3.0643184185028076,-10.125574111938477,32.55000305175781,29.250001907348633,19.05000114440918
1.174,-2.2218191623687744,64.35614013671875,40.7205810546875,-3.3307809829711914,-5.062787055969238,5.595712184906006,32.55000305175781,30.150001525878906,18.30000114440918
1.183,-0.9576807022094727,65.12228393554688,40.33750915527344,-7.194486618041992,-4.663093090057373,3.597243309020996,31.650001525878906,29.55000114440918,20.400001525878906
1.194,-0.5363011956214905,66.84611511230469,39.149986267089844,-14.388973236083984,5.329249382019043,-9.72588062286377,31.650001525878906,29.55000114440918,20.400001525878906
1.213,0.15322890877723694,66.76950073242188,40.069358825683594,-0.5329249501228333,-3.9969370365142822,5.595712184906006,31.950000762939453,29.850000381469727,20.400001525878906
1.217,-1.9919757843017578,66.9610366821289,39.647979736328125,-3.597243309020996,-5.462480545043945,1.0658499002456665,32.25,28.500001907348633,19.5
1.224,-0.8044517636299133,66.8844223022461,40.52904510498047,-2.797856092453003,2.131699800491333,-5.995405673980713,31.650001525878906,30.30000114440918,19.200000762939453
1.234,-1.1492167711257935,67.76548767089844,39.37982940673828,5.462480545043945,7.06125545501709,-2.9310872554779053,31.500001907348633,28.950000762939453,19.80000114440918
1.244,-1.647210717201233,66.5396499633789,38.537071228027344,6.9280242919921875,-5.995405673980713,0.1332312375307083,32.25,29.250001907348633,19.05000114440918
1.254,-2.183511972427368,65.81181335449219,39.839515686035156,0.7993874549865723,-1.0658499002456665,0.39969372749328613,32.25,29.250001907348633,19.05000114440918
1.266,-1.8387469053268433,65.77350616455078,39.762901306152344,1.8652373552322388,0.6661561727523804,3.86370587348938,31.500001907348633,30.150001525878906,20.100000381469727
1.274,-2.4899697303771973,65.08397674560547,39.26490783691406,2.9310872554779053,-0.2664624750614166,-5.196018218994141,34.5,30.900001525878906,19.80000114440918
1.284,-1.37906014919281,66.07996368408203,39.30321502685547,-3.197549819946289,-6.794793128967285,-1.0658499002456665,31.80000114440918,28.200000762939453,19.05000114440918
1.294,-2.4133553504943848,65.12228393554688,39.226600646972656,-11.457886695861816,5.329249382019043,-2.398162364959717,31.650001525878906,29.850000381469727,20.400001525878906
1.304,-0.49799394607543945,66.73119354248047,40.069358825683594,-9.059723854064941,1.5987749099731445,-2.6646246910095215,31.650001525878906,29.850000381469727,20.400001525878906
1.314,-1.2641384601593018,67.42072296142578,40.29920196533203,2.131699800491333,2.131699800491333,1.4655436277389526,32.55000305175781,30.150001525878906,20.100000381469727
1.329,-1.1492167711257935,65.04566955566406,39.341522216796875,-8.660030364990234,6.5283308029174805,-3.4640121459960938,31.650001525878906,27.900001525878906,19.200000762939453
1.334,-0.8427590131759644,67.68887329101562,38.95845031738281,-8.526799201965332,1.9984685182571411,-9.859111785888672,31.05000114440918,30.150001525878906,20.100000381469727
1.344,-1.3407529592514038,66.99934387207031,39.60967254638672,2.398162364959717,-5.995405673980713,-4.263399600982666,32.70000076293945,28.350000381469727,20.700000762939453
1.354,-1.1875240802764893,66.23319244384766,38.15399932861328,0.7993874549865723,-2.9310872554779053,-9.592649459838867,31.200000762939453,29.850000381469727,19.950000762939453
1.364,-1.647210717201233,65.2755126953125,39.762901306152344,-8.260336875915527,4.263399600982666,-6.794793128967285,31.200000762939453,29.850000381469727,19.950000762939453
1.382,-1.5705963373184204,65.77350616455078,38.65199279785156,-7.72741174697876,2.6646246910095215,-4.663093090057373,32.25,29.250001907348633,20.850000381469727
1.386,-0.5363011956214905,66.38642120361328,38.8818359375,-7.194486618041992,4.663093090057373,-5.062787055969238,33.0,29.250001907348633,19.80000114440918
1.394,-2.6815059185028076,65.69689178466797,38.38384246826172,-3.197549819946289,4.929555892944336,-0.6661561727523804,33.75,29.250001907348633,18.30000114440918
1.404,-3.026270866394043,65.73519897460938,38.76691436767578,-2.6646246910095215,2.2649309635162354,0.5329249501228333,31.500001907348633,30.150001525878906,20.850000381469727
1.414,-2.030282974243164,65.16059112548828,37.73262023925781,3.9969370365142822,-5.728943347930908,6.128636837005615,31.500001907348633,30.150001525878906,20.850000381469727
1.424,-1.4173674583435059,63.93476104736328,39.30321502685547,-1.0658499002456665,2.531393527984619,6.794793128967285,32.70000076293945,30.30000114440918,19.650001525878906
1.434,-1.723825216293335,63.20692443847656,37.84754180908203,-12.790199279785156,3.9969370365142822,4.130168437957764,31.650001525878906,29.55000114440918,20.400001525878906
1.446,-2.9496564865112305,63.93476104736328,37.27293395996094,-5.062787055969238,-1.4655436277389526,19.185298919677734,31.500001907348633,28.950000762939453,19.80000114440918
1.454,-2.719813108444214,62.90046691894531,37.96246337890625,-12.523736000061035,-3.9969370365142822,16.387441635131836,32.70000076293945,29.55000114440918,19.950000762939453
1.464,-2.873042106628418,63.85814666748047,38.57537841796875,-19.85145378112793,1.5987749099731445,6.794793128967285,32.70000076293945,29.55000114440918,19.950000762939453
1.474,-1.6855180263519287,66.19488525390625,38.307228088378906,-20.117916107177734,6.261868000030518,10.525267601013184,32.70000076293945,29.55000114440918,19.950000762939453
1.484,-2.1068975925445557,66.00334930419922,38.65199279785156,-6.5283308029174805,-2.797856092453003,15.854516983032227,30.750001907348633,28.950000762939453,20.100000381469727
1.503,-1.5705963373184204,66.61626434326172,38.07738494873047,-6.395099639892578,-6.794793128967285,11.324655532836914,32.400001525878906,29.55000114440918,18.150001525878906
1.507,-2.183511972427368,65.77350616455078,38.49876403808594,-8.127105712890625,-8.127105712890625,19.31852912902832,32.70000076293945,29.55000114440918,19.650001525878906
1.514,-1.4173674583435059,67.42072296142578,38.69029998779297,0.5329249501228333,-11.591117858886719,14.92189884185791,32.55000305175781,30.450000762939453,19.80000114440918
1.524,-1.8770540952682495,67.03765106201172,38.57537841796875,4.396630764007568,-14.655436515808105,17.852985382080078,32.55000305175781,30.450000762939453,19.80000114440918
1.534,-0.8427590131759644,66.04165649414062,38.422149658203125,-2.131699800491333,-9.459418296813965,12.790199279785156,33.0,28.950000762939453,19.05000114440918
1.544,-1.072602391242981,65.2755126953125,38.99675750732422,0.7993874549865723,-8.526799201965332,15.987748146057129,31.200000762939453,29.55000114440918,20.700000762939453
1.563,-1.2641384601593018,65.81181335449219,38.115692138671875,4.529861927032471,-20.517610549926758,13.989279747009277,31.200000762939453,29.100000381469727,19.650001525878906
1.567,-1.3407529592514038,66.07996368408203,37.00477981567383,0.5329249501228333,-11.990811347961426,4.529861927032471,31.500001907348633,30.450000762939453,19.5
1.574,-1.1492167711257935,66.23319244384766,35.66402816772461,8.660030364990234,-14.788667678833008,8.39356803894043,31.500001907348633,30.450000762939453,19.5
1.584,-0.3447650372982025,66.07996368408203,34.93619155883789,11.591117858886719,-19.185298919677734,10.791729927062988,32.55000305175781,28.950000762939453,20.100000381469727
1.594,-0.5363011956214905,65.69689178466797,35.54910659790039,19.98468589782715,-25.580398559570312,15.45482349395752,30.900001525878906,29.55000114440918,19.950000762939453
1.604,-1.5705963373184204,66.30980682373047,35.395877838134766,17.852985382080078,-17.453292846679688,11.457886695861816,30.150001525878906,29.850000381469727,20.400001525878906
1.623,-2.3750481605529785,64.81582641601562,33.40390396118164,21.316997528076172,-23.848390579223633,11.058192253112793,31.500001907348633,30.450000762939453,19.5
1.627,-1.647210717201233,63.781532287597656,33.13574981689453,16.25421142578125,-33.57427215576172,5.462480545043945,30.900001525878906,31.80000114440918,19.650001525878906
1.634,-0.9576807022094727,63.781532287597656,31.756690979003906,27.71209716796875,-35.17304611206055,26.246553421020508,30.900001525878906,31.80000114440918,19.650001525878906
1.644,-2.4133553504943848,63.092002868652344,31.948226928710938,14.255742073059082,-30.110260009765625,26.513015747070312,30.450000762939453,31.05000114440918,19.200000762939453
1.654,-2.2218191623687744,63.32184600830078,31.488540649414062,15.188361167907715,-45.96477508544922,27.578866958618164,29.700000762939453,28.80000114440918,19.950000762939453
1.664,-0.7661445140838623,63.20692443847656,31.60346221923828,9.459418296813965,-45.56508255004883,43.03369140625,30.000001907348633,30.150001525878906,20.55000114440918
1.683,2.9496564865112305,66.4630355834961,30.032865524291992,-1.1990811824798584,-43.96630859375,44.63246536254883,29.700000762939453,31.05000114440918,19.950000762939453
1.687,4.137180328369141,67.95702362060547,29.879636764526367,2.2649309635162354,-55.55742645263672,49.16232681274414,29.700000762939453,31.05000114440918,19.950000762939453
1.694,7.201758861541748,69.22116088867188,29.879636764526367,8.39356803894043,-63.418067932128906,59.95405578613281,29.700000762939453,31.500001907348633,19.950000762939453
1.704,8.006210327148438,69.14454650878906,29.15180015563965,5.8621745109558105,-70.47932434082031,61.9525260925293,30.30000114440918,29.700000762939453,20.55000114440918
1.714,9.040505409240723,68.1485595703125,28.117504119873047,-3.0643184185028076,-65.41653442382812,60.48698043823242,28.500001907348633,31.650001525878906,20.850000381469727
1.723,8.236053466796875,66.15657806396484,25.933992385864258,-10.258805274963379,-77.54058074951172,63.018375396728516,28.80000114440918,30.150001525878906,20.100000381469727
1.743,7.1251444816589355,65.42874145507812,26.240449905395508,-10.658498764038086,-75.40888214111328,62.085758209228516,29.700000762939453,29.850000381469727,19.950000762939453
1.747,6.780379295349121,65.19889831542969,24.89969825744629,-8.39356803894043,-86.60030364990234,69.14701080322266,28.200000762939453,31.05000114440918,21.75
1.754,8.619126319885254,64.81582641601562,21.75850486755371,-2.6646246910095215,-91.3966293334961,68.74732208251953,28.200000762939453,31.05000114440918,21.75
1.764,9.385271072387695,64.58598327636719,20.915746688842773,20.517610549926758,-113.77947998046875,78.20673370361328,28.200000762939453,31.05000114440918,21.150001525878906
1.774,9.53849983215332,60.60203170776367,19.80483627319336,48.09647750854492,-127.63552856445312,80.73812866210938,28.80000114440918,31.200000762939453,21.600000381469727
1.784,10.879252433776855,57.307613372802734,18.579004287719727,75.14241790771484,-149.48544311523438,93.2618637084961,27.900001525878906,31.500001907348633,21.150001525878906
1.803,11.377246856689453,55.73701477050781,17.1999454498291,106.71822357177734,-179.595703125,105.5191421508789,27.900001525878906,31.500001907348633,21.150001525878906
1.806,16.66364288330078,56.426544189453125,18.77054214477539,128.83460998535156,-198.51454162597656,116.84379577636719,26.700000762939453,31.05000114440918,20.700000762939453
1.814,22.06496238708496,57.26930618286133,17.391481399536133,124.57120513916016,-199.5803985595703,127.90198516845703,26.700000762939453,31.05000114440918,20.700000762939453
1.824,23.44402313232422,54.97087097167969,18.387468338012695,110.848388671875,-205.84225463867188,147.22052001953125,24.900001525878906,32.25,20.400001525878906
1.834,21.030668258666992,50.144161224365234,16.931795120239258,94.9938735961914,-206.37518310546875,167.73812866210938,23.700000762939453,31.80000114440918,19.950000762939453
1.844,19.421764373779297,44.819454193115234,13.599065780639648,51.82695007324219,-189.9877471923828,166.93873596191406,23.700000762939453,31.80000114440918,19.950000762939453
1.863,19.421764373779297,40.91211700439453,13.828908920288086,8.260336875915527,-185.99081420898438,176.13169860839844,23.55000114440918,31.950000762939453,20.55000114440918
1.866,22.218191146850586,43.55531692504883,19.574993133544922,-27.17917251586914,-182.12710571289062,200.37977600097656,21.450000762939453,33.75,20.400001525878906
1.874,24.554933547973633,44.512996673583984,19.651607513427734,-53.026031494140625,-175.7320098876953,199.04747009277344,21.450000762939453,33.75,20.400001525878906
1.884,26.43198585510254,49.60786056518555,23.980323791503906,-82.07044219970703,-168.40428161621094,203.44410705566406,19.5,32.400001525878906,20.850000381469727
1.894,30.14778709411621,57.88222122192383,28.53888511657715,-94.0612564086914,-171.7350616455078,210.50535583496094,19.05000114440918,32.85000228881836,21.30000114440918
1.904,28.19411849975586,62.40247344970703,30.186094284057617,-90.86370086669922,-185.32464599609375,218.76568603515625,19.05000114440918,32.85000228881836,21.30000114440918
1.923,25.742456436157227,64.39444732666016,32.599449157714844,-100.9892807006836,-177.33078002929688,208.64012145996094,18.450000762939453,33.75,22.5
1.927,24.13355255126953,66.9227294921875,33.90189743041992,-85.13475799560547,-191.9862060546875,210.50535583496094,15.450000762939453,33.0,22.950000762939453
1.934,24.401702880859375,74.62248229980469,38.613685607910156,-79.13935852050781,-191.9862060546875,209.03981018066406,15.15000057220459,32.25,23.700000762939453
1.944,24.554933547973633,79.29595947265625,41.14196014404297,-54.4915771484375,-198.9142303466797,221.29708862304688,15.15000057220459,32.25,23.700000762939453
1.954,26.738445281982422,84.12267303466797,46.54328155517578,-44.76569747924805,-197.58192443847656,203.04440307617188,11.550000190734863,33.150001525878906,24.150001525878906
1.964,28.998571395874023,88.18323516845703,52.21274948120117,-31.042879104614258,-196.51608276367188,196.24961853027344,12.0,32.85000228881836,25.650001525878906
1.983,27.313053131103516,87.68524169921875,54.35795593261719,-10.258805274963379,-199.18069458007812,188.38897705078125,10.5,32.85000228881836,25.650001525878906
1.987,19.881450653076172,87.3787841796875,58.15037155151367,-14.12251091003418,-186.3905029296875,178.79632568359375,9.90000057220459,32.25,24.0
1.994,20.456058502197266,88.5663070678711,58.57175064086914,-25.580398559570312,-166.2725830078125,159.07809448242188,9.90000057220459,32.25,24.0
2.004,17.544710159301758,90.09859466552734,58.99312973022461,-30.776416778564453,-162.5421142578125,158.81163024902344,9.90000057220459,32.25,24.0
2.014,14.748282432556152,93.62286376953125,61.636329650878906,-41.434913635253906,-142.95712280273438,156.14700317382812,6.450000286102295,32.55000305175781,24.0
2.024,11.1474027633667,98.52619171142578,64.31783294677734,-62.8851432800293,-116.0444107055664,150.81776428222656,5.700000286102295,31.80000114440918,23.25
2.043,9.998186111450195,101.97383880615234,64.54767608642578,-63.551300048828125,-104.18682861328125,150.6845245361328,6.300000190734863,30.900001525878906,23.850000381469727
2.046,7.086836814880371,108.79252624511719,69.91069030761719,-49.82848358154297,-73.14395141601562,138.02755737304688,3.9000000953674316,32.25,24.750001907348633
2.054,6.818686485290527,111.3591079711914,70.29376220703125,-42.500762939453125,-53.558956146240234,122.57273864746094,3.9000000953674316,32.25,24.750001907348633
2.064,7.661445617675781,112.66155242919922,70.94498443603516,-16.78713607788086,-28.511484146118164,84.06890869140625,3.9000000953674316,31.500001907348633,25.200000762939453
2.078,6.856993675231934,115.419677734375,72.4772720336914,15.588054656982422,2.531393527984619,37.03828430175781,3.1500000953674316,31.05000114440918,24.750001907348633
2.084,2.873042106628418,117.79472351074219,70.75344848632812,37.83767318725586,13.456355094909668,3.0643184185028076,5.550000190734863,30.450000762939453,24.900001525878906
2.094,1.5322890281677246,114.50030517578125,70.5619125366211,61.15313720703125,48.62940216064453,-20.784072875976562,4.200000286102295,33.75,25.80000114440918
2.104,0.1149216815829277,114.11723327636719,70.48529815673828,77.14088439941406,78.20673370361328,-33.4410400390625,4.200000286102295,33.75,25.80000114440918
2.114,0.38307225704193115,108.60099029541016,67.5739517211914,74.20980072021484,99.65696716308594,-60.88667678833008,2.700000047683716,33.45000076293945,24.0
2.124,1.800439715385437,106.30255889892578,67.5739517211914,63.81776428222656,142.15773010253906,-83.40275573730469,3.450000047683716,30.600000381469727,24.450000762939453
2.142,2.9496564865112305,106.80055236816406,67.68887329101562,55.02450180053711,196.64930725097656,-115.11178588867188,4.650000095367432,31.500001907348633,23.700000762939453
2.146,6.052541732788086,103.00813293457031,68.91470336914062,55.02450180053711,198.24807739257812,-124.17151641845703,4.650000095367432,31.500001907348633,23.700000762939453
2.154,7.316680431365967,103.27628326416016,68.22517395019531,44.36600112915039,224.76109313964844,-146.68759155273438,5.700000286102295,32.55000305175781,24.750001907348633
2.164,10.5344877243042,101.97383880615234,69.56592559814453,38.23736572265625,244.612548828125,-170.13629150390625,5.700000286102295,32.55000305175781,24.750001907348633
2.174,17.92778205871582,104.04242706298828,70.06391906738281,58.754974365234375,255.80397033691406,-187.3231201171875,6.900000095367432,32.55000305175781,25.500001907348633
2.192,21.56696891784668,106.95378112792969,68.41670989990234,74.20980072021484,260.86676025390625,-200.91270446777344,7.200000286102295,33.0,25.200000762939453
2.196,22.448034286499023,104.38719177246094,67.19087982177734,100.72281646728516,267.7947998046875,-228.35833740234375,9.90000057220459,32.25,26.250001907348633
2.204,24.66985511779785,103.31459045410156,63.398460388183594,113.24655151367188,267.7947998046875,-243.41346740722656,10.200000762939453,32.55000305175781,25.80000114440918
2.214,26.470293045043945,99.36894989013672,63.589996337890625,148.68606567382812,259.5344543457031,-266.3292541503906,10.200000762939453,32.55000305175781,25.80000114440918
2.224,27.351360321044922,93.23979187011719,60.065731048583984,160.54364013671875,256.0704345703125,-283.5160827636719,12.0,31.950000762939453,24.150001525878906
2.234,27.46628189086914,83.85452270507812,56.04347229003906,161.47625732421875,250.74119567871094,-285.781005859375,13.800000190734863,34.80000305175781,23.100000381469727
2.244,29.64979362487793,74.50755310058594,51.982906341552734,156.94639587402344,229.82388305664062,-284.3154602050781,15.000000953674316,32.85000228881836,22.350000381469727
2.257,33.02082824707031,67.45903015136719,45.700523376464844,152.41653442382812,212.5038299560547,-278.4532775878906,18.150001525878906,34.20000076293945,22.950000762939453
2.264,35.510799407958984,60.1806526184082,38.49876403808594,148.55282592773438,202.3782501220703,-284.4486999511719,18.150001525878906,34.20000076293945,22.950000762939453
2.274,36.77493667602539,54.281341552734375,34.62973403930664,156.5467071533203,181.46095275878906,-270.0597229003906,19.05000114440918,34.35000228881836,22.80000114440918
2.284,36.8515510559082,50.68046188354492,21.26051139831543,210.50535583496094,163.0750274658203,-256.6033630371094,19.5,33.60000228881836,20.55000114440918
2.294,36.04710006713867,40.988731384277344,28.92195701599121,213.8361358642578,131.63246154785156,-245.14547729492188,21.450000762939453,34.20000076293945,21.150001525878906
2.312,38.000770568847656,24.823083877563477,9.768342971801758,214.10260009765625,136.29556274414062,-226.7595672607422,22.950000762939453,33.0,19.200000762939453
2.316,36.96647262573242,7.967903137207031,3.44765043258667,206.77488708496094,116.44409942626953,-211.0382843017578,23.700000762939453,35.25,18.150001525878906
2.324,35.93217849731445,-11.185709953308105,-1.6089035272598267,209.1730499267578,106.4517593383789,-181.8606414794922,23.700000762939453,35.25,18.150001525878906
2.333,34.85957717895508,-21.720197677612305,-9.53849983215332,186.65696716308594,114.3124008178711,-171.7350616455078,25.05000114440918,34.35000228881836,16.80000114440918
2.344,36.2003288269043,-32.369606018066406,-11.262324333190918,167.47166442871094,97.25880432128906,-139.09341430664062,25.950000762939453,34.20000076293945,17.700000762939453
2.354,40.91211700439453,-36.46847915649414,-16.05072784423828,157.0796356201172,73.41041564941406,-114.04593658447266,27.900001525878906,32.55000305175781,16.650001525878906
2.373,44.78114700317383,-35.31926345825195,-14.441824913024902,136.29556274414062,59.287899017333984,-73.67687225341797,27.450000762939453,33.75,14.850000381469727
2.377,51.63814163208008,-24.823083877563477,-15.591041564941406,115.51148223876953,18.78560447692871,-1.7320060729980469,27.450000762939453,33.75,14.850000381469727
2.384,59.60604476928711,-12.526463508605957,-14.403517723083496,105.78560638427734,4.263399600982666,25.846860885620117,29.250001907348633,31.950000762939453,15.450000762939453
2.394,63.66661071777344,-6.971915245056152,-12.641385078430176,86.3338394165039,-25.846860885620117,77.54058074951172,27.150001525878906,33.0,13.65000057220459
2.404,69.10623931884766,-4.481945514678955,-5.592854976654053,34.906585693359375,-49.02909469604492,94.86064147949219,27.750001907348633,33.60000228881836,14.250000953674316
2.414,73.58818054199219,-0.9576807022094727,-4.63517427444458,-17.32006072998047,-66.48238372802734,94.32771301269531,27.450000762939453,34.5,15.600000381469727
2.432,75.50354766845703,8.887276649475098,-0.4213795065879822,-66.21592712402344,-100.45635223388672,114.44563293457031,27.450000762939453,34.5,15.600000381469727
2.437,74.54586791992188,29.726408004760742,8.197746276855469,-119.7748794555664,-120.57427215576172,151.084228515625,27.450000762939453,34.5,15.600000381469727
2.444,76.26969146728516,54.81764221191406,14.288596153259277,-138.2940216064453,-139.35987854003906,172.2679901123047,25.200000762939453,34.5,13.65000057220459
2.454,77.26567840576172,65.04566955566406,15.131354331970215,-152.81622314453125,-151.2174530029297,196.51608276367188,27.150001525878906,34.20000076293945,14.100000381469727
2.464,75.19709014892578,74.04786682128906,17.8128604888916,-158.0122528076172,-171.7350616455078,229.95712280273438,25.500001907348633,33.60000228881836,13.950000762939453
2.474,72.93695831298828,83.35652923583984,19.99637222290039,-171.20213317871094,-175.0658416748047,225.96017456054688,25.200000762939453,33.75,16.350000381469727
2.493,70.86837005615234,95.65314483642578,20.456058502197266,-154.9479217529297,-184.5252685546875,239.949462890625,25.200000762939453,33.75,16.350000381469727
2.497,70.94498443603516,109.67359161376953,23.099258422851562,-118.17610931396484,-194.117919921875,240.61561584472656,19.80000114440918,35.10000228881836,17.25
2.504,71.44297790527344,126.10739135742188,27.88766098022461,-100.45635223388672,-192.11944580078125,236.7519073486328,19.80000114440918,35.10000228881836,18.0
2.514,73.0135726928711,132.8877716064453,29.64979362487793,-63.151607513427734,-201.71209716796875,239.1500701904297,19.950000762939453,34.5,17.100000381469727
2.523,72.20912170410156,141.8133544921875,32.063148498535156,-26.513015747070312,-223.56201171875,251.14088439941406,18.900001525878906,34.5,18.150001525878906
2.534,71.2514419555664,143.61380004882812,30.645782470703125,-9.859111785888672,-236.48544311523438,241.41500854492188,18.900001525878906,34.5,18.150001525878906
2.553,71.1748275756836,143.76702880859375,32.292991638183594,-6.5283308029174805,-242.6140899658203,238.6171417236328,15.450000762939453,36.150001525878906,19.200000762939453
2.558,68.7997817993164,142.73272705078125,34.32327651977539,19.98468589782715,-253.67227172851562,242.08116149902344,13.950000762939453,34.95000076293945,19.950000762939453
2.564,63.74322509765625,138.59555053710938,34.13174057006836,22.51607894897461,-265.1301574707031,235.4196014404297,13.950000762939453,34.95000076293945,19.950000762939453
2.574,58.9548225402832,136.71849060058594,35.510799407958984,20.117916107177734,-261.13323974609375,235.68606567382812,13.200000762939453,34.95000076293945,18.900001525878906
2.584,54.62610626220703,133.73052978515625,33.48051834106445,17.32006072998047,-264.4640197753906,234.0872802734375,10.65000057220459,34.20000076293945,19.650001525878906
2.594,48.956634521484375,127.14168548583984,31.7183837890625,19.85145378112793,-274.7228088378906,245.67840576171875,10.65000057220459,34.20000076293945,19.650001525878906
2.613,44.398075103759766,122.46820831298828,30.0711727142334,15.188361167907715,-275.7886657714844,242.21438598632812,8.700000762939453,35.25,19.200000762939453
2.617,39.30321502685547,118.10118103027344,31.7183837890625,22.249616622924805,-285.3813171386719,238.2174530029297,6.750000476837158,34.80000305175781,19.5
2.624,31.450233459472656,109.55867004394531,28.768728256225586,18.78560447692871,-287.1133117675781,245.67840576171875,6.750000476837158,34.80000305175781,19.5
2.634,26.01060676574707,102.77828979492188,27.88766098022461,8.926492691040039,-285.91424560546875,250.74119567871094,5.400000095367432,35.25,18.900001525878906
2.644,17.92778205871582,91.5159683227539,24.554933547973633,-14.655436515808105,-263.66461181640625,235.9525146484375,5.400000095367432,35.25,18.900001525878906
2.654,7.6997528076171875,82.24561309814453,21.26051139831543,-23.848390579223633,-267.7947998046875,235.8192901611328,3.450000047683716,34.95000076293945,18.450000762939453
2.673,1.723825216293335,73.58818054199219,21.6818904876709,-39.43644714355469,-257.8024597167969,235.68606567382812,1.9500000476837158,33.0,18.150001525878906
2.676,-4.252102375030518,70.90667724609375,21.528661727905273,-42.101070404052734,-255.40428161621094,236.7519073486328,0.15000000596046448,32.55000305175781,18.450000762939453
2.684,-9.308655738830566,67.42072296142578,19.68991470336914,-47.163856506347656,-236.88514709472656,221.96324157714844,0.15000000596046448,32.55000305175781,18.450000762939453
2.694,-12.564770698547363,66.9610366821289,18.502389907836914,-39.30321502685547,-226.89279174804688,229.69065856933594,-2.4000000953674316,32.55000305175781,18.450000762939453
2.704,-14.441824913024902,63.20692443847656,18.732234954833984,-28.24502182006836,-216.90045166015625,215.7013702392578,-2.4000000953674316,32.55000305175781,18.450000762939453
2.714,-17.12333106994629,59.031436920166016,15.131354331970215,-22.116384506225586,-185.19142150878906,194.51760864257812,-3.750000238418579,31.650001525878906,19.05000114440918
2.733,-16.47210693359375,56.80961608886719,11.338939666748047,-5.062787055969238,-166.53904724121094,179.4624786376953,-4.5,31.650001525878906,19.05000114440918
2.737,-15.322891235351562,57.15438461303711,16.395492553710938,25.980091094970703,-139.6263427734375,141.89126586914062,-5.700000286102295,31.05000114440918,18.450000762939453
2.744,-15.820884704589844,55.085792541503906,12.832921028137207,32.77488327026367,-128.83460998535156,128.7013702392578,-5.700000286102295,31.05000114440918,18.450000762939453
2.754,-19.460071563720703,52.44259262084961,11.836933135986328,31.042879104614258,-98.85757446289062,100.18988800048828,-5.700000286102295,31.05000114440918,18.450000762939453
2.764,-22.562957763671875,46.27513122558594,15.437812805175781,9.459418296813965,-84.60183715820312,76.20826721191406,-8.700000762939453,30.30000114440918,16.350000381469727
2.774,-23.52063751220703,46.35174560546875,22.48634147644043,2.2649309635162354,-60.48698043823242,46.63093185424805,-7.950000286102295,31.05000114440918,16.350000381469727
2.793,-25.474306106567383,47.99895477294922,23.482330322265625,-9.859111785888672,-28.77794647216797,11.191424369812012,-7.800000190734863,31.650001525878906,17.25
2.796,-28.807035446166992,44.704532623291016,23.558944702148438,-23.581928253173828,-0.1332312375307083,-35.57273864746094,-7.800000190734863,31.650001525878906,17.25
2.804,-30.530860900878906,48.57356262207031,20.609289169311523,-28.378253936767578,12.390504837036133,-45.16539001464844,-7.800000190734863,31.650001525878906,17.25
2.814,-30.722396850585938,51.94459915161133,18.157625198364258,-38.77029037475586,41.568145751953125,-94.72740936279297,-9.15000057220459,28.350000381469727,18.450000762939453
2.824,-29.726408004760742,55.73701477050781,15.897499084472656,-30.24349021911621,61.81929397583008,-123.9050521850586,-7.200000286102295,30.30000114440918,16.350000381469727
2.834,-24.44001007080078,64.7009048461914,18.272546768188477,3.7304747104644775,67.94792938232422,-136.0290985107422,-7.950000286102295,29.850000381469727,16.350000381469727
2.853,-20.072986602783203,74.77571105957031,20.379444122314453,14.655436515808105,77.94027709960938,-161.7427215576172,-6.0,29.250001907348633,18.0
2.857,-9.040505409240723,82.93515014648438,20.877439498901367,34.50688934326172,93.12863159179688,-185.72434997558594,-6.0,29.250001907348633,18.0
2.864,6.090848922729492,95.30838012695312,31.41192626953125,54.89126968383789,92.72894287109375,-188.52220153808594,-4.800000190734863,31.200000762939453,18.0
2.874,14.36521053314209,99.866943359375,34.74465560913086,66.21592712402344,100.45635223388672,-211.30474853515625,-5.400000095367432,31.05000114440918,17.700000762939453
2.884,27.313053131103516,105.22994995117188,41.71657180786133,58.62174606323242,116.44409942626953,-236.08575439453125,-5.700000286102295,29.850000381469727,17.400001525878906
2.894,40.452430725097656,111.81879425048828,47.15619659423828,49.69525146484375,136.69525146484375,-254.73812866210938,-4.050000190734863,31.200000762939453,18.30000114440918
2.913,51.59983444213867,122.0085220336914,49.37801742553711,32.24195861816406,161.34303283691406,-268.9938659667969,-4.050000190734863,31.200000762939453,18.30000114440918
2.917,66.73119354248047,136.9866485595703,46.658203125,-9.592649459838867,220.76416015625,-299.7702941894531,-1.5,31.650001525878906,19.80000114440918
2.924,71.44297790527344,138.55723571777344,49.18648147583008,-7.594180583953857,241.0153045654297,-331.2128601074219,-1.0500000715255737,32.85000228881836,18.30000114440918
2.934,78.07012939453125,141.39198303222656,52.86397171020508,3.197549819946289,257.13629150390625,-364.92034912109375,0.75,30.900001525878906,19.80000114440918
2.944,78.52981567382812,152.3861541748047,55.813629150390625,31.309341430664062,271.2587890625,-392.89892578125,2.4000000953674316,31.500001907348633,19.200000762939453
2.954,79.52580261230469,158.43869018554688,59.26128005981445,67.814697265625,273.25726318359375,-395.9632263183594,2.5500001907348633,32.85000228881836,20.850000381469727
2.969,82.55207824707031,156.59994506835938,60.60203170776367,103.25421142578125,287.3797912597656,-410.75189208984375,2.5500001907348633,32.85000228881836,20.850000381469727
2.974,83.7012939453125,146.48683166503906,58.724979400634766,111.91423797607422,285.91424560546875,-410.8851318359375,4.800000190734863,33.900001525878906,20.850000381469727
2.984,81.97746276855469,143.15411376953125,56.92454147338867,119.37519073486328,288.71209716796875,-414.2159118652344,7.800000190734863,33.150001525878906,21.600000381469727
2.994,78.72135162353516,134.9946746826172,53.208740234375,110.71515655517578,306.1653747558594,-424.8744201660156,10.800000190734863,33.900001525878906,22.05000114440918
3.003,73.51156616210938,126.75861358642578,49.79939651489258,100.72281646728516,310.42877197265625,-413.949462890625,11.550000190734863,33.150001525878906,20.55000114440918
3.014,69.45100402832031,119.51854705810547,46.390052795410156,87.13323211669922,318.42266845703125,-410.4854431152344,11.550000190734863,33.150001525878906,20.55000114440918
3.033,66.38642120361328,115.34306335449219,44.206539154052734,67.814697265625,319.2220458984375,-394.76416015625,18.150001525878906,33.45000076293945,20.700000762939453
3.036,61.40648651123047,101.82061004638672,37.96246337890625,64.61714935302734,318.02294921875,-393.5650634765625,18.150001525878906,33.45000076293945,20.700000762939453
3.044,60.257266998291016,98.87095642089844,35.54910659790039,59.95405578613281,310.0290832519531,-373.9800720214844,18.900001525878906,34.95000076293945,20.400001525878906
3.054,59.06974411010742,94.69546508789062,33.02082824707031,55.95711898803711,306.1653747558594,-369.5834655761719,20.55000114440918,34.80000305175781,20.850000381469727
3.064,57.03946304321289,89.02599334716797,30.91393280029297,63.950992584228516,286.9800720214844,-353.0627746582031,20.55000114440918,34.80000305175781,20.850000381469727
3.074,55.507171630859375,82.0540771484375,26.54690933227539,76.74119567871094,262.865234375,-321.22052001953125,20.55000114440918,34.80000305175781,20.850000381469727
3.086,52.09782791137695,73.47325897216797,21.87342643737793,72.61102294921875,242.21438598632812,-291.2434997558594,25.05000114440918,33.150001525878906,20.100000381469727
3.094,47.615882873535156,59.60604476928711,15.744270324707031,58.4885139465332,242.08116149902344,-272.9908142089844,27.30000114440918,32.400001525878906,20.100000381469727
3.104,44.28315353393555,49.99093246459961,12.986149787902832,47.297088623046875,236.61868286132812,-245.545166015625,28.650001525878906,34.20000076293945,20.400001525878906
3.114,37.88584899902344,42.367794036865234,-2.873042106628418,56.62327575683594,239.016845703125,-213.30320739746094,28.950000762939453,33.75,20.400001525878906
3.124,39.60967254638672,31.756690979003906,18.004396438598633,38.90352249145508,220.36447143554688,-193.58499145507812,28.950000762939453,33.75,20.400001525878906
3.134,44.35976791381836,20.30282974243164,8.887276649475098,26.379785537719727,214.10260009765625,-155.747314453125,31.950000762939453,32.25,19.950000762939453
3.149,49.14817428588867,9.461885452270508,4.63517427444458,24.248085021972656,191.71975708007812,-108.18376159667969,34.05000305175781,31.950000762939453,19.05000114440918
3.154,48.841712951660156,-5.784391403198242,1.4939818382263184,27.978559494018555,185.72434997558594,-94.0612564086914,34.05000305175781,31.950000762939453,19.05000114440918
3.164,47.04127502441406,-9.576807022094727,-2.3750481605529785,18.91883659362793,173.2006072998047,-66.74884796142578,32.70000076293945,31.05000114440918,17.700000762939453
3.174,44.47468948364258,-18.732234954833984,-6.512228488922119,16.12097930908203,155.747314453125,-57.422664642333984,32.70000076293945,31.05000114440918,17.700000762939453
3.184,41.83149337768555,-23.712173461914062,-8.887276649475098,10.791729927062988,138.16079711914062,-31.842266082763672,32.70000076293945,31.05000114440918,17.700000762939453
3.203,40.452430725097656,-29.03687858581543,-13.905523300170898,-4.130168437957764,132.16539001464844,-27.71209716796875,33.900001525878906,31.80000114440918,17.700000762939453
3.207,39.41813659667969,-31.948226928710938,-17.50640296936035,-23.848390579223633,112.18070220947266,-6.661561965942383,34.5,31.950000762939453,17.55000114440918
3.214,40.18428039550781,-29.419950485229492,-22.869415283203125,-25.980091094970703,97.65850067138672,8.793261528015137,34.20000076293945,31.500001907348633,18.150001525878906
3.224,42.1379508972168,-24.631547927856445,-21.0689754486084,-38.50382614135742,72.74425506591797,30.24349021911621,34.5,31.650001525878906,17.55000114440918
3.234,44.43638229370117,-16.89348793029785,-20.95405387878418,-31.309341430664062,44.63246536254883,32.5084228515625,34.5,31.650001525878906,17.55000114440918
3.244,47.615882873535156,-6.89530086517334,-21.75850486755371,-9.72588062286377,-5.462480545043945,66.48238372802734,36.30000305175781,32.85000228881836,18.75
3.264,50.22077560424805,1.37906014919281,-19.574993133544922,2.9310872554779053,-53.69218826293945,76.60796356201172,34.5,31.200000762939453,20.100000381469727
3.267,53.59181213378906,11.453861236572266,-14.173673629760742,7.327718257904053,-103.92036437988281,114.84532928466797,33.30000305175781,33.900001525878906,18.30000114440918
3.274,61.21495056152344,26.43198585510254,-4.32871675491333,-4.929555892944336,-130.1669158935547,140.02603149414062,33.30000305175781,33.900001525878906,18.30000114440918
3.284,64.35614013671875,33.48051834106445,-1.37906014919281,-33.84073257446289,-166.80551147460938,173.33384704589844,33.30000305175781,33.900001525878906,18.30000114440918
3.294,67.91871643066406,47.15619659423828,-1.2258312702178955,-79.13935852050781,-181.72740173339844,200.37977600097656,33.900001525878906,33.45000076293945,18.450000762939453
3.304,71.09821319580078,61.866172790527344,-0.4213795065879822,-123.50535583496094,-182.39356994628906,225.42726135253906,33.150001525878906,34.20000076293945,18.450000762939453
3.323,73.6264877319336,75.3503189086914,3.7158010005950928,-156.81317138671875,-190.9203643798828,243.679931640625,31.650001525878906,34.95000076293945,19.200000762939453
3.327,76.19307708740234,88.79615020751953,3.9456443786621094,-191.8529815673828,-186.3905029296875,253.4058074951172,28.950000762939453,34.95000076293945,21.450000762939453
3.334,76.15476989746094,100.70970153808594,8.580819129943848,-190.65390014648438,-189.1883544921875,256.0704345703125,28.950000762939453,34.95000076293945,21.450000762939453
3.344,74.04786682128906,105.91948699951172,9.998186111450195,-194.38436889648438,-196.78253173828125,255.67074584960938,28.950000762939453,34.95000076293945,21.450000762939453
3.354,72.4772720336914,118.21610260009766,14.709975242614746,-180.9280242919922,-203.17764282226562,256.86981201171875,26.700000762939453,35.25,22.200000762939453
3.364,71.90266418457031,131.31716918945312,20.570980072021484,-150.151611328125,-221.03062438964844,274.18988037109375,25.80000114440918,36.30000305175781,24.150001525878906
3.384,71.2514419555664,142.3496551513672,24.66985511779785,-115.37825012207031,-226.7595672607422,288.71209716796875,25.05000114440918,36.30000305175781,24.150001525878906
3.387,69.60423278808594,148.2872772216797,26.66183090209961,-65.016845703125,-251.80703735351562,281.2511291503906,23.55000114440918,37.05000305175781,24.900001525878906
3.394,67.65056610107422,152.654296875,29.075185775756836,-32.108726501464844,-268.8606262207031,294.8407287597656,23.55000114440918,37.05000305175781,24.900001525878906
3.404,69.56592559814453,153.07568359375,29.611486434936523,1.5987749099731445,-283.915771484375,290.7105712890625,21.450000762939453,37.20000076293945,26.250001907348633
3.414,70.37037658691406,149.9344940185547,31.258697509765625,33.17457962036133,-292.7090148925781,301.76873779296875,17.400001525878906,35.70000076293945,24.450000762939453
3.424,66.07996368408203,140.0895233154297,32.178070068359375,33.04134750366211,-313.8927917480469,312.0275573730469,16.200000762939453,36.900001525878906,24.450000762939453
3.443,60.985107421875,131.0873260498047,27.964275360107422,9.059723854064941,-309.2297058105469,320.28790283203125,15.000000953674316,37.80000305175781,24.900001525878906
3.447,53.361968994140625,125.87754821777344,28.07919692993164,-21.583459854125977,-314.0260314941406,340.13934326171875,15.000000953674316,37.80000305175781,24.900001525878906
3.454,45.35575866699219,119.7100830078125,28.8453426361084,-40.102603912353516,-302.3016662597656,337.0750427246094,15.000000953674316,37.80000305175781,24.900001525878906
3.464,41.71657180786133,116.45397186279297,29.76471519470215,-53.42572784423828,-305.2327575683594,356.3935546875,8.550000190734863,34.80000305175781,23.55000114440918
3.474,35.089420318603516,110.59296417236328,31.794998168945312,-70.3460922241211,-293.7748718261719,345.6018371582031,7.500000476837158,36.60000228881836,25.350000381469727
3.484,27.427974700927734,108.33283996582031,25.359384536743164,-62.8851432800293,-282.84991455078125,357.8591003417969,6.450000286102295,37.650001525878906,24.450000762939453
3.503,19.651607513427734,106.80055236816406,32.86759948730469,-40.23583221435547,-293.64166259765625,374.9126892089844,3.1500000953674316,36.45000076293945,24.750001907348633
3.507,10.342951774597168,95.49991607666016,33.7869758605957,-31.176109313964844,-273.7901916503906,370.1163635253906,0.45000001788139343,35.25,24.750001907348633
3.514,-1.6089035272598267,82.4754638671875,28.155811309814453,-35.705970764160156,-250.87442016601562,354.39508056640625,0.45000001788139343,35.25,24.750001907348633
3.524,-3.6391866207122803,79.44918823242188,28.309040069580078,-29.044410705566406,-252.87289428710938,365.85296630859375,-0.15000000596046448,35.25,23.700000762939453
3.534,-5.056553840637207,75.65677642822266,22.2948055267334,-40.102603912353516,-232.0888214111328,338.0076599121094,-5.25,33.150001525878906,25.650001525878906
3.544,-7.7763671875,74.81401824951172,19.881450653076172,-56.49004364013672,-189.85450744628906,318.02294921875,-5.25,33.150001525878906,24.150001525878906
3.563,-13.139378547668457,72.4772720336914,20.41775131225586,-68.34762573242188,-173.33384704589844,317.49005126953125,-5.25,33.150001525878906,24.150001525878906
3.566,-18.617311477661133,68.03363800048828,19.536685943603516,-90.06431579589844,-131.36599731445312,261.9326171875,-9.90000057220459,33.45000076293945,23.25
3.574,-24.89969825744629,59.18466567993164,19.153614044189453,-98.05818939208984,-118.44257354736328,225.8269500732422,-9.75,31.200000762939453,25.350000381469727
3.584,-29.76471519470215,55.813629150390625,20.226215362548828,-103.25421142578125,-101.65543365478516,195.71669006347656,-12.0,30.900001525878906,24.150001525878906
3.594,-39.18829345703125,54.089805603027344,18.923770904541016,-91.3966293334961,-98.19142150878906,151.75038146972656,-13.200000762939453,30.30000114440918,24.450000762939453
3.604,-45.62390899658203,52.02121353149414,23.865402221679688,-78.20673370361328,-90.86370086669922,120.4410400390625,-13.200000762939453,30.30000114440918,24.450000762939453
3.623,-46.313438415527344,58.839900970458984,26.738445281982422,-42.23430252075195,-74.34303283691406,97.65850067138672,-14.700000762939453,31.500001907348633,25.500001907348633
3.627,-63.51338195800781,58.533443450927734,23.63555908203125,-14.655436515808105,-65.54976654052734,46.364471435546875,-14.250000953674316,30.900001525878906,24.600000381469727
3.634,-56.618080139160156,59.72096633911133,22.524648666381836,-9.326186180114746,-48.62940216064453,34.64012145996094,-15.750000953674316,30.900001525878906,23.850000381469727
3.644,-50.48892593383789,60.90849304199219,20.915746688842773,-21.716691970825195,-10.791729927062988,-1.8652373552322388,-15.000000953674316,30.450000762939453,25.350000381469727
3.654,-40.145973205566406,62.479087829589844,19.651607513427734,-34.64012145996094,19.31852912902832,-32.108726501464844,-15.000000953674316,30.450000762939453,25.350000381469727
3.664,-32.75267791748047,69.48931121826172,22.984336853027344,-53.558956146240234,60.22052001953125,-55.02450180053711,-16.950000762939453,30.600000381469727,24.450000762939453
3.683,-26.585216522216797,80.59840393066406,27.198131561279297,-38.77029037475586,85.80091857910156,-77.80704498291016,-14.700000762939453,29.850000381469727,24.750001907348633
3.686,-16.242263793945312,92.89502716064453,33.7486686706543,-7.594180583953857,117.9096450805664,-110.71515655517578,-14.550000190734863,30.450000762939453,26.100000381469727
3.694,6.01423454284668,112.08694458007812,43.785160064697266,35.439510345458984,125.23736572265625,-127.76875305175781,-14.550000190734863,31.650001525878906,27.900001525878906
3.704,23.75048065185547,121.62545013427734,52.51920700073242,78.73966217041016,131.89892578125,-163.87442016601562,-14.250000953674316,32.400001525878906,27.450000762939453
3.714,47.96064758300781,130.24456787109375,57.46084213256836,98.72434997558594,158.67840576171875,-205.04287719726562,-14.250000953674316,32.400001525878906,27.450000762939453
3.724,69.71915435791016,140.779052734375,56.2733154296875,107.65084075927734,189.85450744628906,-264.59722900390625,-12.0,32.400001525878906,26.850000381469727
3.743,79.79395294189453,144.22671508789062,52.02121353149414,119.10872650146484,227.6921844482422,-298.30474853515625,-11.40000057220459,33.75,27.000001907348633
3.747,98.83264923095703,140.81736755371094,52.595821380615234,93.52832794189453,251.4073486328125,-374.646240234375,-10.5,33.900001525878906,28.200000762939453
3.754,105.84286499023438,148.17234802246094,59.10805130004883,127.63552856445312,260.4670715332031,-370.915771484375,-9.300000190734863,35.10000228881836,27.900001525878906
3.764,104.08073425292969,153.9567413330078,61.40648651123047,161.34303283691406,253.67227172851562,-379.5758056640625,-9.300000190734863,35.10000228881836,27.900001525878906
3.774,103.69766235351562,147.09974670410156,61.71294403076172,173.73353576660156,253.4058074951172,-389.3016662597656,-4.650000095367432,37.650001525878906,27.30000114440918
3.784,101.32261657714844,139.93629455566406,58.87820816040039,167.87135314941406,268.59417724609375,-402.22509765625,-3.0,38.55000305175781,27.900001525878906
3.803,98.71772766113281,132.08331298828125,53.13212585449219,163.20826721191406,276.32159423828125,-413.6829833984375,-0.30000001192092896,40.20000076293945,27.450000762939453
3.806,97.10881805419922,129.74658203125,51.369991302490234,163.87442016601562,274.9892883300781,-419.1454772949219,1.8000000715255737,38.25,26.100000381469727
3.814,97.83665466308594,125.6093978881836,42.367794036865234,158.81163024902344,280.8514404296875,-417.81317138671875,1.8000000715255737,38.25,26.100000381469727
3.824,99.67540740966797,122.73635864257812,39.91613006591797,148.4196014404297,286.3139343261719,-419.2787170410156,1.8000000715255737,38.25,26.100000381469727
3.834,97.18543243408203,118.36933135986328,39.533058166503906,130.56661987304688,280.185302734375,-403.4241943359375,7.650000095367432,41.55000305175781,24.450000762939453
3.844,89.48567962646484,106.83885955810547,35.702335357666016,112.98008728027344,289.2450256347656,-386.7702941894531,9.75,40.20000076293945,24.150001525878906
3.863,79.44918823242188,93.16317749023438,31.83330535888672,66.61561584472656,301.9019775390625,-375.9785461425781,15.000000953674316,40.5,23.850000381469727
3.866,61.98109436035156,78.10843658447266,24.746469497680664,50.09494400024414,310.0290832519531,-387.83612060546875,15.000000953674316,40.5,23.850000381469727
3.874,60.29557418823242,76.537841796875,22.946029663085938,49.02909469604492,306.69830322265625,-361.3231201171875,15.000000953674316,40.5,23.850000381469727
3.884,55.698707580566406,72.97526550292969,21.298818588256836,55.4241943359375,296.43951416015625,-330.54669189453125,18.0,41.70000076293945,21.600000381469727
3.894,51.29337692260742,64.35614013671875,18.88546371459961,64.084228515625,284.5819091796875,-315.8912658691406,19.650001525878906,41.10000228881836,22.200000762939453
3.904,52.4042854309082,58.68667221069336,12.641385078430176,98.99080657958984,260.7335205078125,-281.117919921875,22.05000114440918,41.25,21.30000114440918
3.923,55.813629150390625,50.60384750366211,11.338939666748047,137.09494018554688,217.43338012695312,-245.9448699951172,23.25,40.20000076293945,20.100000381469727
3.927,55.200714111328125,26.43198585510254,5.51624059677124,170.66921997070312,175.9984588623047,-203.8437957763672,23.25,40.20000076293945,20.100000381469727
3.934,51.982906341552734,20.149600982666016,6.167463779449463,190.65390014648438,164.4073486328125,-190.1209716796875,26.250001907348633,39.30000305175781,19.80000114440918
3.944,48.4969482421875,8.389283180236816,3.869029998779297,214.50228881835938,124.70443725585938,-171.46859741210938,28.05000114440918,38.25,18.0
3.954,41.90810775756836,-7.929595947265625,3.3710360527038574,192.65237426757812,111.91423797607422,-151.35069274902344,27.30000114440918,41.25,16.80000114440918
3.964,38.99675750732422,-25.09123420715332,4.63517427444458,174.0,100.05665588378906,-163.6079559326172,29.250001907348633,39.30000305175781,15.750000953674316
3.979,35.702335357666016,-38.19230651855469,1.7621324062347412,101.9218978881836,98.59111785888672,-154.0153045654297,29.55000114440918,39.0,16.05000114440918
3.984,34.85957717895508,-52.86397171020508,-8.121131896972656,87.53292083740234,85.4012222290039,-140.02603149414062,29.55000114440918,39.0,16.05000114440918
3.994,35.204341888427734,-53.70673370361328,-11.798625946044922,38.23736572265625,85.00152587890625,-76.07503509521484,30.000001907348633,39.75,12.750000953674316
4.004,39.11167907714844,-54.281341552734375,-16.089035034179688,-22.649311065673828,81.40428924560547,-25.580398559570312,31.05000114440918,37.80000305175781,12.750000953674316
4.013,45.394065856933594,-53.361968994140625,-14.786589622497559,-68.4808578491211,60.08728790283203,9.192955017089844,30.150001525878906,38.85000228881836,10.350000381469727
4.024,47.845726013183594,-41.41011428833008,-11.03248119354248,-82.6033706665039,40.76875686645508,32.64165496826172,31.650001525878906,39.150001525878906,11.850000381469727
4.043,50.98691940307617,-25.550920486450195,-8.848969459533691,-82.20367431640625,-10.392036437988281,81.67074584960938,30.750001907348633,39.0,12.0
4.046,50.642154693603516,-15.667655944824219,-15.85919189453125,-86.20060729980469,-23.848390579223633,89.7978515625,30.750001907348633,39.0,12.0
4.054,51.40829849243164,-10.802638053894043,-14.020444869995117,-87.26646423339844,-47.297088623046875,101.12251281738281,30.900001525878906,39.900001525878906,12.300000190734863
4.064,54.62610626220703,0.9959878921508789,-8.08282470703125,-66.882080078125,-77.80704498291016,112.31393432617188,28.650001525878906,39.900001525878906,13.65000057220459
4.074,60.678646087646484,16.70195198059082,-3.485957622528076,-59.15467071533203,-111.5145492553711,151.2174530029297,29.400001525878906,39.60000228881836,13.65000057220459
4.092,66.5396499633789,30.415939331054688,-1.3024457693099976,-64.084228515625,-138.2940216064453,179.72894287109375,29.400001525878906,39.60000228881836,13.65000057220459
4.096,69.87238311767578,47.15619659423828,1.7621324062347412,-89.7978515625,-149.21897888183594,208.77334594726562,29.55000114440918,39.30000305175781,15.000000953674316
4.104,73.12849426269531,64.35614013671875,3.294421434402466,-108.84992218017578,-148.28636169433594,220.49769592285156,27.900001525878906,38.85000228881836,14.850000381469727
4.114,75.84831237792969,74.54586791992188,7.316680431365967,-124.17151641845703,-157.74578857421875,234.62020874023438,25.650001525878906,39.900001525878906,15.600000381469727
4.124,81.51777648925781,88.41307830810547,9.078812599182129,-126.16998291015625,-159.61102294921875,246.3445587158203,25.500001907348633,39.30000305175781,16.5
4.134,86.8041763305664,101.6673812866211,9.308655738830566,-126.96936798095703,-164.14088439941406,230.3568115234375,22.650001525878906,39.900001525878906,17.400001525878906
4.144,88.10662078857422,111.74217987060547,10.228029251098633,-122.83920288085938,-176.26492309570312,261.79937744140625,22.650001525878906,39.900001525878906,17.400001525878906
4.157,89.7921371459961,121.9319076538086,13.752294540405273,-128.83460998535156,-190.38743591308594,298.5711975097656,21.150001525878906,39.150001525878906,18.150001525878906
4.164,92.78010559082031,133.19422912597656,18.847156524658203,-130.69984436035156,-188.92189025878906,304.96630859375,21.150001525878906,39.150001525878906,18.150001525878906
4.174,94.12085723876953,138.63385009765625,17.851167678833008,-126.7029037475586,-207.0413360595703,310.42877197265625,18.150001525878906,41.10000228881836,18.900001525878906
4.184,93.85270690917969,145.52915954589844,18.847156524658203,-95.26033782958984,-230.09034729003906,335.7427062988281,18.30000114440918,40.5,19.80000114440918
4.194,92.47364807128906,148.78526306152344,21.337125778198242,-91.26339721679688,-240.34915161132812,337.208251953125,18.30000114440918,40.5,19.80000114440918
4.212,91.05628204345703,148.9001922607422,22.562957763671875,-99.92343139648438,-244.34608459472656,334.6768798828125,13.65000057220459,39.150001525878906,20.700000762939453
4.216,89.98367309570312,148.86187744140625,25.70414924621582,-100.18988800048828,-247.41041564941406,342.27105712890625,9.90000057220459,41.55000305175781,21.150001525878906
4.224,82.62869262695312,145.95053100585938,25.742456436157227,-93.66156005859375,-257.5359802246094,346.8009033203125,9.90000057220459,41.55000305175781,21.150001525878906
4.234,77.68705749511719,143.34564208984375,27.849353790283203,-97.12557220458984,-250.87442016601562,344.5359802246094,8.550000190734863,40.20000076293945,19.80000114440918
4.244,69.29777526855469,138.63385009765625,30.37763023376465,-95.9264907836914,-259.8009033203125,343.7366027832031,8.550000190734863,40.20000076293945,19.80000114440918
4.254,60.48711013793945,134.61160278320312,30.0711727142334,-97.92495727539062,-261.6661376953125,356.52679443359375,8.550000190734863,40.20000076293945,19.80000114440918
4.273,51.59983444213867,128.48243713378906,29.879636764526367,-87.53292083740234,-267.9280090332031,348.5329284667969,4.650000095367432,37.20000076293945,22.5
4.277,39.839515686035156,120.322998046875,24.861391067504883,-77.14088439941406,-256.20367431640625,336.1424255371094,-1.2000000476837158,37.20000076293945,21.75
4.284,25.742456436157227,109.36713409423828,23.44402313232422,-69.67993927001953,-259.00152587890625,337.6079406738281,-1.2000000476837158,37.20000076293945,21.75
4.294,19.536685943603516,102.318603515625,22.946029663085938,-47.163856506347656,-260.86676025390625,314.6921691894531,-1.8000000715255737,37.80000305175781,22.350000381469727
4.304,12.258312225341797,90.9030532836914,16.05072784423828,-34.373661041259766,-256.4701232910156,295.9065856933594,-1.8000000715255737,37.80000305175781,22.350000381469727
4.314,4.711789131164551,83.43314361572266,15.322891235351562,-19.85145378112793,-258.06890869140625,305.4992370605469,-6.150000095367432,37.650001525878906,22.200000762939453
4.332,-3.5625722408294678,76.07815551757812,13.828908920288086,-13.323123931884766,-259.4012145996094,290.0444030761719,-6.900000095367432,34.5,20.700000762939453
4.336,-12.449849128723145,68.53163146972656,10.687716484069824,-10.125574111938477,-239.81622314453125,296.3062744140625,-10.050000190734863,35.10000228881836,20.100000381469727
4.344,-22.333112716674805,53.28535461425781,7.5848307609558105,-16.520673751831055,-221.83001708984375,294.174560546875,-10.050000190734863,35.10000228881836,20.100000381469727
4.354,-26.355371475219727,45.62390899658203,9.040505409240723,-45.96477508544922,-207.0413360595703,270.7258605957031,-10.050000190734863,35.10000228881836,20.100000381469727
4.364,-32.178070068359375,38.99675750732422,6.89530086517334,-65.41653442382812,-193.3185272216797,251.0076446533203,-12.300000190734863,33.150001525878906,19.05000114440918
4.374,-35.97048568725586,35.54910659790039,7.010222434997559,-109.51607513427734,-160.54364013671875,225.02755737304688,-14.700000762939453,33.0,18.900001525878906
4.393,-37.502777099609375,40.64396667480469,0.9193734526634216,-139.7595672607422,-131.7657012939453,191.58651733398438,-13.950000762939453,33.0,18.150001525878906
4.397,-45.892059326171875,41.41011428833008,9.461885452270508,-146.0214385986328,-114.57886505126953,148.95252990722656,-15.750000953674316,30.450000762939453,19.80000114440918
4.404,-37.96246337890625,50.22077560424805,18.04270362854004,-137.8943328857422,-101.65543365478516,112.18070220947266,-15.750000953674316,30.450000762939453,19.80000114440918
4.414,-36.2386360168457,55.73701477050781,19.613300323486328,-107.91730499267578,-93.79479217529297,78.87289428710938,-16.05000114440918,29.700000762939453,19.5
4.424,-38.38384246826172,59.83588790893555,18.732234954833984,-72.47779083251953,-95.66002655029297,36.905052185058594,-18.150001525878906,29.850000381469727,20.400001525878906
4.434,-38.34553527832031,61.17664337158203,17.391481399536133,-51.027565002441406,-86.3338394165039,-8.260336875915527,-18.0,28.500001907348633,19.5
4.453,-33.40390396118164,65.81181335449219,15.093047142028809,-39.569679260253906,-58.08882141113281,-36.905052185058594,-16.650001525878906,31.80000114440918,20.700000762939453
4.457,-29.305028915405273,69.60423278808594,14.288596153259277,-27.045940399169922,-13.989279747009277,-84.33537292480469,-16.650001525878906,31.80000114440918,20.700000762939453
4.464,-17.1999454498291,77.8019790649414,19.80483627319336,-17.32006072998047,-11.990811347961426,-97.5252685546875,-17.55000114440918,29.700000762939453,19.05000114440918
4.474,-10.917559623718262,83.77790832519531,20.034679412841797,-2.9310872554779053,19.98468589782715,-115.11178588867188,-14.40000057220459,30.600000381469727,19.200000762939453
4.484,0.8044517636299133,88.71953582763672,23.712173461914062,6.9280242919921875,41.967838287353516,-161.07656860351562,-15.300000190734863,32.400001525878906,20.100000381469727
4.494,11.72201156616211,94.92530822753906,25.20615577697754,25.7136287689209,50.36140823364258,-192.11944580078125,-15.000000953674316,31.950000762939453,19.05000114440918
4.513,28.002582550048828,106.80055236816406,30.99054718017578,40.102603912353516,64.3506851196289,-224.09494018554688,-15.000000953674316,31.950000762939453,19.05000114440918
4.517,45.470680236816406,122.23836517333984,37.96246337890625,37.304744720458984,97.5252685546875,-241.54823303222656,-14.550000190734863,33.150001525878906,20.100000381469727
4.524,66.4630355834961,134.26683044433594,43.67023849487305,32.5084228515625,121.24042510986328,-262.4655456542969,-12.450000762939453,34.20000076293945,19.200000762939453
4.534,71.48128509521484,136.75680541992188,41.333499908447266,15.45482349395752,162.1424102783203,-269.3935546875,-10.800000190734863,34.80000305175781,18.75
4.544,88.37477111816406,132.96438598632812,46.12190246582031,0.1332312375307083,203.71055603027344,-322.0198974609375,-9.15000057220459,34.95000076293945,18.450000762939453
4.554,92.6651840209961,145.4908447265625,41.065345764160156,-5.196018218994141,238.6171417236328,-322.9525146484375,-9.0,35.55000305175781,20.100000381469727
4.573,97.0322036743164,156.331787109375,44.091617584228516,33.70750427246094,246.3445587158203,-319.6217346191406,-9.0,35.55000305175781,20.100000381469727
4.576,104.65534210205078,160.4306640625,44.66622543334961,78.87289428710938,269.3935546875,-341.2052001953125,-4.650000095367432,37.95000076293945,19.650001525878906
4.584,115.3813705444336,159.0133056640625,45.394065856933594,105.11944580078125,273.52374267578125,-360.9234313964844,-3.1500000953674316,37.95000076293945,19.200000762939453
4.594,117.71810913085938,154.76119995117188,44.55130386352539,153.48239135742188,276.5880432128906,-366.6523742675781,-2.4000000953674316,38.400001525878906,18.900001525878906
4.604,112.73816680908203,150.6240234375,43.86177444458008,174.26646423339844,285.781005859375,-373.4471435546875,0.45000001788139343,40.650001525878906,19.200000762939453
4.614,98.10481262207031,136.2205047607422,40.95042419433594,164.4073486328125,306.5650634765625,-398.7611083984375,0.45000001788139343,40.650001525878906,19.200000762939453
4.633,86.38279724121094,121.47221374511719,35.35757064819336,151.35069274902344,324.2848205566406,-396.2297058105469,4.800000190734863,42.150001525878906,16.80000114440918
4.637,82.0157699584961,113.77246856689453,32.21637725830078,126.5696792602539,325.2174377441406,-389.4349060058594,5.700000286102295,41.10000228881836,17.400001525878906
4.644,86.8041763305664,104.04242706298828,26.163835525512695,128.96783447265625,318.8223571777344,-361.8560485839844,8.25,40.5,15.000000953674316
4.654,86.7275619506836,98.94757080078125,25.244462966918945,122.17304229736328,313.8927917480469,-346.00152587890625,10.65000057220459,41.10000228881836,15.600000381469727
4.664,79.06611633300781,89.75382995605469,21.911733627319336,128.96783447265625,294.8407287597656,-328.5482177734375,10.65000057220459,41.10000228881836,15.600000381469727
4.674,71.44297790527344,76.72937774658203,18.081010818481445,138.02755737304688,284.98162841796875,-311.2281799316406,10.65000057220459,41.10000228881836,15.600000381469727
4.693,63.436767578125,64.0879898071289,15.744270324707031,131.0995330810547,282.050537109375,-314.29248046875,14.550000190734863,42.900001525878906,12.450000762939453
4.696,58.61005783081055,49.49293899536133,13.599065780639648,131.36599731445312,261.2664489746094,-289.9111633300781,18.900001525878906,43.5,11.850000381469727
4.704,51.44660568237305,34.62973403930664,10.074800491333008,127.90198516845703,250.34149169921875,-276.05511474609375,18.900001525878906,41.85000228881836,10.800000190734863
4.713,46.35174560546875,26.85336685180664,8.504204750061035,129.6339874267578,231.2894287109375,-249.94180297851562,19.650001525878906,42.30000305175781,9.75
4.723,40.452430725097656,16.127342224121094,6.971915245056152,135.0964813232422,214.10260009765625,-237.6845245361328,19.650001525878906,42.30000305175781,9.75
4.734,42.252872467041016,7.967903137207031,6.244078159332275,141.75804138183594,183.7258758544922,-203.04440307617188,22.05000114440918,41.25,9.450000762939453
4.753,46.88804626464844,-0.49799394607543945,5.018246650695801,148.0198974609375,163.74119567871094,-174.1332244873047,23.25,41.70000076293945,8.40000057220459
4.757,46.73481750488281,-12.526463508605957,-3.9839515686035156,128.96783447265625,152.28330993652344,-148.15313720703125,23.400001525878906,43.05000305175781,7.050000190734863
4.764,40.41412353515625,-35.74064254760742,2.1068975925445557,116.17764282226562,141.89126586914062,-127.23583221435547,25.950000762939453,41.55000305175781,6.300000190734863
4.774,39.226600646972656,-43.74685287475586,-6.473921298980713,106.85145568847656,122.9724349975586,-107.51760864257812,25.950000762939453,41.55000305175781,6.300000190734863
4.784,36.77493667602539,-50.68046188354492,-9.921571731567383,83.26952362060547,114.17916870117188,-99.12403869628906,25.200000762939453,40.35000228881836,4.950000286102295
4.794,34.62973403930664,-57.1160774230957,-11.683704376220703,61.28636932373047,109.51607513427734,-68.74732208251953,27.750001907348633,40.20000076293945,5.400000095367432
4.813,39.533058166503906,-54.12811279296875,-16.35718536376953,59.55436325073242,79.40581512451172,-50.62786865234375,27.900001525878906,39.60000228881836,4.950000286102295
4.817,50.68046188354492,-45.73883056640625,-13.867216110229492,41.035221099853516,47.56355285644531,-9.592649459838867,28.05000114440918,40.20000076293945,2.8500001430511475
4.824,63.20692443847656,-31.450233459472656,-14.288596153259277,32.77488327026367,31.176109313964844,16.920366287231445,27.750001907348633,40.5,2.5500001907348633
4.834,67.91871643066406,-28.232425689697266,-14.288596153259277,17.852985382080078,-1.5987749099731445,44.23276901245117,27.750001907348633,40.5,2.5500001907348633
4.844,66.4630355834961,-22.524648666381836,-19.000385284423828,-12.523736000061035,-28.511484146118164,73.81010437011719,27.30000114440918,39.75,3.3000001907348633
4.854,65.73519897460938,-16.395492553710938,-14.403517723083496,-56.09035110473633,-45.69831466674805,81.93721008300781,27.750001907348633,39.30000305175781,2.1000001430511475
4.873,73.0901870727539,-5.937620162963867,-11.91354751586914,-89.39816284179688,-72.34455871582031,111.38131713867188,27.450000762939453,40.35000228881836,3.450000047683716
4.877,90.71151733398438,33.863590240478516,-12.143390655517578,-157.21286010742188,-92.99540710449219,154.28176879882812,27.450000762939453,40.35000228881836,3.450000047683716
4.884,94.96361541748047,43.82346725463867,-12.756306648254395,-179.19601440429688,-106.18529510498047,180.12863159179688,27.450000762939453,40.35000228881836,3.450000047683716
4.894,101.47584533691406,59.41450881958008,-9.959878921508789,-206.77488708496094,-110.04900360107422,211.83766174316406,25.650001525878906,41.55000305175781,4.5
4.904,109.67359161376953,78.64473724365234,-5.784391403198242,-211.83766174316406,-130.43338012695312,225.96017456054688,25.500001907348633,39.75,6.150000095367432
4.914,113.1595458984375,92.0522689819336,-0.9959878921508789,-196.1163787841797,-156.14700317382812,227.29249572753906,24.450000762939453,41.55000305175781,6.0
4.933,112.85308837890625,102.08876037597656,1.4173674583435059,-183.99234008789062,-163.20826721191406,207.97396850585938,22.950000762939453,42.30000305175781,6.750000476837158
4.936,109.98004913330078,124.03880310058594,-0.26815059781074524,-140.95864868164062,-182.92648315429688,204.6431884765625,22.80000114440918,41.70000076293945,6.600000381469727
4.944,105.80455780029297,128.13768005371094,1.2641384601593018,-101.2557373046875,-203.8437957763672,216.50076293945312,22.80000114440918,41.70000076293945,6.600000381469727
4.954,104.23396301269531,133.73052978515625,4.596867084503174,-87.39968872070312,-211.70443725585938,215.83460998535156,18.75,41.25,7.950000286102295
4.964,102.12706756591797,142.61781311035156,8.810662269592285,-68.61408996582031,-232.2220458984375,230.09034729003906,18.900001525878906,41.85000228881836,9.75
4.974,100.21170806884766,144.03517150878906,11.530475616455078,-63.684532165527344,-244.34608459472656,247.94332885742188,17.55000114440918,41.25,7.650000095367432
4.991,97.0322036743164,142.57949829101562,12.373234748840332,-86.3338394165039,-270.45941162109375,274.8560485839844,16.05000114440918,41.70000076293945,7.650000095367432
4.995,90.67321014404297,139.85968017578125,16.931795120239258,-103.25421142578125,-265.9295349121094,279.6523742675781,16.05000114440918,41.70000076293945,7.650000095367432
5.004,90.21351623535156,138.6721649169922,17.12333106994629,-115.2450180053711,-280.5849914550781,287.51300048828125,13.950000762939453,40.35000228881836,10.050000190734863
5.014,85.61665344238281,136.4120330810547,17.50640296936035,-139.49310302734375,-284.5819091796875,291.1102600097656,12.450000762939453,43.05000305175781,10.800000190734863
5.024,80.44517517089844,134.26683044433594,20.494365692138672,-156.14700317382812,-284.848388671875,297.10565185546875,10.800000190734863,40.5,11.40000057220459
5.034,72.28573608398438,128.1759796142578,21.0689754486084,-180.79478454589844,-280.185302734375,284.848388671875,10.050000190734863,41.70000076293945,10.65000057220459
5.053,62.59400939941406,125.30294036865234,22.2948055267334,-184.25880432128906,-276.8545227050781,286.9800720214844,9.90000057220459,41.55000305175781,12.600000381469727
5.057,42.59763717651367,113.65753936767578,23.558944702148438,-170.53598022460938,-287.646240234375,288.3124084472656,5.700000286102295,40.650001525878906,12.300000190734863
5.064,38.19230651855469,111.12926483154297,23.712173461914062,-167.87135314941406,-275.6554260253906,276.32159423828125,5.700000286102295,40.650001525878906,12.300000190734863
5.074,32.331298828125,107.33685302734375,22.37141990661621,-146.9540557861328,-275.6554260253906,276.1883544921875,5.400000095367432,41.10000228881836,11.850000381469727
5.083,21.796812057495117,99.71371459960938,21.911733627319336,-107.3843765258789,-277.1209716796875,269.7932434082031,3.9000000953674316,39.900001525878906,13.350000381469727
5.094,12.7946138381958,90.78813171386719,21.950040817260742,-76.20826721191406,-275.12249755859375,256.86981201171875,2.5500001907348633,40.20000076293945,14.250000953674316
5.107,4.520252704620361,83.20330047607422,18.847156524658203,-39.569679260253906,-263.93109130859375,245.27870178222656,2.5500001907348633,40.20000076293945,14.250000953674316
5.114,-7.508216381072998,74.04786682128906,17.544710159301758,-21.84992218017578,-252.87289428710938,236.88514709472656,2.5500001907348633,40.20000076293945,14.250000953674316
5.124,-12.22000503540039,72.66880798339844,11.30063247680664,21.183767318725586,-245.0122528076172,216.6339874267578,-1.6500000953674316,39.150001525878906,15.600000381469727
5.134,-18.54069709777832,70.29376220703125,22.141576766967773,29.044410705566406,-235.8192901611328,222.22970581054688,-0.9000000357627869,38.85000228881836,13.350000381469727
5.144,-23.367408752441406,55.89024353027344,14.441824913024902,22.116384506225586,-204.11026000976562,196.64930725097656,-2.25,37.5,13.500000953674316
5.163,-26.891674041748047,47.76911163330078,12.066776275634766,5.462480545043945,-182.7932586669922,185.72434997558594,-2.25,37.5,12.750000953674316
5.167,-32.292991638183594,43.478702545166016,15.514427185058594,-39.569679260253906,-157.87901306152344,151.88360595703125,-4.950000286102295,36.45000076293945,13.65000057220459
5.174,-36.2386360168457,40.91211700439453,18.04270362854004,-80.60489654541016,-133.09800720214844,138.2940216064453,-4.950000286102295,36.45000076293945,13.65000057220459
5.184,-31.10546875,44.93437576293945,16.47210693359375,-104.45329284667969,-117.11026000976562,126.7029037475586,-7.050000190734863,37.05000305175781,13.200000762939453
5.194,-41.639957427978516,46.390052795410156,19.99637222290039,-136.4287872314453,-93.52832794189453,98.59111785888672,-6.0,35.10000228881836,12.450000762939453
5.204,-34.85957717895508,47.07958221435547,18.617311477661133,-161.07656860351562,-62.085758209228516,56.49004364013672,-6.0,35.10000228881836,12.450000762939453
5.222,-35.77894973754883,49.03324890136719,18.923770904541016,-181.06124877929688,-46.364471435546875,22.782541275024414,-6.0,35.10000228881836,12.450000762939453
5.226,-38.46045684814453,50.48892593383789,18.732234954833984,-171.60183715820312,-26.912710189819336,-15.588054656982422,-6.900000095367432,34.20000076293945,14.850000381469727
5.234,-42.061336517333984,52.32767105102539,20.187908172607422,-181.46095275878906,1.5987749099731445,-51.82695007324219,-6.750000476837158,34.80000305175781,15.000000953674316
5.244,-39.533058166503906,57.6906852722168,20.685903549194336,-164.27410888671875,21.84992218017578,-90.19754791259766,-6.450000286102295,34.20000076293945,15.90000057220459
5.254,-32.676063537597656,66.84611511230469,21.0689754486084,-112.71363067626953,28.24502182006836,-110.31546783447266,-6.150000095367432,34.5,15.600000381469727
5.264,-23.673866271972656,77.45721435546875,23.44402313232422,-66.882080078125,44.89892578125,-140.6921844482422,-6.150000095367432,34.5,15.600000381469727
5.283,-14.556746482849121,88.94937896728516,22.869415283203125,-23.98162269592285,73.14395141601562,-161.34303283691406,-5.25,33.60000228881836,15.750000953674316
5.287,-4.175487995147705,97.79834747314453,27.504589080810547,35.17304611206055,92.59571075439453,-180.26187133789062,-4.800000190734863,33.60000228881836,16.5
5.294,14.36521053314209,107.87315368652344,34.170047760009766,64.48391723632812,97.7917251586914,-190.38743591308594,-4.5,34.35000228881836,16.05000114440918
5.304,25.933992385864258,116.30074310302734,38.000770568847656,70.3460922241211,122.3062744140625,-216.10107421875,-4.050000190734863,34.80000305175781,15.750000953674316
5.314,48.88002014160156,129.1336669921875,45.66221618652344,68.34762573242188,145.2220458984375,-233.28790283203125,-3.1500000953674316,34.95000076293945,14.850000381469727
5.324,71.59620666503906,138.1358642578125,49.3014030456543,66.882080078125,172.40121459960938,-245.14547729492188,-3.1500000953674316,34.95000076293945,14.850000381469727
5.343,82.16899871826172,147.63604736328125,49.14817428588867,42.633995056152344,220.49769592285156,-264.9969177246094,-1.9500000476837158,36.150001525878906,15.15000057220459
5.347,100.97785186767578,149.89617919921875,53.170433044433594,7.194486618041992,266.8621826171875,-332.0122375488281,0.15000000596046448,35.25,14.40000057220459
5.354,102.20368194580078,162.38433837890625,52.32767105102539,14.12251091003418,285.1148376464844,-333.477783203125,2.25,35.10000228881836,16.05000114440918
5.364,102.58675384521484,164.950927734375,51.7913703918457,43.03369140625,297.7718200683594,-342.00457763671875,2.4000000953674316,35.70000076293945,15.600000381469727
5.374,101.7439956665039,159.7028350830078,48.88002014160156,72.74425506591797,313.6263427734375,-359.19140625,2.4000000953674316,35.70000076293945,15.600000381469727
5.384,105.49810028076172,158.09393310546875,44.819454193115234,107.11791229248047,326.016845703125,-369.3169860839844,5.400000095367432,36.150001525878906,14.850000381469727
5.404,106.57070922851562,151.46678161621094,42.1762580871582,150.01837158203125,321.353759765625,-348.6661376953125,6.750000476837158,37.5,14.250000953674316
5.407,100.02017211914062,140.1661376953125,40.52904510498047,178.5298614501953,336.40887451171875,-358.7917175292969,9.450000762939453,36.45000076293945,14.100000381469727
5.414,84.65897369384766,123.8089599609375,36.621707916259766,172.134765625,346.134765625,-368.3843688964844,10.65000057220459,37.20000076293945,14.40000057220459
5.424,79.48749542236328,116.41566467285156,34.93619155883789,174.0,355.32769775390625,-365.7197570800781,10.65000057220459,37.20000076293945,14.40000057220459
5.434,70.94498443603516,106.4557876586914,30.79901123046875,165.73965454101562,357.8591003417969,-340.13934326171875,10.65000057220459,37.20000076293945,14.40000057220459
5.444,67.15257263183594,95.84468078613281,25.5892276763916,147.62020874023438,365.9862060546875,-337.8744201660156,13.800000190734863,36.60000228881836,11.40000057220459
5.463,68.1868667602539,88.75784301757812,22.677879333496094,140.82542419433594,362.6554260253906,-328.01531982421875,15.450000762939453,36.45000076293945,10.050000190734863
5.467,69.87238311767578,83.50975799560547,21.6818904876709,150.2848358154297,334.9433288574219,-284.1822204589844,15.750000953674316,36.30000305175781,11.40000057220459
5.474,64.66259765625,70.0256118774414,17.966089248657227,154.14854431152344,314.29248046875,-277.92034912109375,17.25,37.05000305175781,9.15000057220459
5.484,60.21895980834961,59.41450881958008,14.97812557220459,140.6921844482422,305.6324462890625,-268.1944885253906,17.25,37.05000305175781,9.15000057220459
5.494,52.97889709472656,49.07155990600586,13.254301071166992,142.5574188232422,282.84991455078125,-240.0826873779297,20.400001525878906,36.900001525878906,7.800000190734863
5.503,48.57356262207031,35.24264907836914,4.750096321105957,142.15773010253906,256.86981201171875,-226.7595672607422,20.700000762939453,36.900001525878906,7.800000190734863
5.523,42.52102279663086,20.609289169311523,3.2178070545196533,131.89892578125,243.81317138671875,-219.16539001464844,20.55000114440918,36.30000305175781,7.650000095367432
5.527,39.954437255859375,8.695740699768066,2.1068975925445557,132.6983184814453,221.69677734375,-210.37213134765625,22.5,36.30000305175781,7.950000286102295
5.534,38.843528747558594,-5.861005783081055,-1.8770540952682495,141.0918731689453,196.24961853027344,-195.45022583007812,23.700000762939453,35.25,5.700000286102295
5.544,41.639957427978516,-13.867216110229492,-2.1068975925445557,148.8192901611328,172.00152587890625,-178.79632568359375,23.700000762939453,35.25,5.700000286102295
5.554,43.287166595458984,-27.734432220458984,-4.022258758544922,144.68911743164062,153.61561584472656,-181.59417724609375,25.950000762939453,34.95000076293945,5.25
5.564,41.448421478271484,-41.21857833862305,-7.048529624938965,144.95558166503906,126.03675079345703,-154.14854431152344,24.900001525878906,34.20000076293945,2.25
5.583,37.694313049316406,-52.09782791137695,-11.30063247680664,141.35833740234375,102.58805084228516,-154.54823303222656,25.80000114440918,36.30000305175781,3.9000000953674316
5.586,37.387855529785156,-55.392250061035156,-16.855180740356445,159.3445587158203,81.00459289550781,-102.45481872558594,26.250001907348633,34.35000228881836,3.6000001430511475
5.594,39.72459411621094,-49.3014030456543,-10.496180534362793,146.0214385986328,54.091880798339844,-68.4808578491211,26.250001907348633,34.35000228881836,3.6000001430511475
5.604,45.700523376464844,-52.13613510131836,-7.891288757324219,151.35069274902344,19.85145378112793,-17.852985382080078,27.750001907348633,34.35000228881836,1.8000000715255737
5.614,54.089805603027344,-51.71475601196289,-14.135366439819336,126.96936798095703,-9.059723854064941,29.977027893066406,27.150001525878906,34.95000076293945,1.6500000953674316
5.624,61.71294403076172,-51.71475601196289,-10.84094524383545,78.87289428710938,-17.053598403930664,59.4211311340332,28.500001907348633,33.60000228881836,1.0500000715255737
5.643,68.53163146972656,-44.512996673583984,-10.496180534362793,28.644716262817383,-43.83307647705078,100.72281646728516,28.650001525878906,34.20000076293945,0.45000001788139343
5.647,74.85232543945312,-25.780763626098633,-9.576807022094727,-40.36906433105469,-65.41653442382812,148.4196014404297,27.150001525878906,33.75,1.2000000476837158
5.654,87.68524169921875,0.9959878921508789,-6.205770969390869,-72.61102294921875,-79.9387435913086,160.14395141601562,27.150001525878906,33.75,1.2000000476837158
5.664,93.31640625,14.97812557220459,-7.2783732414245605,-127.10260009765625,-93.92802429199219,195.84991455078125,26.700000762939453,33.75,0.45000001788139343
5.674,98.98587799072266,38.34553527832031,-11.41555404663086,-180.79478454589844,-105.78560638427734,242.34762573242188,24.900001525878906,33.75,1.2000000476837158
5.684,100.93954467773438,56.34992980957031,-10.687716484069824,-234.22052001953125,-97.5252685546875,266.8621826171875,23.700000762939453,34.95000076293945,1.9500000476837158
5.702,101.55245971679688,69.64253997802734,-6.588842868804932,-257.26953125,-88.99846649169922,286.4471740722656,23.25,35.85000228881836,3.9000000953674316
5.706,103.81258392333984,93.2780990600586,-0.26815059781074524,-252.60643005371094,-113.91270446777344,275.9219055175781,23.25,35.85000228881836,3.9000000953674316
5.714,104.00411987304688,98.83264923095703,-0.3064578175544739,-234.8866729736328,-121.3736572265625,278.4532775878906,20.55000114440918,36.30000305175781,4.650000095367432
5.724,104.46380615234375,112.66155242919922,-1.1875240802764893,-205.44256591796875,-137.49464416503906,270.8591003417969,20.400001525878906,36.900001525878906,7.050000190734863
5.734,102.66336822509766,131.8534698486328,-0.3447650372982025,-149.3522186279297,-153.7488555908203,256.86981201171875,19.5,35.55000305175781,5.850000381469727
5.743,99.2157211303711,146.29530334472656,-0.9193734526634216,-68.74732208251953,-191.58651733398438,282.1837463378906,17.700000762939453,36.45000076293945,6.750000476837158
5.763,101.16938781738281,151.62001037597656,6.205770969390869,-6.5283308029174805,-232.2220458984375,305.4992370605469,16.5,35.10000228881836,6.900000095367432
5.766,107.6050033569336,151.88815307617188,12.449849128723145,7.72741174697876,-250.74119567871094,318.15618896484375,16.5,35.10000228881836,6.900000095367432
5.774,107.14531707763672,153.99505615234375,12.526463508605957,-1.0658499002456665,-259.00152587890625,326.2832946777344,13.65000057220459,36.900001525878906,7.500000476837158
5.784,103.5061264038086,153.84182739257812,14.67166805267334,-24.381317138671875,-270.45941162109375,351.73046875,11.700000762939453,35.70000076293945,7.800000190734863
5.794,95.65314483642578,149.70465087890625,16.510414123535156,-63.684532165527344,-255.67074584960938,350.1316833496094,11.550000190734863,36.60000228881836,8.700000762939453
5.804,85.5783462524414,138.2507781982422,17.544710159301758,-106.85145568847656,-254.2052001953125,351.0643005371094,8.700000762939453,36.150001525878906,7.800000190734863
5.823,76.84429931640625,132.65792846679688,18.88546371459961,-143.3568115234375,-257.26953125,359.9908142089844,8.700000762939453,36.150001525878906,7.800000190734863
5.827,60.7935676574707,129.63165283203125,17.73624610900879,-164.4073486328125,-247.41041564941406,353.595703125,4.650000095367432,37.95000076293945,10.050000190734863
5.834,54.01319122314453,127.63967895507812,19.000385284423828,-158.27871704101562,-247.8101043701172,349.06585693359375,4.650000095367432,37.95000076293945,10.050000190734863
5.844,46.696510314941406,122.81297302246094,19.68991470336914,-140.95864868164062,-257.26953125,348.3996887207031,3.750000238418579,37.5,9.15000057220459
5.854,35.24264907836914,116.53058624267578,20.992361068725586,-111.64777374267578,-256.86981201171875,334.27716064453125,2.25,34.35000228881836,10.200000762939453
5.864,24.05693817138672,110.20989227294922,20.456058502197266,-84.4686050415039,-251.14088439941406,325.6171569824219,1.2000000476837158,35.25,10.050000190734863
5.878,14.135366439819336,103.69766235351562,20.149600982666016,-42.90045928955078,-257.8024597167969,315.22509765625,-1.8000000715255737,35.10000228881836,10.65000057220459
5.884,2.4133553504943848,92.55026245117188,18.923770904541016,-37.70444107055664,-248.2097930908203,293.64166259765625,-1.8000000715255737,35.10000228881836,10.65000057220459
5.894,-1.4173674583435059,89.48567962646484,18.081010818481445,-25.313934326171875,-240.882080078125,287.9126892089844,-2.4000000953674316,33.0,10.800000190734863
5.904,-6.320692539215088,82.59038543701172,19.460071563720703,-22.382848739624023,-236.21897888183594,272.32464599609375,-3.750000238418579,33.150001525878906,11.40000057220459
5.914,-11.60708999633789,76.76768493652344,18.11931800842285,-35.439510345458984,-239.1500701904297,266.46246337890625,-5.700000286102295,33.45000076293945,9.300000190734863
5.924,-17.544710159301758,70.90667724609375,17.353174209594727,-51.160797119140625,-221.43031311035156,230.22357177734375,-5.700000286102295,33.45000076293945,9.300000190734863
5.942,-22.026655197143555,64.24121856689453,17.468095779418945,-78.3399658203125,-192.65237426757812,164.94027709960938,-8.550000190734863,32.85000228881836,9.450000762939453
5.945,-31.067161560058594,52.902278900146484,13.828908920288086,-84.20214080810547,-185.4578857421875,147.22052001953125,-9.75,31.200000762939453,9.450000762939453
5.954,-31.83330535888672,52.787357330322266,12.105083465576172,-111.5145492553711,-167.73812866210938,117.64318084716797,-9.300000190734863,31.200000762939453,9.450000762939453
5.964,-35.93217849731445,56.235008239746094,7.316680431365967,-137.76109313964844,-116.0444107055664,74.8759536743164,-9.300000190734863,30.900001525878906,9.90000057220459
5.974,-39.226600646972656,62.44078063964844,3.9839515686035156,-122.83920288085938,-98.99080657958984,57.955589294433594,-9.300000190734863,30.900001525878906,9.90000057220459
5.992,-44.35976791381836,57.38422775268555,13.292608261108398,-98.4578857421875,-81.93721008300781,15.055130004882812,-9.300000190734863,30.900001525878906,9.90000057220459
5.996,-35.43418502807617,48.38202667236328,11.070788383483887,-102.18836212158203,-58.62174606323242,-23.581928253173828,-11.40000057220459,30.30000114440918,11.850000381469727
6.004,-42.94240188598633,54.05149841308594,9.53849983215332,-104.32006072998047,-30.776416778564453,-43.30015182495117,-10.800000190734863,30.150001525878906,11.700000762939453
6.014,-40.41412353515625,56.19670104980469,11.875240325927734,-94.59417724609375,-10.791729927062988,-66.882080078125,-11.25,31.950000762939453,10.65000057220459
6.024,-36.77493667602539,55.77532196044922,13.828908920288086,-84.33537292480469,11.857580184936523,-97.39203643798828,-11.25,31.950000762939453,10.65000057220459
6.034,-31.794998168945312,59.29958724975586,13.139378547668457,-77.54058074951172,29.977027893066406,-132.16539001464844,-10.5,32.400001525878906,11.700000762939453
6.044,-24.095245361328125,64.43275451660156,14.556746482849121,-52.626338958740234,50.4946403503418,-150.6845245361328,-10.050000190734863,32.85000228881836,10.950000762939453
6.057,-15.093047142028809,72.17081451416016,16.58702850341797,-24.51454734802246,63.950992584228516,-185.85757446289062,-9.15000057220459,31.80000114440918,12.300000190734863
6.064,-1.6855180263519287,82.32222747802734,16.970102310180664,-12.523736000061035,89.66461944580078,-191.8529815673828,-8.40000057220459,32.25,12.600000381469727
6.074,6.282385349273682,89.60060119628906,19.651607513427734,15.721285820007324,101.78866577148438,-204.90963745117188,-8.40000057220459,32.25,12.600000381469727
6.084,20.41775131225586,101.55245971679688,22.48634147644043,32.108726501464844,114.3124008178711,-210.90504455566406,-7.800000190734863,32.400001525878906,12.750000953674316
6.094,39.647979736328125,117.2201156616211,29.113492965698242,39.43644714355469,122.57273864746094,-231.1562042236328,-7.500000476837158,33.150001525878906,13.950000762939453
6.112,60.33388137817383,130.78086853027344,34.32327651977539,34.773353576660156,142.5574188232422,-260.0673828125,-5.700000286102295,32.55000305175781,13.350000381469727
6.116,75.54185485839844,147.0614471435547,37.84754180908203,39.9693717956543,177.73046875,-286.1806945800781,-6.450000286102295,33.45000076293945,12.300000190734863
6.124,95.7297592163086,148.67034912109375,36.2003288269043,29.577335357666016,198.9142303466797,-319.6217346191406,-4.050000190734863,35.55000305175781,12.450000762939453
6.134,109.25221252441406,152.42445373535156,32.21637725830078,17.719755172729492,239.016845703125,-340.6722717285156,-4.050000190734863,35.55000305175781,12.450000762939453
6.144,95.46160888671875,162.9589385986328,42.7508659362793,24.914241790771484,257.0030517578125,-353.1960144042969,-3.0,35.10000228881836,12.750000953674316
6.154,96.22775268554688,161.656494140625,42.32948684692383,41.568145751953125,281.2511291503906,-362.12249755859375,-1.8000000715255737,37.5,14.250000953674316
6.173,103.00813293457031,162.57586669921875,41.79318618774414,71.2787094116211,276.4548034667969,-374.1133117675781,1.8000000715255737,37.05000305175781,13.500000953674316
6.177,108.2562255859375,164.0315399169922,40.682273864746094,99.52373504638672,290.7105712890625,-373.0474548339844,3.1500000953674316,38.400001525878906,13.050000190734863
6.184,104.1190414428711,154.5696563720703,38.95845031738281,102.98774719238281,306.1653747558594,-385.30474853515625,3.1500000953674316,38.400001525878906,13.050000190734863
6.194,97.79834747314453,147.9425048828125,37.311241149902344,119.5084228515625,304.03369140625,-377.31085205078125,5.700000286102295,38.85000228881836,13.350000381469727
6.204,87.83847045898438,136.2205047607422,34.24666213989258,112.98008728027344,326.5497741699219,-392.4992370605469,8.25,37.80000305175781,12.450000762939453
6.214,78.83627319335938,125.99246978759766,32.982521057128906,99.79019927978516,341.2052001953125,-385.8376770019531,9.15000057220459,38.400001525878906,11.850000381469727
6.232,73.20510864257812,117.2584228515625,29.84132957458496,96.32618713378906,345.6018371582031,-377.57733154296875,11.40000057220459,39.900001525878906,11.100000381469727
6.236,66.99934387207031,109.71189880371094,24.708162307739258,95.52679443359375,363.32159423828125,-360.3905029296875,11.40000057220459,39.900001525878906,11.100000381469727
6.244,66.65457153320312,100.4798583984375,21.835119247436523,101.2557373046875,356.3935546875,-356.3935546875,11.40000057220459,39.900001525878906,11.100000381469727
6.254,66.73119354248047,92.35872650146484,16.740259170532227,138.96017456054688,342.5375061035156,-342.27105712890625,13.950000762939453,39.60000228881836,10.050000190734863
6.264,67.42072296142578,81.4794692993164,14.326903343200684,158.4119415283203,328.1485290527344,-324.8177490234375,15.750000953674316,39.75,9.450000762939453
6.274,64.31783294677734,68.49332427978516,12.7946138381958,185.0581817626953,318.02294921875,-317.8897399902344,18.75,40.20000076293945,8.700000762939453
6.293,58.3419075012207,55.085792541503906,7.048529624938965,208.64012145996094,304.4333801269531,-302.7013854980469,20.55000114440918,40.20000076293945,7.350000381469727
6.297,50.144161224365234,38.8818359375,2.911349296569824,216.6339874267578,285.64776611328125,-296.17303466796875,20.55000114440918,40.20000076293945,7.350000381469727
6.304,41.065345764160156,16.510414123535156,-2.2601263523101807,217.03369140625,276.98773193359375,-274.7228088378906,22.5,39.75,5.100000381469727
6.314,38.07738494873047,8.006210327148438,-3.600879430770874,206.5084228515625,269.52679443359375,-256.6033630371094,25.05000114440918,41.25,4.350000381469727
6.324,37.46446990966797,-1.4939818382263184,-2.604891538619995,197.31546020507812,240.74884033203125,-245.9448699951172,25.950000762939453,38.400001525878906,1.6500000953674316
6.334,39.72459411621094,-14.97812557220459,-3.1028854846954346,194.117919921875,219.43185424804688,-219.9647674560547,26.250001907348633,37.80000305175781,1.8000000715255737
6.353,40.03105163574219,-26.470293045043945,-2.183511972427368,168.80397033691406,202.3782501220703,-226.89279174804688,26.250001907348633,37.80000305175781,1.8000000715255737
6.357,38.307228088378906,-40.03105163574219,-3.5625722408294678,157.21286010742188,168.0045928955078,-208.77334594726562,27.000001907348633,39.0,-0.6000000238418579
6.364,38.115692138671875,-47.117889404296875,-9.959878921508789,178.92955017089844,148.68606567382812,-194.78407287597656,29.700000762939453,38.85000228881836,-2.25
6.374,40.41412353515625,-46.696510314941406,-3.6774938106536865,186.12403869628906,100.85604858398438,-184.6584930419922,30.900001525878906,39.150001525878906,-1.9500000476837158
6.384,47.117889404296875,-48.4969482421875,-5.592854976654053,201.4456329345703,63.418067932128906,-157.4793243408203,29.55000114440918,39.0,-2.5500001907348633
6.394,47.80741882324219,-41.86980056762695,-13.675680160522461,205.44256591796875,30.90964698791504,-97.12557220458984,31.200000762939453,38.400001525878906,-5.700000286102295
6.413,44.24484634399414,-41.29519271850586,-9.155426979064941,176.6646270751953,-2.9310872554779053,-42.76722717285156,31.200000762939453,38.400001525878906,-5.700000286102295
6.417,45.777137756347656,-47.424346923828125,-11.568782806396484,106.71822357177734,-34.10719680786133,17.986217498779297,32.400001525878906,37.650001525878906,-5.25
6.424,52.13613510131836,-47.80741882324219,-10.879252433776855,54.091880798339844,-44.23276901245117,59.15467071533203,33.150001525878906,36.150001525878906,-7.800000190734863
6.434,59.29958724975586,-42.32948684692383,-8.504204750061035,-20.784072875976562,-66.61561584472656,110.58192443847656,33.30000305175781,36.60000228881836,-7.350000381469727
6.444,68.60824584960938,-24.018630981445312,-9.576807022094727,-93.79479217529297,-73.67687225341797,146.42112731933594,33.45000076293945,37.650001525878906,-6.750000476837158
6.454,80.90486145019531,3.026270866394043,-10.41956615447998,-157.21286010742188,-89.5313949584961,203.8437957763672,33.45000076293945,37.650001525878906,-6.750000476837158
6.473,93.69947814941406,28.92195701599121,-7.240066051483154,-206.90811157226562,-112.98008728027344,233.9540557861328,32.70000076293945,37.650001525878906,-6.0
6.477,105.65132904052734,50.757076263427734,-9.27034854888916,-238.084228515625,-109.64930725097656,281.6508483886719,31.500001907348633,38.25,-6.150000095367432
6.484,119.48023986816406,86.65094757080078,-10.802638053894043,-238.084228515625,-117.77641296386719,290.57733154296875,29.400001525878906,39.60000228881836,-6.300000190734863
6.494,125.647705078125,100.4415512084961,-8.619126319885254,-219.16539001464844,-119.64165496826172,334.410400390625,29.700000762939453,40.35000228881836,-3.750000238418579
6.504,126.56707763671875,114.00231170654297,-12.334927558898926,-205.5758056640625,-126.96936798095703,335.47625732421875,29.700000762939453,40.35000228881836,-3.750000238418579
6.514,116.83704376220703,119.28870391845703,-10.342951774597168,-191.9862060546875,-110.98162078857422,336.5421142578125,27.150001525878906,42.30000305175781,-1.2000000476837158
6.533,109.09898376464844,124.19203186035156,-10.649409294128418,-152.41653442382812,-124.43797302246094,343.86981201171875,25.650001525878906,42.30000305175781,-0.45000001788139343
6.537,106.83885955810547,129.47842407226562,-9.078812599182129,-74.07656860351562,-154.54823303222656,347.86676025390625,23.25,43.650001525878906,1.0500000715255737
6.544,107.37516021728516,144.64808654785156,-2.3750481605529785,-31.44257164001465,-179.4624786376953,368.5176086425781,23.25,43.650001525878906,1.0500000715255737
6.554,108.48606872558594,149.28326416015625,-0.1149216815829277,21.050535202026367,-214.10260009765625,386.90350341796875,20.25,42.900001525878906,-0.6000000238418579
6.564,110.17158508300781,149.24496459960938,5.899312973022461,32.5084228515625,-230.75650024414062,406.6217346191406,20.25,42.900001525878906,-0.6000000238418579
6.574,104.31057739257812,146.75498962402344,6.167463779449463,15.588054656982422,-255.40428161621094,417.2802429199219,19.5,43.20000076293945,1.8000000715255737
6.593,95.00192260742188,138.8253936767578,4.290409564971924,-41.701377868652344,-244.07962036132812,419.9448547363281,16.05000114440918,44.85000228881836,0.0
6.596,85.69326782226562,131.5087127685547,5.477933406829834,-138.56048583984375,-239.41653442382812,425.0076599121094,13.500000953674316,45.150001525878906,1.8000000715255737
6.604,73.89463806152344,126.64369201660156,6.090848922729492,-184.79173278808594,-242.48085021972656,424.7411804199219,13.500000953674316,45.150001525878906,1.8000000715255737
6.614,66.99934387207031,127.67798614501953,8.312667846679688,-233.82081604003906,-248.2097930908203,417.81317138671875,13.500000953674316,45.150001525878906,1.8000000715255737
6.624,60.44880294799805,129.01873779296875,10.72602367401123,-262.06585693359375,-244.34608459472656,400.49310302734375,9.15000057220459,43.80000305175781,1.9500000476837158
6.634,50.87199783325195,129.8614959716797,14.518439292907715,-258.3353576660156,-253.4058074951172,388.5022888183594,7.200000286102295,43.80000305175781,3.750000238418579
6.653,39.954437255859375,127.60137176513672,16.395492553710938,-225.8269500732422,-276.7212829589844,379.1761169433594,5.400000095367432,43.05000305175781,6.0
6.657,27.27474594116211,121.81698608398438,17.42978858947754,-176.39816284179688,-282.050537109375,350.7978515625,4.050000190734863,44.85000228881836,5.850000381469727
6.664,11.951854705810547,110.47804260253906,17.62132453918457,-161.34303283691406,-282.7166748046875,332.41192626953125,4.050000190734863,44.85000228881836,5.850000381469727
6.674,5.056553840637207,104.92349243164062,17.12333106994629,-111.64777374267578,-291.6431884765625,327.74884033203125,1.0500000715255737,41.70000076293945,7.650000095367432
6.684,-4.8267107009887695,94.5039291381836,16.510414123535156,-73.9433364868164,-293.64166259765625,292.0428771972656,-0.30000001192092896,43.650001525878906,7.650000095367432
6.694,-11.1474027633667,88.29815673828125,16.89348793029785,-70.61255645751953,-281.6508483886719,260.7335205078125,-1.5,41.70000076293945,7.650000095367432
6.712,-16.778566360473633,83.81621551513672,17.73624610900879,-47.430320739746094,-267.39508056640625,244.4793243408203,-1.6500000953674316,41.55000305175781,8.25
6.716,-31.871612548828125,75.77169799804688,5.899312973022461,-53.69218826293945,-235.28636169433594,217.83306884765625,-4.050000190734863,43.20000076293945,9.15000057220459
6.724,-35.817256927490234,73.85633087158203,12.181697845458984,-73.14395141601562,-216.76722717285156,203.71055603027344,-4.050000190734863,43.20000076293945,9.15000057220459
6.734,-41.21857833862305,69.79576873779297,17.544710159301758,-110.31546783447266,-182.2603302001953,158.67840576171875,-6.150000095367432,41.10000228881836,8.25
6.744,-44.93437576293945,62.59400939941406,8.542511940002441,-125.7702865600586,-159.07809448242188,118.57579803466797,-5.400000095367432,40.650001525878906,9.0
6.754,-56.733001708984375,69.48931121826172,16.740259170532227,-139.35987854003906,-121.50688934326172,75.14241790771484,-7.500000476837158,40.95000076293945,10.200000762939453
6.773,-58.9548225402832,64.6242904663086,12.22000503540039,-127.76875305175781,-83.40275573730469,8.260336875915527,-7.200000286102295,40.35000228881836,8.550000190734863
6.776,-60.372188568115234,65.19889831542969,11.453861236572266,-125.63705444335938,-65.41653442382812,-6.661561965942383,-7.800000190734863,40.95000076293945,10.950000762939453
6.784,-61.138336181640625,65.54366302490234,12.22000503540039,-108.050537109375,-61.552833557128906,-29.177640914916992,-7.800000190734863,40.95000076293945,10.950000762939453
6.794,-59.79758071899414,65.888427734375,15.591041564941406,-81.8039779663086,-32.37519073486328,-71.01225280761719,-7.800000190734863,39.75,10.200000762939453
6.804,-58.45682907104492,67.53564453125,15.093047142028809,-54.4915771484375,-15.45482349395752,-110.04900360107422,-6.300000190734863,40.5,12.750000953674316
6.814,-52.289363861083984,71.09821319580078,13.522451400756836,-26.513015747070312,-3.9969370365142822,-139.7595672607422,-6.300000190734863,40.5,12.750000953674316
6.833,-45.81544494628906,73.81802368164062,11.798625946044922,-8.260336875915527,19.718223571777344,-167.2052001953125,-6.300000190734863,40.5,12.750000953674316
6.837,-30.37763023376465,84.73558807373047,8.006210327148438,-6.128636837005615,67.68146514892578,-205.44256591796875,-4.200000286102295,41.55000305175781,13.65000057220459
6.844,-27.849353790283203,88.45138549804688,6.971915245056152,9.192955017089844,81.00459289550781,-222.22970581054688,-3.3000001907348633,42.150001525878906,11.700000762939453
6.854,-21.87342643737793,95.30838012695312,6.358999729156494,32.108726501464844,106.05206298828125,-246.74424743652344,-0.9000000357627869,42.30000305175781,13.050000190734863
6.864,-6.320692539215088,109.78851318359375,14.595053672790527,49.69525146484375,130.03369140625,-273.25726318359375,-0.45000001788139343,42.60000228881836,12.600000381469727
6.874,15.093047142028809,127.56306457519531,19.843143463134766,73.14395141601562,143.75650024414062,-294.30780029296875,-0.45000001788139343,42.60000228881836,12.600000381469727
6.887,43.63193130493164,144.8013153076172,27.46628189086914,108.983154296875,149.48544311523438,-319.35528564453125,1.5,43.20000076293945,12.750000953674316
6.894,75.8866195678711,165.18077087402344,32.40791320800781,132.9647674560547,143.09034729003906,-310.8284912109375,3.450000047683716,43.05000305175781,13.050000190734863
6.904,82.62869262695312,173.53173828125,32.178070068359375,110.44869232177734,180.66156005859375,-373.3139343261719,4.5,45.150001525878906,11.40000057220459
6.914,102.58675384521484,161.0435791015625,34.01681900024414,96.45941925048828,197.71514892578125,-406.8882141113281,7.500000476837158,43.20000076293945,11.700000762939453
6.924,100.13509368896484,166.67474365234375,25.550920486450195,96.19295501708984,227.82540893554688,-400.22662353515625,7.500000476837158,43.20000076293945,11.700000762939453
6.934,94.08255004882812,166.59812927246094,26.738445281982422,76.34149932861328,265.3966369628906,-423.9418029785156,10.65000057220459,42.60000228881836,12.600000381469727
6.951,92.35872650146484,156.71485900878906,24.401702880859375,73.67687225341797,290.9770202636719,-435.0,12.750000953674316,42.45000076293945,11.40000057220459
6.956,95.8063735961914,157.40440368652344,26.54690933227539,93.12863159179688,288.578857421875,-424.6079406738281,14.550000190734863,43.95000076293945,10.200000762939453
6.964,98.33465576171875,158.24716186523438,24.938005447387695,101.12251281738281,297.37213134765625,-424.4747314453125,15.300000190734863,43.650001525878906,11.700000762939453
6.974,96.45759582519531,155.56564331054688,25.70414924621582,128.56814575195312,291.50994873046875,-411.4180603027344,15.300000190734863,43.650001525878906,11.700000762939453
6.984,93.39302062988281,148.21066284179688,24.59324073791504,158.67840576171875,286.58038330078125,-399.9601745605469,15.300000190734863,43.650001525878906,11.700000762939453
7.002,88.45138549804688,136.5652618408203,23.02264404296875,167.87135314941406,284.71514892578125,-384.7718200683594,22.5,43.20000076293945,8.40000057220459
7.006,79.6024169921875,123.92388153076172,23.060951232910156,160.01071166992188,296.9724426269531,-373.84686279296875,24.30000114440918,40.95000076293945,6.900000095367432
7.014,72.05589294433594,107.14531707763672,20.11129379272461,147.75344848632812,304.96630859375,-368.5176086425781,26.55000114440918,40.95000076293945,7.350000381469727
7.024,66.61626434326172,97.76004028320312,18.081010818481445,139.2266387939453,301.76873779296875,-340.8055114746094,27.30000114440918,40.20000076293945,6.600000381469727
7.034,61.866172790527344,86.03803253173828,16.66364288330078,129.2342987060547,306.96478271484375,-320.5543518066406,27.30000114440918,40.20000076293945,6.600000381469727
7.044,57.38422775268555,70.98329162597656,15.476119995117188,122.43950653076172,305.4992370605469,-316.0245056152344,29.250001907348633,39.30000305175781,4.650000095367432
7.063,51.71475601196289,58.3036003112793,14.556746482849121,117.50994873046875,295.50689697265625,-283.5160827636719,31.650001525878906,38.400001525878906,4.200000286102295
7.067,49.722782135009766,48.72679138183594,13.637372970581055,95.39356231689453,287.646240234375,-262.3323059082031,31.80000114440918,38.25,2.8500001430511475
7.074,46.54328155517578,36.08540725708008,9.27034854888916,92.46247863769531,281.2511291503906,-247.14395141601562,33.75,37.80000305175781,2.5500001907348633
7.084,43.70854568481445,29.688100814819336,8.121131896972656,98.19142150878906,259.4012145996094,-227.82540893554688,33.75,37.80000305175781,2.5500001907348633
7.094,37.84754180908203,19.268535614013672,8.044517517089844,94.9938735961914,252.60643005371094,-207.30780029296875,34.20000076293945,37.20000076293945,1.6500000953674316
7.104,34.897884368896484,8.619126319885254,6.052541732788086,90.86370086669922,241.54823303222656,-198.11485290527344,34.5,37.05000305175781,0.6000000238418579
7.122,31.871612548828125,0.9576807022094727,2.3367409706115723,91.52986145019531,229.0244903564453,-186.12403869628906,35.70000076293945,34.20000076293945,0.15000000596046448
7.126,30.301015853881836,-5.592854976654053,2.9496564865112305,102.32159423828125,205.7090301513672,-160.41041564941406,36.75,33.900001525878906,-1.0500000715255737
7.134,31.335311889648438,-14.709975242614746,1.6089035272598267,113.91270446777344,185.85757446289062,-143.4900360107422,35.70000076293945,33.45000076293945,-1.9500000476837158
7.144,34.20835494995117,-21.37543296813965,3.2178070545196533,115.51148223876953,172.134765625,-151.75038146972656,35.70000076293945,33.45000076293945,-1.9500000476837158
7.154,37.809234619140625,-25.20615577697754,-3.6774938106536865,163.4747314453125,150.55130004882812,-148.4196014404297,36.30000305175781,33.150001525878906,-3.6000001430511475
7.164,36.66001510620117,-22.792800903320312,6.205770969390869,151.88360595703125,114.97856140136719,-138.16079711914062,39.75,31.950000762939453,-3.6000001430511475
7.183,37.311241149902344,-31.41192626953125,5.861005783081055,144.1562042236328,105.25267791748047,-118.97549438476562,37.650001525878906,31.05000114440918,-4.200000286102295
7.187,38.07738494873047,-34.782962799072266,2.5282769203186035,110.18223571777344,86.73353576660156,-98.99080657958984,37.95000076293945,29.55000114440918,-4.200000286102295
7.194,39.839515686035156,-35.97048568725586,2.75812029838562,90.99693298339844,66.34915924072266,-69.01377868652344,37.95000076293945,29.55000114440918,-4.200000286102295
7.204,41.448421478271484,-34.284969329833984,-1.723825216293335,33.4410400390625,71.14547729492188,-33.70750427246094,37.95000076293945,30.600000381469727,-4.950000286102295
7.214,43.82346725463867,-27.657817840576172,-7.623138427734375,-15.321592330932617,66.74884796142578,-1.5987749099731445,39.150001525878906,29.55000114440918,-6.0
7.224,45.164222717285156,-13.828908920288086,-12.641385078430176,-62.35221862792969,57.422664642333984,55.95711898803711,39.900001525878906,29.55000114440918,-4.5
7.243,51.1784553527832,3.2561142444610596,-10.955866813659668,-104.05359649658203,51.693721771240234,99.79019927978516,39.75,30.900001525878906,-6.150000095367432
7.247,65.12228393554688,23.3291015625,-3.485957622528076,-166.80551147460938,31.975496292114258,150.01837158203125,39.75,30.900001525878906,-6.150000095367432
7.254,81.09639739990234,42.48271560668945,-6.89530086517334,-176.39816284179688,19.31852912902832,162.00918579101562,36.45000076293945,30.600000381469727,-5.25
7.264,83.93113708496094,52.74905014038086,-9.883264541625977,-203.3108673095703,25.447166442871094,183.7258758544922,37.05000305175781,31.200000762939453,-5.400000095367432
7.274,79.83226013183594,64.31783294677734,-11.72201156616211,-234.8866729736328,36.238895416259766,194.2511444091797,36.75,30.150001525878906,-5.100000381469727
7.284,71.8643569946289,70.33206939697266,-17.889474868774414,-250.87442016601562,60.35375213623047,195.31700134277344,34.650001525878906,31.05000114440918,-2.700000047683716
7.303,68.1102523803711,83.89282989501953,-21.796812057495117,-228.75804138183594,51.160797119140625,192.65237426757812,34.5,31.200000762939453,-3.6000001430511475
7.307,69.71915435791016,104.770263671875,-20.226215362548828,-153.34915161132812,43.30015182495117,229.0244903564453,34.5,31.200000762939453,-3.6000001430511475
7.314,78.45320129394531,126.2989273071289,-14.326903343200684,-90.06431579589844,22.249616622924805,245.0122528076172,30.900001525878906,33.45000076293945,-1.9500000476837158
7.324,80.36856079101562,131.5087127685547,-12.29662036895752,-18.119447708129883,-8.926492691040039,272.4578857421875,30.150001525878906,34.5,0.45000001788139343
7.334,81.05809020996094,134.68821716308594,-8.772355079650879,23.848390579223633,-29.444103240966797,302.96783447265625,29.55000114440918,33.150001525878906,-1.0500000715255737
7.343,75.54185485839844,130.58934020996094,-9.193734169006348,39.03675079345703,-20.650842666625977,351.4640197753906,28.05000114440918,32.85000228881836,-0.30000001192092896
7.362,68.7231674194336,125.41786193847656,-12.679692268371582,6.5283308029174805,-3.3307809829711914,341.2052001953125,28.05000114440918,32.85000228881836,-0.30000001192092896
