time,accel_x,accel_y,accel_z,gyro_x,gyro_y,gyro_z,mag_x,mag_y,mag_z
0.0,3.5916268825531006,-8.758926391601562,2.548356056213379,-0.015118913725018501,0.026419920846819878,-0.02321287989616394,-52.309268951416016,47.41303634643555,-41.873722076416016
0.01,3.631108045578003,-8.776873588562012,2.5603203773498535,-0.01863138936460018,0.022143863141536713,-0.019547687843441963,-52.294654846191406,47.13534164428711,-43.072200775146484
0.02,3.702892780303955,-8.798408508300781,2.513659954071045,-0.02076941914856434,0.007941247895359993,-0.01237002108246088,-52.1192626953125,46.59456253051758,-41.53756332397461
0.03,3.69930362701416,-8.791230201721191,2.4717857837677,-0.0138971833512187,-0.0018325956771150231,-0.0018325956771150231,-52.13387680053711,47.1207275390625,-41.37678909301758
0.04,3.693321704864502,-8.797212600708008,2.510071039199829,-0.0088575454428792,-0.0032070425804704428,0.006108652334660292,-52.309268951416016,46.8430290222168,-41.9029541015625
0.06,3.7950165271759033,-8.761320114135742,2.557927370071411,-0.03130684420466423,0.022143863141536713,0.0074830991216003895,-52.294654846191406,46.76995086669922,-41.99064636230469
0.064,3.820141077041626,-8.756534576416016,2.5567307472229004,-0.03695734962821007,0.029474247246980667,0.003817907767370343,-51.900028228759766,47.01841354370117,-41.698333740234375
0.07,3.9014973640441895,-8.695516586303711,2.537588357925415,-0.043676864355802536,0.0377209298312664,0.0006108652451075613,-52.543113708496094,46.82841491699219,-41.82987594604492
0.08,3.950549840927124,-8.615358352661133,2.493321180343628,-0.04657847434282303,0.04703662171959877,-0.005955935921519995,-52.309268951416016,46.755332946777344,-41.82987594604492
0.09,3.961317777633667,-8.539983749389648,2.44785737991333,-0.035582900047302246,0.052381694316864014,-0.012828170321881771,-52.63081359863281,47.61765670776367,-42.35603332519531
0.1,4.000799655914307,-8.48614501953125,2.4562323093414307,-0.02428189292550087,0.04581489413976669,-0.018020525574684143,-52.80619812011719,46.95995330810547,-41.55217742919922
0.116,4.006781578063965,-8.61775016784668,2.427518606185913,-0.0050396379083395,0.012064589187502861,-0.014355332590639591,-52.03157043457031,46.95995330810547,-41.698333740234375
0.12,3.964907169342041,-8.654839515686035,2.4263219833374023,0.001527163083665073,0.007941247895359993,-0.011301006190478802,-52.36772918701172,47.237648010253906,-42.049110412597656
0.13,3.8943188190460205,-8.663214683532715,2.4777677059173584,0.006566801108419895,0.006719517521560192,-0.00427605677396059,-52.55773162841797,47.237648010253906,-41.59602355957031
0.14,3.844069242477417,-8.659625053405762,2.5112671852111816,-0.001527163083665073,0.00809396430850029,-0.0009162978385575116,-52.0608024597168,47.03303146362305,-41.9029541015625
0.15,3.7878382205963135,-8.694320678710938,2.499303102493286,-0.011759155429899693,0.01114829070866108,-0.0009162978385575116,-52.47003936767578,47.36919021606445,-41.099090576171875
0.16,3.8189449310302734,-8.709874153137207,2.513659954071045,-0.014355332590639591,0.01725694164633751,0.004123340360820293,-52.0608024597168,46.916107177734375,-41.6252555847168
0.18,3.915853977203369,-8.740981101989746,2.496910333633423,-0.013744467869400978,0.012675453908741474,0.00427605677396059,-52.63081359863281,47.13534164428711,-41.34756088256836
0.183,3.913461446762085,-8.718249320983887,2.486142635345459,-0.012522736564278603,0.0138971833512187,0.003512475173920393,-52.35311508178711,47.237648010253906,-41.25986862182617
0.19,3.94815731048584,-8.670392990112305,2.5016961097717285,-0.004734205547720194,0.016340645030140877,0.001679879380390048,-51.63694763183594,47.09149169921875,-41.27448272705078
0.2,3.9900314807891846,-8.630910873413086,2.475374937057495,0.0027488935738801956,0.01924225501716137,0.0009162978385575116,-51.98772430419922,47.310726165771484,-41.084476470947266
0.21,3.998406410217285,-8.58784008026123,2.4502503871917725,0.009010262787342072,0.02229658141732216,-0.008704829961061478,-52.090030670166016,47.1207275390625,-41.78602600097656
0.22,3.9972100257873535,-8.6033935546875,2.4538395404815674,0.01237002108246088,0.01970040239393711,-0.013744467869400978,-52.42618942260742,46.755332946777344,-41.449867248535156
0.236,3.8943188190460205,-8.657232284545898,2.4179470539093018,0.010690141469240189,0.008246680721640587,-0.012980885803699493,-52.0608024597168,47.529964447021484,-41.82987594604492
0.24,3.9014973640441895,-8.694320678710938,2.431107759475708,0.010079275816679,0.0006108652451075613,-0.011453723534941673,-52.16311264038086,47.04764938354492,-41.756797790527344
0.25,3.8775689601898193,-8.739784240722656,2.4610180854797363,0.007177666295319796,-0.01313360221683979,-0.005650503095239401,-52.47003936767578,47.310726165771484,-41.85910415649414
0.26,3.8907296657562256,-8.767301559448242,2.4598214626312256,0.003054326167330146,-0.020463986322283745,-0.0003054326225537807,-52.543113708496094,47.01841354370117,-41.698333740234375
0.27,3.978067398071289,-8.74337387084961,2.420340061187744,-0.0006108652451075613,-0.02229658141732216,0.0007635815418325365,-52.002342224121094,47.26688003540039,-41.21601867675781
0.28,4.022334575653076,-8.736194610595703,2.3820548057556152,-0.0006108652451075613,-0.023365594446659088,0.0,-52.23618698120117,47.13534164428711,-41.3037109375
0.299,3.902693510055542,-8.688338279724121,2.379662036895752,0.0013744467869400978,-0.03481931984424591,-0.001679879380390048,-52.85004425048828,47.89535140991211,-41.888336181640625
0.303,3.8847475051879883,-8.687142372131348,2.39401912689209,0.002138028386980295,-0.029626963660120964,-0.004123340360820293,-52.908504486083984,47.25226593017578,-41.756797790527344
0.31,3.8560335636138916,-8.663214683532715,2.434696912765503,-0.0012217304902151227,-0.020158551633358,-0.009468411095440388,-52.83543014526367,47.19380569458008,-41.91756820678711
0.32,3.755535125732422,-8.654839515686035,2.499303102493286,-0.016340645030140877,-0.0073303827084600925,-0.016035212203860283,-52.703887939453125,46.872257232666016,-41.727561950683594
0.33,3.7567315101623535,-8.652446746826172,2.458625316619873,-0.02932153083384037,0.006108652334660292,-0.021380282938480377,-52.77696990966797,47.41303634643555,-42.063724517822266
0.34,3.7495527267456055,-8.694320678710938,2.4777677059173584,-0.03176499158143997,0.008246680721640587,-0.022143863141536713,-52.952354431152344,46.901493072509766,-42.10757064819336
0.353,3.724428415298462,-8.678768157958984,2.47896409034729,-0.025656340643763542,-0.0088575454428792,-0.011301006190478802,-52.952354431152344,47.296112060546875,-41.873722076416016
0.36,3.675375461578369,-8.659625053405762,2.489731788635254,-0.015118913725018501,-0.014966198243200779,-0.0003054326225537807,-53.0985107421875,47.07687759399414,-42.10757064819336
0.37,3.6538400650024414,-8.650053024291992,2.533998966217041,-0.0022907445672899485,-0.02382374368607998,0.010690141469240189,-52.83543014526367,47.20841979980469,-41.80064392089844
0.38,3.6023943424224854,-8.641678810119629,2.5902304649353027,0.00427605677396059,-0.024587325751781464,0.01863138936460018,-52.8208122253418,47.354576110839844,-41.43525314331055
0.39,3.651447057723999,-8.646464347839355,2.610569477081299,0.01114829070866108,-0.017562376335263252,0.02626720443367958,-53.04004669189453,47.51534652709961,-41.084476470947266
0.409,3.6574294567108154,-8.635696411132812,2.5950162410736084,0.023976460099220276,-0.007941247895359993,0.036041051149368286,-52.47003936767578,47.33995819091797,-41.142940521240234
0.413,3.672982692718506,-8.556733131408691,2.5567307472229004,0.04917465150356293,-0.0029016099870204926,0.04718933627009392,-52.80619812011719,47.5591926574707,-42.253726959228516
0.42,3.682553768157959,-8.518448829650879,2.528017044067383,0.06536258012056351,-0.01038470957428217,0.055436018854379654,-52.309268951416016,47.20841979980469,-41.727561950683594
0.43,3.759124279022217,-8.505288124084473,2.5232315063476562,0.08475754410028458,-0.038637224584817886,0.07208210229873657,-52.280033111572266,47.20841979980469,-41.2452507019043
0.44,3.830909013748169,-8.50169849395752,2.5148565769195557,0.09957103431224823,-0.08994990587234497,0.08567384630441666,-51.914642333984375,47.36919021606445,-41.683719635009766
0.45,3.8835508823394775,-8.555537223815918,2.396411657333374,0.12095130980014801,-0.14935654401779175,0.09056076407432556,-52.17772674560547,47.19380569458008,-41.698333740234375
0.46,3.9349966049194336,-8.654839515686035,2.334198474884033,0.15714508295059204,-0.19028452038764954,0.0884227380156517,-51.783103942871094,46.930721282958984,-41.81526184082031
0.474,3.9661033153533936,-8.749356269836426,2.2887346744537354,0.19303342700004578,-0.21594086289405823,0.07819075137376785,-52.17772674560547,47.67612075805664,-42.049110412597656
0.48,3.9589247703552246,-8.846264839172363,2.227717876434326,0.19944749772548676,-0.21151207387447357,0.06887505203485489,-52.20695877075195,47.32534408569336,-42.35603332519531
0.49,3.9732820987701416,-9.17288589477539,2.2121644020080566,0.20754145085811615,-0.18677204847335815,0.04657847434282303,-51.95848846435547,47.36919021606445,-41.683719635009766
0.5,3.970889091491699,-9.378667831420898,2.1415762901306152,0.21242839097976685,-0.12232576310634613,0.028710665181279182,-51.66618347167969,47.36919021606445,-42.01987838745117
0.51,3.896711587905884,-9.339186668395996,2.1296122074127197,0.20601430535316467,-0.02367102913558483,0.01970040239393711,-52.0169563293457,47.471500396728516,-41.639869689941406
0.529,3.7148568630218506,-9.163313865661621,2.1439690589904785,0.1511891484260559,0.08796459436416626,-0.014508049935102463,-52.14849853515625,47.57380676269531,-41.42063903808594
0.533,3.597608804702759,-8.749356269836426,2.1619153022766113,0.04764748737215996,0.1589776873588562,-0.07223481684923172,-52.0608024597168,47.44226837158203,-41.873722076416016
0.54,3.6023943424224854,-8.549554824829102,2.121237277984619,-0.025656340643763542,0.18784105777740479,-0.08521570265293121,-52.075416564941406,47.06226348876953,-40.967552185058594
0.55,3.665804386138916,-8.395217895507812,2.0207386016845703,-0.10476338863372803,0.20173825323581696,-0.07773260027170181,-52.338497161865234,47.471500396728516,-41.756797790527344
0.56,3.9493536949157715,-8.328218460083008,1.9692928791046143,-0.14065171778202057,0.16050483286380768,-0.05803219974040985,-51.87080001831055,47.471500396728516,-41.97603225708008
0.57,4.269991874694824,-8.402396202087402,1.9070795774459839,-0.10995574295520782,0.011301006190478802,-0.017409659922122955,-52.20695877075195,47.67612075805664,-41.069862365722656
0.58,4.423132419586182,-8.544769287109375,1.978864312171936,-0.04184426739811897,-0.14049901068210602,0.019394971430301666,-52.484657287597656,47.32534408569336,-40.82139587402344
0.593,4.301098346710205,-8.531608581542969,2.1367905139923096,0.04841107130050659,-0.2874121069908142,0.052381694316864014,-52.39695739746094,47.16456985473633,-41.53756332397461
0.6,4.122833251953125,-8.505288124084473,2.297109603881836,0.08231408894062042,-0.3410155177116394,0.056810468435287476,-52.74773406982422,47.471500396728516,-42.16603469848633
0.61,3.8536407947540283,-8.585447311401367,2.410768747329712,0.08949175477027893,-0.38179075717926025,0.041691552847623825,-52.22157287597656,47.734580993652344,-42.063724517822266
0.62,3.638286828994751,-8.780462265014648,2.4263219833374023,0.06704245507717133,-0.37720927596092224,-0.005955935921519995,-52.23618698120117,47.310726165771484,-41.2014045715332
0.63,3.4719855785369873,-9.102296829223633,2.3808584213256836,0.050243668258190155,-0.32268956303596497,-0.04352414980530739,-52.14849853515625,47.69073486328125,-41.142940521240234
0.65,3.4947173595428467,-9.290133476257324,2.39401912689209,0.0277943667024374,-0.2561052441596985,-0.07040221989154816,-52.090030670166016,47.38380432128906,-40.61677932739258
0.653,3.376272678375244,-9.043672561645508,2.2887346744537354,-0.01924225501716137,-0.20906862616539001,-0.09269880503416061,-52.0608024597168,47.58842468261719,-41.332942962646484
0.66,3.1824538707733154,-8.799604415893555,2.15234375,-0.04657847434282303,-0.1823432743549347,-0.10720684379339218,-51.72464370727539,47.2230339050293,-40.74831771850586
0.67,2.9312076568603516,-8.583054542541504,1.9992032051086426,-0.06918048858642578,-0.12950342893600464,-0.14019358158111572,-52.528499603271484,47.33995819091797,-41.34756088256836
0.68,2.768495798110962,-8.717052459716797,1.9645073413848877,-0.06658431142568588,-0.03695734962821007,-0.17318028211593628,-51.885414123535156,47.25226593017578,-40.73370361328125
0.69,2.612962245941162,-9.141778945922852,2.121237277984619,-0.06352998316287994,0.07513642311096191,-0.1872301995754242,-52.323883056640625,47.25226593017578,-40.762935638427734
0.71,2.5232315063476562,-9.29491901397705,2.2468602657318115,-0.07757988572120667,0.21273382008075714,-0.17333300411701202,-52.19234085083008,47.06226348876953,-40.90909194946289
0.713,2.4921247959136963,-9.105886459350586,2.287538528442383,-0.13087788224220276,0.35246923565864563,-0.1443169116973877,-52.689273834228516,47.14995574951172,-41.21601867675781
0.72,2.5914268493652344,-9.000602722167969,2.258824348449707,-0.15134187042713165,0.3718641996383667,-0.12034045159816742,-52.280033111572266,46.78456497192383,-41.449867248535156
0.73,2.83669114112854,-8.93838882446289,2.1332013607025146,-0.17470745742321014,0.3608686327934265,-0.0607810914516449,-52.23618698120117,46.930721282958984,-41.46448516845703
0.74,3.125026226043701,-8.868996620178223,2.084148406982422,-0.1667662113904953,0.33078351616859436,0.01237002108246088,-52.42618942260742,47.07687759399414,-41.727561950683594
0.75,3.324826955795288,-8.695516586303711,2.1415762901306152,-0.15241087973117828,0.2869539260864258,0.08399397134780884,-51.92926025390625,46.901493072509766,-41.97603225708008
0.77,3.568894863128662,-8.46341323852539,2.2301106452941895,-0.146913081407547,0.23609942197799683,0.14782939851284027,-52.35311508178711,47.25226593017578,-41.712947845458984
0.773,4.107280254364014,-8.403593063354492,2.2325034141540527,-0.13576479256153107,0.1576032191514969,0.22250765562057495,-52.42618942260742,47.529964447021484,-42.37065124511719
0.78,4.284348964691162,-8.422735214233398,2.227717876434326,-0.10262536257505417,0.1339322030544281,0.24938572943210602,-52.280033111572266,47.61765670776367,-41.65448760986328
0.79,4.632504463195801,-8.525627136230469,2.344965934753418,-0.04184426739811897,0.13347405195236206,0.2687807083129883,-52.38234329223633,47.16456985473633,-41.82987594604492
0.8,4.878964900970459,-8.542376518249512,2.4155545234680176,0.01664607785642147,0.15363259613513947,0.27748554944992065,-52.55773162841797,47.41303634643555,-41.56679153442383
0.81,5.142175674438477,-8.440681457519531,2.4179470539093018,0.06688974052667618,0.16004669666290283,0.2871066629886627,-52.0608024597168,47.74919891357422,-41.47909927368164
0.83,5.181657314300537,-8.206185340881348,2.3306093215942383,0.11942415684461594,0.14294245839118958,0.2926044464111328,-51.82695388793945,47.70534896850586,-41.91756820678711
0.834,5.097908020019531,-7.8664045333862305,2.1655044555664062,0.20341812074184418,0.11591167747974396,0.28267788887023926,-52.16311264038086,47.529964447021484,-42.282955169677734
0.84,4.993820667266846,-7.7515482902526855,2.1056838035583496,0.24174991250038147,0.10644327104091644,0.26679539680480957,-51.7392578125,47.909969329833984,-41.756797790527344
0.85,4.802394866943359,-7.743173599243164,2.0554347038269043,0.2874121069908142,0.10766499489545822,0.2422080636024475,-51.44694519042969,47.5591926574707,-41.97603225708008
0.86,4.656432628631592,-7.8376898765563965,2.032702684402466,0.3228422701358795,0.11499537527561188,0.20815233886241913,-51.49079132080078,48.23151397705078,-41.332942962646484
0.87,4.583451747894287,-7.998009204864502,2.0231313705444336,0.3546072542667389,0.11636982858181,0.17027868330478668,-51.33001708984375,48.099971771240234,-42.429115295410156
0.89,4.587040901184082,-8.149953842163086,2.063809394836426,0.38179075717926025,0.10430524498224258,0.13408491015434265,-51.09617233276367,47.98304748535156,-42.58988571166992
0.893,4.350151538848877,-8.256434440612793,2.1164515018463135,0.39675697684288025,0.07773260027170181,0.08338310569524765,-51.3592529296875,47.79304122924805,-43.466819763183594
0.9,4.182653903961182,-8.273183822631836,2.132004976272583,0.3940081000328064,0.07070764899253845,0.04795292019844055,-51.49079132080078,47.63227081298828,-43.686058044433594
0.91,3.926621675491333,-8.301898002624512,2.183450698852539,0.3839287757873535,0.07681629806756973,0.00015271631127689034,-50.89155578613281,47.661502838134766,-42.96989059448242
0.92,3.6251261234283447,-8.331808090209961,2.1738791465759277,0.36880987882614136,0.12507465481758118,-0.039706241339445114,-51.30078887939453,48.18766403198242,-43.30604934692383
0.93,3.452842950820923,-8.410771369934082,2.252842426300049,0.3494149148464203,0.2405281811952591,-0.06612616032361984,-51.92926025390625,48.216896057128906,-43.247589111328125
0.95,3.3308091163635254,-8.530412673950195,2.4299113750457764,0.3110831081867218,0.34865131974220276,-0.07009679079055786,-51.27155685424805,47.500728607177734,-43.11604690551758
0.954,3.4671998023986816,-8.70389175415039,2.641676187515259,0.22876903414726257,0.456163614988327,-0.05650503188371658,-51.0815544128418,47.95381546020508,-44.928382873535156
0.96,3.6370902061462402,-8.7505521774292,2.6763720512390137,0.17516560852527618,0.4957171380519867,-0.046731188893318176,-51.169246673583984,48.14381790161133,-44.15375518798828
0.97,3.8141591548919678,-8.660820960998535,2.583051919937134,0.14553864300251007,0.5406157374382019,-0.029016099870204926,-51.578487396240234,47.9391975402832,-44.38760757446289
0.98,4.121636867523193,-8.524430274963379,2.589033842086792,0.16661350429058075,0.6017022132873535,0.0029016099870204926,-51.1400146484375,48.23151397705078,-44.372989654541016
0.99,4.5714874267578125,-8.262415885925293,2.6021945476531982,0.1843285858631134,0.6256787180900574,0.020463986322283745,-51.62232971191406,47.851505279541016,-44.53376388549805
1.009,4.789234161376953,-8.01356315612793,2.548356056213379,0.19898934662342072,0.616362988948822,0.035124752670526505,-51.213096618652344,47.851505279541016,-45.41069793701172
1.013,5.096712112426758,-7.769495010375977,2.413161516189575,0.23609942197799683,0.6291911602020264,0.053908854722976685,-51.54925537109375,48.289974212646484,-45.001461029052734
1.02,5.284548759460449,-7.680960178375244,2.2408783435821533,0.27458393573760986,0.6598871946334839,0.07024950534105301,-51.169246673583984,48.07073974609375,-46.15609359741211
1.03,5.508277416229248,-7.642675399780273,2.0829520225524902,0.35155293345451355,0.7131851315498352,0.09300423413515091,-51.25694274902344,48.45074462890625,-45.922245025634766
1.04,5.7200422286987305,-7.5146589279174805,1.8616158962249756,0.47189339995384216,0.7849618196487427,0.12767083942890167,-50.86231994628906,48.43613052368164,-45.8199348449707
1.05,5.804987907409668,-7.3052873611450195,1.1425727605819702,0.6012440919876099,0.8126034736633301,0.14828753471374512,-51.44694519042969,48.026893615722656,-46.57994842529297
1.07,5.928217887878418,-7.0648088455200195,-0.7214360237121582,0.8428412675857544,0.8028296232223511,0.15653420984745026,-51.24232864379883,48.421512603759766,-48.406898498535156
1.074,6.659224987030029,-7.673781871795654,-1.031306505203247,1.0644326210021973,0.44287729263305664,0.21151207387447357,-51.344635009765625,48.085357666015625,-47.82227325439453
1.08,6.802794456481934,-8.244470596313477,-0.13160523772239685,0.9558513760566711,0.21212296187877655,0.21838431060314178,-50.92078399658203,48.216896057128906,-48.24612808227539
1.09,6.082554817199707,-8.49571704864502,0.9451649785041809,0.4824308156967163,-0.19792033731937408,0.13087788224220276,-51.388484954833984,48.43613052368164,-48.9184455871582
1.1,4.913661479949951,-8.346165657043457,1.5684951543807983,0.24129176139831543,-0.08659014105796814,0.03252857178449631,-51.154632568359375,48.669979095458984,-49.19614028930664
1.11,4.502095699310303,-8.280362129211426,2.252842426300049,0.11881328374147415,0.23029619455337524,-0.055283304303884506,-51.22771453857422,48.80152130126953,-48.845367431640625
1.129,4.439882278442383,-8.172685623168945,2.6177480220794678,0.006108652334660292,0.6870706677436829,-0.17623461782932281,-51.403099060058594,48.494590759277344,-48.18766403198242
1.133,4.42193603515625,-8.044669151306152,2.6632113456726074,0.0024434609804302454,0.7133378982543945,-0.17852537333965302,-51.66618347167969,48.465362548828125,-49.13768005371094
1.14,4.30588436126709,-8.045866012573242,2.6596221923828125,0.016340645030140877,0.7687739133834839,-0.1699732542037964,-51.695411682128906,48.5822868347168,-48.845367431640625
1.15,3.9146575927734375,-8.225327491760254,2.933600664138794,0.03329215571284294,0.8011497855186462,-0.1586722582578659,-51.7392578125,48.14381790161133,-49.049983978271484
1.16,3.5150563716888428,-8.431110382080078,3.2039895057678223,0.03634648025035858,0.8388707041740417,-0.16203199326992035,-51.403099060058594,48.34843444824219,-49.6784553527832
1.17,3.1345977783203125,-8.648857116699219,3.5150563716888428,0.01863138936460018,0.9318749308586121,-0.17577646672725677,-51.476173400878906,48.655364990234375,-50.07307434082031
1.19,2.8977081775665283,-8.949155807495117,3.895514965057373,-0.03649919852614403,1.0711522102355957,-0.17379117012023926,-51.98772430419922,48.20227813720703,-50.51154327392578
1.194,2.7840490341186523,-9.291330337524414,4.135993957519531,-0.1690569519996643,1.2754865884780884,-0.15241087973117828,-52.13387680053711,48.24612808227539,-51.03771209716797
1.2,2.888136863708496,-9.443273544311523,4.152743339538574,-0.22388210892677307,1.344056248664856,-0.11820242553949356,-52.14849853515625,48.37766647338867,-50.774627685546875
1.21,3.2470602989196777,-9.625128746032715,4.030709743499756,-0.26832255721092224,1.3646730184555054,-0.03390302136540413,-51.62232971191406,48.18766403198242,-51.44694519042969
1.22,3.809373378753662,-9.756733894348145,3.860819101333618,-0.26343563199043274,1.2709050178527832,0.09498954564332962,-52.64542770385742,48.69921112060547,-51.578487396240234
1.23,4.53200626373291,-9.987641334533691,3.8392839431762695,-0.20005835592746735,1.098641037940979,0.27382034063339233,-52.23618698120117,48.72844314575195,-51.476173400878906
1.249,5.359922409057617,-10.533205032348633,4.158725261688232,-0.019853120669722557,0.7293730974197388,0.6293439269065857,-51.60771560668945,49.035369873046875,-52.35311508178711
1.253,6.562315464019775,-11.26062297821045,4.350151538848877,0.02367102913558483,0.6298020482063293,0.6805039048194885,-51.98772430419922,49.12306213378906,-51.695411682128906
1.26,7.1509504318237305,-11.161321640014648,4.398007869720459,0.08491026610136032,0.5279402732849121,0.7199047207832336,-51.476173400878906,48.9184455871582,-52.38234329223633
1.27,7.995616436004639,-10.929216384887695,4.356133460998535,0.11759155988693237,0.4720461070537567,0.7727445363998413,-51.505409240722656,49.86845779418945,-52.703887939453125
1.28,9.199206352233887,-11.047661781311035,4.323830604553223,0.13011428713798523,0.4456261694431305,0.8539896011352539,-51.3592529296875,49.07921600341797,-52.294654846191406
1.29,10.370492935180664,-11.32522964477539,4.118047714233398,0.1537853181362152,0.22388210892677307,1.0094548463821411,-50.979244232177734,49.2984504699707,-52.04618453979492
1.309,10.061819076538086,-10.234102249145508,-0.4989035129547119,0.6546947956085205,-0.4862487316131592,0.8724682927131653,-49.73691940307617,50.10231018066406,-53.71236038208008
1.313,10.444670677185059,-9.948159217834473,-1.7192429304122925,0.849255383014679,-0.703411340713501,0.7174611687660217,-50.0,50.146156311035156,-53.28851318359375
1.32,10.742576599121094,-10.286745071411133,-2.228914260864258,0.9132435321807861,-1.2043209075927734,0.494189977645874,-50.21923065185547,50.3215446472168,-53.522361755371094
1.33,9.007781028747559,-11.46999454498291,-0.43190446496009827,0.39217546582221985,-1.7886134386062622,0.2232712358236313,-49.97077178955078,49.97077178955078,-53.741600036621094
1.34,6.250052452087402,-12.20100212097168,1.2227323055267334,-0.36789360642433167,-1.681864619255066,-0.04520402476191521,-50.07307434082031,50.10231018066406,-52.937740325927734
1.35,4.926821708679199,-12.524033546447754,1.9692928791046143,-1.103986144065857,-0.8232936263084412,-0.32528576254844666,-50.17538833618164,50.233848571777344,-52.14849853515625
1.369,5.292923927307129,-12.051450729370117,1.9405790567398071,-1.7348573207855225,-0.14477506279945374,-0.46242499351501465,-50.263084411621094,49.98538589477539,-51.25694274902344
1.373,5.942574977874756,-10.715059280395508,0.4331009089946747,-1.821447491645813,-0.1791362315416336,-0.4596760869026184,-50.84770202636719,50.21923065185547,-50.555397033691406
1.38,6.227320671081543,-9.92303466796875,-0.6795615553855896,-1.887420892715454,-0.3274237811565399,-0.44226643443107605,-50.950016021728516,49.63460922241211,-50.19000244140625
1.39,6.385247230529785,-8.846264839172363,-1.9692928791046143,-1.9533942937850952,-0.6600399017333984,-0.4726569652557373,-51.4177131652832,49.70768737792969,-49.37152862548828
1.4,6.308676719665527,-7.741977691650391,-2.638087034225464,-2.140624523162842,-1.1006264686584473,-0.6311764717102051,-51.593101501464844,49.576148986816406,-47.44226837158203
1.41,6.149554252624512,-6.655636310577393,-2.221735715866089,-2.3718371391296387,-1.3573424816131592,-0.8643743395805359,-52.41157531738281,49.093833923339844,-47.19380569458008
1.429,5.645864963531494,-5.924628257751465,1.3555339574813843,-2.8606817722320557,-1.8191567659378052,-1.3165671825408936,-53.17158508300781,48.50920867919922,-44.48991394042969
1.433,5.629115104675293,-5.765506267547607,2.4358932971954346,-2.869997501373291,-1.8805485963821411,-1.3487904071807861,-53.18620300292969,48.62613296508789,-43.89067459106445
1.44,5.1804609298706055,-5.795416355133057,3.322434186935425,-2.7991373538970947,-2.0529654026031494,-1.3854422569274902,-53.50774383544922,48.056121826171875,-42.37065124511719
1.45,4.6432719230651855,-6.134000778198242,3.2004001140594482,-2.3747386932373047,-2.334115982055664,-1.3122912645339966,-53.78544235229492,47.2230339050293,-40.19292449951172
1.46,4.869393825531006,-7.322037220001221,2.2360928058624268,-1.839468002319336,-2.492330312728882,-1.1510229110717773,-54.37007141113281,46.521484375,-39.374454498291016
1.47,5.152943134307861,-8.761320114135742,1.9573287963867188,-1.2557861804962158,-2.59907865524292,-0.9831876158714294,-54.676998138427734,46.24378967285156,-38.64366912841797
1.489,5.194817543029785,-10.370492935180664,2.3150558471679688,-0.3260492980480194,-2.6416866779327393,-0.7292203903198242,-54.51622772216797,45.33761978149414,-37.0067253112793
1.493,5.711667060852051,-12.340982437133789,3.032902479171753,-0.18295413255691528,-2.6755897998809814,-0.6696610450744629,-54.54545593261719,45.26454162597656,-36.26132583618164
1.5,6.210570812225342,-13.60080337524414,2.5196421146392822,-0.07819075137376785,-2.8182268142700195,-0.636521577835083,-54.32621765136719,44.72376251220703,-35.44285202026367
1.51,7.445267200469971,-15.14896011352539,2.1343977451324463,-0.1466076523065567,-3.1922287940979004,-0.6910412907600403,-54.48699188232422,44.91376876831055,-35.88132095336914
1.52,7.2634124755859375,-15.475580215454102,2.84386944770813,-0.35094207525253296,-3.539658546447754,-0.7449501156806946,-54.267757415771484,44.89915466308594,-34.44898986816406
1.53,6.52044153213501,-15.056836128234863,3.1334011554718018,-0.6684393286705017,-3.561802387237549,-0.8222246170043945,-54.048526763916016,43.96375274658203,-33.352821350097656
1.55,4.4542388916015625,-12.034701347351074,3.7806599140167236,-1.3726141452789307,-2.708423614501953,-0.9222537875175476,-52.893890380859375,43.452205657958984,-31.730487823486328
1.553,3.820141077041626,-11.593225479125977,3.607180118560791,-1.552055835723877,-2.3023509979248047,-0.9512698650360107,-53.56621170043945,43.40835952758789,-30.385852813720703
1.56,3.0628130435943604,-10.013962745666504,3.1549363136291504,-1.715462327003479,-1.7339410781860352,-1.0094548463821411,-53.639286041259766,42.282955169677734,-30.26892852783203
1.57,2.3258235454559326,-9.198010444641113,2.8869404792785645,-1.7502816915512085,-1.1592694520950317,-1.0990992784500122,-53.814674377441406,42.18064880371094,-29.771995544433594
1.58,1.8185451030731201,-8.403593063354492,2.5232315063476562,-1.6949982643127441,-0.7038694620132446,-1.0899362564086914,-53.814674377441406,41.23063278198242,-28.80736541748047
1.59,1.2598210573196411,-7.730013370513916,2.4741785526275635,-1.5748106241226196,-0.5303837656974792,-1.0305296182632446,-54.3408317565918,40.967552185058594,-27.784273147583008
1.609,-0.24765713512897491,-5.499902248382568,1.5984054803848267,-1.3675744533538818,-0.3627012372016907,-0.8691084980964661,-53.77082824707031,39.389068603515625,-27.389652252197266
1.613,-0.696311354637146,-5.255834579467773,1.2167502641677856,-1.2793045043945312,-0.3116939663887024,-0.8335255980491638,-54.238529205322266,40.03215408325195,-27.930429458618164
1.62,-1.3076776266098022,-4.628915309906006,0.873380184173584,-1.1433870792388916,-0.11927143484354019,-0.7860308289527893,-54.72084426879883,38.61444091796875,-27.316574096679688
1.63,-1.2634103298187256,-4.18983268737793,0.7597211599349976,-0.9882272481918335,0.1765400469303131,-0.7544185519218445,-54.82314682006836,38.32212829589844,-27.141185760498047
1.64,-0.7010970711708069,-3.704089403152466,0.5527420043945312,-0.8080219626426697,0.15103644132614136,-0.816421389579773,-55.4954719543457,38.029815673828125,-26.717334747314453
1.65,-0.4331009089946747,-3.122633457183838,0.3720839321613312,-0.6050620079040527,-0.10354165732860565,-0.9088147878646851,-55.51008605957031,37.635196685791016,-26.761180877685547
1.67,1.2071789503097534,-2.4394824504852295,0.6460620760917664,-0.0503963828086853,-0.5677992701530457,-0.8129088878631592,-56.12394332885742,37.41596221923828,-26.483484268188477
1.674,1.534995675086975,-2.475374937057495,0.9619146585464478,0.0088575454428792,-0.6957755088806152,-0.7808384895324707,-56.28471374511719,37.1236457824707,-26.717334747314453
1.68,1.8867405652999878,-2.4251255989074707,1.2023932933807373,0.18356500566005707,-1.1038334369659424,-0.6844744682312012,-55.84624481201172,37.094417572021484,-25.942707061767578
1.69,1.514656662940979,-2.4610180854797363,1.4727823734283447,0.43020185828208923,-1.6035212278366089,-0.556345522403717,-56.25548553466797,37.035953521728516,-25.92809295654297
1.7,0.4247260093688965,-3.0137598514556885,1.5326027870178223,0.5778785347938538,-1.5289957523345947,-0.34773504734039307,-55.802398681640625,37.109031677246094,-25.591930389404297
1.71,-0.20817556977272034,-3.6191442012786865,0.8003991842269897,0.660803496837616,-1.253495454788208,-0.17150041460990906,-55.90470504760742,36.831336975097656,-25.095001220703125
1.726,-0.1375872939825058,-4.744967460632324,-1.5553346872329712,0.8232936263084412,-0.8466591835021973,0.0754418596625328,-55.173927307128906,36.43671417236328,-25.095001220703125
1.731,0.2309073656797409,-5.374279499053955,-2.6249263286590576,0.8845328688621521,-0.675006091594696,0.1742493212223053,-54.881614685058594,37.26980209350586,-25.40192985534668
1.74,1.8999011516571045,-7.797012805938721,-4.804787635803223,0.9132435321807861,-0.08567384630441666,0.4340197443962097,-55.1593132019043,37.45980453491211,-25.738086700439453
1.75,4.145565032958984,-12.004791259765625,-7.080362319946289,0.39706239104270935,0.8762862086296082,0.6676757335662842,-54.70622634887695,37.679039001464844,-26.23501968383789
1.76,6.16271448135376,-13.429717063903809,-10.37527847290039,-0.3003929853439331,2.632523775100708,0.751669704914093,-55.173927307128906,38.00058364868164,-26.571178436279297
1.77,10.240083694458008,-13.426127433776855,-7.515855312347412,0.27320948243141174,3.6557230949401855,0.6655376553535461,-55.68547058105469,38.161354064941406,-27.667348861694336
1.789,13.526626586914062,-12.512068748474121,0.13519448041915894,0.8197811841964722,2.378556489944458,-0.29794952273368835,-56.66471862792969,38.51213073730469,-30.385852813720703
1.792,15.109477996826172,-12.264412879943848,0.8207381367683411,0.7484626173973083,2.2423336505889893,-0.4453207552433014,-56.8985710144043,38.5267448425293,-30.44431495666504
1.8,17.174484252929688,-11.958130836486816,-0.10169495642185211,0.2874121069908142,2.169029712677002,-0.7133378982543945,-57.19087600708008,38.205204010009766,-31.540485382080078
1.81,19.804197311401367,-11.782258987426758,-3.067598581314087,-1.2467758655548096,2.7759244441986084,-0.746019184589386,-57.70242691040039,38.43905258178711,-32.2274169921875
1.82,20.539989471435547,-10.969895362854004,-8.243273735046387,-2.34480619430542,1.9526307582855225,-0.7498371005058289,-58.76936340332031,38.219818115234375,-33.352821350097656
1.839,13.00259780883789,-10.246066093444824,-5.12901496887207,-0.8284859657287598,-2.8822147846221924,-0.2617557644844055,-59.456298828125,37.021339416503906,-31.306636810302734
1.843,10.660024642944336,-11.09791088104248,-1.5337992906570435,-0.35445454716682434,-3.35319185256958,-0.18570303916931152,-58.72551727294922,36.64133071899414,-31.072786331176758
1.85,5.895914554595947,-12.016755104064941,2.8007986545562744,0.7234171628952026,-4.338059425354004,-0.02519819140434265,-58.71090316772461,36.96287536621094,-30.53200912475586
1.86,1.1736794710159302,-10.579865455627441,7.865207672119141,1.396132469177246,-4.039804458618164,0.2525927722454071,-57.2347297668457,36.87518310546875,-29.494300842285156
1.87,-1.1030912399291992,-9.535398483276367,7.261020183563232,1.3002265691757202,-2.8011224269866943,0.6026185750961304,-56.737796783447266,37.81058120727539,-28.588130950927734
1.88,-2.3258235454559326,-8.437091827392578,5.686542987823486,1.0645854473114014,-1.6111570596694946,0.8578075170516968,-56.007015228271484,37.854427337646484,-28.368898391723633
1.9,-3.76151704788208,-7.2705912590026855,3.693321704864502,0.65958172082901,0.5413792729377747,0.954018771648407,-55.64162826538086,38.67290496826172,-28.968137741088867
1.904,-3.847658634185791,-7.29691219329834,2.9599215984344482,0.5946772694587708,0.9260717034339905,0.8807149529457092,-55.363929748535156,38.819061279296875,-29.143524169921875
1.91,-3.249452829360962,-7.217949390411377,2.1571295261383057,0.5925393104553223,1.2780828475952148,0.780380368232727,-55.817012786865234,39.25752639770508,-29.1873722076416
1.92,-4.223331928253174,-7.28255558013916,1.8352948427200317,0.6684393286705017,1.6711745262145996,0.5293146967887878,-55.64162826538086,39.79830551147461,-30.54662322998047
1.93,-3.5605199337005615,-7.503891468048096,1.9381862878799438,0.7585418820381165,1.8642079830169678,0.16584990918636322,-55.758548736572266,40.06138610839844,-30.663549423217773
1.94,-1.4823535680770874,-7.648657321929932,2.2061824798583984,0.8171849846839905,1.6149749755859375,-0.022602012380957603,-56.59164047241211,39.710609436035156,-31.613563537597656
1.958,-0.7429714202880859,-7.887939453125,2.78165602684021,0.9132435321807861,1.254717230796814,0.479834645986557,-57.16164779663086,40.324466705322266,-32.63665771484375
1.962,-0.6412764191627502,-8.024331092834473,3.1310083866119385,0.914923369884491,1.2880094051361084,0.5752823352813721,-56.810874938964844,40.25138854980469,-33.11897277832031
1.97,-0.7178468108177185,-8.834300994873047,3.4743783473968506,0.8764389157295227,1.4654656648635864,0.9161451458930969,-57.05934143066406,40.82139587402344,-33.84975051879883
1.98,-0.5395814776420593,-9.8871431350708,3.579662799835205,0.802524209022522,1.659873604774475,1.069166898727417,-56.810874938964844,40.93832015991211,-34.916690826416016
1.99,-0.12323036044836044,-10.366903305053711,3.166900634765625,0.744186520576477,1.7658586502075195,1.0580185651779175,-57.22011184692383,41.47909927368164,-34.785152435302734
2.009,0.33020952343940735,-10.237690925598145,2.568694829940796,0.792750358581543,1.9480491876602173,0.9564622640609741,-56.66471862792969,42.0052604675293,-36.01285934448242
2.013,1.3244272470474243,-9.670592308044434,2.1583259105682373,0.9750936627388,2.1920900344848633,0.7893905639648438,-56.98625946044922,42.18064880371094,-37.78135299682617
2.02,1.9549360275268555,-9.226723670959473,2.0446667671203613,1.0780243873596191,2.216219186782837,0.7583891749382019,-57.42472839355469,42.58988571166992,-38.64366912841797
2.03,3.524627685546875,-8.428717613220215,2.0721843242645264,1.1899654865264893,2.0416643619537354,0.8078692555427551,-57.43934631347656,42.79450607299805,-39.53522491455078
2.04,3.9565322399139404,-7.573283672332764,1.588834285736084,1.3055716753005981,1.826028823852539,0.963181734085083,-56.84010314941406,43.6422119140625,-40.28062057495117
2.05,4.609772682189941,-7.156932353973389,1.6151552200317383,1.5228869915008545,1.6187928915023804,1.2139419317245483,-56.76702880859375,43.379127502441406,-42.326805114746094
2.06,6.4079790115356445,-6.958327770233154,2.014756679534912,1.7753270864486694,1.2281445264816284,1.4886785745620728,-56.372406005859375,44.446067810058594,-42.77988815307617
2.076,6.482156753540039,-9.038887023925781,4.673182487487793,1.7675385475158691,0.09162978827953339,1.7844901084899902,-55.992401123046875,45.01607894897461,-44.47529983520508
2.08,7.001399040222168,-9.342775344848633,4.618147850036621,1.677894115447998,-0.008246680721640587,1.8237382173538208,-55.61239242553711,45.132999420166016,-44.41683578491211
2.09,6.999006271362305,-8.812766075134277,3.744767427444458,1.643227458000183,-0.1160643994808197,1.8887953758239746,-54.472373962402344,46.00994110107422,-45.27915573120117
2.1,7.672585487365723,-8.394021987915039,3.352344274520874,1.773952603340149,-0.08506298810243607,1.8113682270050049,-54.29698944091797,46.1414794921875,-45.746856689453125
2.11,7.375875473022461,-8.069793701171875,3.8979079723358154,1.8376352787017822,0.17363843321800232,1.6971362829208374,-52.96696853637695,46.901493072509766,-46.360713958740234
2.129,6.3768720626831055,-7.2059855461120605,3.5401811599731445,1.7980817556381226,0.9668470025062561,1.4382822513580322,-52.74773406982422,47.33995819091797,-47.58842468261719
2.133,6.22373104095459,-5.827719688415527,3.236292600631714,1.7194329500198364,1.917811393737793,1.1439979076385498,-51.76848602294922,48.289974212646484,-48.62613296508789
2.14,5.9952168464660645,-5.485545635223389,3.266202688217163,1.6007723808288574,2.253481864929199,1.025948166847229,-51.4177131652832,48.289974212646484,-50.350772857666016
2.15,4.984249591827393,-5.4245285987854,2.6596221923828125,1.4237741231918335,2.4379630088806152,0.8042040467262268,-51.53464126586914,48.52382278442383,-51.85618591308594
2.16,4.9399824142456055,-5.624329566955566,2.14516544342041,1.353830099105835,2.4107797145843506,0.5044220089912415,-51.66618347167969,48.406898498535156,-52.893890380859375
2.17,4.858626365661621,-6.092126369476318,1.53858482837677,1.4161382913589478,2.2857048511505127,0.2249511182308197,-51.198482513427734,48.45074462890625,-54.019290924072266
2.18,5.42572546005249,-6.825526237487793,0.5850450992584229,1.5862643718719482,2.2091941833496094,0.1495092660188675,-51.03771209716797,48.2607421875,-55.43700408935547
2.193,1.0588239431381226,-8.111668586730957,-8.251648902893066,2.1430678367614746,2.3066272735595703,0.09224064648151398,-50.73078155517578,48.085357666015625,-56.66471862792969
2.2,1.998006820678711,-14.858231544494629,-12.798011779785156,2.6558892726898193,2.450638771057129,-0.11392636597156525,-50.540775299072266,48.27535629272461,-58.27243423461914
2.21,6.701099872589111,-17.834903717041016,-3.961317777633667,1.4595097303390503,0.5502368807792664,0.00809396430850029,-50.93539810180664,47.99766159057617,-58.842445373535156
2.22,6.0430731773376465,-13.501501083374023,1.3016955852508545,0.19364428520202637,-0.9569203853607178,0.21609358489513397,-50.83308792114258,48.026893615722656,-57.9947395324707
2.23,5.0009989738464355,-11.34437084197998,3.4540393352508545,-0.02229658141732216,-0.8524624109268188,0.3599523603916168,-51.06694030761719,48.36305236816406,-58.95936965942383
2.25,4.898108005523682,-11.273782730102539,3.946960687637329,0.037110064178705215,-0.26022857427597046,0.4593706429004669,-50.745399475097656,48.099971771240234,-58.6962890625
2.253,4.5367913246154785,-11.026126861572266,4.7796630859375,0.12064588069915771,0.40775254368782043,0.4723515212535858,-50.20461654663086,48.5822868347168,-59.71937942504883
2.26,4.420739650726318,-10.868200302124023,5.168496608734131,0.03084869496524334,0.5934555530548096,0.3404046595096588,-50.29231262207031,48.494590759277344,-60.12861633300781
2.27,4.479363918304443,-10.441081047058105,5.715256690979004,-0.3767511248588562,0.8868235945701599,0.09651671350002289,-50.3800048828125,48.216896057128906,-60.786319732666016
2.28,5.845665454864502,-9.580862045288086,5.37786865234375,-0.7579310536384583,1.0823004245758057,0.014508049935102463,-50.160770416259766,48.5822868347168,-60.08477020263672
2.29,7.1162543296813965,-9.181260108947754,4.542773723602295,-0.996626615524292,1.0415252447128296,0.0010690141934901476,-49.780765533447266,48.33382034301758,-60.420928955078125
2.31,7.8664045333862305,-8.855835914611816,3.1130621433258057,-0.9538660645484924,0.8240572214126587,0.08704829961061478,-50.13154220581055,48.56766891479492,-60.187076568603516
2.314,7.365107536315918,-7.856832981109619,-0.20937196910381317,-0.2574796974658966,0.7333437204360962,0.2548835277557373,-49.663841247558594,48.494590759277344,-60.1140022277832
2.32,7.022934436798096,-7.22034215927124,-1.727617859840393,0.2837468981742859,0.8730791211128235,0.290313720703125,-49.97077178955078,49.15229415893555,-61.312477111816406
2.33,7.911867618560791,-7.337590217590332,0.11246266216039658,0.6142250299453735,0.6931793689727783,0.32620203495025635,-49.649227142333984,49.12306213378906,-60.55247116088867
2.34,9.329615592956543,-9.767501831054688,2.551945447921753,0.3130684196949005,-0.19792033731937408,0.2825251817703247,-49.69307327270508,49.166908264160156,-61.005558013916016
2.35,10.786844253540039,-12.401999473571777,4.00917387008667,-0.10445795953273773,-1.1053606271743774,0.20815233886241913,-49.41537857055664,49.44460678100586,-61.312477111816406
2.37,11.43529987335205,-13.61875057220459,4.569094657897949,-0.25473082065582275,-1.501812219619751,0.2232712358236313,-50.17538833618164,49.53229904174805,-60.66939163208008
2.373,7.576872825622559,-12.780064582824707,-0.22492532432079315,-0.15577064454555511,-1.5589280128479004,0.040317103266716,-49.89768981933594,50.43846893310547,-60.30400466918945
2.38,6.385247230529785,-12.440284729003906,-3.128615379333496,-0.18677204847335815,-1.4089607000350952,-0.24342979490756989,-50.263084411621094,50.29231262207031,-60.406314849853516
2.39,6.343372344970703,-14.595022201538086,-4.6468610763549805,-1.1391109228134155,-1.5158621072769165,-0.7081454992294312,-50.67231750488281,49.6784553527832,-59.57322692871094
2.4,5.449653625488281,-13.660623550415039,-2.0554347038269043,-2.4530820846557617,-2.0891590118408203,-1.3588696718215942,-51.52002716064453,49.6199951171875,-59.16398620605469
2.41,4.95792818069458,-12.342178344726562,0.9415756464004517,-2.898097515106201,-2.1739165782928467,-1.6620116233825684,-52.39695739746094,49.54691696166992,-57.760887145996094
2.43,5.0703911781311035,-10.640881538391113,4.0666022300720215,-2.8739681243896484,-1.8975001573562622,-1.6001615524291992,-52.923118591308594,49.42999267578125,-56.021629333496094
2.433,4.734199523925781,-8.179863929748535,5.558526992797852,-2.8102855682373047,-1.468672752380371,-1.525635838508606,-54.31160354614258,49.37152862548828,-54.019290924072266
2.44,4.503292083740234,-7.590033054351807,4.956732273101807,-2.6900978088378906,-1.2753338813781738,-1.5557210445404053,-54.82314682006836,48.713829040527344,-52.499271392822266
2.45,4.358526229858398,-7.599604606628418,3.896711587905884,-2.3875668048858643,-1.1012372970581055,-1.6006195545196533,-55.72931671142578,48.81613540649414,-52.090030670166016
2.46,4.505684852600098,-8.25284481048584,3.0927231311798096,-1.9877554178237915,-1.1533136367797852,-1.6119205951690674,-56.48933029174805,48.27535629272461,-50.160770416259766
2.47,4.132404327392578,-9.382257461547852,2.3916261196136475,-1.5477797985076904,-1.321606993675232,-1.6537649631500244,-57.000877380371094,47.61765670776367,-49.780765533447266
2.49,4.3788652420043945,-10.756933212280273,2.0997018814086914,-0.9873108863830566,-1.6400203704833984,-1.7721201181411743,-58.053199768066406,47.70534896850586,-49.73691940307617
2.493,6.5551371574401855,-15.315260887145996,-1.2729815244674683,-0.5907067060470581,-2.168724298477173,-1.7402024269104004,-59.690147399902344,46.974571228027344,-48.24612808227539
2.5,7.495516777038574,-17.660226821899414,-2.0063817501068115,-0.59803706407547,-2.6670374870300293,-1.5899295806884766,-60.14323425292969,46.521484375,-46.82841491699219
2.51,6.021537780761719,-18.069398880004883,0.08973085135221481,-0.7884743213653564,-3.4512360095977783,-1.291369080543518,-60.362464904785156,45.86378479003906,-46.56533432006836
2.52,4.902893543243408,-17.012968063354492,1.573280930519104,-1.0012081861495972,-3.791029691696167,-1.1184942722320557,-61.239402770996094,45.922245025634766,-45.67377853393555
2.53,5.62552547454834,-14.529218673706055,1.9824535846710205,-0.5801692605018616,-4.437630653381348,-0.7951937913894653,-61.38555908203125,45.70301055908203,-43.21835708618164
2.55,3.7148568630218506,-12.396017074584961,4.935196399688721,0.041691552847623825,-4.998557090759277,-0.7278459072113037,-61.838645935058594,44.86991882324219,-41.43525314331055
2.553,3.10109806060791,-10.711469650268555,6.972684860229492,0.031154125928878784,-5.003597259521484,-0.9111055135726929,-61.736331939697266,44.75299835205078,-39.228294372558594
2.56,2.0817556381225586,-11.265408515930176,7.646264553070068,-0.4340197443962097,-4.420526027679443,-0.883005678653717,-61.76556396484375,44.7822265625,-38.05904769897461
2.57,0.3349951505661011,-11.224730491638184,7.264609336853027,-1.4535537958145142,-2.5395195484161377,-0.6105597615242004,-61.59017562866211,43.84682846069336,-36.56825256347656
2.58,-0.34217363595962524,-9.45045280456543,4.906482696533203,-2.277458429336548,-0.7747297883033752,-0.5699372291564941,-62.05787658691406,43.59836196899414,-34.902076721191406
2.59,-0.02751745842397213,-6.570690631866455,2.111665964126587,-2.3625214099884033,0.05345070734620094,-0.622013509273529,-62.788658142089844,43.10143280029297,-34.536685943603516
2.61,-0.35533416271209717,-5.44008207321167,1.6031910181045532,-2.0089828968048096,0.2353358417749405,-0.7183775305747986,-63.2125129699707,41.6252555847168,-33.70359420776367
2.614,-0.06221338361501694,-4.466203212738037,1.932204246520996,-1.4969252347946167,0.5630649924278259,-0.6359107494354248,-63.2125129699707,41.53756332397461,-32.95820236206055
2.62,-0.6616154909133911,-4.1419758796691895,2.001595973968506,-1.3657419681549072,0.7011205554008484,-0.5874996781349182,-64.16252899169922,41.47909927368164,-33.76205825805664
2.63,-1.322034478187561,-3.923032522201538,2.2157537937164307,-1.0881036520004272,1.2208142280578613,-0.5265658497810364,-64.27944946289062,40.66062545776367,-33.542823791503906
2.64,-0.8709874153137207,-3.55932354927063,2.0745770931243896,-0.8895725011825562,1.4286609888076782,-0.5910121202468872,-64.42560577392578,40.03215408325195,-34.127445220947266
2.65,-0.5790630578994751,-2.7804598808288574,1.6701900959014893,-0.597426176071167,1.265865445137024,-0.660803496837616,-64.96638488769531,40.309852600097656,-34.37591552734375
2.67,-0.2141576111316681,-2.348555326461792,1.3914263248443604,-0.22861631214618683,0.8278751373291016,-0.7945829629898071,-65.62408447265625,40.149078369140625,-34.85823059082031
2.674,1.0456634759902954,-1.9692928791046143,2.3126630783081055,0.42959097027778625,-0.7286095023155212,-0.9634872078895569,-65.6533203125,39.1844482421875,-34.25898742675781
2.68,1.039681315422058,-2.0338993072509766,2.7517459392547607,0.6056728959083557,-1.4228578805923462,-0.9650143384933472,-66.22332763671875,38.99444580078125,-35.325927734375
2.69,0.8817551136016846,-2.142772674560547,3.2410783767700195,0.9172141551971436,-1.9262107610702515,-0.8139779567718506,-66.23794555664062,38.775211334228516,-34.785152435302734
2.7,0.2584248483181,-2.0171494483947754,3.40378999710083,1.0151053667068481,-1.9886716604232788,-0.5523748993873596,-66.17948150634766,38.24905014038086,-34.08360290527344
2.71,-0.5431707501411438,-1.7443677186965942,2.970689058303833,1.0361801385879517,-1.6804903745651245,-0.2765692174434662,-66.20870971679688,38.8629035949707,-33.601287841796875
2.731,-1.1473584175109863,-1.750349760055542,2.183450698852539,1.0661126375198364,-1.094212293624878,-0.04046982154250145,-66.12101745605469,38.468284606933594,-33.630516052246094
2.735,-1.5002998113632202,-2.455035924911499,0.7369893193244934,1.3009902238845825,-0.006872233934700489,0.20433442294597626,-66.25255584716797,39.1844482421875,-34.06898498535156
2.74,-1.1497513055801392,-3.3403801918029785,-0.2679961323738098,1.4101823568344116,0.375529408454895,0.3036000430583954,-66.23794555664062,38.848289489746094,-34.60976028442383
2.75,0.21296119689941406,-7.155735969543457,-1.8317056894302368,1.349859356880188,0.26374107599258423,0.5056437253952026,-67.10026550292969,39.447532653808594,-34.40514373779297
2.76,0.6831508874893188,-11.850454330444336,-4.1347975730896,0.8965974450111389,-0.23579397797584534,0.7458664774894714,-66.20870971679688,39.35983657836914,-34.989768981933594
2.77,-1.4404791593551636,-20.03749656677246,-12.753744125366211,-0.636521577835083,-0.08659014105796814,0.7704537510871887,-66.29640197753906,40.67523956298828,-35.2674674987793
2.79,0.7010970711708069,-22.543977737426758,-22.516460418701172,-1.7484489679336548,2.4634668827056885,0.5103778839111328,-65.9894790649414,39.79830551147461,-36.23209762573242
2.794,13.542179107666016,-18.802799224853516,-8.49571704864502,-0.3562871515750885,4.824766159057617,0.13958270847797394,-67.08564758300781,40.66062545776367,-37.839813232421875
2.8,18.664016723632812,-17.840885162353516,-2.557927370071411,0.06291911751031876,4.049883842468262,-0.13607022166252136,-67.80181884765625,40.134464263916016,-38.87752151489258
2.81,20.69552230834961,-15.943376541137695,0.9822536706924438,-0.07177666574716568,2.7030787467956543,-0.582001805305481,-69.07337188720703,40.11984634399414,-39.769073486328125
2.82,19.909481048583984,-12.624531745910645,1.4273186922073364,-0.6382014751434326,2.479043960571289,-0.6612616181373596,-69.19029235839844,39.28675842285156,-40.83601379394531
2.83,19.411773681640625,-11.706884384155273,-0.3158525824546814,-1.7511979341506958,2.956434965133667,-0.4847215414047241,-70.02338409423828,39.929847717285156,-41.59602355957031
2.85,20.97308921813965,-10.954341888427734,-8.827122688293457,-3.1257975101470947,3.2070424556732178,-0.34773504734039307,-70.37416076660156,38.97983169555664,-42.20988082885742
2.854,18.48096466064453,-10.14197826385498,-1.7623138427734375,-1.7143932580947876,-0.5603160858154297,-0.6310237646102905,-70.41800689697266,38.848289489746094,-41.84449005126953
2.86,12.933206558227539,-11.70449161529541,3.042473793029785,-0.7321219444274902,-2.7293460369110107,-0.33368512988090515,-70.59339141845703,38.1467399597168,-41.099090576171875
2.87,5.449653625488281,-11.01296615600586,5.777470111846924,0.22281308472156525,-4.309806823730469,0.21823160350322723,-70.79801177978516,38.8629035949707,-39.81291961669922
2.88,-0.07776673883199692,-7.933403015136719,6.3146586418151855,0.7748825550079346,-4.547739028930664,0.4437935948371887,-69.9356918334961,39.5059928894043,-37.69365692138672
2.89,-2.427518606185913,-5.624329566955566,5.282155990600586,0.9104946255683899,-3.405726194381714,0.39309176802635193,-69.80415344238281,39.31599044799805,-36.115169525146484
2.909,-3.029313325881958,-4.618147850036621,4.0319061279296875,0.9494373202323914,-1.6068809032440186,0.42730024456977844,-68.69336700439453,39.75445556640625,-34.916690826416016
2.913,-2.596212387084961,-4.941178798675537,4.01037073135376,0.9306531548500061,-1.2166907787322998,0.46334129571914673,-69.11721801757812,39.8859977722168,-33.84975051879883
2.92,-1.9537396430969238,-6.111268997192383,4.314259052276611,0.872315526008606,-0.835358202457428,0.5328271985054016,-68.67874908447266,39.73984146118164,-33.995906829833984
2.93,-1.325623631477356,-7.399803638458252,4.341776371002197,0.7754933834075928,-0.7275404930114746,0.6531676650047302,-68.2695083618164,40.79216766357422,-33.820518493652344
2.94,-1.3914263248443604,-8.511269569396973,4.362115383148193,0.6461427211761475,-0.4902193546295166,0.8126034736633301,-68.03565979003906,41.142940521240234,-34.200523376464844
2.95,-1.8388842344284058,-10.03310489654541,4.916053771972656,0.5772676467895508,-0.16203199326992035,0.9251554012298584,-67.42180633544922,41.37678909301758,-34.02513885498047
2.97,-1.8735800981521606,-10.691131591796875,5.523830890655518,0.4631885588169098,0.18860463798046112,1.0073168277740479,-66.88102722167969,42.29757308959961,-33.93744659423828
2.974,-2.2468602657318115,-10.047462463378906,4.948357105255127,0.3090977966785431,0.7550293803215027,1.0418306589126587,-67.02719116210938,42.38526916503906,-34.785152435302734
2.98,-2.228914260864258,-9.565308570861816,4.238884925842285,0.34544429183006287,0.9854783415794373,0.9691376686096191,-66.29640197753906,42.6629638671875,-34.39052963256836
2.99,-2.1188442707061768,-8.930013656616211,3.7112677097320557,0.5203045010566711,1.2735012769699097,0.8063421249389648,-66.88102722167969,43.11604690551758,-35.50131607055664
3.0,-1.514656662940979,-8.411967277526855,3.7950165271759033,0.893390417098999,1.5893186330795288,0.7973318696022034,-67.27565002441406,43.14527893066406,-36.78749084472656
3.01,-1.454836130142212,-8.059026718139648,3.576073169708252,1.2110402584075928,2.001499891281128,0.9251554012298584,-67.23180389404297,44.32914352416992,-37.708274841308594
3.029,-1.2131609916687012,-7.995616436004639,3.445664644241333,1.831373929977417,2.5644121170043945,0.9534079432487488,-66.93949127197266,45.42531204223633,-40.689857482910156
3.033,-1.691725492477417,-7.4261250495910645,3.8117663860321045,1.868789553642273,2.6613872051239014,0.9318749308586121,-66.73487091064453,45.33761978149414,-40.85062789916992
3.04,-1.5002998113632202,-6.984649181365967,4.357329845428467,1.9361374378204346,2.964528799057007,0.7912232279777527,-67.2171859741211,45.93686294555664,-43.30604934692383
3.05,0.6544370055198669,-7.600800514221191,4.767699241638184,1.761582612991333,3.014925241470337,0.4830417037010193,-67.87489318847656,46.302249908447266,-45.32300567626953
3.06,3.047259569168091,-7.892724990844727,4.360918998718262,1.4912747144699097,2.7310259342193604,0.3269656002521515,-67.56796264648438,46.19994354248047,-46.901493072509766
3.07,4.864608287811279,-7.987241268157959,3.988835334777832,1.2690725326538086,2.356260061264038,0.3856086730957031,-67.62641906738281,47.32534408569336,-47.69073486328125
3.09,5.870790004730225,-7.874779224395752,3.1920251846313477,1.171028733253479,2.1126773357391357,0.6484334468841553,-66.80795288085938,47.19380569458008,-50.160770416259766
3.094,9.239884376525879,-9.10110092163086,3.1166512966156006,1.2379183769226074,1.490511178970337,1.1340713500976562,-66.95410919189453,47.82227325439453,-51.52002716064453
3.1,11.095518112182617,-9.500701904296875,3.346362352371216,1.3364204168319702,0.7750352621078491,1.3976596593856812,-67.11487579345703,47.71996307373047,-51.54925537109375
3.11,10.64806079864502,-9.757929801940918,3.1166512966156006,1.5488487482070923,0.18371771275997162,1.7134770154953003,-66.0771713256836,48.52382278442383,-51.31540298461914
3.12,9.891928672790527,-9.08554744720459,3.6849467754364014,1.737606167793274,0.3087923526763916,1.8487836122512817,-65.36100769042969,48.94767761230469,-52.16311264038086
3.13,8.184649467468262,-7.913064479827881,3.06999135017395,1.8478673696517944,0.7900014519691467,1.9271271228790283,-64.58638000488281,49.45922088623047,-53.30312728881836
3.149,6.586244106292725,-7.137789726257324,2.5746772289276123,2.1204659938812256,2.141693592071533,1.5909985303878784,-63.709442138671875,50.51154327392578,-55.992401123046875
3.153,5.047659397125244,-5.9306111335754395,2.0614166259765625,2.180636167526245,2.4029910564422607,1.433548092842102,-63.270973205566406,50.950016021728516,-57.22011184692383
3.16,5.108675956726074,-5.465207099914551,1.6857434511184692,2.26432466506958,2.5813636779785156,1.2084441184997559,-62.45249938964844,50.45308303833008,-58.0970458984375
3.17,5.400600433349609,-5.533401966094971,1.5050853490829468,2.3217458724975586,2.5303564071655273,0.9254608750343323,-62.08710479736328,50.90616989135742,-60.1140022277832
3.18,5.161317825317383,-5.645864963531494,1.2538390159606934,2.3579399585723877,2.326174736022949,0.6884450912475586,-61.604793548583984,50.61385726928711,-62.2332649230957
3.19,5.134997367858887,-6.128018856048584,0.7908278107643127,2.4185681343078613,2.1450531482696533,0.4914410710334778,-60.91786193847656,50.46770095825195,-64.70330047607422
3.21,1.0145567655563354,-18.074186325073242,-13.496715545654297,1.921934723854065,3.2041409015655518,0.37048977613449097,-60.391700744628906,50.10231018066406,-67.45103454589844
3.213,4.193421840667725,-17.449657440185547,-7.852047443389893,0.903775155544281,2.337170362472534,0.41584649682044983,-60.50862121582031,49.795379638671875,-68.64952087402344
3.22,5.419743537902832,-13.494322776794434,-2.796013355255127,-0.07360926270484924,0.6896668672561646,0.27901268005371094,-59.93861389160156,49.73691940307617,-67.94796752929688
3.23,5.3276190757751465,-9.136992454528809,0.8063812255859375,-0.12919799983501434,-0.6734789609909058,0.1062905564904213,-59.470916748046875,50.61385726928711,-68.41566467285156
3.24,5.3970112800598145,-8.646464347839355,2.4574286937713623,0.2802344262599945,-0.626136839389801,0.13805553317070007,-60.30400466918945,50.08769607543945,-67.83104705810547
3.25,5.519045352935791,-9.649056434631348,3.772284984588623,0.6644686460494995,0.022602012380957603,0.4274529218673706,-60.12861633300781,50.29231262207031,-68.59104919433594
3.27,5.330012321472168,-10.747363090515137,5.127819061279297,0.45356741547584534,0.4946480989456177,0.38957932591438293,-59.82168960571289,50.43846893310547,-69.4679946899414
3.274,5.858826160430908,-10.847861289978027,5.160121917724609,0.4001167118549347,0.44806966185569763,0.34086281061172485,-59.909385681152344,51.0815544128418,-69.05875396728516
3.28,6.0155558586120605,-10.470992088317871,5.083551406860352,0.23625212907791138,0.3150537610054016,0.2028072625398636,-59.92399978637695,50.146156311035156,-68.89797973632812
3.29,6.626922130584717,-10.084550857543945,5.245067119598389,-0.05757404863834381,0.3604104816913605,0.12247847765684128,-59.295528411865234,50.0,-69.672607421875
3.3,7.429713726043701,-9.607182502746582,4.894518852233887,-0.4567744731903076,0.5410738587379456,0.19746218621730804,-59.660919189453125,50.760013580322266,-70.56416320800781
3.31,8.139185905456543,-9.205188751220703,3.4468607902526855,-0.6116288304328918,0.555429220199585,0.2451096773147583,-58.681671142578125,50.39461898803711,-69.27799224853516
3.33,8.967103004455566,-9.483952522277832,0.02273181453347206,-0.11789698898792267,0.45173484086990356,0.36224305629730225,-58.477054595947266,50.70154571533203,-69.65798950195312
3.333,8.95274543762207,-9.518648147583008,-0.1615155190229416,-0.01664607785642147,0.42348232865333557,0.3649919927120209,-58.871673583984375,51.11078643798828,-69.68722534179688
3.34,9.156135559082031,-9.958927154541016,0.3684946596622467,0.21380282938480377,0.18325957655906677,0.3165809214115143,-58.49167251586914,51.24232864379883,-69.68722534179688
3.35,10.293922424316406,-12.017951011657715,2.1714866161346436,0.19013181328773499,-0.5816964507102966,0.1238529235124588,-58.52090072631836,50.745399475097656,-69.35106658935547
3.36,11.36112117767334,-13.357932090759277,3.733999490737915,-0.036041051149368286,-1.5934419631958008,-0.13637566566467285,-58.652442932128906,50.92078399658203,-68.32797241210938
3.37,9.052047729492188,-13.027722358703613,2.313859462738037,-0.16310101747512817,-1.6982053518295288,-0.2713768780231476,-59.266300201416016,50.10231018066406,-68.22566223144531
3.389,5.201996326446533,-13.878371238708496,-2.7625136375427246,-0.8761334419250488,-1.1328495740890503,-0.6412557363510132,-59.95323181152344,50.45308303833008,-67.07102966308594
3.393,4.9423747062683105,-14.398809432983398,-3.0173492431640625,-1.1201741695404053,-1.1606439352035522,-0.730900228023529,-60.47938919067383,50.70154571533203,-66.93949127197266
3.4,5.108675956726074,-14.256437301635742,-2.451446771621704,-1.93598473072052,-1.559233546257019,-1.069472312927246,-60.625545501708984,50.29231262207031,-66.36947631835938
3.41,4.557130336761475,-12.745368957519531,-1.4919248819351196,-2.660165309906006,-2.3460278511047363,-1.4621058702468872,-61.5755615234375,50.13154220581055,-63.82636260986328
3.42,3.7387852668762207,-10.932806968688965,1.872383713722229,-2.7200303077697754,-2.3154845237731934,-1.5430456399917603,-62.42327117919922,50.3800048828125,-62.08710479736328
3.43,3.5772697925567627,-9.267401695251465,4.118047714233398,-2.7459919452667236,-1.9057468175888062,-1.652390480041504,-63.051734924316406,49.75153350830078,-59.44168472290039
3.449,3.9912281036376953,-8.426324844360352,5.1565327644348145,-2.492482900619507,-0.7635815143585205,-1.9144517183303833,-64.54253387451172,48.90382766723633,-56.95703125
3.453,4.077369689941406,-8.57946491241455,4.956732273101807,-2.4329235553741455,-0.5768095254898071,-1.919338583946228,-64.7179183959961,48.30459213256836,-56.401634216308594
3.46,4.310669898986816,-9.176474571228027,4.284348964691162,-2.151925563812256,-0.45921796560287476,-1.9194912910461426,-64.89330291748047,47.98304748535156,-55.89009094238281
3.47,3.8596227169036865,-10.444670677185059,3.2757742404937744,-1.8376352787017822,-0.49617525935173035,-1.9863810539245605,-65.40485382080078,47.63227081298828,-53.80005645751953
3.48,3.786641836166382,-11.410174369812012,2.7146570682525635,-1.4955508708953857,-0.6374378800392151,-2.1571178436279297,-66.39871215820312,46.974571228027344,-52.80619812011719
3.49,4.29033088684082,-12.445070266723633,2.6297121047973633,-1.1381946802139282,-0.8785768747329712,-2.291355609893799,-66.61795043945312,46.25840377807617,-52.13387680053711
3.503,6.687938690185547,-15.705290794372559,1.3639088869094849,-0.7864890098571777,-1.6307047605514526,-2.0137171745300293,-67.45103454589844,44.446067810058594,-51.22771453857422
3.51,7.987241268157959,-18.33141326904297,-1.0145567655563354,-0.8268061280250549,-2.4805710315704346,-1.6410894393920898,-67.933349609375,44.19760513305664,-50.584625244140625
3.52,7.381857395172119,-19.109081268310547,-2.249253273010254,-0.6953173279762268,-3.771023750305176,-1.120937705039978,-67.87489318847656,43.452205657958984,-49.020755767822266
3.53,5.361118793487549,-17.090734481811523,-0.1986042857170105,-0.27870726585388184,-4.8359150886535645,-0.8445212244987488,-67.74334716796875,43.33528137207031,-46.15609359741211
3.54,4.025923728942871,-13.259825706481934,3.049652338027954,0.04657847434282303,-5.003597259521484,-0.7884743213653564,-67.80181884765625,42.809120178222656,-44.12452697753906
3.55,3.4337005615234375,-10.979466438293457,5.125425815582275,0.1514945775270462,-5.003597259521484,-0.7893905639648438,-66.93949127197266,43.072200775146484,-40.42677688598633
3.57,0.3026920557022095,-10.999804496765137,8.051847457885742,-0.9382889866828918,-3.9857430458068848,-0.38377609848976135,-66.61795043945312,42.6045036315918,-36.71440887451172
3.574,-0.041874393820762634,-11.284550666809082,7.648657321929932,-1.4718797206878662,-3.516903877258301,-0.34437528252601624,-66.54487609863281,42.56065368652344,-35.42823791503906
3.58,-0.4247260093688965,-10.36929702758789,6.102894306182861,-2.1284072399139404,-2.4437663555145264,-0.3211624026298523,-65.34638977050781,42.3414192199707,-34.2443733215332
3.59,-1.210768222808838,-8.23011302947998,3.4923245906829834,-2.4075727462768555,-1.625970482826233,-0.5134322047233582,-65.0979232788086,42.29757308959961,-32.87050247192383
3.6,-0.8458627462387085,-6.388835906982422,2.3509480953216553,-2.1707096099853516,-0.9853256344795227,-0.6711881756782532,-64.92253875732422,41.28909683227539,-32.1689567565918
3.61,-0.8267201781272888,-5.613561630249023,2.605783700942993,-1.71683669090271,-0.28267788887023926,-0.6087271571159363,-64.90792083740234,40.10523223876953,-32.432037353515625
3.623,-1.1736794710159302,-4.820341110229492,2.654836893081665,-1.5221234560012817,0.48258352279663086,-0.4482223689556122,-64.7909927368164,40.04676818847656,-30.882781982421875
3.63,-1.1940184831619263,-4.204189300537109,2.550748825073242,-1.4602733850479126,0.8628471493721008,-0.3686571717262268,-64.80561828613281,39.43291473388672,-30.195850372314453
3.64,-1.499103307723999,-3.7316067218780518,2.441875457763672,-1.403157353401184,1.2756394147872925,-0.2984076738357544,-64.7909927368164,39.25752639770508,-30.868165969848633
3.65,-1.4871392250061035,-3.170490026473999,1.939382791519165,-1.3222178220748901,1.6180293560028076,-0.317497193813324,-65.6094741821289,39.038291931152344,-31.59894561767578
3.66,-1.0336993932724,-2.63449764251709,1.4727823734283447,-1.1012372970581055,1.7105753421783447,-0.35445454716682434,-65.34638977050781,38.5267448425293,-30.9266300201416
3.67,-1.1461620330810547,-2.5076780319213867,1.470389485359192,-0.7648032903671265,1.555110216140747,-0.4167627990245819,-66.04793548583984,38.54136276245117,-31.306636810302734
3.689,-0.380458801984787,-2.225324869155884,1.4309078454971313,-0.22021691501140594,0.8011497855186462,-0.5845980048179626,-65.34638977050781,38.04443359375,-31.905874252319336
3.692,-0.3768695592880249,-2.2372889518737793,1.5864413976669312,-0.01542434748262167,0.4584543704986572,-0.6420193314552307,-65.9164047241211,37.708274841308594,-31.75971794128418
3.7,-0.45104703307151794,-2.228914260864258,1.88075852394104,0.2246456891298294,0.09010262042284012,-0.6352998614311218,-66.36947631835938,37.78135299682617,-32.1689567565918
3.71,-0.4223332107067108,-2.0195422172546387,2.30069899559021,0.5041165351867676,-0.2692388594150543,-0.5693264007568359,-66.16486358642578,37.43057632446289,-31.803565979003906
3.72,-0.15074782073497772,-1.6869399547576904,2.9132614135742188,0.8341364860534668,-0.7020369172096252,-0.33857205510139465,-66.23794555664062,37.839813232421875,-31.920490264892578
3.739,-0.7740780711174011,-1.3088740110397339,2.6691935062408447,1.0644326210021973,-0.6626361012458801,-0.10064005106687546,-66.4571762084961,37.73750305175781,-32.32973098754883
3.742,-0.9427720904350281,-0.6975077390670776,2.031506299972534,1.3662000894546509,-0.34697145223617554,0.22846360504627228,-66.26717376708984,38.36597442626953,-31.862030029296875
3.75,-0.9176474213600159,-0.5826523303985596,1.588834285736084,1.5708400011062622,-0.12767083942890167,0.384234219789505,-66.5302505493164,38.55597686767578,-33.01666259765625
3.76,-0.5000999569892883,-1.1988041400909424,1.0671988725662231,1.834580898284912,0.17180584371089935,0.5422956347465515,-65.96024322509766,38.92136764526367,-33.440513610839844
3.77,0.3613162338733673,-2.6703901290893555,0.4295116364955902,2.171625852584839,0.554818332195282,0.762817919254303,-65.96024322509766,39.944461822509766,-33.791290283203125
3.78,-4.1383867263793945,-14.492130279541016,-16.981861114501953,1.8096882104873657,2.110081195831299,0.9488264322280884,-66.0771713256836,39.91522979736328,-35.03361511230469
3.79,6.4941205978393555,-33.48396301269531,-22.457836151123047,-0.8440630435943604,5.003597259521484,0.260992169380188,-66.44255828857422,40.45600509643555,-37.37211227416992
3.803,17.197216033935547,-21.872791290283203,-11.12064266204834,-2.342515468597412,5.003597259521484,0.08185594528913498,-67.24642181396484,40.1636962890625,-40.689857482910156
3.81,23.126630783081055,-20.37249183654785,-5.434100151062012,-1.8457293510437012,4.9176177978515625,-0.06322455406188965,-68.4887466430664,40.2221565246582,-42.18064880371094
3.82,26.806791305541992,-22.03789520263672,-0.6747759580612183,-0.6566801071166992,1.338711142539978,-0.4437935948371887,-68.07950592041016,40.6021614074707,-42.91142654418945
3.83,26.666810989379883,-17.743976593017578,-2.197807550430298,-0.4193589985370636,0.9572258591651917,-0.5152648091316223,-68.31336212158203,40.19292449951172,-41.888336181640625
3.84,25.757539749145508,-9.671788215637207,-2.0865414142608643,-0.6995934247970581,1.2777773141860962,-0.11652254313230515,-68.47412872314453,39.52061080932617,-42.85296630859375
3.85,16.262819290161133,-4.187439441680908,2.2911276817321777,-1.5428929328918457,0.34177911281585693,0.29184088110923767,-68.09412384033203,39.79830551147461,-42.79450607299805
3.863,11.444869995117188,-6.440281867980957,1.3184452056884766,-2.401158571243286,-1.243874430656433,-0.014966198243200779,-68.70797729492188,40.06138610839844,-41.099090576171875
3.87,10.118050575256348,-10.480562210083008,1.8711872100830078,-1.8026633262634277,-3.3877060413360596,-0.35674530267715454,-67.75796508789062,40.149078369140625,-40.2660026550293
3.88,6.693921089172363,-15.332011222839355,4.106083393096924,-0.7189883589744568,-4.9597673416137695,-0.21945331990718842,-67.78719329833984,39.69599533081055,-37.54750061035156
3.89,2.4741785526275635,-14.139188766479492,5.006981372833252,0.4271475076675415,-5.003597259521484,0.2145664095878601,-66.8371810913086,40.10523223876953,-35.77901077270508
3.9,-1.0444670915603638,-9.820143699645996,4.872982978820801,1.1759155988693237,-5.003597259521484,0.5619960427284241,-65.84332275390625,40.41215896606445,-33.68898010253906
3.92,-2.7804598808288574,-7.112664699554443,4.5236310958862305,1.4802792072296143,-4.079358100891113,0.6435465216636658,-64.92253875732422,40.529083251953125,-31.072786331176758
3.923,-5.708078384399414,-6.000002861022949,6.034698486328125,1.1775954961776733,-1.874592661857605,0.5242750644683838,-63.5340576171875,41.56679153442383,-31.04355239868164
3.93,-5.32403039932251,-5.600401401519775,5.831308364868164,0.8043568134307861,-0.8504770994186401,0.33307427167892456,-62.584041595458984,41.91756820678711,-31.11663246154785
3.94,-3.975674629211426,-5.765506267547607,4.762913227081299,0.4495968222618103,-0.0933096632361412,0.13347405195236206,-62.554805755615234,42.54603958129883,-30.985092163085938
3.95,-3.269791841506958,-7.149754047393799,4.470988750457764,0.25793784856796265,0.4639521539211273,0.011301006190478802,-62.774044036865234,42.37065124511719,-30.415081024169922
3.96,-2.091326951980591,-8.583054542541504,4.226921081542969,0.18891006708145142,0.9993755221366882,0.039706241339445114,-62.788658142089844,42.91142654418945,-30.99970817565918
3.97,-0.7298108339309692,-9.68375301361084,4.043870449066162,0.21013763546943665,1.450499415397644,0.27259859442710876,-63.11020278930664,43.15989685058594,-31.65740966796875
3.983,-0.2835494577884674,-9.66819953918457,3.135793924331665,0.3478877544403076,1.6545284986495972,0.6174320578575134,-63.30020523071289,42.72142791748047,-32.25665283203125
3.99,-1.1306086778640747,-9.365507125854492,2.827119827270508,0.46547931432724,1.783726453781128,0.7148650884628296,-62.584041595458984,43.13066482543945,-32.76819610595703
4.0,-1.6307085752487183,-9.337989807128906,3.1178479194641113,0.6041457653045654,2.10504150390625,0.6997461318969727,-62.80327606201172,43.686058044433594,-33.46974563598633
4.01,-1.0743772983551025,-9.34157943725586,3.28773832321167,0.7093672156333923,2.4776694774627686,0.6039929986000061,-63.34404754638672,44.32914352416992,-35.04823303222656
4.02,0.05862415209412575,-9.06281566619873,3.2374887466430664,0.8846855759620667,2.638479709625244,0.5792529582977295,-63.92867660522461,44.811458587646484,-35.472084045410156
4.04,0.9990034103393555,-9.026923179626465,3.627518892288208,1.124755620956421,2.5283713340759277,0.6835582256317139,-64.08944702148438,44.94300079345703,-37.18210983276367
4.043,2.898904800415039,-8.981459617614746,3.864408493041992,1.2237156629562378,2.1511619091033936,0.9033169150352478,-63.709442138671875,45.77608871459961,-39.140602111816406
4.05,2.825923442840576,-8.414360046386719,3.542573928833008,1.2612839937210083,1.8237382173538208,1.0644326210021973,-64.1186752319336,46.316864013671875,-40.07600402832031
4.06,1.412961721420288,-7.744369983673096,2.6775684356689453,1.3723087310791016,1.5787811279296875,1.102611780166626,-62.978660583496094,46.76995086669922,-41.11370849609375
4.07,0.7896314859390259,-7.442874908447266,3.0759735107421875,1.5386167764663696,1.724930763244629,0.9863946437835693,-63.79713439941406,47.51534652709961,-42.67757797241211
4.08,1.7156537771224976,-6.75374174118042,3.888336658477783,1.5935946702957153,2.1058051586151123,0.901637077331543,-63.19789123535156,47.39842224121094,-43.17451095581055
4.09,3.9014973640441895,-6.2907304763793945,3.431307554244995,1.591151237487793,1.819920301437378,0.892779529094696,-62.92020034790039,48.026893615722656,-44.09529113769531
4.103,6.017949104309082,-7.014559268951416,3.507877826690674,1.543503761291504,0.9537133574485779,0.9523388743400574,-62.87635040283203,48.37766647338867,-45.90762710571289
4.11,6.949953079223633,-6.939185619354248,3.1082763671875,1.5641204118728638,0.3666718602180481,1.1021536588668823,-62.320960998535156,49.06460189819336,-46.46302032470703
4.12,7.17368221282959,-7.0408806800842285,2.504088878631592,1.7186694145202637,-0.1872301995754242,1.2424999475479126,-62.08710479736328,49.15229415893555,-47.06226348876953
4.13,7.838886737823486,-7.222735404968262,2.851048231124878,2.0166187286376953,-0.26022857427597046,1.250288486480713,-61.736331939697266,49.88307571411133,-47.76381301879883
4.14,9.111868858337402,-7.271787643432617,3.5533413887023926,2.0563249588012695,-0.013286319561302662,1.4330898523330688,-61.2978630065918,50.62847137451172,-48.099971771240234
4.16,7.238288402557373,-7.312465667724609,3.645465135574341,2.0002782344818115,0.4993823170661926,1.5958853960037231,-61.034786224365234,51.286170959472656,-49.035369873046875
4.164,6.089733123779297,-7.261020183563232,3.1932218074798584,1.9362901449203491,1.5442674160003662,1.4013248682022095,-59.8363037109375,51.82695388793945,-50.83308792114258
4.17,5.6925249099731445,-7.112664699554443,3.0029923915863037,1.9286543130874634,1.86497163772583,1.2820534706115723,-59.295528411865234,52.19234085083008,-51.695411682128906
4.18,5.2414774894714355,-6.776473522186279,2.533998966217041,1.957212209701538,2.6280949115753174,0.9086620211601257,-58.78398513793945,52.265419006347656,-52.60157775878906
4.19,5.886343479156494,-6.855436325073242,2.662015199661255,1.9378172159194946,2.8929049968719482,0.6345362663269043,-58.06781768798828,52.17772674560547,-55.261619567871094
4.2,6.215356349945068,-6.983452796936035,2.57228422164917,1.8335119485855103,2.7453811168670654,0.46074509620666504,-57.86320114135742,52.689273834228516,-56.72317886352539
4.22,5.454439163208008,-7.584051132202148,1.6941183805465698,1.8500052690505981,2.6065618991851807,0.28191429376602173,-57.8193473815918,52.528499603271484,-57.322418212890625
4.224,5.405385971069336,-8.815157890319824,0.7824530005455017,2.1795670986175537,2.6590962409973145,0.04612032324075699,-57.366268157958984,52.338497161865234,-60.56708526611328
4.23,3.7256245613098145,-9.750751495361328,-1.750349760055542,2.426203966140747,3.1060969829559326,-0.021532999351620674,-56.927799224853516,52.39695739746094,-61.619407653808594
4.24,3.6957144737243652,-22.67677879333496,-12.465409278869629,0.8074111342430115,4.386165142059326,-0.14584407210350037,-56.2993278503418,51.49079132080078,-64.16252899169922
4.25,6.76092004776001,-16.985450744628906,-4.198206901550293,-1.288162112236023,2.3020458221435547,-0.4470006227493286,-56.22624588012695,51.92926025390625,-64.3379135131836
4.26,5.96171760559082,-10.231709480285645,0.2548356056213379,-1.3836097717285156,0.5557346343994141,-0.4170682430267334,-56.32855987548828,51.403099060058594,-63.95790481567383
4.279,6.396015167236328,-8.551947593688965,2.2265214920043945,-0.782365620136261,0.26450464129447937,0.00855211354792118,-56.693946838378906,52.42618942260742,-63.76790237426758
4.283,6.001199245452881,-8.160720825195312,3.3894331455230713,0.06765332818031311,0.11392636597156525,0.5348125100135803,-56.47471618652344,52.67465591430664,-62.964046478271484
4.29,5.586043834686279,-8.401200294494629,4.152743339538574,0.25992316007614136,-0.14477506279945374,0.5258022546768188,-56.25548553466797,52.96696853637695,-63.387901306152344
4.3,6.063412666320801,-8.801998138427734,4.566701889038086,0.2223549336194992,-0.4460843503475189,0.4583016633987427,-55.72931671142578,52.937740325927734,-62.9932746887207
4.31,6.557530403137207,-8.926424980163574,4.479363918304443,0.055283304303884506,-0.6566801071166992,0.43768492341041565,-55.72931671142578,53.66851806640625,-63.11020278930664
4.32,6.8518476486206055,-8.895318031311035,4.2281174659729,-0.09972374886274338,-0.7162394523620605,0.40103304386138916,-55.43700408935547,53.88775634765625,-62.90558624267578
4.34,7.368697166442871,-8.796015739440918,3.9828531742095947,-0.21059578657150269,-0.6200282573699951,0.33368512988090515,-55.01315689086914,53.741600036621094,-62.70096206665039
4.344,8.042276382446289,-9.002994537353516,3.208775043487549,-0.2422080636024475,-0.2984076738357544,0.2226603776216507,-55.393157958984375,54.238529205322266,-61.970184326171875
4.35,7.917849540710449,-8.806783676147461,2.2301106452941895,-0.15622878074645996,-0.07422012835741043,0.19868391752243042,-55.13007736206055,54.764686584472656,-61.239402770996094
4.36,7.026523113250732,-8.518448829650879,0.04666003957390785,0.16798794269561768,0.30604347586631775,0.10842858254909515,-55.14469909667969,54.50160598754883,-61.4732551574707
4.37,6.214160442352295,-9.052047729492188,-2.1236300468444824,0.5948300361633301,0.6579018235206604,-0.04138611629605293,-55.53931427001953,55.13007736206055,-62.24787902832031
4.38,7.877171516418457,-11.49512004852295,-0.8685945868492126,0.40973785519599915,0.33368512988090515,-0.11560624837875366,-55.34931564331055,55.188541412353516,-62.759429931640625
4.4,9.680163383483887,-13.378271102905273,1.6845470666885376,-0.5048801302909851,-1.1707231998443604,-0.15821409225463867,-55.173927307128906,55.261619567871094,-62.1748046875
4.404,10.9962158203125,-13.542179107666016,3.8392839431762695,-0.8203920125961304,-1.9570595026016235,-0.17043140530586243,-55.52470016479492,56.06547546386719,-60.72785949707031
4.41,9.854839324951172,-13.50030517578125,3.093919515609741,-0.9147706627845764,-1.9075794219970703,-0.15347988903522491,-55.86085891723633,56.182403564453125,-60.47938919067383
4.42,6.638886451721191,-13.292129516601562,0.7501499056816101,-1.1731666326522827,-1.5914565324783325,-0.24327708780765533,-56.10932540893555,55.773162841796875,-58.98860168457031
4.43,4.727020740509033,-12.893725395202637,-0.7800601124763489,-1.9700403213500977,-1.4683672189712524,-0.5181664228439331,-55.84624481201172,56.32855987548828,-57.96550369262695
4.44,4.260420799255371,-12.388839721679688,-1.5565310716629028,-2.9471192359924316,-1.7206546068191528,-1.2573133707046509,-56.72317886352539,56.65010070800781,-55.61239242553711
4.46,5.399404048919678,-11.131410598754883,0.017946168780326843,-2.95857310295105,-1.9981402158737183,-1.63162100315094,-58.02397155761719,56.606258392333984,-53.46390151977539
4.463,5.650650501251221,-9.347561836242676,2.612962245941162,-2.5579981803894043,-2.130392551422119,-1.6369661092758179,-58.49167251586914,56.182403564453125,-50.61385726928711
4.47,5.1218366622924805,-8.848657608032227,3.366701364517212,-2.2850942611694336,-2.082439661026001,-1.6175711154937744,-59.22244644165039,55.96316909790039,-49.75153350830078
4.48,4.211367607116699,-8.825925827026367,3.55214524269104,-1.9239200353622437,-1.8781051635742188,-1.6137531995773315,-59.92399978637695,56.007015228271484,-47.456886291503906
4.49,3.8572299480438232,-9.494720458984375,3.5258240699768066,-1.466840147972107,-1.5830572843551636,-1.6099352836608887,-60.406314849853516,55.4954719543457,-45.46916198730469
4.5,3.9326038360595703,-10.77846908569336,3.73041033744812,-1.1620184183120728,-1.4840971231460571,-1.592831015586853,-61.210174560546875,55.188541412353516,-44.066062927246094
4.52,4.116851329803467,-12.037094116210938,3.592823028564453,-0.9509645104408264,-1.4787520170211792,-1.594358205795288,-63.09558868408203,54.32621765136719,-41.3037109375
4.523,4.649254322052002,-15.065210342407227,2.0410776138305664,-1.0209085941314697,-1.6820173263549805,-1.5070044994354248,-62.730194091796875,53.94621658325195,-40.8652458190918
4.53,4.500899314880371,-17.00100326538086,0.9678966999053955,-1.1788172721862793,-1.7834210395812988,-1.4694362878799438,-62.90558624267578,53.87313461303711,-40.879859924316406
4.54,4.377668857574463,-17.831314086914062,0.5539384484291077,-1.500285029411316,-2.0173823833465576,-1.4004086256027222,-63.82636260986328,52.47003936767578,-33.981292724609375
4.55,5.784648418426514,-16.761722564697266,0.5060819387435913,-1.3822352886199951,-2.47094988822937,-1.2533427476882935,-64.16252899169922,51.87080001831055,-35.6474723815918
4.56,5.017748832702637,-15.157334327697754,0.5946164131164551,-0.666454017162323,-3.4414618015289307,-1.0286970138549805,-63.884830474853516,51.183860778808594,-34.200523376464844
4.58,4.589433670043945,-12.198609352111816,3.678964614868164,-0.10277807712554932,-4.34905481338501,-0.9775370955467224,-63.78252029418945,51.0815544128418,-31.511253356933594
4.584,3.4612178802490234,-10.16471004486084,6.6137614250183105,-0.2767219543457031,-4.641964912414551,-0.7835873961448669,-63.30020523071289,50.71616744995117,-29.070446014404297
4.59,2.252842426300049,-10.14317512512207,7.596014976501465,-0.7861835360527039,-4.041790008544922,-0.5994114875793457,-63.168663024902344,50.570011138916016,-27.798887252807617
4.6,0.4486542344093323,-8.841479301452637,5.663811206817627,-1.4604259729385376,-2.9970574378967285,-0.5390886068344116,-61.80941390991211,49.75153350830078,-25.84039878845215
4.61,0.1411765217781067,-7.440481662750244,4.116851329803467,-1.744783878326416,-2.230727195739746,-0.6258314251899719,-61.56094741821289,49.26921844482422,-25.095001220703125
4.62,-0.4223332107067108,-6.258427619934082,3.253042459487915,-1.7095063924789429,-1.6898059844970703,-0.7344127297401428,-60.71324157714844,48.2607421875,-22.975738525390625
4.64,-0.7106683254241943,-5.583651542663574,2.6081764698028564,-1.5986343622207642,-0.9703594446182251,-0.6983716487884521,-60.625545501708984,47.14995574951172,-21.66033363342285
4.643,-0.6999006271362305,-4.299902439117432,1.8484554290771484,-1.4734069108963013,0.30375272035598755,-0.4404338300228119,-61.26863479614258,46.726104736328125,-20.388774871826172
4.65,-0.9475577473640442,-3.9326038360595703,1.4177473783493042,-1.323286771774292,0.7263187766075134,-0.3917173445224762,-61.195556640625,46.49225616455078,-20.067232131958008
4.66,-0.6939185857772827,-3.093919515609741,1.3435698747634888,-1.0317513942718506,0.9573785066604614,-0.4444044530391693,-61.66325759887695,45.58608627319336,-20.242618560791016
4.67,-0.4749752879142761,-2.5471596717834473,1.8293129205703735,-0.720210075378418,0.8639161586761475,-0.5129740834236145,-62.028648376464844,45.14761734008789,-20.038002014160156
4.68,-0.4929214417934418,-2.3162522315979004,2.1343977451324463,-0.45952337980270386,0.4973970353603363,-0.6603453159332275,-62.320960998535156,44.88453674316406,-19.701841354370117
4.7,0.24287149310112,-2.2671992778778076,2.5351955890655518,-0.23441952466964722,-0.14645493030548096,-0.8626943826675415,-62.45249938964844,44.38760757446289,-20.213388442993164
4.704,0.7549355626106262,-1.94297194480896,2.9802606105804443,0.10415252298116684,-1.1672108173370361,-0.9476047158241272,-62.145572662353516,43.802982330322266,-19.687227249145508
4.71,0.6747759580612183,-1.9573287963867188,3.1178479194641113,0.2600758671760559,-1.389260172843933,-0.8523097634315491,-62.1748046875,43.53989791870117,-19.24875831604004
4.72,0.30508488416671753,-2.0685951709747314,3.0209386348724365,0.4586070775985718,-1.3849842548370361,-0.6452264189720154,-61.970184326171875,43.057586669921875,-18.824905395507812
4.73,-0.4737788736820221,-2.1882362365722656,2.641676187515259,0.6676757335662842,-1.0082330703735352,-0.41340306401252747,-61.98480224609375,43.23297119140625,-18.63490104675293
4.74,-0.9284151792526245,-2.3401803970336914,2.0865414142608643,0.9065240025520325,-0.48548513650894165,-0.2428189367055893,-61.8532600402832,43.67144012451172,-17.53873062133789
4.76,-1.231107234954834,-2.7864418029785156,1.5529417991638184,1.1378892660140991,0.1420261561870575,-0.11468994617462158,-61.70710372924805,44.31452941894531,-18.591054916381836
4.764,-0.9667003750801086,-4.280759334564209,0.3696911036968231,1.250746488571167,0.6682865619659424,0.02474004216492176,-61.911720275878906,44.21221923828125,-18.737211227416992
4.77,-0.3158525824546814,-5.095515727996826,-0.5407779216766357,1.2803735733032227,0.7622070908546448,0.12980885803699493,-62.30634307861328,44.86991882324219,-18.5325927734375
4.78,0.5527420043945312,-5.8444695472717285,-1.3878371715545654,1.3669637441635132,0.616362988948822,0.284052312374115,-62.27711486816406,45.27915573120117,-19.62876319885254
4.79,1.8352948427200317,-6.9403815269470215,-1.4871392250061035,1.531133770942688,0.34376442432403564,0.4366159439086914,-61.8532600402832,46.126861572265625,-20.125694274902344
4.8,3.456432342529297,-10.303494453430176,-2.218146562576294,1.3283264636993408,-0.23029619455337524,0.625220537185669,-61.80941390991211,46.78456497192383,-21.324174880981445
4.819,-0.35413771867752075,-23.19721794128418,-16.68634796142578,-1.9755382537841797,4.1390700340271,-0.30543261766433716,-62.569419860839844,46.360713958740234,-20.71031951904297
4.823,13.497912406921387,-27.565317153930664,-19.661823272705078,-1.9226982593536377,5.003597259521484,-0.508087158203125,-62.67173385620117,45.732242584228516,-21.046478271484375
4.83,19.71925163269043,-23.389841079711914,-11.234301567077637,-1.2912163734436035,5.003597259521484,-0.44547346234321594,-63.19789123535156,45.235313415527344,-21.92341423034668
4.84,21.962520599365234,-20.668004989624023,-3.8141591548919678,-0.4726569652557373,3.9687914848327637,-0.7431175708770752,-65.14176940917969,44.88453674316406,-23.194971084594727
4.85,22.887348175048828,-15.544971466064453,-1.2825528383255005,-0.579405665397644,1.9793561697006226,-1.208749532699585,-65.84332275390625,44.577606201171875,-23.808828353881836
4.86,21.391834259033203,-8.307880401611328,-2.636890411376953,-1.073290228843689,1.5149458646774292,-0.8306240439414978,-66.51564025878906,43.01374053955078,-23.823442459106445
4.88,18.42593002319336,-2.5399811267852783,-3.985246181488037,-1.5668693780899048,1.4078916311264038,-0.1670716404914856,-66.86641693115234,42.443729400634766,-24.46653175354004
4.884,13.058829307556152,1.9214365482330322,-1.8281164169311523,-1.1452195644378662,0.5586362481117249,0.5406157374382019,-66.54487609863281,42.063724517822266,-23.516515731811523
4.89,10.429117202758789,-0.017946168780326843,1.7335999011993408,-0.9207265973091125,-0.16279558837413788,0.5251913666725159,-66.51564025878906,42.253726959228516,-23.136510848999023
4.9,8.024331092834473,-4.756931304931641,4.383650779724121,-0.1892155110836029,-3.2111659049987793,0.3614795207977295,-65.53639221191406,41.84449005126953,-22.230342864990234
4.91,4.6540398597717285,-9.954142570495605,6.4905314445495605,0.4066835343837738,-4.931514739990234,0.5813909769058228,-64.674072265625,42.239112854003906,-20.534931182861328
4.92,1.7216358184814453,-12.239288330078125,7.020541191101074,0.8860600590705872,-4.8365254402160645,1.0826059579849243,-62.978660583496094,41.85910415649414,-18.89798355102539
4.94,-1.1629117727279663,-11.283354759216309,5.838486671447754,1.373835802078247,-2.227367401123047,1.5474743843078613,-59.35398864746094,43.53989791870117,-18.459514617919922
4.944,-2.8450660705566406,-10.167102813720703,5.212764263153076,1.3735305070877075,-1.7878497838974,1.4482086896896362,-58.667057037353516,43.96375274658203,-17.655654907226562
4.95,-4.424328804016113,-9.69930648803711,5.68056058883667,1.2224940061569214,-1.2040153741836548,1.1833986043930054,-58.140892028808594,44.59222412109375,-17.72873306274414
4.96,-5.799005508422852,-9.384650230407715,5.6961140632629395,0.7854200005531311,-0.23884831368923187,0.6635523438453674,-57.117801666259766,44.48991394042969,-17.69950294494629
4.97,-4.53200626373291,-8.713462829589844,4.164707660675049,0.4444044530391693,0.4645630121231079,0.23136521875858307,-57.527042388916016,44.88453674316406,-18.16720199584961
4.98,-3.713660717010498,-9.129814147949219,3.2374887466430664,0.3669773042201996,0.8823947906494141,-0.06291911751031876,-57.04472732543945,45.176849365234375,-18.941829681396484
5.0,-2.9898316860198975,-10.285547256469727,3.231506824493408,0.44516804814338684,1.238071084022522,-0.22876903414726257,-58.0385856628418,45.118385314941406,-20.213388442993164
5.004,-1.4775679111480713,-11.268998146057129,3.3607192039489746,0.6044511198997498,1.986533761024475,-0.17379117012023926,-58.28704833984375,44.928382873535156,-20.491085052490234
5.01,-0.9284151792526245,-11.276176452636719,3.166900634765625,0.6928738951683044,2.3324360847473145,-0.006566801108419895,-58.21397399902344,44.89915466308594,-21.20724868774414
5.02,-0.35413771867752075,-10.564311981201172,3.152543783187866,0.7802276015281677,2.6984972953796387,0.2874121069908142,-58.81321334838867,45.01607894897461,-22.84419822692871
5.03,-0.11006983369588852,-9.796216011047363,3.1334011554718018,0.7738135457038879,2.944828748703003,0.49586984515190125,-59.032447814941406,45.42531204223633,-23.677288055419922
5.04,0.3649054169654846,-9.282955169677734,3.001795768737793,0.7124215364456177,3.0421090126037598,0.6253732442855835,-60.07015609741211,45.77608871459961,-24.67115020751953
5.06,0.9678966999053955,-8.912067413330078,2.981456995010376,0.5007568001747131,2.8147144317626953,0.7567093372344971,-60.172462463378906,46.27302169799805,-27.1704158782959
5.063,1.7611173391342163,-8.636893272399902,2.9443681240081787,0.4509712755680084,2.7072019577026367,0.7681630253791809,-60.800933837890625,46.62379455566406,-27.08272361755371
5.07,2.1236300468444824,-8.551947593688965,2.7517459392547607,0.4057672321796417,2.537992238998413,0.773202657699585,-60.406314849853516,46.682254791259766,-27.681964874267578
5.08,3.3643083572387695,-8.72662353515625,3.078366279602051,0.3903428912162781,2.2760839462280273,0.7828238010406494,-60.72785949707031,47.39842224121094,-28.588130950927734
5.09,3.2446675300598145,-8.645268440246582,3.6370902061462402,0.314442902803421,2.0396790504455566,0.8752171993255615,-60.26015853881836,47.26688003540039,-29.216602325439453
5.1,2.6177480220794678,-8.233702659606934,3.651447057723999,0.26740625500679016,2.1766655445098877,0.9185885787010193,-60.68401336669922,47.529964447021484,-29.757381439208984
5.12,5.133800983428955,-7.817351341247559,2.7589244842529297,0.5816964507102966,2.3432788848876953,0.9472992420196533,-60.90324401855469,47.909969329833984,-32.13972473144531
5.123,5.612365245819092,-7.700103282928467,2.4634108543395996,0.6731734871864319,2.1279489994049072,1.0056369304656982,-60.34785079956055,47.99766159057617,-32.1689567565918
5.13,6.430710792541504,-6.991827487945557,2.038684844970703,0.8306240439414978,1.7779232263565063,1.1325441598892212,-60.50862121582031,47.851505279541016,-33.572052001953125
5.14,6.69870662689209,-6.081358432769775,1.920240044593811,1.0697777271270752,1.322828769683838,1.310611367225647,-60.46477508544922,48.684593200683594,-33.922828674316406
5.15,8.489734649658203,-5.718846321105957,2.372483730316162,1.27961003780365,0.7000515460968018,1.3920091390609741,-60.08477020263672,49.51768493652344,-35.41362380981445
5.16,10.186245918273926,-5.3455657958984375,3.1214370727539062,1.3326025009155273,-0.36254850029945374,1.684918999671936,-59.470916748046875,49.69307327270508,-35.23823165893555
5.179,7.673781871795654,-4.975874423980713,2.840280294418335,1.3828461170196533,-0.5233587622642517,1.9755382537841797,-57.60011672973633,51.593101501464844,-36.159019470214844
5.183,7.500302314758301,-5.005784511566162,2.5232315063476562,1.461800456047058,-0.3510947823524475,1.9743164777755737,-57.77550506591797,51.05232620239258,-35.77901077270508
5.19,6.491727352142334,-5.3802618980407715,2.2229323387145996,1.6475034952163696,0.0029016099870204926,1.8901697397232056,-56.85471725463867,52.090030670166016,-37.16749572753906
5.2,5.582455158233643,-5.925825119018555,2.2432711124420166,1.908342957496643,0.6065891981124878,1.58427894115448,-56.05086135864258,52.66004180908203,-37.86904525756836
5.21,5.666203498840332,-6.106482982635498,2.4574286937713623,2.1175644397735596,1.2512047290802002,1.1371256113052368,-55.53931427001953,53.2008171081543,-38.68751907348633
5.22,5.624329566955566,-6.0670013427734375,2.5292134284973145,2.1626157760620117,1.5697710514068604,0.8284859657287598,-55.173927307128906,54.033905029296875,-40.48523712158203
5.239,4.713860511779785,-5.972485065460205,1.636690616607666,2.227672815322876,1.6595680713653564,0.3173445165157318,-54.60391616821289,54.53084182739258,-43.08681869506836
5.243,4.604987144470215,-6.374479293823242,1.4823535680770874,2.2568414211273193,1.6293302774429321,0.2583959996700287,-54.6185302734375,54.41391372680664,-43.52528381347656
5.25,4.518845558166504,-7.272984027862549,1.5002998113632202,2.3545801639556885,1.510364294052124,0.09162978827953339,-54.31160354614258,54.267757415771484,-44.85530471801758
5.26,4.527220249176025,-8.681159973144531,1.4344971179962158,2.5225679874420166,1.309084177017212,-0.12599095702171326,-54.443145751953125,53.97544479370117,-46.4191780090332
5.27,2.146361827850342,-10.415956497192383,-2.5328028202056885,2.705674648284912,1.3176363706588745,-0.23716843128204346,-54.662376403808594,54.50160598754883,-48.52382278442383
5.28,2.392822504043579,-23.574087142944336,-13.338788986206055,2.230879783630371,1.1866058111190796,-0.20601430535316467,-54.85238265991211,54.16544723510742,-49.649227142333984
5.299,3.5401811599731445,-14.965909004211426,3.298506021499634,-0.5832235813140869,-0.3422372341156006,0.27061331272125244,-54.38468551635742,53.88775634765625,-50.13154220581055
5.304,4.094119548797607,-12.92363452911377,4.807180404663086,-0.8434521555900574,-0.1082758679986,0.3436116874217987,-54.48699188232422,53.90237045288086,-50.01461410522461
5.31,5.513063430786133,-11.322836875915527,4.821537494659424,-0.9508117437362671,0.18478672206401825,0.47571131587028503,-53.61005783081055,54.09237289428711,-49.19614028930664
5.32,6.373282432556152,-10.189834594726562,3.9074792861938477,-0.835358202457428,0.5710062980651855,0.6110179424285889,-53.653900146484375,54.18006134033203,-48.36305236816406
5.33,6.702296257019043,-9.519845008850098,3.6885359287261963,-0.6140722632408142,0.49098294973373413,0.5542075037956238,-53.50774383544922,54.50160598754883,-48.669979095458984
5.34,6.978667259216309,-9.174081802368164,4.429114818572998,-0.5097670555114746,0.2278527319431305,0.44028112292289734,-52.733116149902344,54.35545349121094,-48.45074462890625
5.359,7.724031448364258,-8.153542518615723,4.71027135848999,-0.6841690540313721,0.058795779943466187,0.389426589012146,-52.13387680053711,54.267757415771484,-47.909969329833984
5.363,7.976474285125732,-8.109275817871094,4.633700847625732,-0.7305948138237,0.044745877385139465,0.3845396637916565,-52.22157287597656,54.048526763916016,-47.76381301879883
5.37,8.86780071258545,-8.056633949279785,4.55354118347168,-0.7802276015281677,-0.031612277030944824,0.3649919927120209,-51.6807975769043,54.58930206298828,-47.544578552246094
5.38,10.14795970916748,-7.28255558013916,3.4707889556884766,-0.7171558141708374,-0.2125811129808426,0.3378084599971771,-52.002342224121094,54.37007141113281,-47.00379943847656
5.39,8.849854469299316,-6.82313346862793,1.4931212663650513,-0.3494149148464203,-0.260992169380188,0.3058907687664032,-51.53464126586914,54.253143310546875,-46.44840621948242
5.409,6.704688549041748,-6.638886451721191,-2.0039889812469482,0.432034432888031,0.3903428912162781,0.1371392458677292,-51.44694519042969,54.32621765136719,-47.33995819091797
5.413,8.188239097595215,-10.463812828063965,-1.2634103298187256,1.1940888166427612,0.8799513578414917,-0.2577851414680481,-50.83308792114258,54.53084182739258,-48.50920867919922
5.42,11.33360481262207,-14.92164134979248,0.5503491759300232,0.6334671974182129,0.27809640765190125,-0.46471571922302246,-51.02309036254883,54.48699188232422,-48.43613052368164
5.43,13.02532958984375,-17.545372009277344,1.4141581058502197,-0.7220426797866821,-0.8057312369346619,-0.5575672388076782,-50.555397033691406,54.238529205322266,-48.43613052368164
5.44,10.301101684570312,-14.748162269592285,-1.573280930519104,-1.7389806509017944,-1.5497651100158691,-0.6997461318969727,-50.45308303833008,53.5369758605957,-47.19380569458008
5.45,7.843672752380371,-11.877971649169922,-3.293720245361328,-2.208888530731201,-1.9228510856628418,-0.912021815776825,-50.160770416259766,53.55158996582031,-46.69687271118164
5.46,5.760720252990723,-11.661420822143555,-2.6273193359375,-2.5856399536132812,-2.2884538173675537,-1.3200798034667969,-51.49079132080078,53.2008171081543,-44.22683334350586
5.479,6.171089172363281,-9.337989807128906,3.6670005321502686,-2.708118438720703,-2.6332874298095703,-1.934762954711914,-51.62232971191406,52.499271392822266,-41.21601867675781
5.483,5.748756408691406,-8.435895919799805,4.521238327026367,-2.6674957275390625,-2.5944972038269043,-1.9138407707214355,-52.294654846191406,52.1192626953125,-41.157554626464844
5.49,4.607379913330078,-7.753941535949707,4.49252462387085,-2.543490171432495,-2.3693935871124268,-1.896583914756775,-53.06927490234375,51.53464126586914,-39.73984146118164
5.5,3.5497522354125977,-7.548158645629883,3.8572299480438232,-2.1920900344848633,-1.7814357280731201,-1.8791741132736206,-52.77696990966797,51.11078643798828,-38.38058853149414
5.51,4.113262176513672,-8.598608016967773,3.775874137878418,-1.71683669090271,-1.3072515726089478,-1.8203784227371216,-53.94621658325195,50.64308547973633,-37.69365692138672
5.529,4.559523582458496,-10.540384292602539,3.8835508823394775,-1.2470813989639282,-1.3955215215682983,-1.7608189582824707,-53.829288482666016,49.53229904174805,-35.925167083740234
5.533,4.944767951965332,-12.926027297973633,4.107280254364014,-0.9030115604400635,-1.7661640644073486,-1.7557793855667114,-54.13621520996094,49.91230773925781,-35.25284957885742
5.54,5.343172550201416,-13.884353637695312,4.175475120544434,-0.6916521787643433,-2.0118846893310547,-1.7276794910430908,-53.96083068847656,49.06460189819336,-35.22361755371094
5.55,5.7918267250061035,-14.95992660522461,4.3549370765686035,-0.3361286222934723,-2.4379630088806152,-1.6397150754928589,-54.80853271484375,49.13768005371094,-35.106693267822266
5.56,7.627121925354004,-17.51665687561035,1.8221343755722046,0.09941831976175308,-3.0395126342773438,-1.4957035779953003,-54.764686584472656,48.52382278442383,-34.2443733215332
5.57,7.293323516845703,-19.5517520904541,-1.7802599668502808,0.10384708642959595,-4.95610237121582,-1.06657075881958,-54.764686584472656,48.23151397705078,-32.797428131103516
5.58,4.486542224884033,-14.330615043640137,0.4929214417934418,0.17638733983039856,-5.003597259521484,-0.9850201606750488,-54.633148193359375,48.23151397705078,-31.701257705688477
5.597,3.0544381141662598,-12.388839721679688,5.271388053894043,0.11850785464048386,-5.003597259521484,-0.8107708692550659,-53.025428771972656,47.98304748535156,-29.216602325439453
5.601,1.0277173519134521,-12.91047477722168,6.937989234924316,-0.12202033400535583,-5.003597259521484,-0.764345109462738,-52.38234329223633,47.67612075805664,-28.52967071533203
5.61,-0.8003991842269897,-13.098310470581055,8.6907320022583,-1.0077749490737915,-4.366769790649414,-0.625220537185669,-51.81233215332031,47.486114501953125,-26.805028915405273
5.62,-1.200000524520874,-11.423334121704102,7.372286796569824,-1.7849481105804443,-2.4103217124938965,-0.49495354294776917,-51.60771560668945,46.7991828918457,-25.182693481445312
5.63,-1.712064504623413,-9.253045082092285,4.660021781921387,-2.0900754928588867,-1.6975945234298706,-0.6026185750961304,-50.67231750488281,46.78456497192383,-24.67115020751953
5.649,-0.5312066078186035,-7.155735969543457,3.298506021499634,-1.945605754852295,-1.3382529020309448,-0.6597344279289246,-50.64308547973633,45.87839889526367,-23.618824005126953
5.653,0.10408778488636017,-5.335994243621826,2.720639228820801,-1.5308282375335693,-0.9902125597000122,-0.6050620079040527,-50.61385726928711,44.65068435668945,-22.712656021118164
5.66,-0.24047866463661194,-4.316651821136475,2.5986053943634033,-1.3046554327011108,-0.6966918110847473,-0.5694791078567505,-50.84770202636719,44.48991394042969,-21.879568099975586
5.67,-0.6711867451667786,-3.407379150390625,2.451446771621704,-1.087492823600769,-0.10201448947191238,-0.545044481754303,-50.83308792114258,43.75913619995117,-21.10494041442871
5.68,-0.2667997181415558,-2.874976396560669,2.3258235454559326,-0.9295841455459595,0.5633704662322998,-0.5557346343994141,-51.31540298461914,43.89067459106445,-21.806488037109375
5.69,-0.09930214285850525,-2.499303102493286,2.2504496574401855,-0.8197811841964722,0.7666358351707458,-0.5861251950263977,-51.05232620239258,43.247589111328125,-20.62262535095215
5.71,0.19621144235134125,-2.352144718170166,2.2648065090179443,-0.737772524356842,0.9352346658706665,-0.5658139586448669,-52.0608024597168,43.057586669921875,-21.36802101135254
5.714,1.0492527484893799,-1.8891334533691406,2.094916343688965,-0.3022255599498749,-0.04398229718208313,-0.7854200005531311,-52.83543014526367,42.57527160644531,-21.09032440185547
5.72,1.0947163105010986,-2.1415762901306152,2.1774685382843018,-0.14706581830978394,-0.4456261694431305,-0.8642215728759766,-53.36158752441406,42.253726959228516,-20.944168090820312
5.73,1.3710873126983643,-2.242074728012085,2.2372889518737793,0.2545780837535858,-1.2348641157150269,-0.959669291973114,-53.17158508300781,41.9029541015625,-21.163402557373047
5.74,1.200000524520874,-2.2636101245880127,2.44785737991333,0.5151121020317078,-1.3964380025863647,-0.8791877627372742,-53.04004669189453,41.9029541015625,-21.251096725463867
5.75,0.6269195079803467,-2.163111686706543,2.14516544342041,0.6351471543312073,-1.1366674900054932,-0.6843218207359314,-52.8208122253418,42.09295654296875,-20.286466598510742
5.769,-0.2584248483181,-2.1846470832824707,1.3782658576965332,0.6684393286705017,-0.6214026212692261,-0.4830417037010193,-52.689273834228516,41.81526184082031,-21.251096725463867
5.773,-1.3280165195465088,-2.557927370071411,0.5108676552772522,0.8463537693023682,0.1846340149641037,-0.19517144560813904,-52.80619812011719,41.683719635009766,-20.82724380493164
5.78,-1.7611173391342163,-2.6943180561065674,-0.11365906894207001,1.0125091075897217,0.5313000082969666,-0.0757472887635231,-52.8792724609375,42.39988327026367,-21.10494041442871
5.79,-1.444068431854248,-3.5880372524261475,-1.0707881450653076,1.2870930433273315,0.7548767328262329,0.05451972037553787,-52.8792724609375,42.67757797241211,-21.148786544799805
5.8,-0.3924228847026825,-5.142175674438477,-1.5529417991638184,1.4547755718231201,0.6058256030082703,0.16951508820056915,-53.449283599853516,43.10143280029297,-22.04033851623535
5.81,0.6005984544754028,-7.788637638092041,-2.706282138824463,1.36955988407135,0.21991148591041565,0.3295617997646332,-53.78544235229492,43.59836196899414,-22.873428344726562
5.83,0.26440688967704773,-14.769697189331055,-7.319643974304199,0.6032294034957886,0.12186761200428009,0.53328537940979,-53.04004669189453,43.422977447509766,-22.712656021118164
5.833,1.56969153881073,-25.02054786682129,-21.656240463256836,-1.6820173263549805,3.0271427631378174,0.5406157374382019,-53.77082824707031,44.31452941894531,-23.604209899902344
5.84,9.109475135803223,-22.331018447875977,-15.79861068725586,-1.2617422342300415,4.674645900726318,0.43905937671661377,-54.18006134033203,43.7006721496582,-22.566499710083008
5.85,18.19382667541504,-19.077974319458008,-4.588237285614014,-0.2148718386888504,4.925559043884277,0.14385876059532166,-55.14469909667969,44.182987213134766,-24.84653663635254
5.86,21.60838508605957,-18.06820297241211,1.7192429304122925,-0.005803219974040985,3.721238136291504,-0.3124575614929199,-56.15317153930664,44.24144744873047,-26.015785217285156
5.87,21.684953689575195,-14.039886474609375,1.275374412536621,-0.6209444999694824,2.6871960163116455,-0.8329147696495056,-57.45396041870117,43.17451095581055,-26.39579200744629
5.889,20.528026580810547,-9.268598556518555,-1.3435698747634888,-1.3225232362747192,2.741410255432129,-0.8472700715065002,-58.30166244506836,42.48757553100586,-26.79041290283203
5.893,17.0321102142334,-1.8436697721481323,-3.8596227169036865,-1.5500705242156982,2.6222915649414062,-0.5170974135398865,-58.90090560913086,42.03449249267578,-27.813507080078125
5.9,16.021142959594727,0.15672987699508667,-5.392225742340088,-1.423926830291748,1.6352862119674683,-0.3260492980480194,-59.39783477783203,41.11370849609375,-28.032737731933594
5.91,13.648659706115723,-1.9130616188049316,-2.8067808151245117,-1.1394164562225342,0.3885102868080139,-0.005497787147760391,-59.500144958496094,40.514469146728516,-28.105815887451172
5.92,12.336196899414062,-7.089932918548584,1.0169496536254883,-0.7901541590690613,-1.4121676683425903,0.2275473028421402,-59.39783477783203,40.85062789916992,-27.784273147583008
5.93,9.735198020935059,-12.356535911560059,5.064409255981445,0.023518310859799385,-3.579211950302124,0.9043859839439392,-58.93013381958008,40.587547302246094,-26.702720642089844
5.95,4.366901397705078,-14.24447250366211,7.451249122619629,0.5169447064399719,-4.014606475830078,1.6798794269561768,-57.731658935546875,41.084476470947266,-25.796550750732422
5.954,-1.8819550275802612,-10.577472686767578,6.128018856048584,0.8878926634788513,-2.8909196853637695,1.8555032014846802,-55.2762336730957,42.35603332519531,-24.86115074157715
5.96,-2.8319056034088135,-9.21715259552002,5.295316219329834,0.945772111415863,-2.188424587249756,1.5734361410140991,-54.60391616821289,42.443729400634766,-24.144987106323242
5.97,-3.867997646331787,-8.025527000427246,4.88853645324707,0.8808676600456238,-1.4288136959075928,1.1798862218856812,-54.048526763916016,43.23297119140625,-24.67115020751953
5.98,-5.109872817993164,-7.792226791381836,5.6339006423950195,0.5890268087387085,-0.49617525935173035,0.7802276015281677,-53.17158508300781,43.3645133972168,-23.998830795288086
5.99,-3.992424488067627,-7.283751964569092,4.060619831085205,0.25274547934532166,0.4415028393268585,0.41172316670417786,-52.96696853637695,43.78836441040039,-24.94884490966797
6.01,-3.262613534927368,-7.708477973937988,2.882154941558838,0.2741257846355438,0.7869471311569214,0.1589776873588562,-53.449283599853516,44.022212982177734,-24.992692947387695
6.013,-2.0685951709747314,-9.232706069946289,3.148954391479492,0.4424191415309906,1.054964303970337,-0.0027488935738801956,-53.4200553894043,44.10990905761719,-24.97807502746582
6.02,-1.5314065217971802,-9.990034103393555,3.613162040710449,0.5479460954666138,1.2177598476409912,0.03741549327969551,-53.829288482666016,44.13914108276367,-25.29962158203125
6.03,-1.0803593397140503,-10.456634521484375,3.9493536949157715,0.6046038866043091,1.5063936710357666,0.2142609804868698,-53.46390151977539,44.066062927246094,-26.249635696411133
6.04,-1.1318050622940063,-10.236495018005371,3.7782669067382812,0.5925393104553223,1.948660135269165,0.4538728594779968,-54.32621765136719,44.46068572998047,-27.126571655273438
6.05,-1.2251251935958862,-9.734002113342285,3.119044303894043,0.6229298114776611,2.32281494140625,0.5717698335647583,-54.50160598754883,44.72376251220703,-27.798887252807617
6.07,-1.1162517070770264,-9.521040916442871,2.985046148300171,0.7032586336135864,2.650085926055908,0.6247624158859253,-54.73545837402344,44.606842041015625,-29.625839233398438
6.074,-0.234496608376503,-9.44207763671875,3.2889344692230225,0.7878634333610535,3.007289409637451,0.6177374720573425,-55.14469909667969,45.60070037841797,-31.18971061706543
6.08,0.4127618968486786,-9.495916366577148,3.4983065128326416,0.7884743213653564,3.034167528152466,0.5969680547714233,-55.42238998413086,45.35223388671875,-32.00818634033203
6.09,1.8819550275802612,-9.438488960266113,3.638286828994751,0.7396051287651062,2.7904324531555176,0.5679519176483154,-56.620872497558594,45.93686294555664,-32.490501403808594
6.1,2.66560435295105,-8.732605934143066,3.3511481285095215,0.7170030474662781,2.4668264389038086,0.599564254283905,-55.91931915283203,45.556854248046875,-32.85588836669922
6.11,2.606980323791504,-8.053044319152832,3.2650065422058105,0.7473936080932617,2.3403773307800293,0.7017314434051514,-56.48933029174805,46.15609359741211,-34.77053451538086
6.13,2.0171494483947754,-7.495516777038574,3.830909013748169,0.7904596328735352,2.6222915649414062,0.8759807348251343,-56.503944396972656,46.38994216918945,-36.729026794433594
6.133,3.996013641357422,-7.337590217590332,3.4636106491088867,0.7189883589744568,2.7708845138549805,1.0253373384475708,-56.211631774902344,46.857643127441406,-37.664424896240234
6.14,4.627718925476074,-7.399803638458252,3.273381233215332,0.6345362663269043,2.4023802280426025,1.0222829580307007,-55.992401123046875,46.916107177734375,-38.08827590942383
6.15,5.400600433349609,-7.1748785972595215,2.9036900997161865,0.5340489149093628,1.891238808631897,1.0502300262451172,-56.28471374511719,47.296112060546875,-39.62291717529297
6.16,7.124629020690918,-7.113861083984375,2.709871768951416,0.4970915913581848,1.188132882118225,1.1163562536239624,-55.62701416015625,47.51534652709961,-39.418296813964844
6.17,8.87378215789795,-7.342375755310059,2.2612173557281494,0.5638285875320435,0.3130684196949005,1.208749532699585,-55.173927307128906,48.056121826171875,-40.207542419433594
6.19,10.284351348876953,-7.6558356285095215,2.2169501781463623,0.8171849846839905,-0.5968153476715088,1.423621416091919,-54.98392105102539,48.6407470703125,-40.99678421020508
6.194,8.372486114501953,-7.025327205657959,2.7804598808288574,1.2783881425857544,-0.5665775537490845,1.7779232263565063,-53.97544479370117,49.19614028930664,-40.03215408325195
6.2,8.043473243713379,-6.62213659286499,2.5674986839294434,1.4735596179962158,-0.0679587572813034,1.9562959671020508,-53.49312973022461,49.48845672607422,-40.17831039428711
6.21,7.101897239685059,-5.911468029022217,2.266003131866455,1.747685432434082,0.6417139768600464,2.0987801551818848,-52.499271392822266,49.98538589477539,-41.74217987060547
6.22,5.8683977127075195,-5.243870735168457,1.9142580032348633,2.0648770332336426,1.2527319192886353,1.9792033433914185,-51.4177131652832,50.263084411621094,-42.22449493408203
6.23,5.398207664489746,-5.394618511199951,2.482553482055664,2.3344216346740723,1.6378823518753052,1.6479616165161133,-51.1400146484375,50.950016021728516,-43.48143768310547
6.25,5.248656272888184,-5.387440204620361,2.6596221923828125,2.4055874347686768,1.5920674800872803,1.2212722301483154,-50.46770095825195,52.090030670166016,-47.16456985473633
6.253,4.837090969085693,-5.676971435546875,2.2432711124420166,2.3602304458618164,1.581682801246643,0.8799513578414917,-50.10231018066406,52.309268951416016,-47.36919021606445
6.26,4.845465660095215,-5.875576019287109,1.810170292854309,2.345111608505249,1.5590808391571045,0.7205155491828918,-50.2776985168457,51.973106384277344,-48.33382034301758
6.27,4.796412467956543,-6.8279194831848145,1.1473584175109863,2.4558310508728027,1.5031867027282715,0.5210680365562439,-50.17538833618164,52.484657287597656,-49.70768737792969
6.28,5.016552448272705,-8.12841796875,0.9966105818748474,2.663983106613159,1.4118623733520508,0.3323107063770294,-49.839229583740234,52.17772674560547,-51.198482513427734
6.29,3.348755121231079,-9.723234176635742,-0.8662018179893494,2.923448324203491,1.7102699279785156,0.1033889427781105,-49.38614273071289,52.03157043457031,-52.47003936767578
6.309,-0.3349951505661011,-24.142383575439453,-10.738987922668457,-0.3298672139644623,1.8747453689575195,-0.24648413062095642,-49.166908264160156,51.92926025390625,-54.13621520996094
6.313,5.004588603973389,-15.997214317321777,0.6137589812278748,-0.9776898622512817,1.0131200551986694,-0.3110831081867218,-49.00613784790039,51.53464126586914,-54.443145751953125
6.32,4.724628448486328,-11.864810943603516,3.047259569168091,-1.3176363706588745,0.35842517018318176,-0.35903605818748474,-49.2984504699707,51.66618347167969,-54.238529205322266
6.33,6.32542610168457,-10.359725952148438,3.3020951747894287,-1.1206321716308594,0.4938845634460449,-0.18280142545700073,-49.576148986816406,51.44694519042969,-53.71236038208008
6.34,6.49770975112915,-9.577272415161133,3.2135608196258545,-0.7929030656814575,0.6843218207359314,0.11545352637767792,-49.48845672607422,51.54925537109375,-53.05466079711914
6.35,6.625725269317627,-8.9910306930542,3.566502094268799,-0.45463645458221436,0.4963279962539673,0.20387627184391022,-49.34230041503906,51.476173400878906,-53.449283599853516
6.37,7.195217609405518,-8.745766639709473,4.137190341949463,-0.3871358335018158,0.03344487026333809,0.1999056488275528,-49.049983978271484,51.900028228759766,-54.10698699951172
6.374,7.573283672332764,-8.317450523376465,4.076173305511475,-0.42241328954696655,-0.42042800784111023,0.2460259646177292,-48.406898498535156,51.76848602294922,-53.215431213378906
6.38,7.808976650238037,-8.065009117126465,3.9457645416259766,-0.4378376603126526,-0.5691736936569214,0.26251932978630066,-48.5822868347168,51.66618347167969,-52.733116149902344
6.39,8.541180610656738,-7.850851058959961,3.974478244781494,-0.42409318685531616,-0.6937901973724365,0.22479841113090515,-48.611515045166016,51.183860778808594,-52.893890380859375
6.4,9.498309135437012,-7.40578556060791,3.0209386348724365,-0.25473082065582275,-0.6821837425231934,0.2356412708759308,-48.50920867919922,51.373870849609375,-52.23618698120117
6.41,9.292526245117188,-7.8448686599731445,1.7036895751953125,0.08460482954978943,-0.41340306401252747,0.25595253705978394,-47.924583435058594,51.62232971191406,-52.280033111572266
6.429,10.74855899810791,-10.401598930358887,2.8701906204223633,0.5723807215690613,-0.9230173230171204,-0.13377948105335236,-47.77842712402344,51.06694030761719,-52.543113708496094
6.433,11.8528470993042,-12.074182510375977,2.713460922241211,0.5969680547714233,-1.0024298429489136,-0.15470163524150848,-48.01227569580078,51.213096618652344,-52.47003936767578
6.44,9.7124662399292,-11.949755668640137,0.6903292536735535,0.6061310172080994,-1.0216721296310425,-0.22052235901355743,-48.74305725097656,51.578487396240234,-52.090030670166016
6.45,5.893521785736084,-13.611571311950684,-2.599801778793335,-0.3729332387447357,-0.46334129571914673,-0.5648975968360901,-48.18766403198242,51.84156799316406,-52.79158401489258
6.46,5.44726037979126,-15.638291358947754,-4.071387767791748,-2.149787425994873,-0.9013316631317139,-1.288162112236023,-48.81613540649414,51.213096618652344,-51.85618591308594
6.47,4.768895149230957,-13.85085391998291,-3.9254255294799805,-2.9999589920043945,-1.8490890264511108,-1.9799668788909912,-49.225372314453125,51.05232620239258,-49.780765533447266
6.49,5.575276851654053,-11.545369148254395,-1.2658032178878784,-2.816852331161499,-2.0865628719329834,-2.043802261352539,-50.49692916870117,50.2776985168457,-47.1207275390625
6.493,5.757131099700928,-9.80100154876709,2.7589244842529297,-2.311514139175415,-2.1754438877105713,-1.8695530891418457,-50.745399475097656,50.10231018066406,-46.667640686035156
6.5,5.272584438323975,-9.260223388671875,3.4229326248168945,-2.1314613819122314,-2.099696397781372,-1.8561140298843384,-51.373870849609375,49.53229904174805,-45.07453918457031
6.51,4.734199523925781,-9.148957252502441,4.120440483093262,-1.8374825716018677,-1.7919731140136719,-1.8474091291427612,-51.92926025390625,49.32768249511719,-44.79684066772461
6.52,4.3549370765686035,-9.876375198364258,4.403989791870117,-1.5150984525680542,-1.4246904850006104,-1.7385224103927612,-52.85004425048828,49.35691452026367,-44.27068328857422
6.53,4.479363918304443,-11.009376525878906,4.350151538848877,-1.1992812156677246,-1.2139419317245483,-1.6256651878356934,-53.127742767333984,48.085357666015625,-43.876060485839844
6.55,4.497309684753418,-12.399605751037598,4.23649263381958,-0.9515753388404846,-1.3982704877853394,-1.5563318729400635,-53.68313217163086,47.529964447021484,-41.82987594604492
6.553,5.072783946990967,-15.730415344238281,3.7328033447265625,-0.731511116027832,-2.121382236480713,-1.4813481569290161,-54.019290924072266,47.486114501953125,-41.39140701293945
6.56,4.949553489685059,-18.044275283813477,2.39401912689209,-0.8959865570068359,-2.649169921875,-1.4094188213348389,-53.93159866333008,47.06226348876953,-40.80678176879883
6.57,4.785645008087158,-19.38186264038086,0.6161518096923828,-1.2678508758544922,-3.2319352626800537,-1.3361150026321411,-54.29698944091797,46.872257232666016,-39.62291717529297
6.58,4.766502380371094,-18.296716690063477,0.5539384484291077,-1.3403910398483276,-3.6439638137817383,-1.2768610715866089,-54.238529205322266,46.112247467041016,-38.4828987121582
6.59,5.708078384399414,-16.037893295288086,0.8063812255859375,-0.8426886200904846,-4.237266540527344,-1.068861484527588,-54.51622772216797,46.4191780090332,-36.90441131591797
6.61,4.82632303237915,-12.859027862548828,3.8225340843200684,0.03634648025035858,-5.003597259521484,-0.8839219808578491,-54.15083312988281,45.542240142822266,-34.09821701049805
6.614,2.2325034141540527,-11.34796142578125,7.310072898864746,-0.12018773704767227,-5.003597259521484,-0.8300131559371948,-53.99005889892578,45.556854248046875,-34.112831115722656
6.62,0.7489534616470337,-12.221341133117676,8.109275817871094,-0.7382306456565857,-4.648378849029541,-0.6954700946807861,-53.77082824707031,45.52762222290039,-33.48435974121094
6.63,-0.7920242547988892,-11.450852394104004,6.923632621765137,-1.7646368741989136,-2.976440906524658,-0.39675697684288025,-52.689273834228516,45.556854248046875,-30.73662757873535
6.64,-0.8039883971214294,-9.717252731323242,3.8943188190460205,-2.317470073699951,-1.7687602043151855,-0.35521814227104187,-52.8792724609375,44.79684066772461,-29.34814453125
6.65,-1.7742778062820435,-8.109275817871094,2.39401912689209,-2.3035728931427,-1.1737775802612305,-0.456163614988327,-52.893890380859375,44.621456146240234,-27.784273147583008
6.67,-1.4823535680770874,-6.655636310577393,1.8197414875030518,-1.9601138830184937,-0.5676465034484863,-0.7031058669090271,-52.8208122253418,43.3645133972168,-26.819643020629883
6.673,-0.4007977545261383,-4.744967460632324,2.007578134536743,-1.563356876373291,-0.13041973114013672,-0.7880162000656128,-53.317745208740234,43.61297607421875,-26.39579200744629
6.68,-0.3840480148792267,-4.217350006103516,2.227717876434326,-1.3350459337234497,0.05726861581206322,-0.808174729347229,-53.87313461303711,43.01374053955078,-26.4104061126709
6.69,-0.2560320198535919,-3.489931583404541,2.4263219833374023,-1.151633620262146,0.44119739532470703,-0.7654141187667847,-53.87313461303711,42.692195892333984,-25.97193717956543
6.7,-0.19262221455574036,-2.847459077835083,2.3222343921661377,-1.0170906782150269,0.7073819041252136,-0.6934847235679626,-54.32621765136719,42.48757553100586,-26.132709503173828
6.71,-0.4989035129547119,-2.502892255783081,2.227717876434326,-0.8448265790939331,0.7953465580940247,-0.7454083561897278,-54.57468795776367,42.41449737548828,-25.7088565826416
6.73,-0.4283152222633362,-1.8747763633728027,2.3198413848876953,-0.5572617650032043,0.32589662075042725,-0.9740245938301086,-56.05086135864258,41.47909927368164,-25.021923065185547
6.733,0.07896314561367035,-1.3674980401992798,2.3545374870300293,-0.5167919993400574,0.21945331990718842,-0.987463653087616,-56.197017669677734,41.53756332397461,-25.92809295654297
6.74,0.09451649338006973,-1.2287143468856812,2.2480568885803223,-0.375071257352829,-0.0705549344420433,-1.0062477588653564,-56.007015228271484,41.42063903808594,-24.904998779296875
6.75,0.30987051129341125,-1.1497513055801392,2.2372889518737793,-0.1333213448524475,-0.43417245149612427,-0.9686795473098755,-56.27009963989258,41.142940521240234,-25.665008544921875
