time,accel_x,accel_y,accel_z,gyro_x,gyro_y,gyro_z,mag_x,mag_y,mag_z
0.0,3.3535408973693848,-9.09990406036377,1.8233308792114258,0.04764748737215996,-0.015577062964439392,0.003512475173920393,-22.04033851623535,47.82227325439453,-45.41069793701172
0.02,3.376272678375244,-9.056833267211914,1.856830358505249,0.01542434748262167,-0.02229658141732216,0.005497787147760391,-22.011106491088867,47.8807373046875,-45.03069305419922
0.023,3.397808074951172,-9.041280746459961,1.9381862878799438,0.00809396430850029,-0.021532999351620674,0.005192354787141085,-22.025724411010742,47.98304748535156,-45.0599250793457
0.03,3.3918259143829346,-8.98385238647461,1.9764714241027832,-0.01542434748262167,-0.01863138936460018,0.0006108652451075613,-21.8503360748291,47.00379943847656,-45.14761734008789
0.04,3.400200843811035,-8.988637924194336,1.95852530002594,-0.024587325751781464,-0.013286319561302662,-0.006566801108419895,-22.054954528808594,47.471500396728516,-45.35223388671875
0.05,3.3858439922332764,-9.010172843933105,1.9597216844558716,-0.0024434609804302454,-0.011453723534941673,-0.007024950347840786,-22.142648696899414,47.456886291503906,-45.83454895019531
0.06,3.352344274520874,-8.986245155334473,1.9645073413848877,0.02122756652534008,-0.017409659922122955,-0.003512475173920393,-22.128032684326172,47.38380432128906,-45.83454895019531
0.08,3.4097721576690674,-8.94676399230957,1.9166508913040161,0.04764748737215996,-0.02687807008624077,0.0004581489192787558,-21.92341423034668,47.471500396728516,-45.77608871459961
0.083,3.3750762939453125,-9.040083885192871,1.92741858959198,0.06887505203485489,-0.03848451003432274,-0.004123340360820293,-22.04033851623535,47.866119384765625,-46.46302032470703
0.09,3.267399311065674,-9.08554744720459,1.8939191102981567,0.07101307809352875,-0.0354301817715168,-0.00855211354792118,-21.967260360717773,47.82227325439453,-45.498390197753906
0.1,3.2195427417755127,-9.10708236694336,1.8795621395111084,0.06352998316287994,-0.012675453908741474,-0.010995574295520782,-22.318035125732422,47.456886291503906,-46.05378341674805
0.11,3.2518458366394043,-9.103493690490723,1.8963117599487305,0.03680463135242462,-0.0009162978385575116,-0.01038470957428217,-21.791873931884766,47.70534896850586,-45.995323181152344
0.12,3.3032915592193604,-9.040083885192871,1.875972867012024,0.00931569468230009,-0.003054326167330146,-0.01191187184303999,-21.66033363342285,48.01227569580078,-46.22917175292969
0.14,3.3296124935150146,-9.07119083404541,1.9058831930160522,-0.009773843921720982,-0.013744467869400978,-0.01114829070866108,-21.704179763793945,47.70534896850586,-46.24378967285156
0.143,3.346362352371216,-9.047262191772461,1.92741858959198,-0.005650503095239401,-0.02474004216492176,-0.0074830991216003895,-21.8503360748291,47.5591926574707,-46.346099853515625
0.15,3.315255641937256,-9.006584167480469,1.9178473949432373,0.005192354787141085,-0.02229658141732216,-0.003054326167330146,-21.66033363342285,47.61765670776367,-45.27915573120117
0.16,3.304487705230713,-9.007781028747559,1.951346755027771,0.021838432177901268,-0.010079275816679,-0.007635815534740686,-21.894182205200195,47.734580993652344,-45.57147216796875
0.17,3.269791841506958,-9.035297393798828,1.9501503705978394,0.027183502912521362,-0.003512475173920393,-0.016035212203860283,-22.011106491088867,47.33995819091797,-45.498390197753906
0.18,3.2171499729156494,-9.078369140625,1.86520516872406,0.03726277872920036,-0.003359758760780096,-0.015882495790719986,-21.92341423034668,47.544578552246094,-45.498390197753906
0.2,3.2004001140594482,-9.134600639343262,1.872383713722229,0.04688390716910362,-0.006872233934700489,-0.004581489134579897,-21.616485595703125,47.19380569458008,-46.346099853515625
0.204,3.22552490234375,-9.087940216064453,1.935793399810791,0.021838432177901268,-0.0004581489192787558,0.0073303827084600925,-21.324174880981445,47.26688003540039,-45.35223388671875
0.21,3.3308091163635254,-9.067601203918457,1.8963117599487305,0.005803219974040985,0.0036651913542300463,0.007177666295319796,-21.48494529724121,47.529964447021484,-45.235313415527344
0.22,3.379861831665039,-8.994619369506836,1.8640087842941284,-0.0032070425804704428,0.010690141469240189,0.0019853119738399982,-20.973400115966797,48.27535629272461,-46.00994110107422
0.23,3.4157540798187256,-8.970691680908203,1.9178473949432373,-0.0029016099870204926,0.01191187184303999,-0.006261368282139301,-21.338788986206055,47.64688491821289,-46.126861572265625
0.24,3.373879909515381,-8.956335067749023,1.9537396430969238,-0.003359758760780096,0.005192354787141085,-0.012980885803699493,-21.601871490478516,47.924583435058594,-47.2230339050293
0.26,3.3511481285095215,-8.97547721862793,1.8855441808700562,0.016035212203860283,-0.009468411095440388,-0.014966198243200779,-21.748027801513672,47.60304260253906,-47.19380569458008
0.264,3.3822548389434814,-9.160921096801758,1.9298113584518433,0.06291911751031876,-0.02367102913558483,0.0019853119738399982,-21.411867141723633,47.9391975402832,-45.922245025634766
0.27,3.332005262374878,-9.09990406036377,1.9920247793197632,0.06200282275676727,-0.01572977937757969,0.008246680721640587,-20.973400115966797,48.31920623779297,-45.995323181152344
0.28,3.359522819519043,-9.005387306213379,1.9477574825286865,0.03451388329267502,0.003359758760780096,0.005650503095239401,-21.54340934753418,48.2607421875,-45.32300567626953
0.29,3.404986619949341,-8.980262756347656,1.8532410860061646,0.010995574295520782,0.013286319561302662,-0.007941247895359993,-21.251096725463867,48.14381790161133,-46.521484375
0.3,3.4169507026672363,-9.007781028747559,1.8340984582901,0.004123340360820293,0.010079275816679,-0.017867807298898697,-21.879568099975586,48.026893615722656,-46.76995086669922
0.319,3.3511481285095215,-9.022137641906738,1.8305093050003052,0.027947084978222847,-0.0022907445672899485,-0.018020525574684143,-21.353404998779297,47.63227081298828,-46.03916931152344
0.323,3.2961132526397705,-9.016155242919922,1.8592231273651123,0.03497203439474106,-0.0029016099870204926,-0.015882495790719986,-21.587255477905273,47.89535140991211,-45.732242584228516
0.33,3.339184045791626,-9.017352104187012,1.9154545068740845,0.04001167416572571,-0.003817907767370343,-0.01237002108246088,-21.455713272094727,47.237648010253906,-45.761470794677734
0.34,3.3547372817993164,-9.001798629760742,1.939382791519165,0.035124752670526505,-0.018936822190880775,-0.00931569468230009,-22.274188995361328,47.98304748535156,-45.84916687011719
0.35,3.290131092071533,-8.98265552520752,1.9250258207321167,0.032070424407720566,-0.03344487026333809,-0.010842857882380486,-21.54340934753418,48.099971771240234,-45.51300811767578
0.36,3.300898551940918,-8.926424980163574,1.9369899034500122,0.032681290060281754,-0.04138611629605293,-0.012675453908741474,-21.601871490478516,48.34843444824219,-45.70301055908203
0.38,3.370290756225586,-9.019744873046875,1.8460626602172852,0.04398229718208313,-0.06811147183179855,-0.012064589187502861,-21.674949645996094,47.9391975402832,-45.42531204223633
0.383,3.5341989994049072,-9.265008926391602,1.714457392692566,0.08827002346515656,-0.12034045159816742,-0.007788531482219696,-21.28032684326172,48.099971771240234,-45.30839157104492
0.39,3.504288673400879,-9.287740707397461,1.5876377820968628,0.12660181522369385,-0.1359175145626068,0.0019853119738399982,-21.397253036499023,47.51534652709961,-45.64455032348633
0.4,3.3966116905212402,-9.166903495788574,1.5110673904418945,0.1719585657119751,-0.11560624837875366,0.012064589187502861,-21.4703311920166,48.114585876464844,-46.06840133666992
0.41,3.269791841506958,-9.111868858337402,1.4955140352249146,0.17852537333965302,-0.07284567505121231,-0.0019853119738399982,-20.944168090820312,48.01227569580078,-46.15609359741211
0.42,3.160918712615967,-9.211170196533203,1.4632110595703125,0.14187344908714294,-0.051923543214797974,-0.02977968007326126,-22.215726852416992,47.58842468261719,-46.185325622558594
0.439,3.152543783187866,-9.345169067382812,1.3758729696273804,0.053908854722976685,-0.012217304669320583,-0.04886921867728233,-21.441099166870117,48.085357666015625,-45.556854248046875
0.443,3.125026226043701,-9.297311782836914,1.3878371715545654,0.02428189292550087,-0.003359758760780096,-0.05146539583802223,-21.733409881591797,47.96842956542969,-45.62993240356445
0.45,3.1369903087615967,-9.138189315795898,1.444068431854248,-0.027947084978222847,0.003359758760780096,-0.04535674676299095,-21.36802101135254,47.57380676269531,-45.132999420166016
0.46,3.2027928829193115,-8.935996055603027,1.5110673904418945,-0.11698068678379059,-0.002138028386980295,-0.038026362657547,-22.11341667175293,48.056121826171875,-45.65916442871094
0.47,3.456432342529297,-8.870193481445312,1.5684951543807983,-0.16508632898330688,-0.032681290060281754,-0.039706241339445114,-21.718795776367188,47.32534408569336,-46.43379211425781
0.48,3.6526436805725098,-8.934799194335938,1.6307085752487183,-0.18478672206401825,-0.07895433157682419,-0.04413501173257828,-21.36802101135254,47.529964447021484,-46.40456008911133
0.501,3.686143398284912,-9.052047729492188,1.6462620496749878,-0.17791450023651123,-0.12553280591964722,-0.04917465150356293,-21.48494529724121,48.2607421875,-45.46916198730469
0.505,3.538984537124634,-9.020940780639648,1.6701900959014893,-0.13041973114013672,-0.1463022232055664,-0.0705549344420433,-21.864952087402344,47.98304748535156,-45.995323181152344
0.51,3.4683964252471924,-8.993423461914062,1.6857434511184692,-0.10873401165008545,-0.13087788224220276,-0.08918632566928864,-21.689563751220703,47.71996307373047,-45.1037712097168
0.52,3.28773832321167,-9.067601203918457,1.7635102272033691,-0.08216137439012527,-0.080634206533432,-0.11530081182718277,-21.967260360717773,48.45074462890625,-45.07453918457031
0.53,3.001795768737793,-9.11426067352295,1.9082759618759155,-0.07376197725534439,-0.018936822190880775,-0.13988813757896423,-22.142648696899414,48.056121826171875,-46.170711517333984
0.54,2.754138708114624,-8.998208999633789,1.8735800981521606,-0.08139779418706894,0.048258356750011444,-0.1569923609495163,-21.8503360748291,47.60304260253906,-45.86378479003906
0.559,2.606980323791504,-8.835497856140137,1.8257235288619995,-0.07299839705228806,0.18356500566005707,-0.13698652386665344,-22.274188995361328,48.041507720947266,-44.95761489868164
0.563,2.740978240966797,-8.758926391601562,1.7742778062820435,-0.06963863968849182,0.18707747757434845,-0.1238529235124588,-22.39111328125,47.89535140991211,-45.29377365112305
0.57,2.9288148880004883,-8.8438720703125,1.7491532564163208,-0.04444044828414917,0.15347988903522491,-0.09972374886274338,-22.44957733154297,48.14381790161133,-45.366851806640625
0.58,3.1585259437561035,-9.006584167480469,1.753938913345337,-0.0027488935738801956,0.08491026610136032,-0.056810468435287476,-22.639577865600586,47.71996307373047,-44.88453674316406
0.59,3.231506824493408,-9.05563735961914,1.7706886529922485,0.04871650040149689,0.023365594446659088,-0.017409659922122955,-22.215726852416992,47.924583435058594,-44.738380432128906
0.6,3.2889344692230225,-8.980262756347656,1.8317056894302368,0.0962112694978714,-0.0088575454428792,0.006108652334660292,-22.683425903320312,47.67612075805664,-45.83454895019531
0.62,3.4636106491088867,-9.023334503173828,1.820937991142273,0.13041973114013672,0.006261368282139301,0.0177150908857584,-22.639577865600586,47.69073486328125,-45.32300567626953
0.623,3.506681442260742,-9.016155242919922,1.7874385118484497,0.13408491015434265,0.014202617108821869,0.014049900695681572,-22.434959411621094,47.734580993652344,-45.191463470458984
0.63,3.542573928833008,-9.000602722167969,1.782652735710144,0.1371392458677292,0.02321287989616394,0.0027488935738801956,-22.800350189208984,47.909969329833984,-45.42531204223633
0.64,3.5736804008483887,-8.916852951049805,1.8113667964935303,0.1287398487329483,0.04077525436878204,-0.01160643994808197,-22.72727394104004,47.09149169921875,-45.52762222290039
0.65,3.6502509117126465,-8.731410026550293,1.8077774047851562,0.11270463466644287,0.052839841693639755,-0.020158551633358,-22.464191436767578,47.529964447021484,-45.95147705078125
0.66,3.810570001602173,-8.61894702911377,1.8161523342132568,0.09865473955869675,0.041233401745557785,-0.023518310859799385,-22.771120071411133,47.354576110839844,-45.746856689453125
0.68,3.998406410217285,-8.57348346710205,1.8532410860061646,0.0910189226269722,-0.0529925599694252,-0.028557950630784035,-22.94650650024414,47.99766159057617,-45.86378479003906
0.683,4.091726303100586,-8.547162055969238,1.95852530002594,0.09498954564332962,-0.07162395119667053,-0.029626963660120964,-23.165740966796875,47.77842712402344,-45.717628479003906
0.69,4.1144585609436035,-8.555537223815918,2.0338993072509766,0.1059851199388504,-0.08643742650747299,-0.03039054572582245,-23.633440017700195,47.70534896850586,-46.550716400146484
0.7,4.054637908935547,-8.447859764099121,2.1128623485565186,0.1264491081237793,-0.0884227380156517,-0.034666601568460464,-23.01958465576172,47.89535140991211,-45.86378479003906
0.71,4.05703067779541,-8.440681457519531,2.0398812294006348,0.1592831164598465,-0.078343465924263,-0.041233401745557785,-23.063430786132812,47.836891174316406,-45.87839889526367
0.72,4.0211381912231445,-8.530412673950195,2.0554347038269043,0.21838431060314178,-0.1039998009800911,-0.04703662171959877,-23.136510848999023,48.026893615722656,-46.1414794921875
0.74,3.943371534347534,-8.723034858703613,1.8436697721481323,0.31612274050712585,-0.2125811129808426,0.005803219974040985,-23.545745849609375,48.01227569580078,-46.477638244628906
0.743,3.8763725757598877,-8.768498420715332,1.8113667964935303,0.3298672139644623,-0.23228150606155396,0.018020525574684143,-23.341127395629883,47.67612075805664,-46.59456253051758
0.75,3.860819101333618,-8.86780071258545,1.8197414875030518,0.3654501140117645,-0.28619036078453064,0.059406641870737076,-23.29728126525879,48.23151397705078,-46.49225616455078
0.76,3.8668015003204346,-9.030512809753418,1.9286149740219116,0.37720927596092224,-0.34406986832618713,0.1160643994808197,-23.12189483642578,48.465362548828125,-46.02455520629883
0.77,3.823730707168579,-9.06161880493164,2.111665964126587,0.3173445165157318,-0.40133848786354065,0.1638645976781845,-23.39959144592285,48.20227813720703,-46.49225616455078
0.78,3.6705896854400635,-8.778069496154785,2.1547367572784424,0.24266621470451355,-0.4054618179798126,0.1765400469303131,-23.50189971923828,48.5822868347168,-46.33148193359375
0.8,3.445664644241333,-8.628518104553223,2.234896183013916,0.1514945775270462,-0.3553708493709564,0.1725694239139557,-22.888044357299805,48.72844314575195,-46.682254791259766
0.804,3.3822548389434814,-8.654839515686035,2.262413740158081,0.14324790239334106,-0.33948835730552673,0.1693623811006546,-22.610347747802734,48.55305480957031,-46.21455764770508
0.81,3.4265217781066895,-8.702695846557617,2.3294126987457275,0.1434006243944168,-0.3197879493236542,0.16539175808429718,-22.581117630004883,48.33382034301758,-46.857643127441406
0.82,3.4743783473968506,-8.855835914611816,2.3988046646118164,0.16508632898330688,-0.28466320037841797,0.15073098242282867,-23.12189483642578,47.96842956542969,-46.740718841552734
0.83,3.4337005615234375,-8.947959899902344,2.5076780319213867,0.23716843128204346,-0.25763240456581116,0.13439035415649414,-22.712656021118164,48.37766647338867,-46.82841491699219
0.84,3.346362352371216,-8.96231746673584,2.4370899200439453,0.3179553747177124,-0.2180788815021515,0.12507465481758118,-22.814966201782227,48.5384407043457,-47.70534896850586
0.859,3.2590243816375732,-8.860621452331543,2.3856441974639893,0.48685958981513977,-0.13148874044418335,0.10873401165008545,-22.595731735229492,48.14381790161133,-48.24612808227539
0.863,3.2961132526397705,-8.824729919433594,2.361715793609619,0.4993823170661926,-0.12889257073402405,0.1059851199388504,-22.610347747802734,48.114585876464844,-48.085357666015625
0.87,3.3858439922332764,-8.73499870300293,2.249253273010254,0.5221370458602905,-0.11835514008998871,0.09819658100605011,-22.537269592285156,48.27535629272461,-47.70534896850586
0.88,3.6095728874206543,-8.701499938964844,2.0362918376922607,0.5470298528671265,-0.08491026610136032,0.08659014105796814,-22.683425903320312,48.55305480957031,-49.035369873046875
0.89,3.906282901763916,-8.898907661437988,1.8963117599487305,0.5499314665794373,-0.04352414980530739,0.06902776658535004,-22.084184646606445,48.17304992675781,-48.62613296508789
0.909,4.108476161956787,-8.987441062927246,1.9166508913040161,0.5192354321479797,0.010079275816679,0.03222314268350601,-22.215726852416992,48.406898498535156,-48.81613540649414
0.913,4.2209391593933105,-8.949155807495117,2.056631088256836,0.4138611853122711,0.12812897562980652,-0.017409659922122955,-21.967260360717773,48.31920623779297,-48.669979095458984
0.92,4.348955154418945,-8.857032775878906,2.117647886276245,0.318566232919693,0.1921171098947525,-0.0377209298312664,-21.733409881591797,47.909969329833984,-49.283836364746094
0.93,4.303491592407227,-8.550751686096191,2.0757734775543213,0.1690569519996643,0.24785856902599335,-0.07895433157682419,-21.601871490478516,48.5822868347168,-50.3215446472168
0.94,4.384847164154053,-8.349754333496094,2.122433662414551,0.08445211499929428,0.2817615866661072,-0.08964447677135468,-22.128032684326172,48.845367431640625,-49.50307083129883
0.95,4.403989791870117,-8.237292289733887,2.1619153022766113,0.04657847434282303,0.2762638032436371,-0.08368853479623795,-21.631101608276367,48.45074462890625,-50.30692672729492
0.96,4.420739650726318,-8.2695951461792,2.11405873298645,0.06536258012056351,0.2353358417749405,-0.05910121276974678,-21.8503360748291,48.62613296508789,-50.30692672729492
0.976,4.278366565704346,-8.402396202087402,2.121237277984619,0.22357667982578278,0.13209959864616394,0.012675453908741474,-22.157264709472656,48.31920623779297,-49.88307571411133
0.98,4.207778453826904,-8.4502534866333,2.170289993286133,0.2721404433250427,0.11041389405727386,0.035735614597797394,-22.142648696899414,48.5384407043457,-49.50307083129883
0.99,3.840480089187622,-8.505288124084473,2.266003131866455,0.35033121705055237,0.09911288321018219,0.0780380368232727,-21.441099166870117,48.45074462890625,-49.80999755859375
1.0,3.6011979579925537,-8.578269004821777,2.2301106452941895,0.3966042399406433,0.13225232064723969,0.10155634582042694,-21.996492385864258,48.75767135620117,-50.71616744995117
1.01,3.530609607696533,-8.61176872253418,2.069791555404663,0.41294488310813904,0.17760907113552094,0.13179416954517365,-21.38263702392578,48.50920867919922,-50.2776985168457
1.03,3.641875982284546,-8.60219669342041,1.8077774047851562,0.4236350357532501,0.19135352969169617,0.16004669666290283,-21.455713272094727,48.596900939941406,-49.89768981933594
1.033,3.834498167037964,-8.713462829589844,1.7240287065505981,0.40912699699401855,0.18188512325286865,0.21242839097976685,-21.061092376708984,48.90382766723633,-51.213096618652344
1.04,3.9637105464935303,-8.799604415893555,1.7970097064971924,0.37491855025291443,0.17806722223758698,0.2330450862646103,-21.29494285583496,48.5822868347168,-50.950016021728516
1.05,4.054637908935547,-8.944371223449707,1.8448662757873535,0.31673359870910645,0.18310685455799103,0.24388794600963593,-20.768781661987305,49.020755767822266,-51.1400146484375
1.06,4.023531436920166,-8.981459617614746,1.9369899034500122,0.27030786871910095,0.21273382008075714,0.23426681756973267,-20.608009338378906,48.88921356201172,-50.745399475097656
1.07,3.9553356170654297,-8.871389389038086,2.018345832824707,0.23167064785957336,0.2565633952617645,0.20922134816646576,-20.286466598510742,49.15229415893555,-51.09617233276367
1.089,3.8763725757598877,-8.664410591125488,1.9680966138839722,0.20586158335208893,0.2952006161212921,0.17989981174468994,-20.418006896972656,49.093833923339844,-51.783103942871094
1.093,3.9038898944854736,-8.657232284545898,1.7682960033416748,0.2269364297389984,0.299476683139801,0.1589776873588562,-20.067232131958008,49.19614028930664,-51.1400146484375
1.1,3.940978765487671,-8.880961418151855,1.8245272636413574,0.24938572943210602,0.29184088110923767,0.1560760736465454,-20.724933624267578,49.50307083129883,-50.993858337402344
1.11,3.895514965057373,-9.10827922821045,2.0171494483947754,0.24816399812698364,0.29077184200286865,0.15302173793315887,-20.37415885925293,49.32768249511719,-51.4177131652832
1.12,3.6957144737243652,-8.956335067749023,2.076970100402832,0.20525072515010834,0.3263547420501709,0.1434006243944168,-20.476469039916992,49.42999267578125,-50.43846893310547
1.13,3.530609607696533,-8.72782039642334,2.0482561588287354,0.12797626852989197,0.4017966091632843,0.13469578325748444,-20.695703506469727,49.35691452026367,-49.97077178955078
1.15,3.521038293838501,-8.561518669128418,2.14516544342041,0.05207626149058342,0.42042800784111023,0.13347405195236206,-20.286466598510742,49.94153594970703,-50.13154220581055
1.154,3.7256245613098145,-8.550751686096191,2.3736801147460938,-0.04138611629605293,0.3972151279449463,0.15164729952812195,-20.418006896972656,49.80999755859375,-50.263084411621094
1.16,3.9218363761901855,-8.571090698242188,2.6596221923828125,-0.09773843735456467,0.36514467000961304,0.17150041460990906,-20.608009338378906,50.07307434082031,-49.89768981933594
1.17,4.047459602355957,-8.49332332611084,3.022134780883789,-0.16523903608322144,0.34116825461387634,0.19456057250499725,-20.520315170288086,49.605377197265625,-49.50307083129883
1.18,4.0833516120910645,-8.35573673248291,3.2374887466430664,-0.20082195103168488,0.35033121705055237,0.19807305932044983,-20.35954475402832,49.590763092041016,-48.87459945678711
1.19,4.030709743499756,-8.201398849487305,3.3583264350891113,-0.18875734508037567,0.43020185828208923,0.17516560852527618,-20.1110782623291,49.42999267578125,-49.92692184448242
1.21,4.0905303955078125,-8.091329574584961,3.390629768371582,-0.13347405195236206,0.5064072608947754,0.14523321390151978,-20.008769989013672,49.53229904174805,-49.34230041503906
1.214,4.370490550994873,-8.236095428466797,3.5569305419921875,-0.01710422709584236,0.5447390675544739,0.14248430728912354,-19.80415153503418,49.605377197265625,-49.45922088623047
1.22,4.588237285614014,-8.498109817504883,3.6957144737243652,0.019394971430301666,0.521984338760376,0.15317445993423462,-20.35954475402832,49.210758209228516,-49.13768005371094
1.23,4.845465660095215,-8.922835350036621,3.9529428482055664,0.07696902006864548,0.42562034726142883,0.1846340149641037,-20.403390884399414,49.37152862548828,-48.81613540649414
1.24,5.1565327644348145,-9.604789733886719,4.2616167068481445,0.12018773704767227,0.2460259646177292,0.23655755817890167,-20.330312728881836,49.53229904174805,-49.239986419677734
1.25,5.213960647583008,-10.408778190612793,4.559523582458496,0.13836097717285156,0.10980302840471268,0.25473082065582275,-19.482608795166016,49.80999755859375,-49.210758209228516
1.27,4.971088886260986,-10.591829299926758,4.370490550994873,0.1800525188446045,0.01572977937757969,0.21930061280727386,-20.198772430419922,50.10231018066406,-49.07921600341797
1.274,4.725824356079102,-10.358529090881348,3.610769271850586,0.4106541574001312,0.010995574295520782,0.15913039445877075,-19.92107582092285,49.86845779418945,-48.99152374267578
1.28,4.681557655334473,-10.072587013244629,2.9240291118621826,0.5283983945846558,0.031001411378383636,0.15027284622192383,-20.154926300048828,49.95615005493164,-48.611515045166016
1.29,4.573880195617676,-9.710074424743652,1.95852530002594,0.859029233455658,0.06017022579908371,0.1342376321554184,-19.862613677978516,49.35691452026367,-49.35691452026367
1.3,4.595416069030762,-9.641878128051758,0.9104689955711365,1.0868819952011108,0.02932153083384037,0.1212567538022995,-19.81876564025879,49.97077178955078,-50.2776985168457
1.31,4.60020112991333,-9.925427436828613,0.38165518641471863,1.2261593341827393,-0.02886338159441948,0.1336267739534378,-19.950305938720703,49.853843688964844,-49.42999267578125
1.33,4.850251197814941,-10.749755859375,0.8458627462387085,1.1337658166885376,-0.1339322030544281,0.16523903608322144,-19.90645980834961,49.35691452026367,-51.24232864379883
1.333,4.9292144775390625,-11.92223834991455,1.566102385520935,0.44776421785354614,-0.2535090744495392,0.22846360504627228,-19.672609329223633,49.92692184448242,-51.373870849609375
1.34,4.823930263519287,-12.05623722076416,1.7324036359786987,-0.013286319561302662,-0.20570887625217438,0.23716843128204346,-20.02338409423828,49.780765533447266,-50.92078399658203
1.35,4.743770599365234,-11.661420822143555,1.9465612173080444,-0.5484042763710022,-0.039706241339445114,0.19089537858963013,-19.847997665405273,49.89768981933594,-50.89155578613281
1.36,5.225924491882324,-11.009376525878906,1.8699908256530762,-0.8825475573539734,0.12110403180122375,0.12171489745378494,-19.92107582092285,50.13154220581055,-50.08769607543945
1.37,5.675775051116943,-10.272387504577637,1.5098711252212524,-1.017701506614685,0.11743884533643723,0.0659734457731247,-19.701841354370117,50.0,-49.89768981933594
1.39,5.796612739562988,-9.639486312866211,1.1006983518600464,-1.0070112943649292,-0.027488935738801956,0.01618792861700058,-19.62876319885254,50.584625244140625,-49.283836364746094
1.393,5.698506832122803,-9.20279598236084,0.4091726541519165,-0.8843801021575928,-0.26862797141075134,-0.04306599870324135,-19.92107582092285,49.91230773925781,-48.81613540649414
1.4,5.711667060852051,-9.184849739074707,0.1579262912273407,-0.8165740966796875,-0.36254850029945374,-0.06383541971445084,-19.935691833496094,50.11692810058594,-48.845367431640625
1.41,5.473581790924072,-9.248259544372559,0.19501502811908722,-0.8141306638717651,-0.47250425815582275,-0.09544768929481506,-20.30108070373535,49.95615005493164,-47.909969329833984
1.42,5.004588603973389,-9.236295700073242,0.35533416271209717,-0.9633344411849976,-0.5535966157913208,-0.15790866315364838,-20.2718505859375,50.146156311035156,-47.500728607177734
1.43,4.638486862182617,-9.026923179626465,0.23569302260875702,-1.2137892246246338,-0.6177374720573425,-0.23182335495948792,-20.520315170288086,50.01461410522461,-47.57380676269531
1.45,4.278366565704346,-8.565108299255371,-0.05862415209412575,-1.5370895862579346,-0.6762278079986572,-0.33047807216644287,-20.681087493896484,50.39461898803711,-46.15609359741211
1.453,4.0797624588012695,-7.9896345138549805,0.015553345903754234,-1.8405369520187378,-0.7689266204833984,-0.4326452910900116,-20.871089935302734,50.774627685546875,-46.097633361816406
1.46,3.954139232635498,-7.715656280517578,0.23569302260875702,-1.9966130256652832,-0.8506298065185547,-0.508698046207428,-20.90032196044922,50.01461410522461,-45.29377365112305
1.47,3.7974092960357666,-7.272984027862549,0.24406790733337402,-2.1142046451568604,-0.9783006906509399,-0.6272058486938477,-21.28032684326172,50.46770095825195,-44.95761489868164
1.48,3.607180118560791,-6.835097789764404,0.11605189740657806,-2.068389654159546,-1.144303321838379,-0.7435756921768188,-21.791873931884766,50.13154220581055,-43.55451583862305
1.49,3.229114055633545,-6.939185619354248,0.2620140612125397,-1.8851301670074463,-1.273043155670166,-0.8350527882575989,-21.704179763793945,49.7223014831543,-42.838348388671875
1.509,2.7074787616729736,-7.93579626083374,0.7680960297584534,-1.638645887374878,-1.173624873161316,-0.9969320297241211,-22.873428344726562,49.75153350830078,-41.6252555847168
1.513,3.0173492431640625,-9.120243072509766,1.317248821258545,-1.612073302268982,-1.1525499820709229,-1.0122036933898926,-22.93189239501953,49.2984504699707,-41.332942962646484
1.52,3.352344274520874,-9.717252731323242,1.6139588356018066,-1.5856534242630005,-1.175610065460205,-1.0042624473571777,-23.151124954223633,49.473838806152344,-41.59602355957031
1.53,3.665804386138916,-10.374082565307617,2.1092729568481445,-1.5665638446807861,-1.3119858503341675,-0.9297369122505188,-22.858814239501953,48.9184455871582,-40.11984634399414
1.54,3.460021495819092,-11.088339805603027,2.585444688796997,-1.5598443746566772,-1.495245337486267,-0.8319984078407288,-23.618824005126953,48.976905822753906,-38.950599670410156
1.55,2.912065029144287,-12.210573196411133,2.78165602684021,-1.5380058288574219,-1.5293010473251343,-0.7654141187667847,-23.5895938873291,49.25460433959961,-39.53522491455078
1.571,3.0173492431640625,-13.361520767211914,2.8187451362609863,-1.4914274215698242,-1.3173308372497559,-0.716697633266449,-24.349605560302734,48.494590759277344,-37.53288269042969
1.575,2.6907289028167725,-13.529019355773926,2.939582586288452,-1.3968960046768188,-0.7831292152404785,-0.5746714472770691,-24.56884002685547,48.596900939941406,-36.93364715576172
1.58,2.568694829940796,-13.103096961975098,2.878565549850464,-1.3646730184555054,-0.584750771522522,-0.5241223573684692,-24.831920623779297,48.24612808227539,-37.25518798828125
1.59,1.9010975360870361,-11.892328262329102,2.688336133956909,-1.3092368841171265,-0.2148718386888504,-0.49235737323760986,-25.460391998291016,47.44226837158203,-36.94826126098633
1.6,1.7443677186965942,-10.563116073608398,2.1607186794281006,-1.256091594696045,0.1739438772201538,-0.5853615999221802,-25.942707061767578,47.25226593017578,-36.17363357543945
1.61,2.255235195159912,-9.074779510498047,1.0911270380020142,-1.175304651260376,0.28359419107437134,-0.6337726712226868,-26.921951293945312,46.44840621948242,-35.7059326171875
1.63,2.1272192001342773,-8.167899131774902,0.1866401582956314,-0.7964155077934265,0.6817256212234497,-0.6407976150512695,-27.681964874267578,46.901493072509766,-34.200523376464844
1.633,2.493321180343628,-7.847261428833008,-0.0263210479170084,-0.7409795522689819,0.7521278262138367,-0.6356052756309509,-28.07658576965332,46.25840377807617,-34.03975296020508
1.64,2.785245418548584,-7.840083122253418,0.04546362906694412,-0.7108944058418274,0.7831292152404785,-0.6325509548187256,-28.295820236206055,46.901493072509766,-32.242034912109375
1.65,3.0903303623199463,-7.925028324127197,0.04546362906694412,-0.7275404930114746,0.7365507483482361,-0.6023131012916565,-28.880443572998047,46.40456008911133,-33.13358688354492
1.66,2.932404041290283,-7.892724990844727,0.06221338361501694,-0.749531626701355,0.616362988948822,-0.5630649924278259,-29.28968048095703,47.106109619140625,-32.27126693725586
1.67,2.6452653408050537,-7.849654674530029,0.2883351147174835,-0.7374670505523682,0.40744709968566895,-0.5447390675544739,-29.508914947509766,46.59456253051758,-31.847414016723633
1.69,2.1535403728485107,-7.990830898284912,0.5826523303985596,-0.6927211284637451,0.20723602175712585,-0.5630649924278259,-29.684301376342773,46.755332946777344,-30.751243591308594
1.693,2.1607186794281006,-8.01236629486084,1.0181459188461304,-0.5801692605018616,-0.002138028386980295,-0.5765040516853333,-30.035078048706055,47.106109619140625,-30.707395553588867
1.7,2.221735715866089,-7.860422611236572,1.1665010452270508,-0.50335294008255,-0.07024950534105301,-0.5296201705932617,-30.312772750854492,46.69687271118164,-31.145864486694336
1.71,2.197807550430298,-7.651050090789795,1.3495519161224365,-0.37171149253845215,-0.16279558837413788,-0.4686863422393799,-30.122772216796875,47.32534408569336,-30.152002334594727
1.72,1.9848462343215942,-7.5804619789123535,1.5684951543807983,-0.2402227520942688,-0.15256358683109283,-0.44684794545173645,-30.400466918945312,46.98918533325195,-30.692779541015625
1.73,2.121237277984619,-7.429713726043701,1.25862455368042,-0.12751811742782593,-0.0007635815418325365,-0.4489859640598297,-30.327388763427734,46.98918533325195,-30.327388763427734
1.75,2.334198474884033,-7.318447589874268,0.7860422134399414,0.1895209401845932,0.3995058536529541,-0.45463645458221436,-30.795087814331055,47.01841354370117,-30.298158645629883
1.753,2.51724910736084,-7.4261250495910645,0.8398807048797607,0.23273965716362,0.48640143871307373,-0.4723515212535858,-30.57585334777832,46.82841491699219,-30.35662078857422
1.76,2.2707886695861816,-7.320840835571289,0.8231310248374939,0.270766019821167,0.6363688707351685,-0.498924195766449,-31.540485382080078,47.51534652709961,-30.605087280273438
1.77,2.472982168197632,-7.192824363708496,0.94037926197052,0.2698497176170349,0.8659014701843262,-0.5302309989929199,-31.233558654785156,47.13534164428711,-30.195850372314453
1.78,2.5734806060791016,-7.200002670288086,0.7489534616470337,0.23548854887485504,0.896902859210968,-0.5597052574157715,-32.066646575927734,47.310726165771484,-29.757381439208984
1.79,2.8067808151245117,-7.217949390411377,0.4498506486415863,0.23945917189121246,0.7426593899726868,-0.5723807215690613,-32.27126693725586,46.974571228027344,-31.511253356933594
1.809,3.6526436805725098,-7.558926582336426,0.6687938570976257,0.22540926933288574,0.3588833212852478,-0.39187002182006836,-32.57819366455078,47.44226837158203,-30.853551864624023
1.813,3.9290146827697754,-7.542176723480225,0.6735795140266418,0.2050980031490326,0.27152958512306213,-0.30955594778060913,-32.76819610595703,47.1207275390625,-30.502779006958008
1.82,4.328616142272949,-7.424928665161133,0.3254238963127136,0.21762074530124664,0.11301006376743317,-0.18600846827030182,-33.10435485839844,47.354576110839844,-30.619701385498047
1.83,4.528416633605957,-7.283751964569092,-0.43190446496009827,0.31871894001960754,0.038026362657547,-0.035582900047302246,-32.47588348388672,47.106109619140625,-31.55510139465332
1.84,4.850251197814941,-7.46799898147583,-0.784845769405365,0.45463645458221436,0.12690724432468414,0.0630718320608139,-33.39666748046875,47.79304122924805,-32.28588104248047
1.85,5.294119834899902,-7.899903297424316,-1.0277173519134521,0.5545129179954529,0.23335051536560059,0.08567384630441666,-32.69511795043945,47.51534652709961,-31.306636810302734
1.869,6.540780544281006,-8.691927909851074,-1.9489539861679077,0.5371032357215881,0.5149593949317932,0.04871650040149689,-32.82666015625,47.19380569458008,-32.51972961425781
1.873,6.910471439361572,-8.709874153137207,-2.2911276817321777,0.49037206172943115,0.6006332635879517,0.02886338159441948,-33.367435455322266,47.310726165771484,-31.788951873779297
1.88,7.446463584899902,-8.657232284545898,-2.654836893081665,0.3988949954509735,0.7506006360054016,-0.004581489134579897,-33.13358688354492,48.026893615722656,-32.28588104248047
1.89,8.051847457885742,-8.350950241088867,-2.7122642993927,0.28649580478668213,0.9454666376113892,-0.05161811038851738,-33.615901947021484,47.237648010253906,-32.402809143066406
1.9,8.499305725097656,-7.899903297424316,-2.0398812294006348,0.19685132801532745,1.0290025472640991,-0.10522153228521347,-33.48435974121094,47.456886291503906,-32.402809143066406
1.91,8.931209564208984,-7.332805156707764,-1.6785650253295898,0.14782939851284027,0.7872526049613953,-0.16004669666290283,-33.71821212768555,47.354576110839844,-32.812042236328125
1.929,8.902496337890625,-6.608975410461426,-0.6927221417427063,0.23365594446659088,-0.16142113506793976,-0.20922134816646576,-33.586673736572266,47.734580993652344,-32.972816467285156
1.932,8.652446746826172,-6.514459133148193,-0.503689169883728,0.251676470041275,-0.45295655727386475,-0.21410825848579407,-33.586673736572266,48.07073974609375,-33.031280517578125
1.94,7.755137920379639,-6.6245293617248535,-0.1375872939825058,0.27840182185173035,-0.7160868048667908,-0.19685132801532745,-33.83513641357422,48.041507720947266,-33.601287841796875
1.95,6.472585201263428,-6.965506553649902,0.348155677318573,0.29397889971733093,-0.7748825550079346,-0.19853119552135468,-34.171295166015625,48.114585876464844,-32.797428131103516
1.96,5.566901683807373,-7.562515735626221,0.41994035243988037,0.3312416672706604,-0.6223189830780029,-0.2298380434513092,-33.572052001953125,48.31920623779297,-32.34434509277344
1.97,5.08953332901001,-8.95992374420166,0.6173481941223145,0.3381139039993286,-0.41584649682044983,-0.23625212907791138,-33.5282096862793,48.12919998168945,-32.19818878173828
1.989,5.174479007720947,-13.269397735595703,-0.2225324958562851,0.20005835592746735,-0.25763240456581116,-0.17058412730693817,-34.21514129638672,47.8807373046875,-32.680503845214844
1.993,5.213960647583008,-14.998210906982422,-1.0552347898483276,0.1696678102016449,-0.31291571259498596,-0.14508049190044403,-34.185909271240234,47.8807373046875,-32.34434509277344
2.0,5.298905849456787,-17.18166160583496,-3.053241491317749,0.0933096632361412,-0.6136141419410706,-0.030695976689457893,-34.142066955566406,48.75767135620117,-32.66588592529297
2.01,4.727020740509033,-17.904294967651367,-5.090729713439941,0.09208793193101883,-1.1898127794265747,0.1872301995754242,-33.74744415283203,48.6407470703125,-32.066646575927734
2.02,2.3234305381774902,-13.111471176147461,-2.3976082801818848,-0.02733621932566166,-1.0946705341339111,0.25763240456581116,-33.76205825805664,48.5822868347168,-31.949722290039062
2.03,1.3567304611206055,-8.645268440246582,0.02991028130054474,-0.1437060534954071,-0.5201517343521118,0.20631973445415497,-32.75358200073242,48.31920623779297,-31.67202377319336
2.049,1.432104229927063,-4.948357105255127,2.4610180854797363,-0.12797626852989197,-0.389426589012146,0.08399397134780884,-33.2066650390625,47.96842956542969,-31.81818199157715
2.053,1.4632110595703125,-4.9184465408325195,2.4837498664855957,-0.1391245573759079,-0.43417245149612427,0.09865473955869675,-32.85588836669922,48.041507720947266,-31.832796096801758
2.06,1.672582983970642,-5.132604598999023,2.3258235454559326,-0.20647244155406952,-0.5616905689239502,0.24923300743103027,-33.425899505615234,48.1584358215332,-31.525867462158203
2.07,1.9956140518188477,-6.540780544281006,1.734796404838562,-0.2704605758190155,-0.5288565754890442,0.4712825417518616,-32.85588836669922,48.23151397705078,-31.686643600463867
2.08,3.0101706981658936,-8.299505233764648,1.94297194480896,-0.33826664090156555,-0.5059491395950317,0.7218900322914124,-33.177433013916016,48.056121826171875,-30.590471267700195
2.09,3.796213150024414,-10.113264083862305,2.1583259105682373,-0.43905937671661377,-0.6414085030555725,0.9644034504890442,-32.19818878173828,48.18766403198242,-30.9266300201416
2.103,3.9517464637756348,-11.638689041137695,1.8388842344284058,-0.43860122561454773,-1.0877982378005981,1.1246027946472168,-31.65740966796875,48.026893615722656,-30.56123924255371
2.11,3.672982692718506,-11.639884948730469,1.3794622421264648,-0.2695443034172058,-1.3747522830963135,1.0709995031356812,-31.71587371826172,47.71996307373047,-30.795087814331055
2.12,2.7625136375427246,-10.941182136535645,0.6999006271362305,0.1362229436635971,-1.634369969367981,0.8793404698371887,-30.853551864624023,48.01227569580078,-29.947385787963867
2.13,2.9072792530059814,-9.306883811950684,0.5874379277229309,0.6223189830780029,-1.5250251293182373,0.7350236177444458,-29.596609115600586,47.924583435058594,-29.830459594726562
2.14,3.7076785564422607,-8.404788970947266,0.8937192559242249,1.0297660827636719,-1.3898711204528809,0.7644978761672974,-28.865829467773438,48.12919998168945,-30.28354263305664
2.15,3.8703906536102295,-8.142775535583496,1.2454640865325928,1.2829697132110596,-1.34283447265625,0.8437576293945312,-28.032737731933594,48.114585876464844,-31.160480499267578
2.169,3.946960687637329,-8.520841598510742,1.9657037258148193,1.433700680732727,-1.1901181936264038,0.9089674949645996,-27.272727966308594,48.20227813720703,-32.32973098754883
2.173,4.05703067779541,-8.620142936706543,2.0231313705444336,1.4158328771591187,-1.1107057332992554,0.9162978529930115,-27.652734756469727,48.2607421875,-31.64279556274414
2.18,4.246063709259033,-8.764909744262695,1.9226329326629639,1.3784173727035522,-0.9752463102340698,0.9343184232711792,-27.55042266845703,48.78690719604492,-32.66588592529297
2.19,3.9493536949157715,-8.4562349319458,1.8903299570083618,1.3405437469482422,-0.7565565705299377,0.8947648406028748,-26.87810707092285,49.020755767822266,-33.39666748046875
2.2,4.734199523925781,-8.411967277526855,1.8592231273651123,1.2942707538604736,-0.5849034786224365,0.827111542224884,-26.658872604370117,49.605377197265625,-34.6243782043457
2.21,5.151747226715088,-8.309076309204102,1.7168502807617188,1.247844934463501,-0.5048801302909851,0.7864890098571777,-25.591930389404297,49.18152618408203,-34.25898742675781
2.223,5.258227348327637,-7.993224143981934,1.1832507848739624,1.2580769062042236,-0.5013676285743713,0.6659957766532898,-26.278865814208984,49.590763092041016,-35.545162200927734
2.23,5.264209270477295,-7.707281589508057,0.7657032608985901,1.3101532459259033,-0.5487096905708313,0.5774204134941101,-25.88424301147461,49.473838806152344,-34.82899475097656
2.24,5.247459411621094,-7.581658363342285,0.8279166221618652,1.37765371799469,-0.6346890330314636,0.4660901725292206,-25.89885902404785,49.88307571411133,-35.939781188964844
2.25,5.114657878875732,-7.575676441192627,1.0648061037063599,1.3596333265304565,-0.6969972848892212,0.3556762933731079,-25.855012893676758,49.576148986816406,-36.75825881958008
2.26,5.024927616119385,-7.905885696411133,1.1629117727279663,1.2672399282455444,-0.7585418820381165,0.22800545394420624,-25.957321166992188,50.10231018066406,-37.401344299316406
2.27,4.870590686798096,-8.484949111938477,1.3244272470474243,1.1071932315826416,-0.8213083148002625,0.013286319561302662,-25.533470153808594,50.67231750488281,-38.13212585449219
2.289,4.00199556350708,-9.073582649230957,1.734796404838562,0.8489499688148499,-0.7086036205291748,-0.28298333287239075,-25.22654151916504,50.68693161010742,-39.43291473388672
2.293,3.6406795978546143,-9.181260108947754,1.9310078620910645,0.7635815143585205,-0.5769621729850769,-0.35506540536880493,-25.285005569458008,50.42385482788086,-38.68751907348633
2.3,3.2231318950653076,-9.263812065124512,2.204986095428467,0.6223189830780029,-0.28557947278022766,-0.45005494356155396,-25.285005569458008,50.950016021728516,-39.08213806152344
2.31,2.647658109664917,-9.312865257263184,2.26959228515625,0.43020185828208923,0.23548854887485504,-0.5676465034484863,-24.904998779296875,50.87693786621094,-39.54983901977539
2.32,2.2648065090179443,-9.308079719543457,2.0303099155426025,0.2587014436721802,1.0131200551986694,-0.6895141005516052,-24.904998779296875,51.25694274902344,-39.5059928894043
2.339,2.6811578273773193,-8.919245719909668,1.4656038284301758,0.2506074607372284,1.5399912595748901,-0.739146888256073,-25.738086700439453,51.03771209716797,-38.97983169555664
2.343,2.733799695968628,-8.742177963256836,1.2669994831085205,0.3630066514015198,1.8193093538284302,-0.7660250067710876,-26.454252243041992,51.49079132080078,-39.900611877441406
2.35,2.7768707275390625,-8.849854469299316,1.4201401472091675,0.4466952085494995,1.913688063621521,-0.7539604306221008,-26.644256591796875,51.198482513427734,-39.19906234741211
2.36,2.919243335723877,-9.22313404083252,1.5170494318008423,0.5288565754890442,1.9398025274276733,-0.7063129544258118,-27.594270706176758,51.783103942871094,-38.89213943481445
2.37,3.1549363136291504,-9.528219223022461,1.5002998113632202,0.5844453573226929,1.8527542352676392,-0.5977316498756409,-27.813507080078125,51.388484954833984,-38.97983169555664
2.38,3.5054850578308105,-9.820143699645996,1.155733346939087,0.637132465839386,1.5392277240753174,-0.4723515212535858,-28.383514404296875,51.885414123535156,-39.710609436035156
2.39,3.229114055633545,-9.656235694885254,0.760917603969574,0.7423539757728577,1.1391109228134155,-0.39584067463874817,-28.588130950927734,51.783103942871094,-40.73370361328125
2.404,3.7160534858703613,-8.801998138427734,0.8973084688186646,0.8101600408554077,0.6255260109901428,-0.1592831164598465,-28.471206665039062,51.56386947631836,-40.70447540283203
2.41,3.920639753341675,-8.372486114501953,0.8614161610603333,0.7874053120613098,0.38469237089157104,0.04764748737215996,-28.69044303894043,50.964630126953125,-40.04676818847656
2.42,4.594219207763672,-8.305486679077148,0.5814558863639832,0.7703010439872742,0.06322455406188965,0.27840182185173035,-28.500438690185547,51.6807975769043,-41.069862365722656
2.43,5.133800983428955,-8.62612533569336,0.6939185857772827,0.81581050157547,0.039248090237379074,0.30772337317466736,-28.515052795410156,51.476173400878906,-40.79216766357422
2.44,5.422135829925537,-9.024530410766602,1.1306086778640747,0.7681630253791809,0.21502456068992615,0.20082195103168488,-28.938907623291016,52.35311508178711,-40.79216766357422
2.45,5.765506267547607,-8.883354187011719,1.3040882349014282,0.5914702415466309,0.385303258895874,0.04505131021142006,-28.13504981994629,51.63694763183594,-41.332942962646484
2.462,5.831308364868164,-8.310272216796875,0.8841480016708374,0.3347541391849518,0.4628831148147583,-0.09162978827953339,-28.471206665039062,51.85618591308594,-40.63139724731445
2.47,5.830111980438232,-7.9657063484191895,0.9152546525001526,0.24297165870666504,0.4277583956718445,-0.0933096632361412,-28.61736488342285,51.710025787353516,-41.639869689941406
2.48,5.558526992797852,-7.823333263397217,1.3399806022644043,0.1966986060142517,0.25625795125961304,-0.04932736977934837,-28.70505714416504,52.22157287597656,-41.21601867675781
2.49,5.1218366622924805,-8.149953842163086,2.1332013607025146,0.19226983189582825,0.10720684379339218,-0.00427605677396059,-28.325050354003906,51.33001708984375,-41.318328857421875
2.5,4.53080940246582,-8.566305160522461,2.334198474884033,0.20983220636844635,0.06291911751031876,0.03741549327969551,-28.251972198486328,51.85618591308594,-42.326805114746094
2.52,4.383650779724121,-8.644071578979492,2.465803623199463,0.2307543307542801,0.13087788224220276,0.058184914290905,-28.73428726196289,51.81233215332031,-41.46448516845703
2.523,4.667200565338135,-8.335397720336914,2.0279171466827393,0.33735033869743347,0.19318613409996033,0.04046982154250145,-28.60274887084961,52.1192626953125,-42.282955169677734
2.53,4.7365922927856445,-8.341379165649414,1.8927226066589355,0.39324450492858887,0.20631973445415497,0.030085112899541855,-28.471206665039062,51.81233215332031,-42.75065612792969
2.54,4.567898273468018,-8.423932075500488,1.4213366508483887,0.43768492341041565,0.19776761531829834,0.019394971430301666,-28.295820236206055,52.41157531738281,-41.9614143371582
2.55,4.147957801818848,-8.528019905090332,1.1222338676452637,0.4486805200576782,0.17837265133857727,0.011759155429899693,-28.354280471801758,52.8792724609375,-41.65448760986328
2.56,3.7842490673065186,-8.434700012207031,0.7429714202880859,0.39614611864089966,0.19288070499897003,0.01878410577774048,-28.675825119018555,52.66004180908203,-42.85296630859375
2.57,3.623929738998413,-8.0350980758667,0.6197410225868225,0.2857322096824646,0.25564709305763245,0.038637224584817886,-28.558900833129883,52.703887939453125,-42.37065124511719
2.583,3.8739798069000244,-7.429713726043701,1.1569297313690186,-0.06108652427792549,0.3715587854385376,0.08659014105796814,-28.558900833129883,52.86465835571289,-42.999122619628906
2.59,4.146761417388916,-7.2502522468566895,2.146361827850342,-0.27000242471694946,0.39217546582221985,0.1137736514210701,-28.193510055541992,52.39695739746094,-42.312191009521484
2.6,4.338187217712402,-7.304090976715088,2.788834571838379,-0.4778493344783783,0.40943241119384766,0.1466076523065567,-28.354280471801758,52.893890380859375,-43.072200775146484
2.61,4.319044589996338,-7.660621643066406,2.99222469329834,-0.5251913666725159,0.4541782736778259,0.17867808043956757,-28.091201782226562,52.74773406982422,-42.73604202270508
2.62,4.177868366241455,-8.015955924987793,3.091526985168457,-0.4265366494655609,0.5195409059524536,0.18188512325286865,-28.778135299682617,52.80619812011719,-41.23063278198242
2.64,4.109673023223877,-8.262415885925293,3.0867412090301514,-0.20494529604911804,0.5453499555587769,0.16982053220272064,-28.33966636657715,53.06927490234375,-41.66910171508789
2.643,4.059423446655273,-8.72662353515625,3.018545627593994,0.05421429127454758,0.46211957931518555,0.18020524084568024,-27.915815353393555,53.2008171081543,-41.93218231201172
2.65,4.063012599945068,-9.144170761108398,3.181257724761963,0.1794416606426239,0.35964691638946533,0.21212296187877655,-28.193510055541992,52.79158401489258,-40.70447540283203
2.66,3.906282901763916,-9.632307052612305,3.414557933807373,0.2767219543457031,0.23625212907791138,0.27580565214157104,-28.23735809326172,53.18620300292969,-41.069862365722656
2.67,3.7160534858703613,-9.992426872253418,3.592823028564453,0.29825496673583984,0.17837265133857727,0.33108893036842346,-27.813507080078125,53.08388900756836,-41.80064392089844
2.68,3.8045878410339355,-10.130014419555664,3.548555612564087,0.27061331272125244,0.17348572611808777,0.3723223805427551,-27.60888671875,53.27389907836914,-41.683719635009766
2.699,4.590630054473877,-10.52841854095459,3.6394829750061035,0.21930061280727386,0.11484266072511673,0.3917173445224762,-27.15580177307129,52.67465591430664,-41.93218231201172
2.704,5.6099724769592285,-11.502297401428223,3.6837503910064697,0.14034628868103027,-0.06872233748435974,0.3880521357059479,-27.50657844543457,53.215431213378906,-41.727561950683594
2.71,5.944967746734619,-12.161520957946777,3.5294132232666016,0.15302173793315887,-0.11468994617462158,0.375071257352829,-27.009645462036133,53.25928497314453,-42.078338623046875
2.72,6.03828763961792,-12.960722923278809,3.377469062805176,0.2408336102962494,-0.12751811742782593,0.30970868468284607,-26.86349105834961,53.478515625,-41.59602355957031
2.73,6.205785751342773,-13.378271102905273,3.111865520477295,0.40683624148368835,-0.03298672288656235,0.16722436249256134,-26.848873138427734,53.478515625,-41.9029541015625
2.74,6.348158359527588,-13.032508850097656,2.623729705810547,0.537408709526062,0.07330382615327835,0.053908854722976685,-26.702720642089844,53.90237045288086,-42.896812438964844
2.76,6.664010524749756,-12.692727088928223,2.313859462738037,0.5670356750488281,0.1270599663257599,0.021074850112199783,-26.571178436279297,53.01081466674805,-42.18064880371094
2.763,6.9511494636535645,-13.079167366027832,1.530210018157959,0.4492913782596588,0.02122756652534008,0.055436018854379654,-26.351943969726562,53.4200553894043,-42.73604202270508
2.77,7.1294145584106445,-13.578071594238281,0.9846464395523071,0.3491095006465912,-0.09773843735456467,0.08933904021978378,-26.571178436279297,53.97544479370117,-42.35603332519531
2.78,6.987041473388672,-14.304292678833008,0.5802595019340515,0.17348572611808777,-0.23945917189121246,0.15042555332183838,-26.381174087524414,53.80005645751953,-43.13066482543945
2.79,6.508477210998535,-14.59382438659668,0.3565305471420288,-0.18600846827030182,-0.2869539260864258,0.1543961763381958,-26.045015335083008,54.10698699951172,-42.67757797241211
2.8,6.246463775634766,-13.948959350585938,-0.003589233849197626,-0.5467243790626526,-0.25014930963516235,0.10018189251422882,-26.381174087524414,54.12160110473633,-41.91756820678711
2.82,6.401997089385986,-13.080365180969238,-0.4043869972229004,-0.8964447379112244,-0.25961771607398987,0.03894266113638878,-25.86962890625,54.48699188232422,-40.64601135253906
2.824,6.2943196296691895,-11.789436340332031,-1.0660024881362915,-1.257771611213684,-0.4639521539211273,-0.06841690838336945,-25.97193717956543,54.472373962402344,-40.66062545776367
2.83,6.20219612121582,-11.456833839416504,-1.2514461278915405,-1.3338242769241333,-0.5713117122650146,-0.11270463466644287,-26.088863372802734,54.51622772216797,-40.1636962890625
2.84,5.950949668884277,-10.782058715820312,-1.5996018648147583,-1.4871513843536377,-0.8885034918785095,-0.24678955972194672,-26.249635696411133,54.50160598754883,-39.8421516418457
2.85,5.873183250427246,-10.462616920471191,-2.091326951980591,-1.6047430038452148,-1.1554515361785889,-0.3602577745914459,-25.738086700439453,54.457759857177734,-38.760597229003906
2.86,5.832504749298096,-10.957931518554688,-2.317448616027832,-1.7311921119689941,-1.4147638082504272,-0.4528038501739502,-26.05963134765625,54.691612243652344,-37.95673751831055
2.88,5.777470111846924,-12.027523040771484,-2.1846470832824707,-1.8729127645492554,-1.5625932216644287,-0.5421428680419922,-25.825780868530273,54.20929718017578,-35.95439910888672
2.883,5.6685967445373535,-13.946566581726074,-1.5996018648147583,-2.163684606552124,-1.4359915256500244,-0.6725625991821289,-26.191171646118164,54.033905029296875,-35.51593017578125
2.89,5.54895544052124,-14.531611442565918,-1.3052847385406494,-2.40635085105896,-1.3419182300567627,-0.7492262125015259,-26.54194450378418,53.77082824707031,-34.58053207397461
2.9,5.160121917724609,-15.294922828674316,-0.8961120247840881,-2.8579330444335938,-1.1267409324645996,-0.8005388975143433,-26.52733039855957,53.829288482666016,-32.63665771484375
2.91,4.35254430770874,-15.134603500366211,-0.3158525824546814,-3.3116531372070312,-0.679129421710968,-0.8210029006004333,-27.287343978881836,52.85004425048828,-31.11663246154785
2.92,3.596412181854248,-14.634503364562988,0.7405785322189331,-3.63220477104187,0.0010690141934901476,-0.8211556077003479,-27.316574096679688,52.76234817504883,-28.99736976623535
2.939,3.2135608196258545,-13.51346492767334,1.695314884185791,-3.6612207889556885,0.6255260109901428,-0.9663887619972229,-28.33966636657715,51.33001708984375,-24.042678833007812
2.943,3.022134780883789,-12.959527015686035,3.0544381141662598,-3.570354700088501,0.5873469114303589,-0.9905179738998413,-28.222742080688477,50.83308792114258,-22.66880989074707
2.95,3.1453652381896973,-12.5802640914917,3.3236305713653564,-3.34204363822937,0.42271873354911804,-0.9330966472625732,-27.97427749633789,50.92078399658203,-21.952646255493164
2.96,2.076970100402832,-12.2859468460083,3.5365920066833496,-2.928640604019165,0.3098613917827606,-0.7861835360527039,-28.515052795410156,50.11692810058594,-20.140310287475586
2.97,1.3651052713394165,-11.242676734924316,3.0317063331604004,-2.501187562942505,0.4882340133190155,-0.6918048858642578,-27.740427017211914,49.795379638671875,-18.09412384033203
2.98,1.8185451030731201,-9.6466646194458,2.9718856811523438,-1.8093827962875366,0.20173825323581696,-0.8234463334083557,-27.945045471191406,49.00613784790039,-17.290266036987305
3.0,2.4059829711914062,-8.986245155334473,4.127618789672852,-0.8988881707191467,-0.6369796991348267,-1.10139000415802,-27.404266357421875,48.9622917175293,-15.85793685913086
3.004,2.51724910736084,-7.440481662750244,1.3591231107711792,-0.9306531548500061,0.6566801071166992,-1.3574951887130737,-27.228879928588867,48.77228546142578,-15.361004829406738
3.01,3.735196113586426,-7.517052173614502,0.9535397887229919,-1.4511103630065918,2.287079334259033,-1.8487836122512817,-27.404266357421875,48.289974212646484,-15.28792667388916
3.02,7.043272972106934,-6.905685901641846,-0.6675975322723389,-2.186286687850952,3.3043227195739746,-2.830291509628296,-28.82198143005371,48.12919998168945,-14.001753807067871
3.03,11.37069320678711,-6.308676719665527,-2.462214469909668,-2.492330312728882,2.5978572368621826,-3.710548162460327,-30.94124412536621,47.09149169921875,-13.563285827636719
3.04,14.459827423095703,-6.642475128173828,-3.2171499729156494,-2.359161615371704,0.22174407541751862,-3.9791762828826904,-33.29435729980469,46.682254791259766,-11.6047945022583
3.059,14.127224922180176,-7.464410305023193,-3.1405797004699707,-1.7481435537338257,-2.431396245956421,-3.1088459491729736,-33.70359420776367,44.811458587646484,-10.040924072265625
3.063,10.427921295166016,-7.438088893890381,-2.7900309562683105,-1.5667166709899902,-2.79761004447937,-2.800206184387207,-33.46974563598633,44.51914596557617,-10.4063138961792
3.07,7.6869425773620605,-7.143772125244141,-1.6402798891067505,-1.2942707538604736,-2.8576273918151855,-2.3432788848876953,-33.41128158569336,44.372989654541016,-9.50014591217041
3.08,5.307280540466309,-7.061219215393066,0.39840495586395264,-1.0312931537628174,-2.4555256366729736,-1.8354973793029785,-32.21280288696289,43.94913864135742,-8.374743461608887
3.09,3.504288673400879,-6.9750776290893555,2.4394824504852295,-0.9896016716957092,-1.9682077169418335,-1.4515684843063354,-31.072786331176758,43.17451095581055,-7.351651668548584
3.1,2.4598214626312256,-6.538387298583984,4.084547996520996,-1.1749993562698364,-1.6911803483963013,-1.158658742904663,-30.91201400756836,43.23297119140625,-7.293189525604248
3.12,0.31106695532798767,-5.24626350402832,4.104887008666992,-1.8959729671478271,-1.917811393737793,-0.8909469246864319,-29.114294052124023,41.78602600097656,-6.430868148803711
3.123,-0.34217363595962524,-4.925625324249268,3.5880372524261475,-1.9775234460830688,-1.9756909608840942,-0.8909469246864319,-29.28968048095703,41.27448272705078,-6.767026901245117
3.13,-1.101894736289978,-4.2795634269714355,2.3365912437438965,-2.1639902591705322,-2.107485055923462,-0.8910996913909912,-28.60274887084961,40.83601379394531,-6.197018623352051
3.14,-2.2408783435821533,-3.3343982696533203,0.26919254660606384,-2.2120957374572754,-2.2411117553710938,-0.9521862268447876,-27.360422134399414,40.25138854980469,-5.217772483825684
3.15,-2.8582265377044678,-2.4909281730651855,-1.4847464561462402,-1.9446895122528076,-1.9199494123458862,-1.0329731702804565,-26.658872604370117,38.848289489746094,-4.647763729095459
3.16,-2.3784656524658203,-1.867598056793213,-2.1619153022766113,-1.5354098081588745,-1.475545048713684,-1.0548114776611328,-25.97193717956543,38.468284606933594,-4.764688968658447
3.179,-1.7335999011993408,-1.8352948427200317,-1.683350682258606,-0.959058403968811,-0.8124507665634155,-1.042594313621521,-26.045015335083008,37.474422454833984,-4.779304027557373
3.183,-0.8626124858856201,-2.2468602657318115,-0.8566304445266724,-0.9320276379585266,-0.76846843957901,-1.0406090021133423,-26.088863372802734,36.919029235839844,-4.925460338592529
3.19,-0.2560320198535919,-2.361715793609619,-0.751346230506897,-0.8759807348251343,-0.6794348359107971,-1.0290025472640991,-25.913476943969727,37.16749572753906,-4.428529739379883
3.2,0.2464607208967209,-2.249253273010254,-0.8793622851371765,-0.7137960195541382,-0.5520694851875305,-0.9640980362892151,-25.89885902404785,36.88979721069336,-5.24700403213501
3.21,1.0564311742782593,-2.149951219558716,-0.8458627462387085,-0.483957976102829,-0.389426589012146,-0.8669705390930176,-25.723472595214844,36.78749084472656,-4.750072956085205
3.22,1.5314065217971802,-2.0961124897003174,-0.7118647694587708,-0.24556781351566315,-0.1725694239139557,-0.7496843934059143,-25.650394439697266,36.88979721069336,-4.618532657623291
3.24,3.160918712615967,-1.7563318014144897,-0.9451649785041809,0.0064140851609408855,0.4358523488044739,-0.512210488319397,-26.49810028076172,37.4451904296875,-5.1446943283081055
3.244,3.583251953125,-1.6187443733215332,-1.2658032178878784,0.03497203439474106,0.5674937963485718,-0.44135013222694397,-26.103479385375977,37.32826614379883,-4.530838966369629
3.25,3.919443368911743,-1.502692461013794,-1.6067804098129272,0.08949175477027893,0.7455610036849976,-0.312304824590683,-26.454252243041992,37.50365447998047,-4.486992359161377
3.26,4.4410786628723145,-1.506281852722168,-2.24566388130188,0.20601430535316467,0.9841038584709167,-0.09376781433820724,-27.272727966308594,37.839813232421875,-4.954691410064697
3.27,4.590630054473877,-1.7994025945663452,-2.6356940269470215,0.31673359870910645,1.2412781715393066,0.1014036312699318,-28.16427993774414,38.07366180419922,-5.9193220138549805
3.28,5.093122959136963,-2.0171494483947754,-2.8725833892822266,0.4106541574001312,1.505935549736023,0.2405281811952591,-28.69044303894043,38.24905014038086,-5.670856475830078
3.3,5.9018964767456055,-2.042273998260498,-2.6847469806671143,0.608421802520752,1.7029396295547485,0.4830417037010193,-30.195850372314453,39.023677825927734,-6.635486125946045
3.304,6.659224987030029,-2.031506299972534,-1.7874385118484497,0.667828381061554,1.578933835029602,0.5482515692710876,-30.108156204223633,39.710609436035156,-5.846243858337402
3.31,6.549155235290527,-2.108076810836792,-1.6115659475326538,0.7644978761672974,1.2788463830947876,0.6490443348884583,-30.56123924255371,39.68138122558594,-6.328558921813965
3.32,6.076572895050049,-2.2157537937164307,-1.8305093050003052,0.9288205504417419,0.8367326259613037,0.7499897480010986,-31.20432472229004,40.11984634399414,-6.138556003570557
3.33,5.8157548904418945,-2.4717857837677,-1.8257235288619995,1.1772900819778442,0.5073235630989075,0.7994698882102966,-31.306636810302734,41.21601867675781,-7.585501670837402
3.34,5.608776569366455,-3.073580503463745,-1.4105688333511353,1.40437912940979,0.3275764584541321,0.8132143616676331,-31.4674072265625,41.97603225708008,-8.140894889831543
3.36,4.91126823425293,-5.990431308746338,-3.3439693450927734,1.224173903465271,0.3026837408542633,0.46853363513946533,-32.183570861816406,43.27682113647461,-9.120140075683594
3.363,4.948357105255127,-6.954739093780518,-4.642076015472412,0.9570730924606323,0.32971450686454773,0.23090705275535583,-31.788951873779297,43.59836196899414,-9.704765319824219
3.37,5.002195358276367,-8.417949676513672,-6.599404811859131,0.5445863604545593,0.5300782918930054,-0.2620611786842346,-32.373573303222656,43.7006721496582,-10.800935745239258
3.38,4.956732273101807,-11.23789119720459,-9.026923179626465,-0.01114829070866108,1.6197091341018677,-1.081536889076233,-33.19205093383789,44.09529113769531,-10.289388656616211
3.39,7.025327205657959,-14.858231544494629,-13.081561088562012,-0.2987130880355835,3.004082441329956,-1.7092009782791138,-33.93744659423828,43.65682601928711,-11.078632354736328
3.4,11.429317474365234,-17.179269790649414,-15.623934745788574,0.8521569967269897,3.3735034465789795,-1.4729487895965576,-36.290557861328125,43.72990417480469,-11.56094741821289
3.416,18.599411010742188,-16.833507537841797,0.7752745151519775,2.088701009750366,2.741715908050537,0.43890663981437683,-38.848289489746094,44.928382873535156,-12.42326831817627
3.42,18.223737716674805,-14.559128761291504,4.810770034790039,1.961030125617981,2.2823452949523926,1.1018481254577637,-39.31599044799805,45.366851806640625,-12.89096736907959
3.43,14.490934371948242,-9.90987491607666,6.477370738983154,1.6835445165634155,0.9040805101394653,1.9584338665008545,-38.599822998046875,45.77608871459961,-13.884828567504883
3.44,10.475777626037598,-7.5912299156188965,4.8562331199646,1.1551461219787598,-0.14278973639011383,2.146427631378174,-38.30751037597656,47.14995574951172,-14.63022518157959
3.45,6.655636310577393,-6.719045639038086,1.3112667798995972,0.0429132841527462,-0.09407324343919754,1.8167130947113037,-36.93364715576172,47.20841979980469,-14.674072265625
3.46,5.992824077606201,-4.0725836753845215,-3.194417953491211,-0.9483683109283447,1.5717562437057495,1.233795166015625,-37.3867301940918,47.36919021606445,-14.586379051208496
3.479,9.292526245117188,-0.7645068168640137,-6.498905658721924,1.037096381187439,1.7011069059371948,1.0838276147842407,-37.98596954345703,47.486114501953125,-15.536393165588379
3.483,9.66939640045166,-2.1020946502685547,-5.533401966094971,1.3391693830490112,1.4508049488067627,1.1232284307479858,-37.474422454833984,47.5591926574707,-15.638701438903809
3.49,10.457830429077148,-5.174479007720947,-3.3583264350891113,1.9952385425567627,0.5994114875793457,1.2829697132110596,-37.299034118652344,47.60304260253906,-16.06255531311035
3.5,10.64686393737793,-9.111868858337402,0.2141576111316681,2.232712507247925,-0.3010038435459137,1.4807372093200684,-37.109031677246094,49.31306457519531,-17.377958297729492
3.51,10.435098648071289,-12.134002685546875,2.2995026111602783,1.836719036102295,-0.43799036741256714,1.5007431507110596,-36.37825393676758,49.50307083129883,-17.04180145263672
3.52,9.516255378723145,-14.145170211791992,2.651247262954712,1.423926830291748,-0.13439035415649414,1.5781702995300293,-35.895938873291016,50.02922821044922,-18.868751525878906
3.539,6.269195556640625,-11.60279655456543,-0.802791953086853,0.9048441052436829,0.7188356518745422,1.314734697341919,-34.56591796875,50.67231750488281,-19.482608795166016
3.543,5.464010238647461,-10.436296463012695,-1.4644074440002441,0.8938485383987427,0.8162686824798584,1.233795166015625,-34.08360290527344,50.745399475097656,-19.687227249145508
3.55,4.82632303237915,-8.863015174865723,-1.6654045581817627,0.9356928467750549,0.9506590366363525,1.0282388925552368,-33.89359664916992,50.84770202636719,-20.418006896972656
3.56,3.7531421184539795,-7.312465667724609,-1.262213945388794,1.0343475341796875,0.7683157920837402,0.9547823667526245,-33.87898254394531,51.60771560668945,-20.37415885925293
3.57,2.3856441974639893,-6.252445697784424,-0.714257538318634,1.0421360731124878,0.5910121202468872,1.052520751953125,-33.922828674316406,51.87080001831055,-21.353404998779297
3.58,1.6522438526153564,-6.228517055511475,-0.2919243574142456,0.9514226317405701,0.5885686278343201,1.2052371501922607,-33.13358688354492,52.265419006347656,-21.134170532226562
3.6,2.0853447914123535,-7.579265117645264,0.34695929288864136,0.5012149214744568,1.1226176023483276,1.4897475242614746,-32.607425689697266,52.23618698120117,-21.894182205200195
3.604,2.496910333633423,-8.023134231567383,0.4749752879142761,0.3917173445224762,1.2961033582687378,1.5486960411071777,-32.680503845214844,52.55773162841797,-21.499561309814453
3.61,2.9276182651519775,-8.50289535522461,0.45463627576828003,0.270766019821167,1.4955508708953857,1.665371298789978,-32.78281021118164,52.47003936767578,-22.215726852416992
3.62,3.7627134323120117,-9.66939640045166,0.20099709928035736,0.2025018185377121,1.6423112154006958,1.831068515777588,-32.2274169921875,52.85004425048828,-22.20111083984375
3.63,4.135993957519531,-10.427921295166016,-0.02512463741004467,0.22571469843387604,1.7136296033859253,1.9419405460357666,-31.964338302612305,53.434669494628906,-22.288803100585938
3.64,4.698307037353516,-10.950752258300781,-0.3230310380458832,0.3582724630832672,1.8003724813461304,1.9892826080322266,-31.350481033325195,53.25928497314453,-23.29728126525879
3.656,5.586043834686279,-11.374281883239746,0.5300102233886719,0.6583600044250488,1.6548339128494263,2.0056233406066895,-31.05817222595215,53.56621170043945,-24.334989547729492
3.66,5.600401401519775,-11.444869995117188,0.8614161610603333,0.6653849482536316,1.5642731189727783,2.0079140663146973,-30.99970817565918,53.58082580566406,-24.84653663635254
3.67,5.499902248382568,-10.929216384887695,1.0767701864242554,0.6039929986000061,1.309084177017212,1.9856175184249878,-30.692779541015625,54.12160110473633,-25.095001220703125
3.68,5.905486106872559,-9.912267684936523,0.6245266795158386,0.5760459303855896,0.9033169150352478,1.94713294506073,-29.859689712524414,54.033905029296875,-26.819643020629883
3.69,6.157928943634033,-8.94676399230957,0.2883351147174835,0.6655376553535461,0.4668537676334381,1.9763017892837524,-28.763521194458008,54.41391372680664,-26.717334747314453
3.709,5.6961140632629395,-8.148756980895996,0.3361915946006775,0.7822129726409912,-0.003054326167330146,2.0118846893310547,-27.185035705566406,54.72084426879883,-27.097341537475586
3.713,5.278566360473633,-6.999006271362305,0.3852444291114807,0.9859365224838257,-0.5183191299438477,1.9627100229263306,-25.548086166381836,54.70622634887695,-26.585792541503906
3.72,5.460421085357666,-6.67717170715332,0.41036906838417053,1.0479393005371094,-0.7548767328262329,1.9201021194458008,-24.510377883911133,54.969303131103516,-26.644256591796875
3.73,5.6099724769592285,-6.217749118804932,0.331405907869339,1.1068878173828125,-1.0445795059204102,1.8573358058929443,-24.11575698852539,54.457759857177734,-26.99502944946289
3.74,5.688935279846191,-5.373082637786865,0.12203395366668701,1.1742357015609741,-1.2877038717269897,1.8025106191635132,-22.610347747802734,54.22391128540039,-26.293479919433594
3.75,6.217749118804932,-4.89571475982666,0.06699903309345245,1.3048081398010254,-1.5555683374404907,1.720807433128357,-21.528793334960938,54.867000579833984,-27.50657844543457
3.76,6.6077799797058105,-4.380061626434326,-0.23808583617210388,1.524108648300171,-1.8128951787948608,1.6307047605514526,-20.403390884399414,54.53084182739258,-27.901199340820312
3.776,7.375875473022461,-4.187439441680908,-0.4259223937988281,1.991878867149353,-2.0893118381500244,1.5128077268600464,-18.547208786010742,54.3408317565918,-30.093538284301758
3.78,7.328019142150879,-4.322634220123291,-0.46061834692955017,2.1222984790802,-2.077094554901123,1.4715744256973267,-17.97719955444336,54.70622634887695,-30.44431495666504
3.79,6.5288166999816895,-4.84187650680542,-0.24765713512897491,2.3073906898498535,-2.0231857299804688,1.275944709777832,-17.392576217651367,54.73545837402344,-31.350481033325195
3.8,4.97348165512085,-6.473781585693359,-0.010767702013254166,2.2690589427948,-2.071291208267212,0.861930787563324,-16.208711624145508,54.969303131103516,-32.25665283203125
3.81,3.946960687637329,-7.82572603225708,-0.5407779216766357,1.9787452220916748,-2.073887348175049,0.4112650156021118,-15.434082984924316,54.92546081542969,-33.33820343017578
3.83,3.4959137439727783,-9.018548011779785,-0.6819544434547424,1.3707815408706665,-1.9547687768936157,0.09392052888870239,-15.346389770507812,55.11546325683594,-34.39052963256836
3.833,3.789034366607666,-9.354740142822266,-2.0518453121185303,0.9402742981910706,-2.436741590499878,-0.010231993161141872,-14.586379051208496,54.954689025878906,-34.85823059082031
3.84,3.2757742404937744,-9.32602596282959,-1.6797614097595215,0.7826710939407349,-2.7311785221099854,-0.050854530185461044,-15.083308219909668,54.9400749206543,-36.62671661376953
3.85,3.61435866355896,-8.787640571594238,-1.8197414875030518,0.6426302194595337,-3.032487630844116,-0.06872233748435974,-14.367143630981445,55.05699920654297,-37.109031677246094
3.86,3.424129009246826,-8.650053024291992,-0.2787638306617737,0.5520694851875305,-3.084105968475342,0.0004581489192787558,-14.104063987731934,54.73545837402344,-38.08827590942383
3.87,3.0556344985961914,-8.550751686096191,1.6175479888916016,0.28237244486808777,-2.314263105392456,0.07880160957574844,-13.49020767211914,55.32008361816406,-38.205204010009766
3.889,3.4337005615234375,-8.60459041595459,1.9022939205169678,0.08811730891466141,-1.3358094692230225,-0.06704245507717133,-13.402514457702637,55.071617126464844,-38.8629035949707
3.893,3.9242289066314697,-8.506484031677246,2.1092729568481445,-0.05757404863834381,-0.18967366218566895,-0.2678644061088562,-13.840982437133789,55.188541412353516,-38.71674728393555
3.9,4.682753562927246,-7.922635555267334,1.9645073413848877,-0.15073098242282867,0.45814892649650574,-0.31551188230514526,-13.855597496032715,54.98392105102539,-38.263668060302734
3.91,4.938785552978516,-7.397410869598389,1.8065810203552246,-0.22174407541751862,1.0216721296310425,-0.32070425152778625,-13.826367378234863,54.969303131103516,-38.5267448425293
3.92,5.003392219543457,-7.055237293243408,1.6821541786193848,-0.31581732630729675,1.296714186668396,-0.4187481105327606,-14.674072265625,54.691612243652344,-38.570594787597656
3.93,5.499902248382568,-6.55992317199707,1.0277173519134521,-0.29016098380088806,1.229824423789978,-0.46364670991897583,-14.674072265625,55.08623123168945,-38.1467399597168
3.95,4.986642360687256,-6.512066841125488,0.24167509377002716,-0.08139779418706894,1.1102474927902222,-0.47250425815582275,-15.258696556091309,54.91084289550781,-37.54750061035156
3.953,4.7401814460754395,-7.208377838134766,0.23330020904541016,0.3110831081867218,0.8993463516235352,-0.42928555607795715,-15.901782989501953,55.20315933227539,-38.1467399597168
3.96,4.399204254150391,-7.550551891326904,0.8315058350563049,0.5149593949317932,0.8529205918312073,-0.37110063433647156,-16.07716941833496,54.98392105102539,-37.8251953125
3.97,4.2376885414123535,-7.822136878967285,1.1162517070770264,0.7513642311096191,0.770606517791748,-0.2704605758190155,-16.70564079284668,54.954689025878906,-39.62291717529297
3.98,3.8153557777404785,-8.059026718139648,0.7262216210365295,0.8432994484901428,0.582001805305481,-0.2269364297389984,-17.085647583007812,55.48085403442383,-39.593685150146484
3.99,3.528217077255249,-8.499305725097656,0.576670229434967,0.8750644326210022,0.3517056703567505,-0.17592918872833252,-16.60333251953125,54.92546081542969,-40.558319091796875
4.01,3.2004001140594482,-9.268598556518555,0.47258248925209045,0.8663595914840698,0.21991148591041565,-0.1293507218360901,-17.3341121673584,55.743934631347656,-41.2452507019043
4.014,3.22552490234375,-10.6564359664917,0.9655039310455322,0.7910704612731934,0.23457224667072296,-0.03451388329267502,-17.641040802001953,55.45161819458008,-41.40602111816406
4.02,3.37268328666687,-10.975876808166504,1.4045867919921875,0.6722572445869446,0.2848159074783325,0.05757404863834381,-17.670272827148438,55.68547058105469,-41.698333740234375
4.03,3.0233314037323,-10.931610107421875,2.612962245941162,0.39095374941825867,0.38438695669174194,0.20525072515010834,-17.655654907226562,55.597774505615234,-42.22449493408203
4.04,2.720639228820801,-10.567900657653809,3.3032915592193604,0.06841690838336945,0.5626068711280823,0.30146196484565735,-17.407190322875977,55.45161819458008,-42.6045036315918
4.05,2.8582265377044678,-10.24487018585205,3.7292141914367676,-0.18402314186096191,0.8237517476081848,0.3400992155075073,-17.26103401184082,55.64162826538086,-42.136802673339844
4.07,3.37268328666687,-10.059426307678223,4.229313850402832,-0.3367394804954529,1.0615310668945312,0.3269656002521515,-17.553346633911133,55.378543853759766,-42.063724517822266
4.074,3.896711587905884,-9.973284721374512,4.579862117767334,-0.4534147381782532,1.19607412815094,0.23487769067287445,-17.59719467163086,55.261619567871094,-41.332942962646484
4.08,4.1036906242370605,-10.019944190979004,4.725824356079102,-0.43768492341041565,1.1527026891708374,0.16584990918636322,-17.42180633544922,55.42238998413086,-41.128326416015625
4.09,4.658825397491455,-10.345367431640625,5.078765869140625,-0.36942076683044434,1.0238101482391357,0.13026700913906097,-17.684886932373047,55.08623123168945,-40.90909194946289
4.1,4.887340068817139,-10.98185920715332,5.361118793487549,-0.25244006514549255,0.8680394887924194,0.14905111491680145,-18.108739852905273,54.969303131103516,-41.069862365722656
4.11,4.67078971862793,-11.846864700317383,5.314458847045898,-0.0656680166721344,0.6956228017807007,0.15271630883216858,-17.684886932373047,54.72084426879883,-41.42063903808594
4.13,4.660021781921387,-13.162917137145996,5.119443893432617,0.21594086289405823,0.5297728776931763,0.08261951804161072,-18.386436462402344,54.51622772216797,-41.449867248535156
4.133,4.7988057136535645,-15.120245933532715,4.074976921081543,0.8232936263084412,0.17989981174468994,-0.06750060617923737,-18.211048126220703,55.05699920654297,-41.099090576171875
4.14,4.4614176750183105,-15.695719718933105,2.667997121810913,1.2176071405410767,0.06887505203485489,-0.11026117950677872,-18.28412628173828,54.70622634887695,-41.82987594604492
4.15,3.5880372524261475,-15.573685646057129,0.1423729509115219,1.8475618362426758,-0.04092797264456749,-0.13927727937698364,-17.933351516723633,55.10084533691406,-42.502193450927734
4.16,3.6287152767181396,-15.343975067138672,-1.6319050788879395,2.2996022701263428,-0.34574970602989197,-0.09758572280406952,-18.44489860534668,55.51008605957031,-43.90529251098633
4.17,3.597608804702759,-16.449459075927734,-1.176072359085083,1.8747453689575195,-0.9886853694915771,0.15683965384960175,-18.678749084472656,54.91084289550781,-44.811458587646484
4.19,1.5864413976669312,-16.39681625366211,-0.22851455211639404,0.375529408454895,-0.9010262489318848,0.3585779070854187,-18.225666046142578,55.10084533691406,-44.94300079345703
4.193,1.2969098091125488,-15.561721801757812,-0.2548356056213379,-0.9146180152893066,0.10308350622653961,0.27229318022727966,-18.021047592163086,55.40777587890625,-45.4399299621582
4.2,2.849851608276367,-14.671591758728027,-0.8530412316322327,-1.4465287923812866,0.6548475623130798,0.17669276893138885,-17.845659255981445,55.11546325683594,-44.50453186035156
4.21,4.865804672241211,-13.180862426757812,-1.3663017749786377,-1.87611985206604,0.9027060866355896,0.08017606288194656,-18.16720199584961,55.188541412353516,-43.817596435546875
4.22,5.510670185089111,-12.361321449279785,-1.7180465459823608,-2.1650590896606445,0.864679753780365,-0.025503622367978096,-17.90412139892578,55.01315689086914,-42.502193450927734
4.23,6.179464340209961,-11.95932674407959,-2.029113531112671,-2.425745964050293,0.7411321997642517,-0.2519819140434265,-17.72873306274414,54.75007247924805,-42.01987838745117
4.25,6.8889360427856445,-11.657832145690918,-2.2923240661621094,-2.535243272781372,0.5629122853279114,-0.4329507350921631,-18.415668487548828,54.73545837402344,-39.79830551147461
4.253,7.071987152099609,-11.94497013092041,-2.27677059173584,-2.6531403064727783,0.39477166533470154,-0.6359107494354248,-18.211048126220703,54.53084182739258,-39.63753128051758
4.26,7.071987152099609,-12.003594398498535,-2.462214469909668,-2.774549961090088,0.3706424832344055,-0.7585418820381165,-18.941829681396484,54.29698944091797,-38.7459831237793
4.27,7.330411911010742,-12.214162826538086,-2.337787628173828,-2.987130880355835,0.4404338300228119,-0.9182831645011902,-19.204912185668945,54.15083312988281,-37.54750061035156
4.28,7.257430553436279,-11.96052360534668,-0.9882357120513916,-3.356093406677246,0.5942191481590271,-1.0948232412338257,-19.950305938720703,53.17158508300781,-36.07132339477539
4.29,6.447460651397705,-11.190034866333008,0.6245266795158386,-3.5943310260772705,0.6647740602493286,-1.2718214988708496,-20.695703506469727,53.025428771972656,-35.20900344848633
4.309,6.446263790130615,-10.206583976745605,1.4009976387023926,-3.151759147644043,-0.13820825517177582,-1.486387848854065,-21.748027801513672,51.344635009765625,-34.27360534667969
4.313,6.619743347167969,-9.804591178894043,2.0267207622528076,-2.9936976432800293,-0.31154128909111023,-1.4902057647705078,-22.04033851623535,51.710025787353516,-33.630516052246094
4.32,6.818347930908203,-9.77109146118164,2.4717857837677,-2.478891134262085,-0.872315526008606,-1.4663820266723633,-23.867290496826172,50.29231262207031,-34.142066955566406
4.33,5.286941051483154,-10.60977554321289,2.7637100219726562,-1.8102991580963135,-0.9004153609275818,-1.3298536539077759,-24.992692947387695,50.0584602355957,-32.9289665222168
4.34,3.891925811767578,-11.605189323425293,2.840280294418335,-1.7108808755874634,-0.21349740028381348,-1.238376498222351,-26.220401763916016,49.86845779418945,-29.8889217376709
4.35,3.5856447219848633,-11.904292106628418,1.657029628753662,-1.929112434387207,0.7912232279777527,-1.3240504264831543,-26.468870162963867,49.853843688964844,-28.500438690185547
4.37,4.128815174102783,-11.772686958312988,0.17706885933876038,-2.0986275672912598,1.6656767129898071,-1.678046703338623,-27.988893508911133,49.88307571411133,-26.61502456665039
4.374,5.525027275085449,-10.618149757385254,-0.4893321990966797,-2.1366539001464844,1.969887614250183,-2.1586451530456543,-28.310436248779297,50.13154220581055,-26.0304012298584
4.38,5.485545635223389,-10.023533821105957,-0.8255237936973572,-2.0387628078460693,1.5320500135421753,-2.2765419483184814,-29.055830001831055,50.043846130371094,-25.89885902404785
4.39,5.4795637130737305,-9.018548011779785,-1.7335999011993408,-1.8718438148498535,0.5707008242607117,-2.3238840103149414,-30.137386322021484,49.31306457519531,-25.080385208129883
4.409,4.7018961906433105,-8.963513374328613,-2.5471596717834473,-1.7324138879776,-1.9176586866378784,-2.127490758895874,-31.13124656677246,48.494590759277344,-23.66267204284668
4.412,4.199403762817383,-8.739784240722656,-2.2779672145843506,-1.7058411836624146,-2.176970958709717,-2.101834535598755,-31.49663734436035,48.5822868347168,-22.75650405883789
4.42,3.555734395980835,-8.555537223815918,-1.223928689956665,-1.5783231258392334,-2.702467679977417,-2.0079140663146973,-31.438175201416016,48.20227813720703,-23.151124954223633
4.43,3.1058835983276367,-8.322237014770508,0.8350950479507446,-1.4282029867172241,-2.8605291843414307,-1.8802433013916016,-31.64279556274414,47.79304122924805,-21.791873931884766
4.44,2.6464619636535645,-8.074579238891602,2.579462766647339,-1.4262175559997559,-2.216524362564087,-1.8211419582366943,-31.920490264892578,47.89535140991211,-22.084184646606445
4.45,2.823530673980713,-7.588836669921875,3.893122434616089,-1.5954272747039795,-1.455844521522522,-1.8461873531341553,-32.052032470703125,47.310726165771484,-21.92341423034668
4.469,3.0233314037323,-6.920042991638184,3.2745776176452637,-2.607783555984497,-0.033597588539123535,-1.894140362739563,-33.542823791503906,45.732242584228516,-20.46185302734375
4.473,3.2446675300598145,-6.346961975097656,2.3569302558898926,-2.7343854904174805,-0.015882495790719986,-1.8794795274734497,-33.5282096862793,45.0599250793457,-19.497222900390625
4.48,3.458824872970581,-5.62672233581543,0.8518447875976562,-2.9880473613739014,-0.20601430535316467,-1.7791450023651123,-33.8643684387207,45.24992752075195,-18.89798355102539
4.49,2.554337978363037,-4.671986103057861,-0.8997012972831726,-2.948188304901123,-0.8251261711120605,-1.4816536903381348,-34.40514373779297,43.83221435546875,-17.363344192504883
4.5,1.1198409795761108,-3.841676712036133,-1.7718851566314697,-2.6025912761688232,-1.1972957849502563,-1.2756394147872925,-34.755916595458984,43.01374053955078,-16.208711624145508
4.51,0.47018963098526,-3.576073169708252,-1.3902299404144287,-2.230574369430542,-1.3167200088500977,-1.1554515361785889,-34.551300048828125,42.063724517822266,-15.375621795654297
4.529,0.6017948985099792,-2.946760892868042,-0.3649054169654846,-1.8561140298843384,-0.9595165848731995,-1.1557570695877075,-35.092079162597656,40.1636962890625,-13.256357192993164
4.532,0.8805586695671082,-2.6500511169433594,-0.3613162338733673,-1.8292360305786133,-0.902553379535675,-1.165683627128601,-34.56591796875,39.944461822509766,-13.607131958007812
4.54,1.168893814086914,-2.3126630783081055,-0.5515456199645996,-1.6661349534988403,-0.701578676700592,-1.175610065460205,-34.88745880126953,39.35983657836914,-13.534053802490234
4.55,1.2729815244674683,-2.2444677352905273,-0.9535397887229919,-1.463938593864441,-0.5656611919403076,-1.1000155210494995,-34.46360778808594,38.278282165527344,-12.861736297607422
4.56,1.2442678213119507,-2.3988046646118164,-1.3244272470474243,-1.2605204582214355,-0.5190827250480652,-0.9592111706733704,-35.530548095703125,38.00058364868164,-11.765565872192383
4.57,1.3555339574813843,-2.423929214477539,-1.712064504623413,-1.0697777271270752,-0.498924195766449,-0.793666660785675,-35.22361755371094,37.69365692138672,-11.064016342163086
4.59,1.8867405652999878,-2.1439690589904785,-1.2957134246826172,-0.5732970237731934,-0.3168863356113434,-0.35552358627319336,-35.42823791503906,37.211341857910156,-11.005553245544434
4.593,1.903490424156189,-2.146361827850342,-0.8745766282081604,-0.45356741547584534,-0.28267788887023926,-0.2506074607372284,-35.77901077270508,37.401344299316406,-11.020169258117676
4.6,1.7910276651382446,-2.032702684402466,-0.4091726541519165,-0.3107776939868927,-0.23121249675750732,-0.1408044397830963,-35.99824523925781,37.78135299682617,-10.990938186645508
4.61,1.7706886529922485,-1.7934205532073975,-0.3924228847026825,-0.19486600160598755,-0.09636398404836655,-0.08491026610136032,-35.662086486816406,37.065185546875,-11.064016342163086
4.62,1.978864312171936,-1.4201401472091675,-1.2502497434616089,-0.09896016865968704,0.1463022232055664,-0.051312681287527084,-35.76439666748047,36.99210739135742,-10.610932350158691
4.63,2.6249263286590576,-1.0516455173492432,-2.289931058883667,0.06475171446800232,0.4260784983634949,0.04612032324075699,-36.100555419921875,37.41596221923828,-10.903244018554688
4.647,2.9659035205841064,-1.0229315757751465,-1.6426726579666138,0.502436637878418,0.9482155442237854,0.33887749910354614,-36.71440887451172,37.664424896240234,-12.043262481689453
4.651,2.8151557445526123,-1.172482967376709,-1.3280165195465088,0.5322163105010986,1.0141890048980713,0.3582724630832672,-36.78749084472656,38.33674621582031,-11.444022178649902
4.66,2.6560330390930176,-1.357926845550537,-1.0683952569961548,0.6122397184371948,1.2942707538604736,0.3859141170978546,-36.86056900024414,38.11751174926758,-11.780181884765625
4.67,2.8522443771362305,-1.5409777164459229,-1.1102696657180786,0.7026477456092834,1.5421292781829834,0.3770565688610077,-37.15288162231445,38.70213317871094,-11.897106170654297
4.68,3.2542386054992676,-1.8317056894302368,-1.4033904075622559,0.8330674767494202,1.7305811643600464,0.3878994286060333,-37.8251953125,40.03215408325195,-12.847121238708496
4.69,3.9517464637756348,-2.379662036895752,-1.56969153881073,0.9793696999549866,1.8164077997207642,0.5056437253952026,-38.61444091796875,39.85676574707031,-13.27097225189209
4.703,5.19960355758667,-3.1070802211761475,-2.2336997985839844,0.987463653087616,1.6794211864471436,0.7284567952156067,-39.213680267333984,40.514469146728516,-14.191757202148438
4.71,5.642275333404541,-3.286541700363159,-2.5459630489349365,0.9937250018119812,1.550681471824646,0.8148941993713379,-39.330604553222656,40.85062789916992,-14.90792179107666
4.72,5.879165172576904,-4.303491592407227,-2.6428725719451904,0.9934195876121521,1.631773829460144,0.746019184589386,-39.944461822509766,41.157554626464844,-15.580240249633789
4.73,6.355337142944336,-6.801598072052002,-3.3367910385131836,0.6692028641700745,2.4917192459106445,0.3988949954509735,-39.98830795288086,41.53756332397461,-16.369482040405273
4.74,8.496912956237793,-10.380064964294434,-6.321837425231934,0.29138270020484924,3.8169913291931152,-0.006872233934700489,-40.73370361328125,42.01987838745117,-17.24641990661621
4.75,12.260822296142578,-14.861821174621582,-10.292726516723633,0.6091853976249695,3.8649444580078125,0.055436018854379654,-42.56065368652344,42.282955169677734,-18.737211227416992
4.77,16.315460205078125,-20.549558639526367,-0.46779680252075195,2.2397372722625732,1.9478964805603027,1.1423178911209106,-44.10990905761719,43.90529251098633,-20.140310287475586
4.773,16.32503318786621,-20.049461364746094,0.8518447875976562,2.264171838760376,1.8083138465881348,1.2977831363677979,-44.70914840698242,44.16836929321289,-20.91493797302246
4.78,15.43250846862793,-17.458032608032227,3.3607192039489746,2.0590739250183105,1.4483615159988403,1.6626224517822266,-44.41683578491211,44.38760757446289,-21.82110595703125
4.79,12.476177215576172,-14.343774795532227,2.9491539001464844,1.1491901874542236,1.2180652618408203,1.7033977508544922,-44.09529113769531,45.176849365234375,-22.66880989074707
4.8,11.358729362487793,-10.350153923034668,-0.37926235795021057,-0.30314186215400696,1.4753923416137695,0.9769262671470642,-43.379127502441406,45.805320739746094,-23.10727882385254
4.81,11.715259552001953,-5.401796817779541,-2.495713949203491,-0.16951508820056915,1.25929856300354,0.6969972848892212,-43.93452072143555,45.95147705078125,-23.531131744384766
4.822,9.768697738647461,-4.278366565704346,-2.8390841484069824,0.712574303150177,0.8683449029922485,1.0807733535766602,-44.15375518798828,45.84916687011719,-24.539608001708984
4.83,8.59501838684082,-4.908875465393066,-2.871387243270874,0.9245445132255554,1.0169378519058228,1.3283264636993408,-43.84682846069336,46.667640686035156,-23.238819122314453
4.84,7.707281589508057,-5.577669143676758,-2.462214469909668,0.8454374670982361,1.0172432661056519,1.4471397399902344,-43.90529251098633,46.98918533325195,-24.057292938232422
4.85,6.870989799499512,-5.708078384399414,-1.0001999139785767,0.9812023043632507,0.5192354321479797,1.4147638082504272,-43.057586669921875,47.5591926574707,-24.40806770324707
4.86,5.7439703941345215,-7.0959153175354,0.11964112520217896,1.2012665271759033,0.07757988572120667,1.4918856620788574,-42.77988815307617,48.24612808227539,-24.992692947387695
4.87,5.0464630126953125,-8.256434440612793,0.4486542344093323,1.2009609937667847,-0.01863138936460018,1.6100881099700928,-41.9614143371582,48.406898498535156,-25.650394439697266
4.888,4.18983268737793,-9.480362892150879,-0.17587246000766754,0.7518223524093628,0.8098545670509338,1.6546812057495117,-41.069862365722656,49.18152618408203,-25.957321166992188
4.892,4.2006001472473145,-9.373882293701172,-0.28594231605529785,0.7383833527565002,0.8926268219947815,1.6499470472335815,-41.34756088256836,49.25460433959961,-25.942707061767578
4.9,3.9696924686431885,-9.131011009216309,-0.16390834748744965,0.7984008193016052,1.0352638959884644,1.6044374704360962,-40.61677932739258,49.54691696166992,-27.08272361755371
4.91,3.6670005321502686,-8.833104133605957,0.46061834692955017,0.8932376503944397,0.99250328540802,1.4966198205947876,-40.66062545776367,50.43846893310547,-27.024263381958008
4.92,3.891925811767578,-8.834300994873047,1.0432707071304321,0.8865181803703308,0.9295841455459595,1.4268285036087036,-40.1636962890625,51.02309036254883,-28.003507614135742
4.939,4.392025947570801,-9.10110092163086,1.4093725681304932,0.7550293803215027,0.9340129494667053,1.4582879543304443,-39.389068603515625,51.12540054321289,-28.33966636657715
4.943,4.789234161376953,-9.473184585571289,1.5996018648147583,0.5232061147689819,0.9799805283546448,1.62047278881073,-39.389068603515625,51.476173400878906,-29.085063934326172
4.95,4.777270317077637,-9.665806770324707,1.5002998113632202,0.35445454716682434,1.003498911857605,1.758528232574463,-38.804443359375,51.63694763183594,-27.97427749633789
4.96,4.773681163787842,-9.76989459991455,1.1353943347930908,0.26710081100463867,1.0309878587722778,1.8457293510437012,-38.89213943481445,52.03157043457031,-28.99736976623535
4.97,5.01296329498291,-9.760323524475098,0.4929214417934418,0.28649580478668213,1.0926852226257324,1.890017032623291,-37.839813232421875,52.04618453979492,-28.851213455200195
4.98,5.519045352935791,-9.779465675354004,0.06939185410737991,0.40515637397766113,1.197906732559204,1.919338583946228,-38.190589904785156,52.47003936767578,-29.085063934326172
4.99,5.856433391571045,-9.754341125488281,0.15314064919948578,0.5471825003623962,1.2695306539535522,1.9356791973114014,-37.971351623535156,52.543113708496094,-30.195850372314453
5.004,6.62213659286499,-9.795019149780273,0.784845769405365,0.6276640295982361,1.0858129262924194,1.964084506034851,-38.49751663208008,53.04004669189453,-31.67202377319336
5.01,6.792026519775391,-9.609575271606445,0.7561319470405579,0.6317873597145081,0.831845760345459,1.9734001159667969,-37.57673263549805,53.23004913330078,-31.949722290039062
5.02,6.772884368896484,-9.132206916809082,0.2787638306617737,0.6782131195068359,0.5004513263702393,1.9562959671020508,-36.919029235839844,53.27389907836914,-33.67436599731445
5.03,6.503691673278809,-8.645268440246582,-0.2620140612125397,0.7751879692077637,0.27580565214157104,1.923614501953125,-35.6474723815918,53.624671936035156,-34.200523376464844
5.04,6.063412666320801,-7.956134796142578,-0.3206382095813751,0.8616254329681396,-0.024129178375005722,1.793653130531311,-33.64513397216797,54.019290924072266,-34.361297607421875
5.05,6.1914286613464355,-7.209574222564697,-0.558724045753479,0.9363037347793579,-0.5581781268119812,1.6180293560028076,-31.978952407836914,54.79391860961914,-33.67436599731445
5.062,5.98444938659668,-6.6149582862854,-0.5371886491775513,1.0968085527420044,-1.5276212692260742,1.4837915897369385,-30.83893585205078,55.05699920654297,-32.88512420654297
5.07,5.346762180328369,-6.148357391357422,-0.698704183101654,1.2125674486160278,-1.9885189533233643,1.4286609888076782,-29.7281494140625,55.2762336730957,-32.02280044555664
5.08,4.906482696533203,-6.022734642028809,-0.23210379481315613,1.36482572555542,-2.490802764892578,1.36482572555542,-28.763521194458008,54.98392105102539,-33.2651252746582
5.09,4.974678039550781,-6.022734642028809,0.23688943684101105,1.4633276462554932,-2.9133689403533936,1.2983940839767456,-28.018123626708984,55.34931564331055,-33.235897064208984
5.1,5.0572309494018555,-5.647061347961426,0.37088748812675476,1.577254056930542,-3.439629316329956,1.2180652618408203,-26.43963623046875,55.40777587890625,-33.30897521972656
5.12,4.805984020233154,-5.400600433349609,0.25722840428352356,1.7904459238052368,-3.5947890281677246,1.1896600723266602,-25.957321166992188,55.96316909790039,-33.51359558105469
5.123,4.149154186248779,-5.431707382202148,0.5623133182525635,1.9608774185180664,-3.534771680831909,1.1275044679641724,-24.46653175354004,55.188541412353516,-34.69745635986328
5.13,3.9696924686431885,-5.5932230949401855,0.6329016089439392,2.0306687355041504,-3.414889335632324,1.0151053667068481,-23.355743408203125,55.52470016479492,-36.524410247802734
5.14,4.319044589996338,-6.137589454650879,0.745364248752594,2.129781484603882,-3.3373093605041504,0.8268061280250549,-22.610347747802734,55.11546325683594,-37.4451904296875
5.15,3.930211305618286,-7.293323516845703,1.1545369625091553,2.125047445297241,-3.1873419284820557,0.7067710757255554,-21.338788986206055,55.553932189941406,-39.228294372558594
5.16,3.290131092071533,-8.545965194702148,1.2957134246826172,1.730733871459961,-2.7600417137145996,0.6009386777877808,-20.91493797302246,55.977787017822266,-40.017539978027344
5.179,3.3056843280792236,-8.757730484008789,0.7836494445800781,1.3730722665786743,-2.593428373336792,0.3949243724346161,-19.774919509887695,55.61239242553711,-40.762935638427734
5.183,2.968296527862549,-8.266005516052246,0.4893321990966797,1.1220066547393799,-2.303725481033325,0.04108068719506264,-20.768781661987305,56.211631774902344,-42.20988082885742
5.19,3.1082763671875,-8.008777618408203,0.7130610942840576,1.020297646522522,-1.923614501953125,-0.12919799983501434,-20.447237014770508,56.0800895690918,-41.873722076416016
5.2,2.2169501781463623,-7.990830898284912,1.514656662940979,0.8009970188140869,-0.9870055317878723,-0.2921462953090668,-19.71645736694336,56.48933029174805,-42.20988082885742
5.21,2.3545374870300293,-7.847261428833008,1.2215359210968018,0.513737678527832,0.3124575614929199,-0.6291911602020264,-20.724933624267578,56.03624725341797,-41.946800231933594
5.22,3.1274189949035645,-7.862814903259277,0.13040883839130402,0.33948835730552673,1.0523680448532104,-0.8645269870758057,-20.783395767211914,55.583160400390625,-43.02835464477539
5.24,3.9828531742095947,-7.728816986083984,-0.7046862840652466,0.31031954288482666,1.373835802078247,-0.9366090893745422,-21.601871490478516,55.90470504760742,-43.33528137207031
5.244,4.474577903747559,-7.913064479827881,-0.6424728631973267,0.35262197256088257,1.3900238275527954,-0.7350236177444458,-22.303421020507812,56.09471130371094,-44.59222412109375
5.25,4.689931869506836,-7.917849540710449,-0.38285163044929504,0.3390301764011383,1.361007809638977,-0.6455318927764893,-22.464191436767578,56.03624725341797,-43.67144012451172
5.26,4.931607246398926,-8.117650985717773,0.04307080805301666,0.2399173229932785,1.1464413404464722,-0.4424191415309906,-23.063430786132812,56.12394332885742,-43.992984771728516
5.27,5.400600433349609,-8.344968795776367,0.7968099117279053,0.11636982858181,0.8524624109268188,-0.2776382565498352,-23.721134185791016,56.32855987548828,-43.51066970825195
5.28,5.205585479736328,-8.2695951461792,0.9511469602584839,0.09010262042284012,0.6563746333122253,-0.17119498550891876,-23.180356979370117,56.021629333496094,-44.27068328857422
5.299,5.26181697845459,-8.39282512664795,1.502692461013794,0.14126259088516235,0.535881519317627,-0.10216721147298813,-23.370359420776367,56.06547546386719,-43.3645133972168
5.304,4.29750919342041,-8.080561637878418,1.1808578968048096,0.26542094349861145,0.3251330256462097,-0.057879481464624405,-24.21806526184082,56.182403564453125,-44.65068435668945
5.31,4.012763500213623,-8.048258781433105,1.0432707071304321,0.4156937897205353,0.2877175211906433,-0.07696902006864548,-24.305757522583008,56.372406005859375,-44.84069061279297
5.32,3.757927656173706,-8.48016357421875,2.3234305381774902,0.5198463201522827,0.293826162815094,-0.06352998316287994,-24.188833236694336,56.021629333496094,-45.60070037841797
5.33,3.2482566833496094,-8.781658172607422,2.746960163116455,0.5036584138870239,0.41263946890830994,-0.023518310859799385,-24.39345359802246,56.3577880859375,-45.60070037841797
5.34,2.937189817428589,-9.156135559082031,3.3200414180755615,0.4720461070537567,0.6227771043777466,0.00015271631127689034,-24.524991989135742,56.197017669677734,-45.39608383178711
5.36,2.882154941558838,-9.382257461547852,3.562912940979004,0.4366159439086914,0.8387179970741272,0.02580905519425869,-24.48114585876465,55.83163070678711,-46.316864013671875
5.363,3.084348201751709,-9.90149974822998,3.5497522354125977,0.47998735308647156,0.9561567902565002,0.05421429127454758,-24.437299728393555,55.977787017822266,-46.71148681640625
5.37,3.074777126312256,-10.279565811157227,3.2482566833496094,0.5502368807792664,0.9150761365890503,0.07666358351707458,-24.378835678100586,55.65624237060547,-46.726104736328125
5.38,2.6261227130889893,-11.429317474365234,2.885744094848633,0.6948592066764832,0.8718574047088623,0.09896016865968704,-24.817304611206055,55.363929748535156,-45.95147705078125
5.39,2.6835503578186035,-12.632906913757324,3.5401811599731445,0.7301366925239563,0.8171849846839905,0.10797043144702911,-24.305757522583008,55.787784576416016,-46.740718841552734
5.4,3.221935510635376,-13.451251983642578,4.7126641273498535,0.52702397108078,0.6878342628479004,0.15332716703414917,-24.524991989135742,55.51008605957031,-47.39842224121094
5.42,3.792623519897461,-13.992030143737793,5.158925533294678,0.22678370773792267,0.5105305910110474,0.2232712358236313,-24.305757522583008,55.46623992919922,-47.60304260253906
5.423,4.419543266296387,-14.545968055725098,4.3752760887146,0.07360926270484924,0.17501288652420044,0.27611106634140015,-24.451913833618164,55.65624237060547,-47.8807373046875
5.43,5.060819625854492,-14.794821739196777,3.851248025894165,0.17989981174468994,0.03222314268350601,0.34055736660957336,-24.364221572875977,55.597774505615234,-48.041507720947266
5.44,5.6650071144104,-15.444474220275879,2.988635540008545,0.4118758738040924,-0.17150041460990906,0.41752639412879944,-24.159603118896484,55.51008605957031,-47.64688491821289
5.45,6.349354267120361,-15.339188575744629,2.3988046646118164,0.5884159207344055,-0.33505958318710327,0.43279802799224854,-24.144987106323242,55.4954719543457,-48.669979095458984
5.46,6.275177478790283,-14.642877578735352,1.5110673904418945,0.5836817622184753,-0.34605515003204346,0.40622538328170776,-23.472667694091797,55.977787017822266,-48.6407470703125
5.48,5.666203498840332,-14.206188201904297,0.7262216210365295,0.33139437437057495,-0.2883284091949463,0.22876903414726257,-23.472667694091797,55.34931564331055,-48.83074951171875
5.483,4.738985061645508,-14.373684883117676,-0.035892337560653687,-0.10354165732860565,-0.30543261766433716,-0.012980885803699493,-23.428821563720703,55.68547058105469,-48.72844314575195
5.49,4.267599105834961,-14.215758323669434,-0.3433700203895569,-0.3868303894996643,-0.2974913716316223,-0.07666358351707458,-23.531131744384766,55.71470260620117,-49.473838806152344
5.5,3.7256245613098145,-13.621142387390137,-0.574277400970459,-0.7669413089752197,-0.22311851382255554,-0.08979719132184982,-23.39959144592285,55.61239242553711,-49.210758209228516
5.51,3.5222346782684326,-12.849457740783691,-0.8267201781272888,-1.1646145582199097,-0.11087203770875931,-0.09086620807647705,-23.165740966796875,55.68547058105469,-48.83074951171875
5.52,3.6705896854400635,-12.177074432373047,-1.0995019674301147,-1.645518183708191,-0.008246680721640587,-0.12553280591964722,-23.5895938873291,56.021629333496094,-48.099971771240234
5.54,4.199403762817383,-11.747562408447266,-1.672582983970642,-1.9590448141098022,-0.010995574295520782,-0.21074850857257843,-23.38497543334961,55.91931915283203,-47.427650451660156
5.543,5.259424209594727,-11.934203147888184,-2.1272192001342773,-2.2070560455322266,-0.11530081182718277,-0.3666718602180481,-23.66267204284668,55.90470504760742,-46.521484375
5.55,5.90668249130249,-12.045469284057617,-2.283949136734009,-2.300212860107422,-0.2203696370124817,-0.4662429094314575,-24.086524963378906,56.03624725341797,-45.89301300048828
5.56,6.653243064880371,-12.366107940673828,-2.5399811267852783,-2.414292097091675,-0.31291571259498596,-0.5684100985527039,-23.83806037902832,55.87547302246094,-44.577606201171875
5.57,6.819544315338135,-12.957134246826172,-2.788834571838379,-2.7288875579833984,-0.22739459574222565,-0.7347181439399719,-24.364221572875977,56.22624588012695,-43.11604690551758
5.58,7.099504470825195,-13.312468528747559,-1.660618782043457,-3.1367931365966797,0.05054909735918045,-0.9306531548500061,-24.042678833007812,55.93394088745117,-42.20988082885742
5.6,6.8614182472229,-12.866207122802734,0.4570291042327881,-3.6555702686309814,0.42760565876960754,-1.140485405921936,-24.84653663635254,56.56240463256836,-41.27448272705078
5.604,5.921039581298828,-11.297711372375488,2.4574286937713623,-4.099822044372559,0.6466008424758911,-1.347263216972351,-25.43115997314453,56.401634216308594,-39.06752395629883
5.61,5.927021503448486,-10.86580753326416,2.4873390197753906,-4.025296688079834,0.4202752709388733,-1.4234685897827148,-26.191171646118164,56.401634216308594,-37.98596954345703
5.62,6.260820388793945,-10.542776107788086,2.0925233364105225,-3.2123873233795166,-0.6551529169082642,-1.5024229288101196,-26.43963623046875,55.802398681640625,-36.80210494995117
5.63,5.060819625854492,-11.398210525512695,2.3736801147460938,-2.356412649154663,-1.129337191581726,-1.4701999425888062,-26.936567306518555,55.34931564331055,-37.31365203857422
5.64,4.027120590209961,-12.367303848266602,1.9214365482330322,-1.6951509714126587,-0.8371908068656921,-1.5080735683441162,-28.16427993774414,54.16544723510742,-36.97748947143555
5.66,3.541377305984497,-12.720244407653809,1.8472589254379272,-1.4665347337722778,0.2119702398777008,-1.5690072774887085,-32.31510925292969,52.58695983886719,-35.04823303222656
5.663,3.596412181854248,-12.647263526916504,0.7752745151519775,-1.8558086156845093,2.2632558345794678,-1.9688186645507812,-33.14820098876953,52.66004180908203,-34.112831115722656
5.67,4.039084434509277,-12.3397855758667,0.05623133108019829,-2.119244337081909,2.9246699810028076,-2.300365924835205,-34.31745147705078,53.449283599853516,-31.964338302612305
5.68,4.8777689933776855,-10.950752258300781,-0.33858439326286316,-2.3289237022399902,2.5474607944488525,-2.5256223678588867,-35.0043830871582,53.142356872558594,-29.143524169921875
5.69,5.306084156036377,-9.120243072509766,-0.1746760457754135,-2.3044891357421875,0.8741481304168701,-2.6786441802978516,-35.720550537109375,53.71236038208008,-28.105815887451172
5.7,7.1988067626953125,-7.948956489562988,-1.7635102272033691,-1.8489363193511963,-1.4592043161392212,-2.5050055980682373,-36.31978988647461,53.61005783081055,-27.141185760498047
5.719,5.722434997558594,-7.793423175811768,-0.49172505736351013,-1.2180652618408203,-3.318830728530884,-2.043955087661743,-35.07746124267578,53.08388900756836,-24.46653175354004
5.723,3.060420036315918,-7.496713161468506,1.8987046480178833,-1.406822681427002,-2.7821857929229736,-2.0555615425109863,-35.25284957885742,52.689273834228516,-24.510377883911133
5.73,2.819941520690918,-7.021737575531006,1.9932211637496948,-1.8015942573547363,-1.6899586915969849,-2.13314151763916,-34.902076721191406,52.499271392822266,-23.677288055419922
5.74,4.9639105796813965,-5.849254608154297,1.574477195739746,-2.124283790588379,-0.720820963382721,-2.233781576156616,-35.2674674987793,51.81233215332031,-22.610347747802734
5.75,5.173282623291016,-6.293123722076416,2.025524377822876,-2.12703275680542,-0.9074403047561646,-2.225534677505493,-35.63285446166992,51.1400146484375,-20.973400115966797
5.76,3.482753276824951,-6.887739658355713,2.014756679534912,-2.21392822265625,-1.0332785844802856,-1.9341520071029663,-35.67670440673828,50.10231018066406,-18.62028694152832
5.781,2.0673987865448,-6.75374174118042,1.3435698747634888,-2.3522891998291016,-1.0696250200271606,-1.629024863243103,-36.275943756103516,48.88921356201172,-18.225666046142578
5.784,0.41156551241874695,-5.507081031799316,1.1629117727279663,-2.3794729709625244,-1.0754282474517822,-1.335504174232483,-36.845951080322266,48.01227569580078,-17.012569427490234
5.79,0.09930214285850525,-4.640879154205322,1.1437692642211914,-2.3376286029815674,-1.091310739517212,-1.3051135540008545,-36.69979476928711,47.80765914916992,-16.910259246826172
5.8,0.1746760457754135,-3.920639753341675,1.1102696657180786,-2.2288944721221924,-1.1972957849502563,-1.3403910398483276,-36.539024353027344,46.945335388183594,-15.697164535522461
5.81,0.5611169338226318,-3.290131092071533,0.9978070259094238,-2.104278087615967,-1.2615894079208374,-1.3536772727966309,-36.59748840332031,46.08301544189453,-14.703303337097168
5.82,1.015753149986267,-2.6632113456726074,0.5706881880760193,-1.9863810539245605,-1.3041971921920776,-1.3055716753005981,-36.17363357543945,45.07453918457031,-13.460975646972656
5.839,0.06221338361501694,-1.9130616188049316,-0.5706881880760193,-1.7495180368423462,-1.0677924156188965,-1.1314750909805298,-36.01285934448242,43.393741607666016,-11.648640632629395
5.843,-0.2105683833360672,-1.7264214754104614,-0.7357929348945618,-1.6543757915496826,-0.9480628371238708,-1.1073459386825562,-36.05670928955078,43.55451583862305,-11.692487716674805
5.85,-0.30987051129341125,-1.5038889646530151,-0.937986433506012,-1.4698944091796875,-0.817337691783905,-1.0716103315353394,-35.866703033447266,43.10143280029297,-11.107863426208496
5.86,-0.4247260093688965,-1.2335000038146973,-0.989432156085968,-1.1675162315368652,-0.7750352621078491,-0.9964739084243774,-35.925167083740234,42.47296142578125,-10.859397888183594
5.87,-0.556331217288971,-1.310070276260376,-0.9284151792526245,-0.8593347072601318,-0.70692378282547,-0.8834638595581055,-36.100555419921875,41.74217987060547,-10.859397888183594
5.88,-0.45583271980285645,-1.4249258041381836,-0.7130610942840576,-0.5427537560462952,-0.49907687306404114,-0.6899722814559937,-36.01285934448242,41.683719635009766,-9.792458534240723
5.899,-0.05383851006627083,-1.1832507848739624,-0.6783652305603027,-0.2952006161212921,-0.2739730477333069,-0.5493205189704895,-36.56825256347656,41.522945404052734,-10.727856636047363
5.903,0.867398202419281,-0.672383189201355,-1.0911270380020142,0.023060161620378494,0.07559457421302795,-0.38408151268959045,-36.4074821472168,41.34756088256836,-10.713241577148438
5.91,1.6821541786193848,-0.332602322101593,-1.5326027870178223,0.19288070499897003,0.3608686327934265,-0.26801711320877075,-36.480560302734375,41.508331298828125,-10.567085266113281
5.92,2.796013355255127,-0.04307080805301666,-1.8831512928009033,0.37827828526496887,0.7418957948684692,-0.07040221989154816,-37.25518798828125,41.6252555847168,-10.464776039123535
5.93,3.3475589752197266,-0.14356935024261475,-1.8245272636413574,0.5578727126121521,1.1565206050872803,0.1495092660188675,-37.62057876586914,42.253726959228516,-11.166325569152832
5.94,3.4193434715270996,-0.7561319470405579,-1.3794622421264648,0.667217493057251,1.5031867027282715,0.206777885556221,-38.468284606933594,42.429115295410156,-11.254019737243652
5.96,4.0079779624938965,-1.3962119817733765,-1.1653046607971191,0.8055785298347473,1.8807013034820557,0.3425426781177521,-40.17831039428711,43.91990661621094,-12.847121238708496
5.963,4.871786594390869,-2.3054845333099365,-1.0348957777023315,0.811076283454895,1.8836029767990112,0.38637226819992065,-40.2221565246582,44.48991394042969,-13.139432907104492
5.97,5.291727066040039,-2.7601208686828613,-1.0121638774871826,0.8032878041267395,1.8128951787948608,0.5351179242134094,-40.689857482910156,44.621456146240234,-13.314821243286133
5.98,5.706881999969482,-2.9168508052825928,-1.5182459354400635,0.8223773241043091,1.5932892560958862,0.7342600226402283,-41.11370849609375,44.86991882324219,-13.782519340515137
5.99,6.514459133148193,-3.3882367610931396,-2.341376781463623,0.9943358302116394,1.4550809860229492,0.8037459254264832,-41.683719635009766,45.4399299621582,-14.557147026062012
6.0,7.28255558013916,-5.12901496887207,-2.6297121047973633,1.107040524482727,1.52273428440094,0.693026602268219,-41.81526184082031,46.346099853515625,-16.004093170166016
6.02,10.640881538391113,-11.507083892822266,-5.229514122009277,0.8516988754272461,2.705369472503662,0.014966198243200779,-42.91142654418945,47.5591926574707,-17.933351516723633
6.023,11.534601211547852,-12.625728607177734,-6.0538411140441895,0.8571966290473938,2.788599729537964,-0.05971207842230797,-43.7006721496582,47.32534408569336,-17.97719955444336
6.03,13.269397735595703,-16.065410614013672,-7.612764835357666,0.9804387092590332,2.6780331134796143,-0.00855211354792118,-44.928382873535156,47.924583435058594,-19.234142303466797
6.04,14.294721603393555,-20.12004852294922,-6.679564476013184,1.8768833875656128,2.0080666542053223,0.279928982257843,-45.29377365112305,48.62613296508789,-20.038002014160156
6.05,14.95035457611084,-21.54497528076172,-1.2370892763137817,2.2646303176879883,1.6299411058425903,0.8286387324333191,-45.542240142822266,49.51768493652344,-21.236480712890625
6.06,13.514662742614746,-16.66840171813965,1.6546367406845093,1.835344672203064,1.1788172721862793,1.3385584354400635,-45.790706634521484,50.263084411621094,-22.698041915893555
6.08,10.05823040008545,-11.933006286621094,0.1782652735710144,0.33857205510139465,1.3863587379455566,1.0702358484268188,-45.162235260009766,50.87693786621094,-24.071908950805664
6.083,9.973284721374512,-7.617550373077393,-3.3020951747894287,0.13530665636062622,1.5004377365112305,0.8155050873756409,-45.118385314941406,51.27155685424805,-24.334989547729492
6.09,11.292925834655762,-5.402993679046631,-3.717249870300293,0.36514467000961304,1.2994630336761475,0.6059783101081848,-45.39608383178711,51.695411682128906,-24.32037353515625
6.1,10.77248764038086,-5.391029357910156,-2.021935224533081,1.112385630607605,0.7118107080459595,0.8045095205307007,-45.366851806640625,51.49079132080078,-24.349605560302734
6.11,9.123832702636719,-7.123432636260986,-2.287538528442383,1.3707815408706665,0.5621487498283386,1.2139419317245483,-45.1037712097168,52.63081359863281,-25.562700271606445
6.12,7.40578556060791,-7.566104888916016,-2.014756679534912,1.1856893301010132,0.6979135274887085,1.500590443611145,-44.65068435668945,52.86465835571289,-26.454252243041992
6.14,5.038087844848633,-7.462017059326172,-0.6329016089439392,1.251968264579773,0.30665433406829834,1.6018413305282593,-43.422977447509766,54.12160110473633,-26.585792541503906
6.143,4.7641096115112305,-7.842475891113281,-0.4211367666721344,1.2822060585021973,0.17073683440685272,1.62047278881073,-43.3206672668457,53.78544235229492,-27.316574096679688
6.15,4.167100429534912,-8.445466995239258,-0.2584248483181,1.2400565147399902,0.10461067408323288,1.6314682960510254,-42.58988571166992,54.033905029296875,-27.828121185302734
6.16,3.895514965057373,-9.113064765930176,-0.26440688967704773,1.0615310668945312,0.25213462114334106,1.597107172012329,-41.66910171508789,54.5600700378418,-27.857351303100586
6.17,3.940978765487671,-9.206384658813477,-0.34695929288864136,0.9104946255683899,0.4251622259616852,1.593900203704834,-41.128326416015625,54.70622634887695,-28.310436248779297
6.18,3.6837503910064697,-9.007781028747559,-0.1986042857170105,0.8909469246864319,0.568715512752533,1.6467399597167969,-40.207542419433594,55.23238754272461,-28.73428726196289
6.199,3.2303104400634766,-9.121438980102539,0.4833501875400543,0.8425358533859253,0.8364272713661194,1.7487545013427734,-38.93598175048828,56.56240463256836,-29.91815185546875
6.204,3.093919515609741,-9.354740142822266,0.8159525394439697,0.7680103182792664,0.9132435321807861,1.7498234510421753,-39.19906234741211,57.04472732543945,-29.596609115600586
6.21,3.0340988636016846,-9.693324089050293,1.195214867591858,0.6343835592269897,1.0163270235061646,1.7351627349853516,-38.67290496826172,57.26395797729492,-29.97661590576172
6.22,3.3379874229431152,-10.121639251708984,1.4237295389175415,0.4512766897678375,1.1345294713974,1.7391332387924194,-38.05904769897461,56.810874938964844,-30.152002334594727
6.23,3.871586799621582,-10.441081047058105,1.2275179624557495,0.2721404433250427,1.275944709777832,1.771356463432312,-37.32826614379883,57.67319107055664,-30.99970817565918
6.24,4.443471431732178,-10.450653076171875,0.3732803165912628,0.17043140530586243,1.5825990438461304,1.8744399547576904,-37.24057388305664,57.79011917114258,-30.57585334777832
6.26,5.90668249130249,-10.034300804138184,-0.06939185410737991,0.32528576254844666,1.8432859182357788,1.9755382537841797,-36.290557861328125,58.53551483154297,-32.09587860107422
6.263,6.160321235656738,-9.943374633789062,0.25722840428352356,0.3425426781177521,1.7866281270980835,1.9750800132751465,-36.05670928955078,58.681671142578125,-31.832796096801758
6.27,6.752545356750488,-9.944570541381836,0.8566304445266724,0.3585779070854187,1.4961615800857544,1.9650007486343384,-36.26132583618164,59.52937698364258,-32.02280044555664
6.28,7.3878397941589355,-9.688538551330566,0.7585247159004211,0.34987306594848633,0.9306531548500061,1.9921842813491821,-36.495174407958984,60.23093032836914,-33.177433013916016
6.29,7.521838188171387,-9.135796546936035,0.2189432680606842,0.4922046661376953,0.29138270020484924,2.1288652420043945,-36.290557861328125,61.2540168762207,-35.325927734375
6.3,7.209574222564697,-8.648857116699219,0.3684946596622467,0.6139195561408997,-0.18371771275997162,2.20278000831604,-34.37591552734375,61.69248962402344,-36.4074821472168
6.316,7.083950996398926,-7.746763229370117,0.22851455211639404,0.7620543241500854,-1.1107057332992554,2.161393880844116,-30.225080490112305,61.210174560546875,-34.171295166015625
6.32,6.955935001373291,-7.422535419464111,0.11006983369588852,0.8358163237571716,-1.4895949363708496,2.110539436340332,-29.143524169921875,61.09324645996094,-33.29435729980469
6.33,6.510870456695557,-6.619743347167969,-0.4618147313594818,1.0601565837860107,-2.1697933673858643,1.9827158451080322,-27.08272361755371,60.23093032836914,-32.56357955932617
6.34,6.027519702911377,-6.1675004959106445,-0.4737788736820221,1.36650550365448,-2.671618938446045,1.8547396659851074,-26.001171112060547,59.82168960571289,-31.920490264892578
6.35,5.5453667640686035,-5.879165172576904,-0.2069791555404663,1.714240550994873,-3.1392364501953125,1.6584991216659546,-24.349605560302734,59.237064361572266,-33.440513610839844
6.36,5.489135265350342,-5.192424774169922,-0.27278175950050354,1.9788979291915894,-3.410613536834717,1.5372422933578491,-22.93189239501953,58.93013381958008,-33.83513641357422
6.38,4.411168098449707,-5.124229431152344,0.26081767678260803,2.433687210083008,-3.484375238418579,1.3161091804504395,-20.578777313232422,58.857059478759766,-37.050567626953125
6.383,4.319044589996338,-5.237888813018799,0.41874393820762634,2.471255302429199,-3.456428289413452,1.2710578441619873,-19.81876564025879,58.550132751464844,-37.57673263549805
6.39,4.146761417388916,-5.590829849243164,1.015753149986267,2.4616341590881348,-3.448334217071533,1.222646713256836,-19.657995223999023,58.9739875793457,-38.51213073730469
6.4,3.269791841506958,-5.949753284454346,1.820937991142273,2.286774158477783,-3.395189046859741,1.035416603088379,-18.5325927734375,59.251678466796875,-40.23677444458008
6.41,2.678764820098877,-5.965306282043457,0.8518447875976562,2.174985647201538,-3.170848846435547,0.835358202457428,-16.939491271972656,58.3162841796875,-41.39140701293945
6.42,2.2169501781463623,-7.18086051940918,-0.3086740970611572,2.1363484859466553,-2.761569023132324,0.6617197394371033,-16.501022338867188,58.71090316772461,-42.619117736816406
6.436,2.262413740158081,-8.135597229003906,0.07537391036748886,1.5599970817565918,-2.1872029304504395,0.45723262429237366,-15.843321800231934,58.56474685668945,-44.4022216796875
6.44,2.379662036895752,-8.10568618774414,0.39122650027275085,1.3408491611480713,-2.0386099815368652,0.3428480923175812,-15.989476203918457,58.49167251586914,-45.206077575683594
6.45,2.967099905014038,-8.2157564163208,1.1234301328659058,0.9219483733177185,-1.592678427696228,0.09285151958465576,-15.887167930603027,58.345516204833984,-45.04530715942383
6.46,3.0592236518859863,-7.9142608642578125,2.197807550430298,0.5166392922401428,-0.7389942407608032,-0.22586742043495178,-15.916398048400879,58.21397399902344,-45.64455032348633
6.47,3.623929738998413,-7.513463020324707,1.810170292854309,0.27641651034355164,0.29474249482154846,-0.6212499737739563,-16.793336868286133,57.950889587402344,-46.097633361816406
6.48,4.342973232269287,-6.979863166809082,0.7645068168640137,0.22510384023189545,1.1349875926971436,-0.9469938278198242,-16.939491271972656,58.08243179321289,-47.16456985473633
6.5,4.776073932647705,-6.126822471618652,-1.8532410860061646,0.6820310354232788,1.4275920391082764,-1.1669052839279175,-18.43028450012207,58.27243423461914,-46.63841247558594
6.504,4.805984020233154,-6.6915283203125,-1.6510475873947144,0.8002334237098694,1.3397800922393799,-1.1191051006317139,-18.795673370361328,59.237064361572266,-47.544578552246094
6.51,5.015356063842773,-7.643871784210205,-0.9415756464004517,0.8628471493721008,1.1455250978469849,-0.9804387092590332,-19.307220458984375,59.17860412597656,-47.98304748535156
6.52,4.640879154205322,-8.839086532592773,-0.33020952343940735,0.7835873961448669,0.8358163237571716,-0.7524333000183105,-19.24875831604004,58.50628662109375,-47.82227325439453
6.53,4.526023864746094,-9.78425121307373,0.24287149310112,0.6032294034957886,0.6201809048652649,-0.5736024975776672,-19.964923858642578,59.266300201416016,-48.69921112060547
6.54,4.8227338790893555,-9.961320877075195,0.4654039740562439,0.375529408454895,0.4528038501739502,-0.3904955983161926,-20.82724380493164,58.93013381958008,-49.225372314453125
6.559,4.60139799118042,-8.745766639709473,0.7345964908599854,0.12370020896196365,0.1417207270860672,-0.2249511182308197,-20.578777313232422,58.46243667602539,-49.283836364746094
6.562,4.634897232055664,-8.670392990112305,0.8937192559242249,0.11133018881082535,0.08231408894062042,-0.1944078654050827,-21.00263023376465,58.550132751464844,-48.976905822753906
6.57,4.7473602294921875,-8.61176872253418,1.5936198234558105,0.09896016865968704,0.031001411378383636,-0.14584407210350037,-20.98801612854004,59.047061920166016,-49.15229415893555
6.58,4.3310089111328125,-8.653642654418945,1.7204394340515137,0.12492194026708603,0.08475754410028458,-0.1033889427781105,-21.221864700317383,59.047061920166016,-49.89768981933594
6.59,4.183850288391113,-8.651249885559082,2.0135602951049805,0.1970040500164032,0.16814064979553223,-0.05910121276974678,-21.309558868408203,59.032447814941406,-50.43846893310547
6.609,3.8811581134796143,-8.676374435424805,1.891526222229004,0.3165809214115143,0.22510384023189545,0.007024950347840786,-21.251096725463867,58.681671142578125,-50.146156311035156
6.613,3.600001335144043,-9.000602722167969,1.6558332443237305,0.4856378734111786,0.25213462114334106,0.07238753139972687,-22.011106491088867,58.88629150390625,-51.593101501464844
6.62,3.675375461578369,-9.371489524841309,2.2229323387145996,0.5296201705932617,0.1973094791173935,0.11789698898792267,-21.499561309814453,58.82782745361328,-50.540775299072266
6.63,3.366701364517212,-9.76989459991455,2.5423738956451416,0.49907687306404114,0.15027284622192383,0.19318613409996033,-21.353404998779297,58.59397506713867,-50.789241790771484
6.64,3.0975089073181152,-10.059426307678223,2.891726016998291,0.4466952085494995,0.19318613409996033,0.2275473028421402,-21.601871490478516,58.623207092285156,-51.578487396240234
6.65,3.042473793029785,-10.194620132446289,3.836890935897827,0.3393356204032898,0.3455969989299774,0.27382034063339233,-21.76264190673828,58.90090560913086,-52.64542770385742
6.66,2.717050075531006,-10.130014419555664,4.106083393096924,0.17073683440685272,0.4980078935623169,0.2785545587539673,-21.894182205200195,58.76936340332031,-52.41157531738281
6.679,2.441875457763672,-10.533205032348633,4.874179840087891,0.04214970022439957,0.7579310536384583,0.2519819140434265,-21.616485595703125,58.49167251586914,-53.17158508300781
6.682,2.4059829711914062,-10.796415328979492,5.01296329498291,0.0088575454428792,0.8385652303695679,0.23441952466964722,-21.83572006225586,58.6962890625,-53.2008171081543
6.69,2.575873613357544,-11.37667465209961,5.056034088134766,-0.026419920846819878,0.9372199773788452,0.19303342700004578,-21.36802101135254,58.33089828491211,-52.86465835571289
6.7,2.9994029998779297,-12.406785011291504,4.865804672241211,-0.00931569468230009,0.8680394887924194,0.09773843735456467,-21.48494529724121,58.11166000366211,-52.77696990966797
6.71,3.174079179763794,-13.581660270690918,4.232903003692627,0.11331550031900406,0.6313292384147644,-0.0003054326225537807,-22.025724411010742,58.30166244506836,-53.142356872558594
6.729,3.7088749408721924,-14.860625267028809,3.566502094268799,0.2915354371070862,0.35521814227104187,-0.007177666295319796,-22.025724411010742,57.96550369262695,-53.478515625
