time,accel_x,accel_y,accel_z,gyro_x,gyro_y,gyro_z,mag_x,mag_y,mag_z
0.0,78.14674377441406,-6.244078159332275,12.48815631866455,-8.127105712890625,5.595712184906006,-1.5987749099731445,-19.80000114440918,-35.10000228881836,-4.350000381469727
0.01,76.61445617675781,-7.661445617675781,11.72201156616211,-4.796324729919434,7.460949420928955,-9.459418296813965,-19.950000762939453,-35.25,-3.450000047683716
0.02,77.53382873535156,-7.4316020011901855,12.22000503540039,3.9969370365142822,-3.9969370365142822,2.131699800491333,-19.950000762939453,-35.25,-4.950000286102295
0.03,76.88260650634766,-7.738059997558594,12.105083465576172,2.398162364959717,-3.597243309020996,4.529861927032471,-19.80000114440918,-33.900001525878906,-3.9000000953674316
0.04,77.1507568359375,-7.738059997558594,12.449849128723145,-7.06125545501709,5.595712184906006,-9.992342948913574,-19.650001525878906,-34.95000076293945,-4.5
0.06,77.30398559570312,-7.5848307609558105,13.177685737609863,0.1332312375307083,-3.9969370365142822,4.529861927032471,-20.400001525878906,-35.70000076293945,-3.750000238418579
0.063,76.34630584716797,-7.240066051483154,12.679692268371582,-0.5329249501228333,-4.663093090057373,4.929555892944336,-20.400001525878906,-35.70000076293945,-3.750000238418579
0.07,76.537841796875,-7.469909191131592,12.02846908569336,-9.326186180114746,4.529861927032471,-2.797856092453003,-20.700000762939453,-35.25,-5.25
0.08,76.4995346069336,-8.197746276855469,12.181697845458984,-8.526799201965332,4.396630764007568,-5.8621745109558105,-19.200000762939453,-34.20000076293945,-4.200000286102295
0.09,76.65276336669922,-7.201758861541748,13.21599292755127,3.3307809829711914,-4.396630764007568,2.398162364959717,-19.200000762939453,-33.75,-4.200000286102295
0.1,77.03583526611328,-8.465897560119629,12.02846908569336,-10.125574111938477,0.39969372749328613,4.263399600982666,-21.0,-35.10000228881836,-3.9000000953674316
0.12,78.07012939453125,-7.163451671600342,11.875240325927734,-4.796324729919434,3.597243309020996,-11.058192253112793,-21.0,-35.10000228881836,-3.9000000953674316
0.124,76.42292022705078,-7.4316020011901855,11.951854705810547,5.462480545043945,-4.796324729919434,1.5987749099731445,-20.700000762939453,-34.20000076293945,-3.450000047683716
0.13,77.1890640258789,-8.08282470703125,10.917559623718262,-3.86370587348938,-7.72741174697876,1.1990811824798584,-19.950000762939453,-33.75,-3.0
0.14,76.19307708740234,-7.738059997558594,11.224017143249512,-2.131699800491333,2.531393527984619,-2.2649309635162354,-21.0,-35.55000305175781,-4.350000381469727
0.15,77.26567840576172,-7.010222434997559,12.756306648254395,-6.5283308029174805,6.261868000030518,-7.860642910003662,-19.5,-35.10000228881836,-4.650000095367432
0.16,76.61445617675781,-9.193734169006348,11.990161895751953,2.6646246910095215,-4.263399600982666,-1.8652373552322388,-19.5,-35.10000228881836,-4.650000095367432
0.18,77.57213592529297,-9.040505409240723,12.411541938781738,-4.529861927032471,6.661561965942383,-6.395099639892578,-19.5,-35.10000228881836,-4.650000095367432
0.183,76.65276336669922,-7.546523571014404,11.875240325927734,-7.72741174697876,6.5283308029174805,-3.0643184185028076,-20.400001525878906,-34.95000076293945,-5.25
0.19,76.38461303710938,-7.661445617675781,12.679692268371582,2.9310872554779053,3.3307809829711914,3.197549819946289,-20.700000762939453,-34.20000076293945,-4.200000286102295
0.2,76.99752807617188,-6.818686485290527,11.30063247680664,-6.395099639892578,5.995405673980713,-9.72588062286377,-19.05000114440918,-34.35000228881836,-4.350000381469727
0.21,77.57213592529297,-7.5848307609558105,11.760318756103516,-3.7304747104644775,5.595712184906006,-7.594180583953857,-19.950000762939453,-34.95000076293945,-3.750000238418579
0.22,77.1124496459961,-7.354987621307373,11.224017143249512,-4.130168437957764,3.4640121459960938,-10.258805274963379,-19.950000762939453,-34.95000076293945,-3.750000238418579
0.24,77.7253646850586,-7.508216381072998,12.29662036895752,1.7320060729980469,-3.0643184185028076,0.9326186776161194,-20.55000114440918,-36.60000228881836,-3.3000001907348633
0.244,77.22737121582031,-8.734047889709473,12.105083465576172,3.4640121459960938,-1.9984685182571411,-3.86370587348938,-19.80000114440918,-35.85000228881836,-3.9000000953674316
0.25,76.88260650634766,-8.121131896972656,11.645397186279297,-3.86370587348938,1.8652373552322388,-9.859111785888672,-21.450000762939453,-35.70000076293945,-3.750000238418579
0.26,77.53382873535156,-8.236053466796875,12.258312225341797,0.9326186776161194,-2.2649309635162354,-5.462480545043945,-20.55000114440918,-34.35000228881836,-3.9000000953674316
0.27,77.30398559570312,-7.814674377441406,11.109095573425293,-0.6661561727523804,-1.5987749099731445,2.6646246910095215,-20.55000114440918,-34.35000228881836,-3.9000000953674316
0.28,77.99351501464844,-7.508216381072998,12.641385078430176,-7.9938740730285645,6.128636837005615,-4.130168437957764,-19.650001525878906,-35.25,-3.750000238418579
0.3,76.30799865722656,-7.738059997558594,12.60307788848877,-3.7304747104644775,7.860642910003662,-3.9969370365142822,-20.700000762939453,-34.5,-3.0
0.304,78.26166534423828,-7.163451671600342,12.48815631866455,-8.793261528015137,1.3323123455047607,-2.398162364959717,-20.25,-33.900001525878906,-2.8500001430511475
0.31,77.22737121582031,-8.121131896972656,12.679692268371582,-6.395099639892578,7.194486618041992,-3.4640121459960938,-20.25,-33.900001525878906,-2.8500001430511475
0.32,77.22737121582031,-7.508216381072998,12.143390655517578,-3.4640121459960938,5.196018218994141,-1.9984685182571411,-20.25,-33.900001525878906,-2.8500001430511475
0.33,77.68705749511719,-7.1251444816589355,11.262324333190918,3.0643184185028076,-0.7993874549865723,2.9310872554779053,-20.25,-33.900001525878906,-2.8500001430511475
0.34,76.92091369628906,-7.814674377441406,12.334927558898926,-1.8652373552322388,-5.462480545043945,-0.9326186776161194,-20.55000114440918,-35.10000228881836,-3.6000001430511475
0.36,76.5761489868164,-7.508216381072998,12.756306648254395,-7.860642910003662,6.261868000030518,-10.525267601013184,-19.650001525878906,-34.95000076293945,-4.5
0.363,77.41890716552734,-6.856993675231934,12.526463508605957,6.9280242919921875,-3.597243309020996,-2.2649309635162354,-21.150001525878906,-33.75,-4.200000286102295
0.37,76.99752807617188,-8.044517517089844,12.02846908569336,9.192955017089844,-4.263399600982666,-0.1332312375307083,-21.150001525878906,-33.75,-4.200000286102295
0.38,77.26567840576172,-8.006210327148438,11.951854705810547,-0.6661561727523804,4.396630764007568,-14.522205352783203,-21.150001525878906,-33.75,-4.200000286102295
0.39,77.84028625488281,-7.7763671875,11.338939666748047,-0.7993874549865723,6.661561965942383,-0.5329249501228333,-20.55000114440918,-34.35000228881836,-3.6000001430511475
0.4,77.41890716552734,-8.619126319885254,11.836933135986328,2.131699800491333,3.4640121459960938,7.72741174697876,-20.400001525878906,-33.45000076293945,-3.450000047683716
0.419,77.61044311523438,-8.044517517089844,11.836933135986328,1.0658499002456665,-3.197549819946289,6.261868000030518,-19.650001525878906,-34.5,-5.700000286102295
0.423,78.07012939453125,-7.8529815673828125,11.568782806396484,1.8652373552322388,3.197549819946289,-12.656967163085938,-19.950000762939453,-34.95000076293945,-3.0
0.43,77.49552154541016,-6.971915245056152,14.135366439819336,11.191424369812012,-5.462480545043945,-6.128636837005615,-19.950000762939453,-34.95000076293945,-3.0
0.44,77.1507568359375,-6.01423454284668,13.522451400756836,11.990811347961426,-4.130168437957764,-2.131699800491333,-20.55000114440918,-33.900001525878906,-4.350000381469727
0.45,75.50354766845703,-6.856993675231934,13.024456977844238,7.06125545501709,-0.39969372749328613,-4.263399600982666,-20.25,-37.05000305175781,-3.9000000953674316
0.46,75.61846923828125,-10.611102104187012,11.645397186279297,-1.4655436277389526,3.7304747104644775,-6.128636837005615,-20.700000762939453,-34.5,-4.200000286102295
0.48,75.15878295898438,-11.070788383483887,11.836933135986328,10.791729927062988,-0.1332312375307083,-1.7320060729980469,-21.450000762939453,-34.95000076293945,-4.200000286102295
0.484,77.07414245605469,-8.580819129943848,12.832921028137207,6.5283308029174805,-2.9310872554779053,-5.062787055969238,-21.150001525878906,-34.5,-3.450000047683716
0.49,78.87458038330078,-6.742072105407715,12.871228218078613,-0.5329249501228333,2.531393527984619,-4.796324729919434,-21.150001525878906,-34.5,-3.450000047683716
0.5,79.48749542236328,-6.856993675231934,12.29662036895752,2.531393527984619,-3.0643184185028076,-13.989279747009277,-21.0,-35.55000305175781,-3.3000001907348633
0.51,77.45721435546875,-7.010222434997559,11.683704376220703,9.459418296813965,-4.929555892944336,-3.597243309020996,-19.950000762939453,-34.5,-2.25
0.52,77.95520782470703,-6.89530086517334,11.109095573425293,-0.39969372749328613,-0.1332312375307083,-6.128636837005615,-20.25,-34.35000228881836,-3.3000001907348633
0.539,78.22335815429688,-8.619126319885254,10.15141487121582,-3.0643184185028076,-4.263399600982666,1.0658499002456665,-20.25,-34.35000228881836,-3.3000001907348633
0.543,78.49150848388672,-9.155426979064941,11.070788383483887,5.595712184906006,-5.196018218994141,-1.9984685182571411,-19.5,-33.900001525878906,-3.3000001907348633
0.55,80.06210327148438,-7.623138427734375,11.30063247680664,8.660030364990234,-6.661561965942383,-7.06125545501709,-19.650001525878906,-34.95000076293945,-4.200000286102295
0.56,78.3765869140625,-7.5848307609558105,12.066776275634766,-5.728943347930908,-1.5987749099731445,-10.125574111938477,-19.5,-35.10000228881836,-3.6000001430511475
0.57,77.53382873535156,-8.159439086914062,11.30063247680664,-0.5329249501228333,-4.396630764007568,-4.929555892944336,-20.700000762939453,-34.20000076293945,-3.750000238418579
0.58,76.5761489868164,-9.461885452270508,11.60708999633789,-0.7993874549865723,3.9969370365142822,-0.2664624750614166,-20.700000762939453,-34.20000076293945,-3.750000238418579
0.6,76.61445617675781,-9.500192642211914,11.377246856689453,-10.258805274963379,-1.7320060729980469,-8.526799201965332,-19.200000762939453,-35.25,-4.200000286102295
0.604,76.19307708740234,-7.2783732414245605,12.181697845458984,-3.0643184185028076,-3.9969370365142822,-1.0658499002456665,-21.150001525878906,-34.95000076293945,-3.0
0.61,75.46524047851562,-5.363011837005615,12.48815631866455,1.4655436277389526,-3.3307809829711914,-4.796324729919434,-19.200000762939453,-34.95000076293945,-3.750000238418579
0.62,75.69508361816406,-4.481945514678955,11.60708999633789,-2.2649309635162354,2.6646246910095215,-10.525267601013184,-20.25,-34.35000228881836,-3.3000001907348633
0.63,76.84429931640625,-5.975927352905273,11.990161895751953,-3.7304747104644775,7.06125545501709,-11.191424369812012,-18.900001525878906,-34.20000076293945,-4.200000286102295
0.64,79.10442352294922,-8.197746276855469,12.947842597961426,3.86370587348938,1.9984685182571411,-3.86370587348938,-18.900001525878906,-34.20000076293945,-4.200000286102295
0.66,80.59840393066406,-9.002198219299316,11.760318756103516,-9.326186180114746,-0.7993874549865723,-8.926492691040039,-19.5,-35.10000228881836,-2.1000001430511475
0.663,79.52580261230469,-8.65743350982666,11.377246856689453,-10.791729927062988,0.7993874549865723,-10.92496109008789,-21.30000114440918,-34.35000228881836,-5.850000381469727
0.67,78.4148941040039,-6.665457725524902,10.41956615447998,-10.92496109008789,7.460949420928955,-4.263399600982666,-20.700000762939453,-33.75,-3.750000238418579
0.68,77.26567840576172,-7.5848307609558105,11.568782806396484,1.8652373552322388,-3.597243309020996,-6.661561965942383,-21.150001525878906,-34.5,-4.200000286102295
0.69,76.07815551757812,-6.665457725524902,11.492168426513672,-4.130168437957764,5.728943347930908,-18.385910034179688,-21.150001525878906,-34.5,-4.200000286102295
0.7,75.9249267578125,-8.08282470703125,11.760318756103516,3.4640121459960938,-1.4655436277389526,-2.9310872554779053,-20.55000114440918,-34.35000228881836,-3.6000001430511475
0.72,74.96724700927734,-9.730035781860352,11.645397186279297,-2.398162364959717,-1.0658499002456665,-11.058192253112793,-21.150001525878906,-33.45000076293945,-4.950000286102295
0.723,78.49150848388672,-7.738059997558594,11.377246856689453,-5.8621745109558105,1.8652373552322388,-16.520673751831055,-21.150001525878906,-33.45000076293945,-4.950000286102295
0.73,78.91288757324219,-7.086836814880371,11.683704376220703,-8.926492691040039,4.796324729919434,-14.388973236083984,-19.05000114440918,-34.80000305175781,-4.350000381469727
0.74,80.13871765136719,-6.512228488922119,12.29662036895752,-12.656967163085938,6.261868000030518,-14.92189884185791,-19.05000114440918,-34.80000305175781,-4.350000381469727
0.75,79.6407241821289,-5.4013190269470215,12.066776275634766,-1.7320060729980469,-0.9326186776161194,-11.857580184936523,-19.05000114440918,-34.80000305175781,-4.350000381469727
0.76,78.91288757324219,-4.060565948486328,11.262324333190918,-9.992342948913574,10.392036437988281,-22.51607894897461,-21.0,-34.80000305175781,-3.3000001907348633
0.78,76.80599212646484,-3.485957622528076,10.687716484069824,-7.194486618041992,3.86370587348938,-19.584991455078125,-20.400001525878906,-34.20000076293945,-3.450000047683716
0.784,76.5761489868164,-3.907337188720703,11.338939666748047,-2.131699800491333,7.460949420928955,-12.390504837036133,-20.25,-33.150001525878906,-2.8500001430511475
0.79,76.537841796875,-4.9799394607543945,11.262324333190918,1.3323123455047607,-3.3307809829711914,-13.456355094909668,-19.05000114440918,-33.60000228881836,-3.9000000953674316
0.8,76.537841796875,-6.971915245056152,12.105083465576172,3.3307809829711914,-2.797856092453003,-24.248085021972656,-19.05000114440918,-33.60000228881836,-3.9000000953674316
0.81,76.26969146728516,-7.2783732414245605,11.72201156616211,2.531393527984619,-1.1990811824798584,-15.055130004882812,-20.25,-34.35000228881836,-5.100000381469727
0.82,75.54185485839844,-8.848969459533691,12.066776275634766,-0.39969372749328613,3.9969370365142822,-13.58958625793457,-19.950000762939453,-34.95000076293945,-2.700000047683716
0.84,76.5761489868164,-7.163451671600342,12.756306648254395,-8.660030364990234,6.395099639892578,-21.716691970825195,-20.400001525878906,-34.95000076293945,-3.750000238418579
0.843,77.07414245605469,-6.473921298980713,11.1474027633667,2.531393527984619,-0.2664624750614166,-14.788667678833008,-20.400001525878906,-34.95000076293945,-3.750000238418579
0.85,77.64875030517578,-6.244078159332275,12.181697845458984,-2.2649309635162354,-4.263399600982666,-10.525267601013184,-20.400001525878906,-34.95000076293945,-3.750000238418579
0.86,79.0278091430664,-6.129156112670898,11.798625946044922,3.0643184185028076,-3.4640121459960938,-12.390504837036133,-19.80000114440918,-34.35000228881836,-4.350000381469727
0.87,77.8019790649414,-6.244078159332275,11.72201156616211,-8.260336875915527,5.8621745109558105,-25.7136287689209,-20.55000114440918,-33.900001525878906,-4.650000095367432
0.88,77.84028625488281,-5.20978307723999,12.02846908569336,-3.197549819946289,-7.327718257904053,-12.656967163085938,-21.30000114440918,-33.900001525878906,-4.650000095367432
0.9,79.25765228271484,-5.5545477867126465,11.798625946044922,1.1990811824798584,-5.595712184906006,-12.124042510986328,-19.5,-35.10000228881836,-3.3000001907348633
0.904,77.64875030517578,-6.627150535583496,11.30063247680664,-1.7320060729980469,-4.796324729919434,-17.186830520629883,-19.950000762939453,-33.45000076293945,-3.0
0.91,76.11646270751953,-5.899312973022461,12.22000503540039,-5.995405673980713,5.728943347930908,-21.050535202026367,-19.950000762939453,-33.45000076293945,-3.0
0.92,76.03984832763672,-5.018246650695801,12.756306648254395,6.261868000030518,-5.462480545043945,-15.055130004882812,-20.55000114440918,-34.80000305175781,-3.6000001430511475
0.93,75.65677642822266,-6.550535678863525,13.407529830932617,6.794793128967285,-4.663093090057373,-12.656967163085938,-18.30000114440918,-33.150001525878906,-3.3000001907348633
0.94,77.53382873535156,-7.201758861541748,12.02846908569336,-1.9984685182571411,4.796324729919434,-23.581928253173828,-20.25,-35.55000305175781,-4.350000381469727
0.96,77.61044311523438,-7.7763671875,11.836933135986328,1.5987749099731445,-3.0643184185028076,-21.983154296875,-20.400001525878906,-34.5,-3.450000047683716
0.964,77.95520782470703,-3.44765043258667,10.764330863952637,3.3307809829711914,0.2664624750614166,-9.459418296813965,-20.400001525878906,-34.5,-3.450000047683716
0.97,77.99351501464844,-4.32871675491333,11.453861236572266,-2.2649309635162354,2.398162364959717,-20.251148223876953,-21.30000114440918,-33.150001525878906,-3.3000001907348633
0.98,78.68304443359375,-2.4899697303771973,11.262324333190918,-1.8652373552322388,7.860642910003662,-26.246553421020508,-20.400001525878906,-34.20000076293945,-3.750000238418579
0.99,78.10843658447266,-3.869029998779297,10.955866813659668,3.0643184185028076,-5.995405673980713,-15.45482349395752,-19.80000114440918,-34.35000228881836,-3.9000000953674316
1.009,77.84028625488281,-3.179499864578247,11.1474027633667,-7.327718257904053,2.531393527984619,-29.7105655670166,-21.450000762939453,-33.45000076293945,-4.5
1.013,77.30398559570312,-3.294421434402466,11.683704376220703,-4.396630764007568,-5.995405673980713,-24.781009674072266,-21.450000762939453,-33.45000076293945,-4.5
1.02,77.26567840576172,-2.030282974243164,11.798625946044922,-10.658498764038086,-0.39969372749328613,-12.656967163085938,-21.150001525878906,-33.0,-4.200000286102295
1.03,76.92091369628906,1.1875240802764893,11.760318756103516,-9.859111785888672,8.526799201965332,-20.91730499267578,-20.25,-33.60000228881836,-3.3000001907348633
1.04,76.76768493652344,2.3367409706115723,11.645397186279297,-14.522205352783203,18.652372360229492,-17.053598403930664,-20.700000762939453,-33.75,-3.750000238418579
1.05,77.57213592529297,3.3710360527038574,11.875240325927734,-12.523736000061035,23.848390579223633,-14.92189884185791,-21.30000114440918,-33.900001525878906,-3.6000001430511475
1.06,78.4148941040039,0.6129156351089478,11.109095573425293,-11.724349021911621,14.388973236083984,-9.592649459838867,-21.150001525878906,-34.5,-5.25
1.079,77.99351501464844,-0.727837324142456,7.738059997558594,-27.578866958618164,24.11485481262207,-4.663093090057373,-20.400001525878906,-33.45000076293945,-3.750000238418579
1.083,77.41890716552734,-3.3710360527038574,5.899312973022461,-34.10719680786133,23.848390579223633,-5.728943347930908,-20.400001525878906,-33.45000076293945,-3.750000238418579
1.09,76.34630584716797,-3.6391866207122803,7.2783732414245605,-28.911178588867188,12.25727367401123,5.329249382019043,-20.700000762939453,-33.0,-3.750000238418579
1.1,77.30398559570312,-4.252102375030518,9.155426979064941,-30.37672233581543,18.2526798248291,4.263399600982666,-22.05000114440918,-31.650001525878906,-5.400000095367432
1.11,76.92091369628906,-7.048529624938965,11.798625946044922,-19.584991455078125,12.523736000061035,5.329249382019043,-19.650001525878906,-33.75,-3.450000047683716
1.129,78.989501953125,-5.631162166595459,15.705963134765625,-11.591117858886719,8.39356803894043,1.9984685182571411,-19.650001525878906,-33.75,-3.450000047683716
1.133,77.99351501464844,-5.899312973022461,18.77054214477539,0.39969372749328613,-2.131699800491333,25.04747200012207,-21.150001525878906,-34.20000076293945,-3.450000047683716
1.14,75.81000518798828,-3.7158010005950928,21.030668258666992,-12.923430442810059,5.728943347930908,25.313934326171875,-20.700000762939453,-33.75,-3.450000047683716
1.15,75.8866195678711,-2.4899697303771973,20.95405387878418,-10.125574111938477,2.797856092453003,22.51607894897461,-20.55000114440918,-34.35000228881836,-3.9000000953674316
1.16,75.31201171875,3.2561142444610596,20.149600982666016,1.8652373552322388,-11.457886695861816,33.04134750366211,-21.75,-32.85000228881836,-3.9000000953674316
1.17,75.19709014892578,7.5848307609558105,19.306842803955078,4.796324729919434,-15.45482349395752,33.70750427246094,-21.75,-32.85000228881836,-3.9000000953674316
1.18,76.00154113769531,8.772355079650879,18.004396438598633,2.797856092453003,-15.055130004882812,22.116384506225586,-21.75,-32.85000228881836,-3.9000000953674316
1.197,75.46524047851562,7.508216381072998,18.004396438598633,-3.4640121459960938,-26.379785537719727,31.575803756713867,-20.700000762939453,-34.5,-3.750000238418579
1.201,74.12448120117188,-3.2561142444610596,16.740259170532227,-7.327718257904053,-21.716691970825195,27.71209716796875,-20.700000762939453,-34.5,-3.750000238418579
1.21,75.00555419921875,-3.754108190536499,15.437812805175781,-5.329249382019043,-23.182235717773438,36.5053596496582,-21.0,-32.85000228881836,-2.8500001430511475
1.22,77.7253646850586,-5.056553840637207,17.276559829711914,5.062787055969238,-34.64012145996094,39.30321502685547,-22.05000114440918,-34.35000228881836,-5.100000381469727
1.23,80.90486145019531,-7.929595947265625,17.353174209594727,16.78713607788086,-52.226646423339844,50.4946403503418,-22.05000114440918,-34.35000228881836,-5.100000381469727
1.249,80.48348236083984,-9.653421401977539,16.89348793029785,16.520673751831055,-58.222049713134766,60.88667678833008,-19.05000114440918,-33.900001525878906,-2.8500001430511475
1.253,77.49552154541016,-9.500192642211914,16.433799743652344,18.385910034179688,-55.95711898803711,44.63246536254883,-19.650001525878906,-32.25,-5.25
1.26,78.10843658447266,-11.224017143249512,15.85919189453125,8.793261528015137,-55.4241943359375,50.4946403503418,-19.650001525878906,-32.25,-5.25
1.27,80.7899398803711,-12.832921028137207,13.254301071166992,-5.196018218994141,-63.551300048828125,60.08728790283203,-19.650001525878906,-35.25,-6.0
1.28,81.55608367919922,-15.054739952087402,8.044517517089844,-14.788667678833008,-59.287899017333984,47.0306282043457,-19.650001525878906,-35.25,-6.0
1.29,78.79796600341797,-8.810662269592285,2.0685901641845703,-13.722817420959473,-52.89280319213867,46.764163970947266,-18.30000114440918,-35.10000228881836,-6.150000095367432
1.31,76.46122741699219,-0.5363011956214905,2.75812029838562,-4.529861927032471,-47.0306282043457,44.89892578125,-20.25,-34.80000305175781,-5.400000095367432
1.313,76.80599212646484,3.294421434402466,3.9839515686035156,14.388973236083984,-48.62940216064453,60.22052001953125,-19.5,-34.35000228881836,-6.150000095367432
1.32,73.81802368164062,5.171475887298584,1.7621324062347412,20.38437843322754,-31.842266082763672,49.02909469604492,-19.200000762939453,-34.35000228881836,-6.150000095367432
1.33,73.97125244140625,1.1492167711257935,1.647210717201233,25.580398559570312,-22.51607894897461,45.03215789794922,-19.200000762939453,-35.70000076293945,-5.700000286102295
1.34,80.02379608154297,-9.232041358947754,-2.9496564865112305,34.24042892456055,-21.183767318725586,55.15773391723633,-19.200000762939453,-35.70000076293945,-5.700000286102295
1.35,79.79395294189453,-19.038692474365234,-6.358999729156494,11.724349021911621,-7.06125545501709,51.82695007324219,-18.900001525878906,-35.55000305175781,-5.400000095367432
1.369,76.07815551757812,-19.99637222290039,-3.485957622528076,21.316997528076172,6.661561965942383,52.75957107543945,-18.900001525878906,-36.150001525878906,-5.700000286102295
1.372,77.22737121582031,-13.139378547668457,2.6815059185028076,29.7105655670166,5.462480545043945,61.41960144042969,-18.150001525878906,-37.20000076293945,-6.0
1.38,76.65276336669922,-6.090848922729492,2.4899697303771973,28.77794647216797,12.25727367401123,56.09035110473633,-18.150001525878906,-37.20000076293945,-6.0
1.39,75.9249267578125,-6.435614109039307,6.052541732788086,19.98468589782715,13.989279747009277,41.168453216552734,-18.30000114440918,-36.30000305175781,-5.400000095367432
1.4,77.53382873535156,-10.496180534362793,5.70777702331543,22.116384506225586,17.053598403930664,52.093414306640625,-18.900001525878906,-37.650001525878906,-5.700000286102295
1.41,78.79796600341797,-9.768342971801758,1.37906014919281,14.92189884185791,16.25421142578125,56.49004364013672,-19.05000114440918,-36.30000305175781,-6.600000381469727
1.43,77.34229278564453,-9.53849983215332,9.193734169006348,20.117916107177734,30.776416778564453,49.82848358154297,-18.900001525878906,-36.900001525878906,-6.0
1.433,79.79395294189453,-15.131354331970215,10.687716484069824,19.45176124572754,17.986217498779297,58.888206481933594,-18.900001525878906,-36.900001525878906,-6.0
1.44,77.41890716552734,-15.85919189453125,8.006210327148438,8.127105712890625,14.522205352783203,46.364471435546875,-17.700000762939453,-36.45000076293945,-4.5
1.45,78.9511947631836,-16.127342224121094,11.875240325927734,3.197549819946289,12.523736000061035,47.9632453918457,-19.5,-37.80000305175781,-5.400000095367432
1.46,76.26969146728516,-17.046716690063477,14.441824913024902,-4.663093090057373,16.920366287231445,46.63093185424805,-19.05000114440918,-37.5,-4.650000095367432
1.47,74.6607894897461,-20.41775131225586,13.867216110229492,14.388973236083984,12.523736000061035,37.17151641845703,-15.15000057220459,-36.45000076293945,-5.700000286102295
1.489,77.84028625488281,-17.966089248657227,17.73624610900879,16.920366287231445,-3.7304747104644775,24.781009674072266,-19.05000114440918,-36.30000305175781,-5.400000095367432
1.493,77.38059997558594,-14.939818382263184,5.324704647064209,9.72588062286377,-4.929555892944336,46.897396087646484,-19.05000114440918,-36.30000305175781,-5.400000095367432
1.5,76.42292022705078,-14.326903343200684,8.848969459533691,-4.529861927032471,5.462480545043945,42.101070404052734,-19.05000114440918,-37.80000305175781,-4.650000095367432
1.51,80.48348236083984,-12.564770698547363,11.836933135986328,-5.462480545043945,-7.860642910003662,44.49923324584961,-17.700000762939453,-37.650001525878906,-4.5
1.52,76.5761489868164,-8.427590370178223,13.10107135772705,5.595712184906006,-9.059723854064941,51.693721771240234,-18.0,-37.80000305175781,-5.850000381469727
1.53,75.9632339477539,-12.871228218078613,13.828908920288086,-4.796324729919434,0.2664624750614166,38.23736572265625,-18.450000762939453,-37.650001525878906,-4.5
1.55,77.03583526611328,-18.081010818481445,9.155426979064941,2.398162364959717,-11.457886695861816,34.10719680786133,-18.450000762939453,-37.650001525878906,-4.5
1.553,76.07815551757812,-20.187908172607422,4.8267107009887695,-11.724349021911621,3.4640121459960938,37.17151641845703,-18.0,-37.80000305175781,-5.400000095367432
1.56,77.1124496459961,-18.004396438598633,7.814674377441406,-13.056661605834961,-0.39969372749328613,31.44257164001465,-16.950000762939453,-36.900001525878906,-4.950000286102295
1.57,76.07815551757812,-16.1656494140625,10.15141487121582,-19.185298919677734,-3.597243309020996,35.439510345458984,-18.150001525878906,-38.400001525878906,-3.750000238418579
1.58,74.81401824951172,-14.633360862731934,10.113107681274414,-13.722817420959473,-6.395099639892578,34.50688934326172,-18.0,-38.25,-4.350000381469727
1.59,76.03984832763672,-17.774553298950195,6.627150535583496,-17.186830520629883,-3.197549819946289,34.50688934326172,-16.05000114440918,-36.60000228881836,-5.400000095367432
1.61,79.83226013183594,-22.562957763671875,4.596867084503174,-27.978559494018555,-6.661561965942383,23.848390579223633,-16.05000114440918,-36.60000228881836,-5.400000095367432
1.613,77.1890640258789,-21.643583297729492,2.298433542251587,-21.316997528076172,9.859111785888672,15.188361167907715,-17.55000114440918,-38.25,-7.350000381469727
1.62,78.9511947631836,-19.115306854248047,7.4316020011901855,-8.39356803894043,4.263399600982666,21.45022964477539,-18.30000114440918,-39.0,-6.150000095367432
1.63,78.87458038330078,-19.153614044189453,5.4013190269470215,-4.130168437957764,2.6646246910095215,15.321592330932617,-17.55000114440918,-38.25,-5.850000381469727
1.64,72.66880798339844,-20.341136932373047,5.669469833374023,-12.124042510986328,11.857580184936523,4.663093090057373,-18.150001525878906,-37.95000076293945,-4.5
1.65,72.4772720336914,-26.700138092041016,9.806650161743164,-11.990811347961426,3.0643184185028076,-6.661561965942383,-18.150001525878906,-37.95000076293945,-4.5
1.67,82.85853576660156,-26.01060676574707,0.9959878921508789,-24.781009674072266,11.058192253112793,-8.660030364990234,-17.25,-39.0,-4.650000095367432
1.673,80.75163269042969,-24.554933547973633,7.393294811248779,-26.513015747070312,8.127105712890625,-21.45022964477539,-17.55000114440918,-37.80000305175781,-5.850000381469727
1.68,78.989501953125,-18.081010818481445,6.665457725524902,-17.186830520629883,-0.9326186776161194,-16.520673751831055,-17.55000114440918,-38.55000305175781,-6.150000095367432
1.69,78.22335815429688,-16.28057098388672,11.338939666748047,-8.526799201965332,1.7320060729980469,-31.842266082763672,-17.700000762939453,-40.650001525878906,-6.750000476837158
1.7,76.19307708740234,-17.085023880004883,10.457873344421387,-7.327718257904053,3.197549819946289,-42.101070404052734,-18.30000114440918,-37.5,-6.150000095367432
1.71,75.58016204833984,-19.843143463134766,11.070788383483887,-9.192955017089844,0.0,-32.24195861816406,-18.30000114440918,-37.5,-6.150000095367432
1.73,78.07012939453125,-19.230228424072266,10.41956615447998,1.7320060729980469,-4.663093090057373,-34.64012145996094,-18.450000762939453,-38.400001525878906,-5.25
1.734,75.65677642822266,-16.012420654296875,10.496180534362793,8.260336875915527,0.7993874549865723,-25.7136287689209,-18.450000762939453,-37.650001525878906,-4.5
1.74,73.93294525146484,-14.556746482849121,9.768342971801758,17.986217498779297,4.796324729919434,-29.977027893066406,-18.450000762939453,-38.400001525878906,-6.0
1.75,75.50354766845703,-15.361198425292969,6.512228488922119,29.444103240966797,0.2664624750614166,-22.249616622924805,-16.80000114440918,-36.30000305175781,-5.100000381469727
1.76,73.54987335205078,-12.871228218078613,4.481945514678955,35.03981399536133,10.525267601013184,-29.31087303161621,-16.80000114440918,-36.30000305175781,-5.100000381469727
1.77,70.75344848632812,-13.292608261108398,1.5322890281677246,30.24349021911621,24.51454734802246,-26.513015747070312,-17.400001525878906,-37.650001525878906,-5.25
1.79,73.97125244140625,-16.66364288330078,-1.9153614044189453,21.45022964477539,26.912710189819336,-24.64777946472168,-18.150001525878906,-37.95000076293945,-4.950000286102295
1.793,76.03984832763672,-15.667655944824219,-4.63517427444458,28.111791610717773,39.70290756225586,-15.188361167907715,-18.30000114440918,-38.25,-5.400000095367432
1.8,71.63451385498047,-12.143390655517578,-0.49799394607543945,18.2526798248291,53.026031494140625,-14.12251091003418,-18.30000114440918,-36.60000228881836,-4.650000095367432
1.81,75.42693328857422,-11.070788383483887,-0.2298433631658554,14.388973236083984,58.888206481933594,-0.9326186776161194,-18.450000762939453,-37.650001525878906,-5.25
1.82,77.84028625488281,-13.10107135772705,3.44765043258667,12.124042510986328,50.62786865234375,-6.5283308029174805,-18.450000762939453,-37.650001525878906,-5.25
1.83,77.57213592529297,-13.599065780639648,9.423578262329102,4.263399600982666,47.297088623046875,10.258805274963379,-17.400001525878906,-37.20000076293945,-4.950000286102295
1.85,76.30799865722656,-8.810662269592285,10.611102104187012,3.9969370365142822,57.955589294433594,4.396630764007568,-18.30000114440918,-37.5,-5.400000095367432
1.854,75.54185485839844,-8.427590370178223,17.697938919067383,18.652372360229492,49.56201934814453,25.04747200012207,-18.75,-37.80000305175781,-4.650000095367432
1.86,74.81401824951172,-8.465897560119629,17.276559829711914,23.715160369873047,52.226646423339844,37.97090148925781,-18.450000762939453,-37.650001525878906,-4.5
1.87,74.92893981933594,-12.564770698547363,15.744270324707031,17.186830520629883,51.960182189941406,22.915773391723633,-18.450000762939453,-37.650001525878906,-4.5
1.88,78.26166534423828,-13.637372970581055,15.093047142028809,6.128636837005615,54.62480926513672,35.57273864746094,-17.400001525878906,-38.400001525878906,-3.0
1.89,75.69508361816406,-9.653421401977539,18.11931800842285,10.125574111938477,44.36600112915039,39.70290756225586,-18.30000114440918,-38.55000305175781,-2.8500001430511475
1.909,73.0901870727539,-13.177685737609863,14.709975242614746,11.591117858886719,44.23276901245117,55.15773391723633,-19.05000114440918,-37.5,-2.1000001430511475
1.913,76.42292022705078,-18.847156524658203,12.48815631866455,-6.661561965942383,46.364471435546875,51.160797119140625,-19.650001525878906,-38.400001525878906,-3.750000238418579
1.92,69.56592559814453,-23.175872802734375,13.292608261108398,-10.125574111938477,51.560489654541016,48.8958625793457,-19.650001525878906,-38.400001525878906,-3.750000238418579
1.93,72.24742889404297,-24.095245361328125,13.637372970581055,-13.323123931884766,45.831546783447266,50.4946403503418,-19.650001525878906,-38.400001525878906,-3.750000238418579
1.94,79.5641098022461,-21.222204208374023,13.369222640991211,-19.31852912902832,55.82388687133789,40.102603912353516,-18.150001525878906,-39.150001525878906,-2.700000047683716
1.95,76.19307708740234,-18.847156524658203,14.786589622497559,-13.456355094909668,46.897396087646484,38.63705825805664,-19.5,-39.75,-2.1000001430511475
1.971,82.0540771484375,-21.26051139831543,10.917559623718262,-8.127105712890625,38.23736572265625,40.635528564453125,-18.0,-38.55000305175781,-1.0500000715255737
1.974,83.27991485595703,-20.685903549194336,15.093047142028809,-9.192955017089844,38.10413360595703,26.64624786376953,-17.700000762939453,-39.150001525878906,-3.450000047683716
1.98,76.80599212646484,-19.613300323486328,18.617311477661133,-17.852985382080078,49.42878723144531,29.31087303161621,-17.700000762939453,-39.150001525878906,-3.450000047683716
1.99,79.79395294189453,-20.187908172607422,19.728221893310547,-19.85145378112793,38.90352249145508,33.57427215576172,-17.700000762939453,-38.400001525878906,-1.9500000476837158
2.0,76.30799865722656,-18.195932388305664,17.42978858947754,-26.513015747070312,28.644716262817383,39.03675079345703,-18.450000762939453,-38.85000228881836,-2.700000047683716
2.01,74.62248229980469,-15.054739952087402,22.754493713378906,-28.378253936767578,33.4410400390625,25.313934326171875,-17.700000762939453,-39.150001525878906,-2.25
2.029,77.22737121582031,-18.88546371459961,22.754493713378906,-29.577335357666016,31.709033966064453,23.581928253173828,-17.400001525878906,-39.150001525878906,-2.700000047683716
2.033,77.1124496459961,-24.36339569091797,20.64759635925293,-13.722817420959473,14.522205352783203,1.4655436277389526,-16.950000762939453,-39.150001525878906,-3.450000047683716
2.04,83.81621551513672,-24.746469497680664,17.889474868774414,-24.64777946472168,18.519142150878906,-4.529861927032471,-16.950000762939453,-39.150001525878906,-3.450000047683716
2.05,77.68705749511719,-17.889474868774414,9.346963882446289,-34.773353576660156,21.183767318725586,-7.594180583953857,-17.400001525878906,-37.20000076293945,-1.9500000476837158
2.06,77.49552154541016,-18.808849334716797,16.433799743652344,-44.89892578125,6.9280242919921875,6.9280242919921875,-18.0,-38.55000305175781,-2.8500001430511475
2.07,81.4028549194336,-11.109095573425293,24.095245361328125,-23.315465927124023,4.529861927032471,5.196018218994141,-18.30000114440918,-40.5,-2.5500001907348633
2.09,76.23138427734375,-13.79060173034668,20.034679412841797,-21.45022964477539,12.656967163085938,4.396630764007568,-17.25,-39.75,-3.9000000953674316
2.093,77.84028625488281,-21.98834800720215,12.756306648254395,-30.37672233581543,8.793261528015137,10.525267601013184,-17.700000762939453,-38.400001525878906,-1.9500000476837158
2.1,73.32003021240234,-20.992361068725586,17.1999454498291,-37.03828430175781,11.324655532836914,14.388973236083984,-17.700000762939453,-38.400001525878906,-1.9500000476837158
2.11,74.85232543945312,-16.931795120239258,19.99637222290039,-53.159263610839844,13.323123931884766,20.91730499267578,-17.400001525878906,-39.60000228881836,-2.700000047683716
2.12,75.15878295898438,-15.207969665527344,23.712173461914062,-55.69065856933594,16.520673751831055,15.45482349395752,-16.950000762939453,-39.60000228881836,-3.0
2.13,76.72937774658203,-18.617311477661133,22.677879333496094,-62.485450744628906,20.251148223876953,25.980091094970703,-18.30000114440918,-38.25,-4.650000095367432
2.149,71.02159881591797,-24.746469497680664,34.43819808959961,-79.40581512451172,19.98468589782715,24.914241790771484,-18.30000114440918,-38.25,-4.650000095367432
2.153,77.763671875,-20.915746688842773,18.195932388305664,-85.26799011230469,19.052066802978516,21.84992218017578,-18.0,-37.80000305175781,-3.3000001907348633
2.16,78.3765869140625,-18.157625198364258,22.333112716674805,-85.93415069580078,18.119447708129883,24.781009674072266,-17.55000114440918,-39.75,-3.3000001907348633
2.17,73.74140930175781,-14.518439292907715,21.337125778198242,-64.61714935302734,12.124042510986328,46.09800720214844,-17.700000762939453,-38.85000228881836,-4.200000286102295
2.18,73.7031021118164,-7.240066051483154,21.911733627319336,-46.63093185424805,15.588054656982422,46.897396087646484,-17.700000762939453,-38.85000228881836,-4.200000286102295
2.19,75.8866195678711,-9.423578262329102,16.395492553710938,-25.313934326171875,15.188361167907715,60.08728790283203,-17.55000114440918,-76.6500015258789,-4.200000286102295
2.209,76.88260650634766,-16.778566360473633,9.117119789123535,-26.912710189819336,16.65390396118164,64.084228515625,-16.200000762939453,-38.85000228881836,-3.750000238418579
2.213,75.69508361816406,-15.054739952087402,7.623138427734375,-12.656967163085938,11.857580184936523,83.66921997070312,-16.80000114440918,-38.25,-4.650000095367432
2.22,74.46924591064453,-14.863204002380371,4.788403511047363,-8.926492691040039,8.660030364990234,88.865234375,-17.25,-39.0,-3.6000001430511475
2.23,75.61846923828125,-15.667655944824219,4.098873138427734,5.329249382019043,15.987748146057129,92.86217498779297,-16.950000762939453,-40.35000228881836,-4.5
2.24,74.81401824951172,-20.494365692138672,7.661445617675781,7.194486618041992,14.388973236083984,113.24655151367188,-16.950000762939453,-40.35000228881836,-4.5
2.25,74.46924591064453,-28.040889739990234,8.925583839416504,-7.06125545501709,10.791729927062988,115.51148223876953,-17.700000762939453,-39.60000228881836,-3.450000047683716
2.269,74.16278839111328,-26.278757095336914,6.282385349273682,-8.526799201965332,18.2526798248291,112.58039855957031,-16.5,-40.5,-4.350000381469727
2.273,74.00955963134766,-21.26051139831543,14.326903343200684,2.531393527984619,26.246553421020508,121.3736572265625,-16.80000114440918,-41.25,-4.650000095367432
2.28,73.664794921875,-25.321077346801758,26.470293045043945,4.529861927032471,19.584991455078125,132.9647674560547,-16.05000114440918,-40.20000076293945,-3.9000000953674316
2.29,74.43093872070312,-32.063148498535156,23.63555908203125,-32.5084228515625,28.511484146118164,121.77335357666016,-16.05000114440918,-40.20000076293945,-3.9000000953674316
2.3,77.1507568359375,-40.452430725097656,25.359384536743164,-60.35375213623047,22.915773391723633,114.3124008178711,-16.200000762939453,-41.85000228881836,-4.5
2.31,78.989501953125,-41.98472213745117,22.448034286499023,-87.9326171875,22.51607894897461,128.83460998535156,-15.300000190734863,-41.70000076293945,-3.3000001907348633
2.329,79.98548889160156,-31.29700469970703,19.958065032958984,-98.72434997558594,26.64624786376953,122.70597076416016,-15.90000057220459,-40.35000228881836,-6.0
2.333,83.96944427490234,-37.924156188964844,9.806650161743164,-119.10872650146484,37.03828430175781,122.43950653076172,-14.40000057220459,-41.85000228881836,-3.750000238418579
2.34,83.08837890625,-40.567352294921875,6.818686485290527,-132.6983184814453,22.249616622924805,126.16998291015625,-14.40000057220459,-41.85000228881836,-3.750000238418579
2.35,85.96141815185547,-34.85957717895508,4.443638324737549,-118.44257354736328,21.45022964477539,133.76416015625,-14.40000057220459,-41.85000228881836,-3.750000238418579
2.36,88.75784301757812,-17.046716690063477,5.324704647064209,-87.66615295410156,8.526799201965332,147.75344848632812,-13.950000762939453,-41.55000305175781,-5.25
2.37,94.23577880859375,-11.875240325927734,-4.060565948486328,-57.689125061035156,-2.531393527984619,159.61102294921875,-15.000000953674316,-41.25,-4.350000381469727
2.389,97.53019714355469,-19.345149993896484,-0.9576807022094727,-30.90964698791504,-13.189892768859863,165.73965454101562,-14.40000057220459,-41.85000228881836,-6.300000190734863
2.393,100.59477996826172,-23.9420166015625,6.167463779449463,-25.04747200012207,-11.324655532836914,172.6676788330078,-14.550000190734863,-42.900001525878906,-5.100000381469727
2.4,97.6068115234375,-27.88766098022461,11.60708999633789,-30.643184661865234,-9.326186180114746,163.4747314453125,-14.550000190734863,-42.900001525878906,-5.100000381469727
2.41,94.31239318847656,-34.782962799072266,12.411541938781738,-47.830013275146484,-22.51607894897461,171.46859741210938,-12.450000762939453,-41.85000228881836,-5.700000286102295
2.42,94.15916442871094,-41.29519271850586,12.7946138381958,-86.73353576660156,-28.24502182006836,160.54364013671875,-15.000000953674316,-42.45000076293945,-3.9000000953674316
2.43,93.12487030029297,-41.02703857421875,16.395492553710938,-131.49923706054688,-23.848390579223633,168.67074584960938,-12.450000762939453,-42.30000305175781,-6.0
2.449,95.99790954589844,-29.305028915405273,18.923770904541016,-148.4196014404297,-32.64165496826172,167.6049041748047,-14.550000190734863,-42.150001525878906,-5.850000381469727
2.453,102.66336822509766,-19.306842803955078,25.933992385864258,-197.58192443847656,-24.64777946472168,173.0673828125,-14.550000190734863,-42.150001525878906,-5.850000381469727
2.46,104.04242706298828,-23.02264404296875,31.41192626953125,-249.80856323242188,-17.186830520629883,172.80091857910156,-12.90000057220459,-43.5,-4.5
2.47,110.6695785522461,-25.28277015686035,22.677879333496094,-349.3323059082031,-26.64624786376953,185.19142150878906,-11.550000190734863,-42.45000076293945,-6.150000095367432
2.48,112.24017333984375,-20.685903549194336,14.250288963317871,-410.8851318359375,-30.24349021911621,202.11178588867188,-11.25,-42.900001525878906,-7.350000381469727
2.49,116.56889343261719,-2.1068975925445557,4.788403511047363,-450.98773193359375,-22.649311065673828,210.90504455566406,-10.800000190734863,-42.45000076293945,-8.700000762939453
2.509,110.1332778930664,23.290794372558594,-1.647210717201233,-364.6539001464844,-16.65390396118164,210.50535583496094,-10.800000190734863,-40.5,-9.450000762939453
2.513,107.75823211669922,38.38384246826172,-13.79060173034668,-336.8085632324219,-14.92189884185791,224.76109313964844,-10.800000190734863,-40.5,-9.450000762939453
2.52,107.22193145751953,37.311241149902344,-14.250288963317871,-269.52679443359375,-24.248085021972656,247.2771759033203,-10.050000190734863,-39.0,-9.15000057220459
2.53,105.80455780029297,28.73042106628418,-10.074800491333008,-153.0826873779297,-42.36753463745117,273.25726318359375,-9.0,-40.5,-11.700000762939453
2.54,109.5203628540039,10.342951774597168,-11.1474027633667,24.914241790771484,-37.97090148925781,339.7396545410156,-9.90000057220459,-40.650001525878906,-11.550000190734863
2.55,117.10519409179688,1.1109095811843872,9.653421401977539,152.949462890625,-59.15467071533203,397.9617004394531,-9.300000190734863,-39.30000305175781,-11.700000762939453
2.569,124.11541748046875,8.465897560119629,27.044902801513672,235.15313720703125,-37.70444107055664,405.15618896484375,-9.300000190734863,-39.30000305175781,-11.700000762939453
2.573,90.55828857421875,-11.262324333190918,53.74504089355469,276.7212829589844,22.116384506225586,428.7381286621094,-7.050000190734863,-43.20000076293945,-11.40000057220459
2.58,89.75382995605469,-16.81687355041504,53.8216552734375,185.85757446289062,18.2526798248291,411.2848205566406,-6.750000476837158,-41.25,-8.700000762939453
2.59,89.06430053710938,-25.972299575805664,28.347347259521484,113.77947998046875,65.54976654052734,298.97088623046875,-5.400000095367432,-41.55000305175781,-9.0
2.6,75.61846923828125,-33.672054290771484,38.38384246826172,46.364471435546875,85.00152587890625,264.1975402832031,-6.150000095367432,-43.5,-7.500000476837158
2.61,86.34449005126953,-26.929981231689453,36.27694320678711,-56.62327575683594,72.21133422851562,208.3736572265625,-6.150000095367432,-43.5,-7.500000476837158
2.629,103.85089111328125,1.455674648284912,16.89348793029785,-174.79937744140625,35.57273864746094,28.111791610717773,-3.9000000953674316,-42.60000228881836,-8.550000190734863
2.632,72.43896484375,27.77273941040039,1.4173674583435059,-177.73046875,38.10413360595703,9.992342948913574,-3.9000000953674316,-42.60000228881836,-8.550000190734863
2.64,66.5013427734375,29.075185775756836,-0.4596867263317108,-179.72894287109375,42.101070404052734,-33.4410400390625,-4.800000190734863,-41.25,-9.450000762939453
2.65,60.48711013793945,30.415939331054688,-0.6129156351089478,-151.6171417236328,24.781009674072266,-79.0061264038086,-3.1500000953674316,-41.85000228881836,-10.800000190734863
2.66,60.1806526184082,22.792800903320312,-3.1028854846954346,-110.58192443847656,29.577335357666016,-157.74578857421875,-4.650000095367432,-40.650001525878906,-10.050000190734863
2.67,56.80961608886719,16.66364288330078,-0.9576807022094727,-73.27718353271484,37.4379768371582,-232.62173461914062,-4.650000095367432,-40.650001525878906,-10.050000190734863
2.689,47.19450378417969,14.288596153259277,4.175487995147705,-28.911178588867188,31.842266082763672,-282.4502258300781,-3.9000000953674316,-38.400001525878906,-10.350000381469727
2.693,37.57939147949219,24.44001007080078,11.60708999633789,60.35375213623047,35.972434997558594,-348.9326171875,-4.5,-39.0,-11.40000057220459
2.7,37.311241149902344,22.60126495361328,12.449849128723145,94.46094512939453,49.02909469604492,-394.0979919433594,-3.450000047683716,-38.85000228881836,-11.550000190734863
2.71,36.621707916259766,17.73624610900879,15.131354331970215,131.23277282714844,50.22817611694336,-421.1439514160156,-4.5,-38.25,-12.0
2.72,40.145973205566406,10.381258964538574,17.046716690063477,168.27105712890625,42.76722717285156,-474.9693603515625,-4.5,-38.25,-12.0
2.73,48.037261962890625,2.8347349166870117,17.889474868774414,188.78866577148438,43.03369140625,-523.1990966796875,-5.25,-39.0,-11.700000762939453
2.747,53.51519775390625,-2.9496564865112305,18.04270362854004,218.76568603515625,33.17457962036133,-567.4318237304688,-3.1500000953674316,-39.60000228881836,-11.550000190734863
2.75,63.51338195800781,-18.387468338012695,15.361198425292969,212.23736572265625,25.980091094970703,-584.0857543945312,-3.1500000953674316,-39.60000228881836,-11.550000190734863
2.76,67.34410858154297,-22.37141990661621,14.09705924987793,186.25726318359375,19.45176124572754,-612.197509765625,-3.0,-41.25,-12.450000762939453
2.77,74.54586791992188,-34.476505279541016,13.10107135772705,144.1562042236328,17.986217498779297,-648.8361206054688,-3.0,-41.25,-12.450000762939453
2.78,82.0157699584961,-43.82346725463867,12.29662036895752,108.18376159667969,0.6661561727523804,-674.949462890625,-3.0,-41.25,-12.450000762939453
2.79,90.02198028564453,-48.88002014160156,7.929595947265625,67.01531219482422,-38.50382614135742,-703.8606567382812,-4.800000190734863,-44.85000228881836,-9.15000057220459
2.803,94.19747161865234,-47.80741882324219,6.129156112670898,35.306278228759766,-51.560489654541016,-724.511474609375,-6.900000095367432,-46.95000076293945,-7.050000190734863
2.81,101.32261657714844,-47.232810974121094,8.734047889709473,18.119447708129883,-61.01990509033203,-713.9862060546875,-6.900000095367432,-46.95000076293945,-7.050000190734863
2.82,106.72393798828125,-47.845726013183594,14.135366439819336,28.77794647216797,-75.00918579101562,-707.9907836914062,-7.650000095367432,-49.20000076293945,-6.750000476837158
2.83,109.94174194335938,-45.892059326171875,16.81687355041504,41.701377868652344,-77.27411651611328,-702.7947998046875,-7.650000095367432,-49.20000076293945,-6.750000476837158
2.84,112.20186614990234,-37.46446990966797,19.07699966430664,66.882080078125,-73.67687225341797,-702.7947998046875,-14.250000953674316,-48.60000228881836,-5.850000381469727
2.85,113.92569732666016,-34.82126998901367,17.468095779418945,95.9264907836914,-61.41960144042969,-683.2097778320312,-16.80000114440918,-49.500003814697266,-4.350000381469727
2.869,113.38938903808594,-41.5250358581543,17.774553298950195,112.31393432617188,-63.28483963012695,-656.0306396484375,-22.650001525878906,-48.45000076293945,-3.750000238418579
2.873,115.53459930419922,-61.90447998046875,12.105083465576172,83.00305938720703,-29.977027893066406,-660.5604858398438,-22.650001525878906,-48.45000076293945,-3.750000238418579
2.88,114.92168426513672,-66.84611511230469,11.30063247680664,49.02909469604492,-17.986217498779297,-667.88818359375,-22.650001525878906,-48.45000076293945,-3.750000238418579
2.89,116.10920715332031,-70.67683410644531,12.871228218078613,0.5329249501228333,-20.517610549926758,-663.22509765625,-29.250001907348633,-45.900001525878906,-2.1000001430511475
2.9,122.23836517333984,-72.97526550292969,12.334927558898926,-82.47013854980469,-3.4640121459960938,-653.2327880859375,-30.750001907348633,-42.150001525878906,-2.1000001430511475
2.91,123.61742401123047,-73.89463806152344,4.596867084503174,-114.57886505126953,2.2649309635162354,-610.5987548828125,-34.20000076293945,-41.55000305175781,-1.9500000476837158
2.922,119.40362548828125,-68.22517395019531,0.3064578175544739,-150.151611328125,4.796324729919434,-567.4318237304688,-37.05000305175781,-33.150001525878906,-0.6000000238418579
2.93,118.10118103027344,-60.10403823852539,-0.38307225704193115,-148.8192901611328,9.992342948913574,-539.7197265625,-37.05000305175781,-33.150001525878906,-0.6000000238418579
2.94,113.1978530883789,-59.41450881958008,4.213795185089111,-114.3124008178711,22.51607894897461,-478.83306884765625,-37.05000305175781,-33.150001525878906,-0.6000000238418579
2.95,107.0687026977539,-70.33206939697266,11.798625946044922,-81.13782501220703,39.16998291015625,-422.6094970703125,-41.400001525878906,-28.350000381469727,-0.45000001788139343
2.96,106.30255889892578,-80.40686798095703,12.105083465576172,-61.552833557128906,40.502296447753906,-306.83154296875,-41.25,-25.05000114440918,-0.6000000238418579
2.97,104.42549896240234,-75.58016204833984,-0.07661445438861847,-49.42878723144531,33.17457962036133,-228.75804138183594,-40.95000076293945,-21.75,0.9000000357627869
2.989,102.24198913574219,-67.53564453125,-11.224017143249512,48.8958625793457,14.92189884185791,-45.69831466674805,-40.95000076293945,-21.75,0.9000000357627869
2.993,89.67721557617188,-77.61044311523438,-13.905523300170898,61.41960144042969,11.191424369812012,-5.728943347930908,-41.25,-18.450000762939453,0.6000000238418579
3.0,88.75784301757812,-81.70931243896484,-12.717999458312988,59.95405578613281,1.4655436277389526,53.82542037963867,-42.0,-18.900001525878906,2.5500001907348633
3.01,87.60862731933594,-83.47145080566406,-8.312667846679688,56.889739990234375,-9.859111785888672,149.08575439453125,-41.70000076293945,-18.30000114440918,1.9500000476837158
3.02,84.9271240234375,-69.14454650878906,-4.481945514678955,70.3460922241211,-6.661561965942383,201.0459442138672,-42.150001525878906,-18.30000114440918,1.6500000953674316
3.039,86.38279724121094,-47.15619659423828,-4.022258758544922,118.8422622680664,-10.92496109008789,249.00918579101562,-42.150001525878906,-18.30000114440918,1.6500000953674316
3.043,88.52799987792969,-30.837318420410156,0.9576807022094727,152.949462890625,-7.860642910003662,269.52679443359375,-42.150001525878906,-18.30000114440918,1.6500000953674316
3.05,88.75784301757812,-20.95405387878418,-0.5363011956214905,167.47166442871094,0.1332312375307083,280.3185119628906,-40.20000076293945,-21.75,2.700000047683716
3.06,84.73558807373047,-22.256498336791992,7.2783732414245605,165.73965454101562,2.9310872554779053,292.0428771972656,-40.95000076293945,-21.0,3.0
3.07,75.9249267578125,-22.869415283203125,11.185709953308105,138.16079711914062,8.926492691040039,296.3062744140625,-39.75,-21.900001525878906,2.8500001430511475
3.08,70.83006286621094,-11.109095573425293,33.02082824707031,19.584991455078125,16.12097930908203,273.1240234375,-40.650001525878906,-24.450000762939453,1.9500000476837158
3.09,95.53822326660156,51.48491287231445,91.89904022216797,-212.63705444335938,-110.31546783447266,197.18223571777344,-40.650001525878906,-24.450000762939453,1.9500000476837158
3.103,212.68173217773438,127.25660705566406,-55.58378601074219,246.61102294921875,26.513015747070312,191.8529815673828,-40.20000076293945,-26.400001525878906,3.450000047683716
3.11,120.2846908569336,12.066776275634766,-35.16603469848633,309.2297058105469,82.6033706665039,311.49462890625,-40.20000076293945,-27.600000381469727,2.25
3.12,53.93657684326172,-60.10403823852539,4.175487995147705,141.75804138183594,48.09647750854492,330.81317138671875,-38.55000305175781,-27.000001907348633,2.8500001430511475
3.13,29.15180015563965,-103.69766235351562,29.76471519470215,-59.02143859863281,19.31852912902832,305.76568603515625,-38.400001525878906,-27.900001525878906,2.700000047683716
3.14,50.83369064331055,-52.44259262084961,13.905523300170898,-81.93721008300781,11.724349021911621,274.7228088378906,-38.400001525878906,-27.900001525878906,2.700000047683716
3.15,74.96724700927734,16.318878173828125,18.387468338012695,16.12097930908203,29.444103240966797,240.34915161132812,-38.55000305175781,-31.200000762939453,3.6000001430511475
3.163,89.7921371459961,35.089420318603516,18.272546768188477,139.09341430664062,28.511484146118164,231.82235717773438,-38.55000305175781,-31.950000762939453,3.3000001907348633
3.17,76.26969146728516,-3.7158010005950928,17.1999454498291,125.50382232666016,25.18070411682129,233.55435180664062,-36.150001525878906,-30.600000381469727,4.5
3.18,67.07595825195312,-21.37543296813965,22.409727096557617,125.7702865600586,39.569679260253906,195.050537109375,-36.30000305175781,-32.85000228881836,4.650000095367432
3.19,73.0135726928711,-20.685903549194336,34.170047760009766,135.0964813232422,46.231239318847656,199.98008728027344,-36.30000305175781,-32.85000228881836,4.650000095367432
3.2,89.40906524658203,-19.651607513427734,20.41775131225586,108.18376159667969,45.69831466674805,206.77488708496094,-36.30000305175781,-32.85000228881836,4.650000095367432
3.22,87.9533920288086,-34.591426849365234,10.649409294128418,5.595712184906006,38.23736572265625,203.8437957763672,-35.400001525878906,-34.5,6.0
3.223,82.24561309814453,-37.57939147949219,-0.38307225704193115,-82.20367431640625,44.89892578125,171.06890869140625,-35.55000305175781,-36.30000305175781,6.600000381469727
3.23,76.23138427734375,-10.649409294128418,15.974113464355469,-71.54517364501953,35.03981399536133,154.14854431152344,-34.80000305175781,-36.60000228881836,5.850000381469727
3.24,75.04386138916016,-3.6391866207122803,17.468095779418945,-18.78560447692871,23.581928253173828,145.0888214111328,-36.45000076293945,-37.20000076293945,6.300000190734863
3.25,76.80599212646484,3.6774938106536865,19.38345718383789,9.459418296813965,20.650842666625977,146.68759155273438,-36.45000076293945,-37.20000076293945,6.300000190734863
3.26,78.07012939453125,5.822698593139648,15.437812805175781,51.560489654541016,25.7136287689209,130.1669158935547,-34.80000305175781,-38.25,6.900000095367432
3.27,78.10843658447266,1.723825216293335,10.189722061157227,70.74578857421875,21.316997528076172,133.49769592285156,-34.20000076293945,-38.85000228881836,6.0
3.282,81.28793334960938,-10.304644584655762,10.802638053894043,38.63705825805664,31.309341430664062,97.65850067138672,-33.0,-39.75,6.600000381469727
3.29,78.07012939453125,-22.06496238708496,14.058752059936523,22.915773391723633,18.119447708129883,112.04747009277344,-33.75,-39.75,6.900000095367432
3.3,80.13871765136719,-22.524648666381836,-1.9536685943603516,8.793261528015137,3.7304747104644775,100.58958435058594,-33.75,-39.75,6.900000095367432
3.31,81.36454772949219,-19.536685943603516,2.6431987285614014,-13.189892768859863,13.856048583984375,88.46553802490234,-31.80000114440918,-39.30000305175781,7.650000095367432
3.32,77.45721435546875,-12.832921028137207,17.046716690063477,0.2664624750614166,24.11485481262207,84.4686050415039,-32.70000076293945,-40.35000228881836,7.500000476837158
3.34,76.26969146728516,-10.381258964538574,15.016432762145996,20.91730499267578,26.64624786376953,77.27411651611328,-32.70000076293945,-41.10000228881836,7.800000190734863
3.343,76.69107055664062,-17.1999454498291,16.318878173828125,26.912710189819336,21.183767318725586,76.87442779541016,-32.400001525878906,-40.35000228881836,7.500000476837158
3.35,77.68705749511719,-26.738445281982422,16.433799743652344,21.316997528076172,12.790199279785156,78.60643005371094,-33.30000305175781,-40.20000076293945,7.350000381469727
3.36,79.21934509277344,-22.026655197143555,3.7158010005950928,-7.9938740730285645,28.77794647216797,61.81929397583008,-33.30000305175781,-40.20000076293945,7.350000381469727
3.37,77.8019790649414,-17.92778205871582,16.548721313476562,-2.131699800491333,14.92189884185791,55.02450180053711,-32.400001525878906,-40.650001525878906,8.550000190734863
3.38,80.90486145019531,-12.641385078430176,9.117119789123535,7.594180583953857,15.987748146057129,58.4885139465332,-31.500001907348633,-42.150001525878906,5.850000381469727
3.399,74.35432434082031,-13.445837020874023,22.792800903320312,3.597243309020996,15.721285820007324,49.96171569824219,-31.80000114440918,-41.70000076293945,7.350000381469727
3.404,75.8866195678711,-16.089035034179688,9.002198219299316,-1.0658499002456665,10.258805274963379,49.56201934814453,-31.500001907348633,-42.150001525878906,6.900000095367432
3.41,77.61044311523438,-15.016432762145996,17.659631729125977,13.856048583984375,1.0658499002456665,49.56201934814453,-31.500001907348633,-42.150001525878906,6.900000095367432
3.42,80.1770248413086,-12.066776275634766,9.308655738830566,-2.9310872554779053,2.398162364959717,35.839202880859375,-30.900001525878906,-42.60000228881836,8.25
3.43,79.06611633300781,-9.27034854888916,11.41555404663086,9.992342948913574,14.788667678833008,29.977027893066406,-31.200000762939453,-44.55000305175781,7.050000190734863
3.44,75.15878295898438,-8.121131896972656,18.962078094482422,36.905052185058594,7.06125545501709,49.29555892944336,-31.950000762939453,-44.25,7.050000190734863
3.46,74.81401824951172,-6.358999729156494,4.443638324737549,47.430320739746094,2.2649309635162354,41.83460998535156,-30.750001907348633,-42.900001525878906,7.650000095367432
3.463,78.18505096435547,-15.744270324707031,9.653421401977539,38.10413360595703,7.594180583953857,42.36753463745117,-30.750001907348633,-42.900001525878906,7.650000095367432
3.47,74.77571105957031,-13.867216110229492,9.193734169006348,44.23276901245117,16.65390396118164,41.701377868652344,-30.750001907348633,-42.900001525878906,7.650000095367432
3.48,74.12448120117188,-9.193734169006348,12.181697845458984,54.35834503173828,11.324655532836914,55.82388687133789,-31.200000762939453,-43.05000305175781,9.0
3.49,73.74140930175781,-5.592854976654053,15.322891235351562,73.27718353271484,13.189892768859863,58.754974365234375,-31.650001525878906,-42.60000228881836,9.0
3.5,72.24742889404297,-6.933608055114746,13.713987350463867,83.40275573730469,11.191424369812012,50.36140823364258,-30.150001525878906,-44.25,9.0
3.52,74.96724700927734,-11.798625946044922,8.35097599029541,79.53904724121094,27.045940399169922,62.085758209228516,-29.400001525878906,-43.80000305175781,10.050000190734863
3.524,72.66880798339844,-17.8128604888916,12.449849128723145,62.485450744628906,17.053598403930664,68.61408996582031,-29.400001525878906,-43.80000305175781,10.050000190734863
3.53,74.04786682128906,-24.746469497680664,8.312667846679688,32.90811538696289,28.378253936767578,70.74578857421875,-30.150001525878906,-45.0,9.75
3.54,74.7374038696289,-23.52063751220703,15.284584045410156,-8.260336875915527,27.578866958618164,66.74884796142578,-29.400001525878906,-45.0,9.300000190734863
3.55,74.6607894897461,-6.3973069190979,14.09705924987793,7.72741174697876,29.044410705566406,93.12863159179688,-28.80000114440918,-44.85000228881836,8.700000762939453
3.56,75.50354766845703,3.141192674636841,16.203956604003906,34.64012145996094,21.84992218017578,105.78560638427734,-30.150001525878906,-45.30000305175781,7.800000190734863
3.58,77.34229278564453,-2.719813108444214,15.284584045410156,24.381317138671875,26.379785537719727,101.38896942138672,-30.150001525878906,-45.30000305175781,7.800000190734863
3.583,80.8665542602539,-15.591041564941406,14.748282432556152,-1.1990811824798584,19.185298919677734,113.11331939697266,-28.950000762939453,-46.95000076293945,10.050000190734863
3.59,82.74361419677734,-23.252487182617188,12.832921028137207,-16.78713607788086,22.915773391723633,118.04287719726562,-28.950000762939453,-46.95000076293945,10.800000190734863
3.6,81.93915557861328,-20.187908172607422,14.97812557220459,-36.771820068359375,23.848390579223633,117.11026000976562,-28.80000114440918,-45.60000228881836,10.200000762939453
3.61,78.64473724365234,-13.48414421081543,14.09705924987793,-35.03981399536133,22.51607894897461,121.50688934326172,-27.450000762939453,-47.25,9.0
3.62,80.63671112060547,-9.691728591918945,14.939818382263184,-12.656967163085938,7.860642910003662,140.6921844482422,-27.30000114440918,-47.10000228881836,10.200000762939453
3.64,85.84649658203125,-13.752294540405273,13.752294540405273,-12.25727367401123,5.329249382019043,150.95098876953125,-27.30000114440918,-47.10000228881836,10.200000762939453
3.643,87.99169921875,-20.11129379272461,14.633360862731934,-36.905052185058594,-0.1332312375307083,154.9479217529297,-25.950000762939453,-48.900001525878906,9.300000190734863
3.65,87.68524169921875,-22.83110809326172,20.11129379272461,-51.29402542114258,5.462480545043945,146.68759155273438,-25.950000762939453,-48.900001525878906,9.300000190734863
3.66,88.45138549804688,-22.218191146850586,18.387468338012695,-48.62940216064453,-9.592649459838867,162.5421142578125,-25.05000114440918,-49.500003814697266,8.700000762939453
3.67,89.67721557617188,-22.103269577026367,14.595053672790527,-70.3460922241211,0.9326186776161194,165.60643005371094,-25.80000114440918,-48.30000305175781,10.65000057220459
3.68,86.30618286132812,-26.85336685180664,18.579004287719727,-85.53445434570312,-7.327718257904053,164.00765991210938,-25.80000114440918,-48.30000305175781,10.65000057220459
3.7,90.21351623535156,-29.15180015563965,11.30063247680664,-107.65084075927734,-16.387441635131836,166.40582275390625,-24.750001907348633,-49.500003814697266,8.700000762939453
3.704,93.2780990600586,-23.060951232910156,17.659631729125977,-122.43950653076172,-20.650842666625977,166.1393585205078,-24.30000114440918,-50.55000305175781,8.40000057220459
3.71,95.61483764648438,-21.605276107788086,17.73624610900879,-122.03981018066406,-33.57427215576172,178.13015747070312,-24.30000114440918,-50.55000305175781,8.40000057220459
3.72,95.92129516601562,-19.958065032958984,17.468095779418945,-119.37519073486328,-29.84379768371582,180.26187133789062,-21.900001525878906,-51.150001525878906,7.800000190734863
3.73,95.76806640625,-20.992361068725586,16.66364288330078,-118.44257354736328,-50.76110076904297,184.92495727539062,-21.900001525878906,-51.150001525878906,7.800000190734863
3.74,96.03621673583984,-23.3291015625,17.085023880004883,-123.2388916015625,-44.76569747924805,182.7932586669922,-20.700000762939453,-51.60000228881836,7.500000476837158
3.76,94.65715789794922,-20.30282974243164,19.651607513427734,-113.3797836303711,-49.96171569824219,195.983154296875,-21.30000114440918,-52.20000076293945,7.650000095367432
3.763,93.73778533935547,-19.613300323486328,15.85919189453125,-105.38591003417969,-62.618682861328125,211.1715087890625,-19.5,-54.45000076293945,6.150000095367432
3.77,96.61082458496094,-18.88546371459961,17.50640296936035,-106.05206298828125,-67.28177642822266,228.6248016357422,-19.5,-54.45000076293945,6.150000095367432
3.78,99.13910675048828,-19.115306854248047,11.377246856689453,-123.10566711425781,-76.74119567871094,223.0290985107422,-18.900001525878906,-53.55000305175781,5.700000286102295
3.79,110.36312103271484,-15.85919189453125,15.974113464355469,-111.38131713867188,-86.60030364990234,241.54823303222656,-18.900001525878906,-53.55000305175781,5.700000286102295
3.8,114.73014831542969,-8.159439086914062,13.062764167785645,-122.83920288085938,-71.01225280761719,239.5497589111328,-16.80000114440918,-56.400001525878906,4.200000286102295
3.821,105.00010681152344,-7.738059997558594,10.764330863952637,-140.95864868164062,-75.27565002441406,245.4119415283203,-16.5,-54.000003814697266,3.9000000953674316
3.824,107.26023864746094,-7.929595947265625,5.171475887298584,-174.79937744140625,-77.67381286621094,278.4532775878906,-13.500000953674316,-56.400001525878906,2.8500001430511475
3.83,112.31678771972656,0.9193734526634216,7.508216381072998,-195.1837615966797,-80.47166442871094,273.7901916503906,-13.500000953674316,-56.400001525878906,2.8500001430511475
3.84,108.94575500488281,10.189722061157227,3.1028854846954346,-219.0321502685547,-82.6033706665039,291.6431884765625,-14.250000953674316,-56.70000076293945,0.30000001192092896
3.85,108.94575500488281,18.464082717895508,7.661445617675781,-249.5421142578125,-84.4686050415039,294.7074890136719,-13.200000762939453,-56.55000305175781,-0.45000001788139343
3.86,110.20989227294922,26.738445281982422,2.9496564865112305,-245.545166015625,-96.05972290039062,309.2297058105469,-11.40000057220459,-58.95000076293945,-0.9000000357627869
3.88,113.00631713867188,40.567352294921875,9.691728591918945,-197.848388671875,-99.79019927978516,324.4180603027344,-10.950000762939453,-57.30000305175781,-2.25
3.884,107.71992492675781,41.48672866821289,10.649409294128418,-2.6646246910095215,-78.3399658203125,319.7549743652344,-10.950000762939453,-57.30000305175781,-2.25
3.89,98.6794204711914,9.002198219299316,10.41956615447998,106.71822357177734,-74.8759536743164,352.52984619140625,-10.950000762939453,-57.30000305175781,-2.25
3.9,102.39521789550781,-2.8347349166870117,10.381258964538574,222.76263427734375,-71.01225280761719,406.6217346191406,-7.500000476837158,-61.35000228881836,-1.8000000715255737
3.91,107.56669616699219,-21.835119247436523,25.129541397094727,266.0627746582031,-66.08269500732422,419.41192626953125,-5.550000190734863,-60.30000305175781,-1.0500000715255737
3.92,100.67139434814453,-35.0128059387207,30.032865524291992,215.16844177246094,-31.176109313964844,396.62939453125,-5.550000190734863,-60.30000305175781,0.6000000238418579
3.94,81.32624053955078,-25.244462966918945,44.97268295288086,106.31852722167969,-39.83613967895508,336.0091857910156,-3.0,-61.05000305175781,1.0500000715255737
3.943,71.2514419555664,-28.309040069580078,13.024456977844238,16.520673751831055,-7.06125545501709,187.4563446044922,-3.0,-61.05000305175781,1.0500000715255737
3.95,77.41890716552734,-6.742072105407715,24.746469497680664,-20.91730499267578,-10.92496109008789,159.61102294921875,-0.15000000596046448,-61.20000076293945,2.25
3.96,84.54405212402344,20.341136932373047,15.705963134765625,-10.658498764038086,-9.859111785888672,124.03828430175781,0.15000000596046448,-61.650001525878906,3.0
3.97,80.1770248413086,44.89606857299805,15.437812805175781,55.95711898803711,-23.04900360107422,72.74425506591797,-0.15000000596046448,-61.650001525878906,2.700000047683716
3.98,63.36015319824219,52.32767105102539,12.986149787902832,123.37212371826172,-21.316997528076172,12.390504837036133,-1.5,-61.05000305175781,2.8500001430511475
4.0,50.948612213134766,38.537071228027344,11.338939666748047,166.40582275390625,-5.062787055969238,-39.30321502685547,-1.5,-61.05000305175781,2.8500001430511475
4.004,46.58158874511719,18.157625198364258,13.292608261108398,200.24655151367188,-11.591117858886719,-105.38591003417969,0.30000001192092896,-62.250003814697266,2.5500001907348633
4.01,49.109867095947266,-2.75812029838562,17.50640296936035,198.24807739257812,-17.32006072998047,-140.29249572753906,-0.30000001192092896,-61.35000228881836,5.100000381469727
4.02,48.765098571777344,-6.052541732788086,17.583017349243164,181.3277130126953,-9.859111785888672,-207.70750427246094,-0.15000000596046448,-61.20000076293945,4.950000286102295
4.03,49.07155990600586,-2.030282974243164,18.962078094482422,157.612548828125,-12.523736000061035,-259.6676940917969,-0.75,-59.55000305175781,5.400000095367432
4.04,47.922340393066406,3.2561142444610596,18.195932388305664,159.8774871826172,-25.313934326171875,-312.29400634765625,-1.9500000476837158,-60.45000076293945,5.25
4.059,46.12190246582031,4.098873138427734,19.536685943603516,162.00918579101562,-13.323123931884766,-371.5819091796875,-1.9500000476837158,-60.45000076293945,5.25
4.063,45.892059326171875,-1.1109095811843872,19.68991470336914,188.52220153808594,-21.983154296875,-416.0811462402344,-3.750000238418579,-60.30000305175781,5.400000095367432
4.07,48.38202667236328,-13.10107135772705,24.516624450683594,182.12710571289062,-16.520673751831055,-455.3843688964844,-4.650000095367432,-58.95000076293945,7.050000190734863
4.08,50.450618743896484,-18.23423957824707,23.44402313232422,159.74424743652344,-20.251148223876953,-486.9601745605469,-7.950000286102295,-60.000003814697266,6.750000476837158
4.09,56.005165100097656,-21.56696891784668,23.252487182617188,134.96324157714844,-12.124042510986328,-535.8560180664062,-7.800000190734863,-59.55000305175781,8.40000057220459
4.1,62.862159729003906,-27.083209991455078,23.175872802734375,105.78560638427734,-15.987748146057129,-555.5742797851562,-7.800000190734863,-59.55000305175781,8.40000057220459
4.119,67.42072296142578,-38.76691436767578,22.639572143554688,61.15313720703125,-19.584991455078125,-582.0872802734375,-14.40000057220459,-57.000003814697266,8.25
4.123,76.88260650634766,-46.23682403564453,19.843143463134766,3.86370587348938,-14.12251091003418,-609.5328979492188,-15.450000762939453,-56.250003814697266,8.25
4.13,78.07012939453125,-46.006980895996094,21.720197677612305,-23.98162269592285,-9.059723854064941,-628.4517211914062,-18.150001525878906,-56.250003814697266,7.800000190734863
4.14,79.71733856201172,-44.55130386352539,19.68991470336914,-37.304744720458984,-15.854516983032227,-645.50537109375,-18.900001525878906,-55.80000305175781,9.75
4.15,84.46743774414062,-45.73883056640625,19.728221893310547,-59.55436325073242,-10.125574111938477,-644.4395141601562,-18.900001525878906,-55.80000305175781,9.75
4.16,89.06430053710938,-42.94240188598633,21.337125778198242,-69.81317138671875,3.7304747104644775,-654.298583984375,-25.05000114440918,-52.95000076293945,6.900000095367432
4.179,92.97164154052734,-41.639957427978516,20.30282974243164,-78.60643005371094,4.396630764007568,-655.231201171875,-26.700000762939453,-50.85000228881836,8.550000190734863
4.183,95.1551513671875,-39.762901306152344,19.766529083251953,-63.151607513427734,11.324655532836914,-644.4395141601562,-29.400001525878906,-48.900001525878906,6.300000190734863
4.19,98.21973419189453,-40.95042419433594,20.800825119018555,-68.34762573242188,31.842266082763672,-635.646240234375,-33.0,-45.60000228881836,7.350000381469727
4.2,101.01615905761719,-41.71657180786133,17.966089248657227,-58.355281829833984,27.71209716796875,-637.9111938476562,-34.20000076293945,-43.05000305175781,7.800000190734863
4.21,103.5827407836914,-40.682273864746094,12.258312225341797,-55.55742645263672,31.176109313964844,-622.9892578125,-34.20000076293945,-43.05000305175781,7.800000190734863
4.22,103.5827407836914,-37.809234619140625,9.308655738830566,-57.955589294433594,36.63859176635742,-612.0643310546875,-37.5,-39.30000305175781,6.900000095367432
4.239,106.03440856933594,-38.422149658203125,7.2783732414245605,-56.49004364013672,48.09647750854492,-617.9264526367188,-37.5,-36.30000305175781,6.900000095367432
4.243,113.81077575683594,-44.05331039428711,7.7763671875,-57.15620040893555,58.355281829833984,-616.9938354492188,-40.05000305175781,-33.150001525878906,5.850000381469727
4.25,116.33905029296875,-46.313438415527344,6.473921298980713,-70.3460922241211,48.362937927246094,-603.1378173828125,-40.5,-30.450000762939453,6.900000095367432
4.26,118.13948822021484,-48.61186981201172,6.3973069190979,-95.39356231689453,61.9525260925293,-600.7396240234375,-40.5,-30.450000762939453,6.900000095367432
4.27,114.1555404663086,-47.38603973388672,1.4173674583435059,-96.72587585449219,70.61255645751953,-581.421142578125,-40.5,-24.30000114440918,6.600000381469727
4.28,110.97603607177734,-47.2711181640625,0.15322890877723694,-91.13016510009766,67.814697265625,-538.9203491210938,-41.400001525878906,-23.700000762939453,5.700000286102295
4.299,112.92970275878906,-49.64616775512695,1.9919757843017578,-84.86830139160156,73.41041564941406,-504.4134521484375,-41.25,-19.200000762939453,6.600000381469727
4.304,114.53861236572266,-51.63814163208008,-2.0685901641845703,-70.87902069091797,69.4134750366211,-438.59722900390625,-40.80000305175781,-18.900001525878906,6.150000095367432
4.31,112.35509490966797,-54.01319122314453,-4.788403511047363,-63.551300048828125,69.4134750366211,-393.4318542480469,-40.80000305175781,-18.900001525878906,6.150000095367432
4.32,107.98807525634766,-58.61005783081055,-7.048529624938965,-61.28636932373047,74.74272155761719,-339.7396545410156,-40.650001525878906,-14.100000381469727,6.750000476837158
4.33,103.5061264038086,-66.07996368408203,-6.971915245056152,-83.00305938720703,74.47626495361328,-269.7932434082031,-40.20000076293945,-14.850000381469727,6.300000190734863
4.34,99.8286361694336,-76.30799865722656,-8.427590370178223,-104.32006072998047,66.21592712402344,-189.32159423828125,-41.25,-12.750000953674316,7.650000095367432
4.36,94.5805435180664,-77.7253646850586,-11.224017143249512,-101.2557373046875,37.17151641845703,-93.12863159179688,-39.30000305175781,-13.800000190734863,7.950000286102295
4.364,85.42511749267578,-53.170433044433594,-10.304644584655762,-41.701377868652344,17.719755172729492,34.24042892456055,-40.95000076293945,-11.40000057220459,7.800000190734863
4.37,86.84248352050781,-45.585601806640625,-10.5344877243042,-3.3307809829711914,16.12097930908203,84.73506927490234,-40.95000076293945,-11.40000057220459,7.800000190734863
4.38,87.9533920288086,-36.69832229614258,-9.615114212036133,67.01531219482422,-0.39969372749328613,152.41653442382812,-40.95000076293945,-12.450000762939453,7.500000476837158
4.39,89.29414367675781,-33.71036148071289,-5.171475887298584,107.11791229248047,0.6661561727523804,212.37059020996094,-40.650001525878906,-12.15000057220459,6.750000476837158
4.4,89.02599334716797,-36.77493667602539,-5.937620162963867,126.30321502685547,-12.124042510986328,249.00918579101562,-41.55000305175781,-13.500000953674316,7.350000381469727
4.415,89.1792221069336,-40.145973205566406,-9.84495735168457,152.54977416992188,-22.915773391723633,301.23583984375,-40.5,-15.450000762939453,6.150000095367432
4.421,85.92311096191406,-34.01681900024414,-17.50640296936035,160.14395141601562,-17.986217498779297,303.7672119140625,-40.5,-15.450000762939453,6.150000095367432
4.43,85.31019592285156,-31.143775939941406,-18.004396438598633,174.1332244873047,-30.110260009765625,318.9555969238281,-40.650001525878906,-18.75,7.050000190734863
4.44,79.6024169921875,-18.808849334716797,-7.546523571014404,78.07350158691406,18.385910034179688,314.8254089355469,-41.70000076293945,-17.850000381469727,7.500000476837158
4.45,79.98548889160156,36.66001510620117,105.76625061035156,-264.9969177246094,-129.6339874267578,194.51760864257812,-40.20000076293945,-21.0,6.300000190734863
4.46,209.50222778320312,119.32701110839844,51.44660568237305,-201.71209716796875,-110.848388671875,76.20826721191406,-40.05000305175781,-21.900001525878906,6.600000381469727
4.48,197.5503692626953,151.62001037597656,-134.15191650390625,446.5910949707031,67.14854431152344,265.6630859375,-40.05000305175781,-21.900001525878906,6.600000381469727
4.484,31.986534118652344,-122.08513641357422,61.253257751464844,274.45635986328125,9.326186180114746,373.4471435546875,-38.55000305175781,-25.05000114440918,5.400000095367432
4.49,41.5250358581543,-132.23654174804688,47.424346923828125,73.67687225341797,-32.24195861816406,349.06585693359375,-38.55000305175781,-25.05000114440918,5.400000095367432
4.5,64.77751922607422,-107.18362426757812,25.129541397094727,-153.7488555908203,-1.8652373552322388,268.8606262207031,-38.70000076293945,-27.600000381469727,6.300000190734863
4.51,68.34009552001953,-27.044902801513672,29.075185775756836,-101.78866577148438,-3.197549819946289,218.76568603515625,-38.55000305175781,-28.200000762939453,6.600000381469727
4.529,78.72135162353516,10.764330863952637,25.474306106567383,43.03369140625,7.194486618041992,219.29861450195312,-38.25,-28.500001907348633,4.650000095367432
4.533,76.4995346069336,6.3973069190979,44.78114700317383,99.92343139648438,-3.197549819946289,206.77488708496094,-37.650001525878906,-30.600000381469727,6.300000190734863
4.54,90.09859466552734,-8.734047889709473,33.51882553100586,97.92495727539062,-2.9310872554779053,189.85450744628906,-37.650001525878906,-30.600000381469727,6.300000190734863
4.55,84.04605865478516,-21.643583297729492,18.77054214477539,90.86370086669922,0.7993874549865723,183.32618713378906,-37.20000076293945,-32.25,7.500000476837158
4.56,76.99752807617188,-28.232425689697266,18.04270362854004,59.55436325073242,-17.053598403930664,172.80091857910156,-37.650001525878906,-34.20000076293945,7.050000190734863
4.57,85.23358154296875,-20.532672882080078,4.022258758544922,27.71209716796875,0.2664624750614166,152.41653442382812,-37.95000076293945,-34.20000076293945,6.300000190734863
4.58,81.13470458984375,-16.35718536376953,-5.018246650695801,8.660030364990234,10.791729927062988,144.55589294433594,-37.95000076293945,-34.20000076293945,6.300000190734863
4.599,74.12448120117188,-9.768342971801758,1.0342950820922852,-6.261868000030518,13.722817420959473,138.2940216064453,-36.30000305175781,-35.85000228881836,6.150000095367432
4.603,78.10843658447266,-1.1492167711257935,4.711789131164551,-5.728943347930908,26.513015747070312,122.70597076416016,-36.150001525878906,-35.25,7.050000190734863
4.61,77.41890716552734,-5.592854976654053,18.272546768188477,3.7304747104644775,15.188361167907715,115.11178588867188,-36.30000305175781,-35.25,7.050000190734863
4.62,78.72135162353516,-5.324704647064209,16.510414123535156,-5.062787055969238,16.65390396118164,107.51760864257812,-35.70000076293945,-36.150001525878906,8.25
4.63,76.38461303710938,-9.576807022094727,9.768342971801758,2.797856092453003,12.523736000061035,103.52066802978516,-35.70000076293945,-36.150001525878906,8.25
4.649,79.52580261230469,-9.193734169006348,5.669469833374023,-9.059723854064941,25.04747200012207,87.53292083740234,-35.55000305175781,-36.150001525878906,8.25
4.653,79.52580261230469,-10.72602367401123,9.155426979064941,-0.6661561727523804,11.857580184936523,87.66615295410156,-35.55000305175781,-37.5,6.150000095367432
4.66,82.0157699584961,-12.143390655517578,-0.9576807022094727,4.130168437957764,28.378253936767578,75.00918579101562,-35.25,-39.30000305175781,6.600000381469727
4.67,78.989501953125,-17.353174209594727,11.760318756103516,-19.052066802978516,21.316997528076172,64.21745300292969,-34.95000076293945,-39.150001525878906,8.25
4.68,83.31822204589844,-19.38345718383789,5.324704647064209,-43.69984436035156,32.77488327026367,45.56508255004883,-34.95000076293945,-39.150001525878906,8.25
4.69,75.73339080810547,-13.752294540405273,17.00840950012207,-30.24349021911621,27.445634841918945,33.84073257446289,-33.900001525878906,-40.650001525878906,7.500000476837158
4.71,78.64473724365234,-4.8267107009887695,10.5344877243042,-10.392036437988281,26.379785537719727,39.70290756225586,-35.400001525878906,-38.85000228881836,7.500000476837158
4.713,77.41890716552734,-3.026270866394043,21.14558982849121,7.327718257904053,20.251148223876953,34.373661041259766,-34.05000305175781,-39.30000305175781,6.150000095367432
4.72,77.07414245605469,-6.244078159332275,13.599065780639648,5.595712184906006,25.980091094970703,35.839202880859375,-35.25,-40.20000076293945,7.350000381469727
4.73,76.42292022705078,-3.6774938106536865,13.024456977844238,14.522205352783203,19.718223571777344,38.90352249145508,-35.25,-40.20000076293945,7.350000381469727
4.74,79.6024169921875,-7.508216381072998,18.195932388305664,1.7320060729980469,19.185298919677734,31.975496292114258,-35.70000076293945,-40.650001525878906,7.500000476837158
4.75,82.4371566772461,-9.040505409240723,10.113107681274414,-23.182235717773438,28.111791610717773,26.113323211669922,-34.05000305175781,-40.20000076293945,6.900000095367432
4.769,78.3765869140625,-7.393294811248779,15.054739952087402,-43.69984436035156,27.17917251586914,29.577335357666016,-36.0,-40.20000076293945,8.40000057220459
4.773,76.76768493652344,-4.060565948486328,19.000385284423828,-49.82848358154297,14.655436515808105,37.57120895385742,-34.05000305175781,-40.95000076293945,6.600000381469727
4.78,73.28172302246094,1.1492167711257935,24.746469497680664,-56.22358322143555,20.38437843322754,31.575803756713867,-34.5,-40.5,6.900000095367432
4.79,75.12047576904297,2.1068975925445557,25.627534866333008,-45.298622131347656,19.718223571777344,39.9693717956543,-34.5,-40.5,6.900000095367432
4.8,76.23138427734375,1.4173674583435059,21.490354537963867,-33.57427215576172,3.7304747104644775,45.43185043334961,-34.20000076293945,-40.650001525878906,7.800000190734863
4.81,76.23138427734375,4.175487995147705,23.252487182617188,-27.31240463256836,-8.39356803894043,60.35375213623047,-33.0,-40.20000076293945,6.900000095367432
4.83,77.1507568359375,8.925583839416504,25.665842056274414,-7.594180583953857,-1.7320060729980469,59.55436325073242,-33.0,-41.70000076293945,7.950000286102295
4.834,73.39664459228516,11.185709953308105,14.901511192321777,37.03828430175781,0.7993874549865723,65.949462890625,-32.55000305175781,-41.70000076293945,7.650000095367432
4.84,76.4995346069336,-0.26815059781074524,16.47210693359375,35.17304611206055,-0.6661561727523804,73.54364013671875,-32.55000305175781,-41.70000076293945,7.650000095367432
4.85,76.61445617675781,-4.252102375030518,12.181697845458984,24.381317138671875,8.793261528015137,71.14547729492188,-32.55000305175781,-40.5,7.350000381469727
4.86,75.61846923828125,-7.738059997558594,16.203956604003906,17.719755172729492,10.92496109008789,77.14088439941406,-33.30000305175781,-41.70000076293945,7.350000381469727
4.87,75.58016204833984,-8.236053466796875,11.185709953308105,16.920366287231445,1.9984685182571411,94.0612564086914,-32.400001525878906,-43.80000305175781,7.050000190734863
4.889,74.96724700927734,-6.933608055114746,15.016432762145996,22.51607894897461,6.5283308029174805,104.7197494506836,-33.75,-41.70000076293945,7.950000286102295
4.893,75.8866195678711,-3.332728862762451,16.203956604003906,37.17151641845703,0.7993874549865723,113.3797836303711,-33.75,-41.70000076293945,7.950000286102295
4.9,79.67903137207031,-7.738059997558594,12.29662036895752,28.644716262817383,11.591117858886719,124.97090148925781,-33.75,-41.70000076293945,7.950000286102295
4.91,77.7253646850586,-11.72201156616211,12.60307788848877,10.125574111938477,5.062787055969238,123.2388916015625,-30.900001525878906,-42.60000228881836,6.750000476837158
4.92,76.5761489868164,-11.070788383483887,14.786589622497559,-11.990811347961426,5.329249382019043,125.37059783935547,-32.55000305175781,-44.85000228881836,6.600000381469727
4.93,77.1507568359375,-8.236053466796875,17.238252639770508,-3.4640121459960938,7.194486618041992,132.56507873535156,-31.05000114440918,-44.85000228881836,8.700000762939453
4.95,77.22737121582031,-3.6391866207122803,16.433799743652344,16.65390396118164,-2.2649309635162354,148.0198974609375,-30.900001525878906,-45.0,9.300000190734863
4.954,75.9632339477539,-10.228029251098633,15.705963134765625,3.4640121459960938,-1.3323123455047607,146.28790283203125,-30.900001525878906,-45.0,9.300000190734863
4.96,80.02379608154297,-23.405715942382812,14.211980819702148,-17.586523056030273,2.131699800491333,142.5574188232422,-30.000001907348633,-46.650001525878906,7.950000286102295
4.97,79.44918823242188,-25.014619827270508,13.48414421081543,-37.03828430175781,-5.462480545043945,143.75650024414062,-29.250001907348633,-46.35000228881836,7.950000286102295
4.98,77.763671875,-19.268535614013672,18.195932388305664,-39.9693717956543,-3.9969370365142822,142.15773010253906,-29.250001907348633,-47.10000228881836,8.700000762939453
4.99,79.25765228271484,-16.855180740356445,17.697938919067383,-51.4272575378418,-3.9969370365142822,144.95558166503906,-28.650001525878906,-46.95000076293945,9.300000190734863
5.01,80.56009674072266,-17.00840950012207,16.58702850341797,-45.96477508544922,-16.65390396118164,143.2235870361328,-28.650001525878906,-46.95000076293945,9.300000190734863
5.014,80.7899398803711,-19.80483627319336,15.207969665527344,-66.08269500732422,-11.324655532836914,144.68911743164062,-28.200000762939453,-49.20000076293945,7.050000190734863
5.02,79.75564575195312,-22.48634147644043,15.85919189453125,-74.74272155761719,-12.124042510986328,144.95558166503906,-27.750001907348633,-47.10000228881836,7.350000381469727
5.03,82.24561309814453,-22.37141990661621,16.970102310180664,-87.26646423339844,-14.255742073059082,150.55130004882812,-26.400001525878906,-48.900001525878906,7.500000476837158
5.04,84.69728088378906,-19.843143463134766,16.855180740356445,-77.94027709960938,-23.315465927124023,163.74119567871094,-25.650001525878906,-49.20000076293945,6.750000476837158
5.05,84.77389526367188,-17.544710159301758,14.211980819702148,-76.34149932861328,-26.64624786376953,162.1424102783203,-26.250001907348633,-50.55000305175781,7.650000095367432
5.07,86.61264038085938,-16.548721313476562,11.30063247680664,-75.00918579101562,-23.98162269592285,154.0153045654297,-26.250001907348633,-50.55000305175781,7.650000095367432
5.073,88.29815673828125,-20.532672882080078,9.461885452270508,-77.94027709960938,-41.434913635253906,182.7932586669922,-25.80000114440918,-50.55000305175781,5.400000095367432
5.08,86.30618286132812,-23.558944702148438,12.947842597961426,-87.66615295410156,-45.831546783447266,173.73353576660156,-26.250001907348633,-51.750003814697266,5.850000381469727
5.09,86.1146469116211,-23.865402221679688,16.012420654296875,-95.9264907836914,-39.9693717956543,175.0658416748047,-24.750001907348633,-52.95000076293945,5.850000381469727
5.1,88.37477111816406,-23.597251892089844,16.778566360473633,-105.91883087158203,-44.76569747924805,176.39816284179688,-25.05000114440918,-52.500003814697266,5.400000095367432
5.11,91.24781799316406,-26.508602142333984,17.085023880004883,-116.44409942626953,-51.29402542114258,194.91729736328125,-25.05000114440918,-52.500003814697266,5.400000095367432
5.13,96.18944549560547,-28.38565444946289,11.30063247680664,-130.1669158935547,-61.81929397583008,206.77488708496094,-23.700000762939453,-53.10000228881836,4.950000286102295
5.133,103.35289764404297,-27.504589080810547,8.159439086914062,-139.09341430664062,-85.66768646240234,229.82388305664062,-22.650001525878906,-52.650001525878906,2.25
5.14,119.86331176757812,-18.923770904541016,11.530475616455078,-136.56201171875,-93.12863159179688,220.8973846435547,-20.700000762939453,-55.05000305175781,3.750000238418579
5.15,123.04281616210938,-19.000385284423828,5.171475887298584,-176.53138732910156,-83.40275573730469,233.82081604003906,-19.200000762939453,-56.250003814697266,4.200000286102295
5.16,122.42990112304688,-26.31706428527832,-0.8044517636299133,-245.27870178222656,-88.06584930419922,249.40887451171875,-19.200000762939453,-56.250003814697266,4.200000286102295
5.17,130.39779663085938,-31.450233459472656,-8.96389102935791,-329.747314453125,-99.3905029296875,249.00918579101562,-18.0,-54.45000076293945,1.350000023841858
5.19,139.09353637695312,-14.824896812438965,-11.990161895751953,-359.19140625,-125.37059783935547,275.38897705078125,-18.0,-57.60000228881836,0.0
5.194,140.81736755371094,8.35097599029541,-18.732234954833984,-358.1255798339844,-134.69677734375,298.97088623046875,-14.700000762939453,-56.250003814697266,-0.9000000357627869
5.2,146.7166748046875,39.80120849609375,-24.095245361328125,-331.47930908203125,-143.75650024414062,307.0979919433594,-14.700000762939453,-56.250003814697266,-0.9000000357627869
5.21,148.74696350097656,58.26529312133789,-26.31706428527832,-295.3736572265625,-175.59877014160156,321.353759765625,-15.000000953674316,-57.900001525878906,-2.8500001430511475
5.22,139.4766082763672,69.79576873779297,-27.542896270751953,-269.52679443359375,-184.6584930419922,320.1546630859375,-15.000000953674316,-57.900001525878906,-2.8500001430511475
5.23,126.64369201660156,66.38642120361328,-26.240449905395508,-246.61102294921875,-200.646240234375,301.23583984375,-12.750000953674316,-57.900001525878906,-6.150000095367432
5.25,117.06688690185547,74.43093872070312,-11.185709953308105,-96.72587585449219,-218.63246154785156,273.1240234375,-8.40000057220459,-57.750003814697266,-7.800000190734863
5.254,97.87496185302734,85.61665344238281,11.1474027633667,312.9601745605469,-225.02755737304688,243.5467071533203,-6.450000286102295,-59.250003814697266,-7.800000190734863
5.26,85.19527435302734,64.73921203613281,18.11931800842285,511.6079406738281,-216.10107421875,293.1087341308594,-6.450000286102295,-59.250003814697266,-7.800000190734863
5.27,86.1146469116211,27.734432220458984,35.6257209777832,709.7227783203125,-189.45481872558594,377.444091796875,-6.450000286102295,-59.250003814697266,-7.800000190734863
5.28,88.41307830810547,-28.653806686401367,64.27952575683594,626.9862060546875,-166.93873596191406,392.89892578125,-4.800000190734863,-62.55000305175781,-4.650000095367432
5.29,83.08837890625,-29.4582576751709,67.26749420166016,430.86981201171875,-165.2067413330078,289.2450256347656,-1.2000000476837158,-63.150001525878906,-2.700000047683716
5.31,68.34009552001953,-12.29662036895752,37.42616271972656,343.3369140625,-152.54977416992188,187.3231201171875,-0.30000001192092896,-63.000003814697266,-0.6000000238418579
5.313,58.9165153503418,7.1251444816589355,46.083595275878906,327.74884033203125,-153.21592712402344,114.57886505126953,0.9000000357627869,-63.900001525878906,0.9000000357627869
5.32,68.60824584960938,27.427974700927734,41.41011428833008,330.2802429199219,-172.134765625,94.9938735961914,0.9000000357627869,-63.900001525878906,0.9000000357627869
5.33,69.60423278808594,30.109479904174805,38.613685607910156,336.6753234863281,-175.7320098876953,22.382848739624023,2.4000000953674316,-63.60000228881836,4.5
5.34,64.66259765625,27.58120346069336,40.260894775390625,327.4823913574219,-183.32618713378906,-43.56661605834961,4.200000286102295,-62.70000076293945,6.750000476837158
5.35,58.07375717163086,21.528661727905273,41.14196014404297,321.353759765625,-197.848388671875,-88.59877014160156,3.3000001907348633,-65.25,7.350000381469727
5.37,52.44259262084961,13.369222640991211,42.59763717651367,314.29248046875,-208.77334594726562,-132.6983184814453,3.1500000953674316,-64.35000610351562,9.0
5.374,47.57757568359375,4.32871675491333,43.785160064697266,292.0428771972656,-232.35528564453125,-211.5712127685547,5.400000095367432,-65.10000610351562,10.350000381469727
5.38,50.5272331237793,-2.604891538619995,46.42835998535156,295.3736572265625,-245.67840576171875,-247.8101043701172,5.400000095367432,-65.10000610351562,10.350000381469727
5.39,52.3659782409668,-2.911349296569824,49.56955337524414,296.43951416015625,-276.32159423828125,-281.5176086425781,3.0,-64.5,14.700000762939453
5.4,55.23902130126953,0.6512228846549988,57.42253494262695,296.7059631347656,-289.511474609375,-317.3568115234375,1.6500000953674316,-63.60000228881836,16.350000381469727
5.41,57.499149322509766,2.911349296569824,59.83588790893555,296.9724426269531,-302.03521728515625,-361.18988037109375,-0.30000001192092896,-64.95000457763672,18.0
5.43,58.07375717163086,1.37906014919281,63.32184600830078,300.16998291015625,-324.2848205566406,-379.9754943847656,-1.0500000715255737,-65.25,20.55000114440918
5.433,61.36817932128906,-4.941632270812988,67.88040924072266,299.37060546875,-341.33843994140625,-423.1424255371094,-5.700000286102295,-66.60000610351562,21.75
5.44,61.5980224609375,-13.943830490112305,74.6990966796875,292.0428771972656,-343.4701232910156,-442.7274169921875,-5.700000286102295,-66.60000610351562,21.75
5.45,65.54366302490234,-16.1656494140625,77.53382873535156,312.42724609375,-346.134765625,-466.5758056640625,-13.500000953674316,-62.250003814697266,22.950000762939453
5.46,75.84831237792969,-10.802638053894043,80.71332550048828,361.18988037109375,-356.1271057128906,-487.0934143066406,-15.90000057220459,-60.45000076293945,25.80000114440918
5.47,85.34850311279297,-2.9879636764526367,87.49370574951172,420.34454345703125,-339.47320556640625,-506.545166015625,-15.90000057220459,-60.45000076293945,25.80000114440918
5.49,91.66919708251953,-3.5242648124694824,93.9293212890625,478.6998291015625,-333.477783203125,-516.1378173828125,-15.90000057220459,-60.45000076293945,25.80000114440918
5.494,101.7056884765625,-14.326903343200684,100.4415512084961,519.3353881835938,-319.08880615234375,-520.8009033203125,-25.950000762939453,-53.85000228881836,30.600000381469727
5.5,115.11322021484375,-29.266721725463867,107.56669616699219,529.0612182617188,-317.6232604980469,-514.5390625,-28.950000762939453,-51.60000228881836,31.80000114440918
5.51,119.25039672851562,-37.73262023925781,108.56268310546875,512.2741088867188,-283.11639404296875,-518.1362915039062,-33.45000076293945,-47.25,31.350000381469727
5.52,120.2846908569336,-43.09563064575195,110.55465698242188,498.2848205566406,-250.20826721191406,-527.1959838867188,-36.75,-43.95000076293945,33.0
5.53,112.31678771972656,-41.14196014404297,117.8330307006836,486.29400634765625,-216.90045166015625,-517.736572265625,-36.75,-43.95000076293945,33.0
5.55,107.45177459716797,-39.80120849609375,125.95416259765625,458.0489807128906,-159.3445587158203,-525.9969482421875,-40.80000305175781,-35.10000228881836,32.70000076293945
5.553,101.39923095703125,-47.884033203125,131.89178466796875,385.4379577636719,-105.11944580078125,-525.9969482421875,-40.80000305175781,-31.650001525878906,33.45000076293945
5.56,92.1288833618164,-58.57175064086914,128.5973663330078,331.612548828125,-70.21286010742188,-525.9969482421875,-43.05000305175781,-27.750001907348633,34.5
5.57,84.9654312133789,-64.54767608642578,123.73234558105469,245.545166015625,-32.77488327026367,-528.2618408203125,-43.650001525878906,-22.5,32.55000305175781
5.58,79.6407241821289,-71.28974914550781,112.66155242919922,140.6921844482422,-3.597243309020996,-531.5926513671875,-43.650001525878906,-22.5,32.55000305175781
5.59,80.8665542602539,-72.51557922363281,102.54844665527344,61.15313720703125,26.246553421020508,-568.6309204101562,-43.20000076293945,-14.40000057220459,33.60000228881836
5.609,83.0500717163086,-71.8260498046875,89.75382995605469,3.3307809829711914,41.701377868652344,-564.2343139648438,-43.80000305175781,-10.050000190734863,34.5
5.613,89.02599334716797,-64.77751922607422,67.5739517211914,-48.362937927246094,66.74884796142578,-574.2266235351562,-44.25,-7.200000286102295,32.70000076293945
5.62,93.54624938964844,-58.49513626098633,63.85814666748047,-67.28177642822266,83.5359878540039,-557.8391723632812,-42.45000076293945,-4.350000381469727,33.30000305175781
5.63,96.15113830566406,-48.956634521484375,54.12811279296875,-41.967838287353516,105.65237426757812,-540.5191040039062,-40.20000076293945,-1.350000023841858,33.900001525878906
5.64,94.35070037841797,-39.57136535644531,45.20252990722656,-10.258805274963379,126.30321502685547,-508.54364013671875,-40.20000076293945,-1.350000023841858,33.900001525878906
5.65,97.49188995361328,-38.80522155761719,32.82929229736328,32.24195861816406,150.2848358154297,-465.7763977050781,-38.25,4.5,32.70000076293945
5.669,105.99610137939453,-42.21456527709961,20.76251792907715,90.33078002929688,160.6768798828125,-419.8116149902344,-38.25,7.200000286102295,33.45000076293945
5.673,114.99829864501953,-45.279144287109375,3.026270866394043,184.6584930419922,151.2174530029297,-329.0811462402344,-34.80000305175781,10.350000381469727,34.20000076293945
5.68,116.45397186279297,-44.89606857299805,-11.453861236572266,244.74578857421875,145.35528564453125,-298.03826904296875,-35.25,11.850000381469727,37.05000305175781
5.69,114.8450698852539,-48.841712951660156,-11.875240325927734,316.4241943359375,144.42266845703125,-218.23277282714844,-35.25,11.850000381469727,37.05000305175781
5.7,110.51634979248047,-63.62830352783203,-11.03248119354248,375.44561767578125,123.37212371826172,-127.90198516845703,-29.55000114440918,15.450000762939453,34.20000076293945
5.71,106.18763732910156,-78.64473724365234,-7.1251444816589355,391.6998291015625,112.71363067626953,-49.29555892944336,-28.950000762939453,17.100000381469727,35.400001525878906
5.729,98.21973419189453,-86.68925476074219,-3.44765043258667,389.4349060058594,114.97856140136719,14.788667678833008,-29.400001525878906,17.850000381469727,32.55000305175781
5.733,89.7921371459961,-85.73157501220703,2.911349296569824,400.6263427734375,103.7871322631836,101.38896942138672,-28.500001907348633,21.150001525878906,32.25
5.74,92.58856964111328,-84.50574493408203,2.5665841102600098,401.5589599609375,95.26033782958984,136.4287872314453,-28.500001907348633,21.150001525878906,32.25
5.75,94.5805435180664,-77.57213592529297,1.0342950820922852,378.24346923828125,92.46247863769531,165.73965454101562,-25.950000762939453,21.450000762939453,31.05000114440918
5.76,90.59659576416016,-61.866172790527344,-10.84094524383545,383.7059631347656,90.4640121459961,192.51913452148438,-27.30000114440918,20.100000381469727,30.900001525878906
5.77,85.69326782226562,-44.66622543334961,-18.23423957824707,428.8713684082031,63.018375396728516,212.9035186767578,-26.400001525878906,19.80000114440918,28.500001907348633
5.79,90.13690185546875,-28.883649826049805,-35.77894973754883,487.35986328125,36.10566711425781,250.4747314453125,-27.150001525878906,21.75,27.750001907348633
5.793,99.8286361694336,-18.923770904541016,-50.5655403137207,435.9326171875,-23.98162269592285,272.32464599609375,-26.400001525878906,20.55000114440918,26.250001907348633
5.8,152.654296875,48.343719482421875,-54.81764221191406,296.17303466796875,-18.652372360229492,275.9219055175781,-26.400001525878906,20.55000114440918,26.250001907348633
5.81,174.0680389404297,93.12487030029297,-55.12409973144531,445.1255798339844,83.66921997070312,206.24195861816406,-27.000001907348633,21.900001525878906,26.100000381469727
5.82,86.95740509033203,69.9489974975586,-1.6089035272598267,490.5574035644531,112.04747009277344,210.37213134765625,-27.450000762939453,21.450000762939453,23.25
5.83,48.228797912597656,-34.9744987487793,-21.911733627319336,340.006103515625,100.18988800048828,215.3016815185547,-29.250001907348633,19.650001525878906,22.80000114440918
5.849,64.93074798583984,-106.76224517822266,-0.9576807022094727,86.60030364990234,71.01225280761719,224.3614044189453,-27.150001525878906,19.80000114440918,22.5
5.853,79.41088104248047,-56.235008239746094,28.155811309814453,-138.56048583984375,50.89433288574219,213.8361358642578,-27.150001525878906,19.80000114440918,22.5
5.86,83.77790832519531,-26.815059661865234,27.504589080810547,-194.51760864257812,40.76875686645508,196.24961853027344,-28.950000762939453,17.850000381469727,22.950000762939453
5.87,84.23759460449219,5.477933406829834,13.560758590698242,-206.77488708496094,11.857580184936523,146.82083129882812,-27.30000114440918,18.900001525878906,23.100000381469727
5.88,75.9249267578125,35.93217849731445,8.887276649475098,-160.8101043701172,8.793261528015137,110.98162078857422,-28.80000114440918,16.200000762939453,22.350000381469727
5.89,68.7231674194336,53.01720428466797,3.179499864578247,-18.385910034179688,51.4272575378418,92.19601440429688,-29.400001525878906,16.80000114440918,24.0
5.907,69.91069030761719,45.24083709716797,31.948226928710938,248.07656860351562,77.27411651611328,168.27105712890625,-28.950000762939453,16.80000114440918,24.450000762939453
5.91,107.41346740722656,-22.256498336791992,30.109479904174805,243.01377868652344,59.82082748413086,177.73046875,-28.950000762939453,16.80000114440918,24.450000762939453
5.92,104.54042053222656,-38.65199279785156,18.387468338012695,148.28636169433594,44.76569747924805,174.53292846679688,-29.400001525878906,16.80000114440918,23.25
5.93,80.59840393066406,-39.341522216796875,-18.579004287719727,86.73353576660156,63.551300048828125,125.10413360595703,-29.55000114440918,16.200000762939453,22.350000381469727
5.94,64.93074798583984,-12.832921028137207,-20.532672882080078,87.66615295410156,55.29096221923828,115.91117858886719,-29.700000762939453,17.850000381469727,22.950000762939453
5.95,81.59439086914062,1.4939818382263184,-0.5746083855628967,100.85604858398438,57.15620040893555,118.70903015136719,-30.900001525878906,15.90000057220459,23.25
5.97,88.87276458740234,-0.19153612852096558,3.7924153804779053,65.016845703125,66.34915924072266,101.38896942138672,-28.950000762939453,15.90000057220459,22.200000762939453
5.973,79.37257385253906,-14.824896812438965,-10.764330863952637,18.78560447692871,47.0306282043457,86.73353576660156,-28.950000762939453,15.90000057220459,22.200000762939453
5.98,76.72937774658203,-13.139378547668457,-9.27034854888916,16.65390396118164,58.08882141113281,91.26339721679688,-30.30000114440918,14.250000953674316,24.900001525878906
5.99,75.58016204833984,-6.052541732788086,16.1656494140625,15.055130004882812,43.96630859375,74.60948944091797,-30.450000762939453,14.100000381469727,21.75
6.0,88.10662078857422,6.282385349273682,-12.143390655517578,39.569679260253906,53.558956146240234,72.87748718261719,-30.30000114440918,13.500000953674316,23.55000114440918
6.01,79.48749542236328,1.5705963373184204,20.877439498901367,47.297088623046875,33.57427215576172,74.34303283691406,-30.30000114440918,13.500000953674316,23.55000114440918
6.022,84.73558807373047,-4.137180328369141,-19.49837875366211,23.848390579223633,35.972434997558594,61.81929397583008,-31.05000114440918,13.050000190734863,22.05000114440918
6.03,81.4794692993164,-9.155426979064941,3.294421434402466,-10.392036437988281,32.90811538696289,58.355281829833984,-30.000001907348633,12.750000953674316,22.05000114440918
6.04,79.94718170166016,-4.6734819412231445,-11.60708999633789,11.724349021911621,26.113323211669922,47.56355285644531,-30.900001525878906,12.450000762939453,23.25
6.05,82.62869262695312,16.778566360473633,-2.873042106628418,33.30780792236328,43.30015182495117,32.37519073486328,-30.150001525878906,13.65000057220459,22.5
6.06,76.76768493652344,2.8347349166870117,25.20615577697754,36.905052185058594,35.705970764160156,36.63859176635742,-30.150001525878906,13.65000057220459,22.5
6.07,79.67903137207031,-15.476119995117188,11.760318756103516,20.91730499267578,21.050535202026367,32.37519073486328,-30.150001525878906,13.65000057220459,22.5
6.089,83.1266860961914,-9.385271072387695,-8.044517517089844,8.260336875915527,19.718223571777344,36.5053596496582,-30.750001907348633,13.500000953674316,22.350000381469727
6.093,76.92091369628906,3.44765043258667,3.44765043258667,27.84532928466797,22.649311065673828,23.98162269592285,-30.750001907348633,13.500000953674316,22.80000114440918
6.1,76.46122741699219,9.308655738830566,24.631547927856445,46.231239318847656,14.12251091003418,27.045940399169922,-30.750001907348633,13.500000953674316,22.80000114440918
6.11,81.05809020996094,14.36521053314209,-0.8810662031173706,88.19908142089844,10.525267601013184,37.97090148925781,-30.30000114440918,13.800000190734863,21.600000381469727
6.12,80.59840393066406,8.274360656738281,13.828908920288086,104.45329284667969,9.326186180114746,51.960182189941406,-30.30000114440918,13.800000190734863,21.600000381469727
6.139,81.86254119873047,-0.15322890877723694,14.633360862731934,99.65696716308594,10.258805274963379,34.10719680786133,-30.450000762939453,13.65000057220459,22.200000762939453
6.142,76.38461303710938,-4.060565948486328,12.986149787902832,107.78407287597656,13.856048583984375,57.55589294433594,-31.650001525878906,14.850000381469727,22.5
6.15,70.52360534667969,15.131354331970215,18.081010818481445,133.6309356689453,12.656967163085938,66.48238372802734,-31.650001525878906,14.850000381469727,22.5
6.16,71.2514419555664,22.48634147644043,24.861391067504883,186.12403869628906,20.784072875976562,57.02296829223633,-30.30000114440918,13.500000953674316,22.05000114440918
6.17,72.01758575439453,21.950040817260742,22.946029663085938,205.5758056640625,13.323123931884766,61.15313720703125,-30.30000114440918,13.500000953674316,22.05000114440918
6.18,76.84429931640625,-4.788403511047363,12.411541938781738,163.6079559326172,5.995405673980713,68.34762573242188,-31.200000762939453,13.200000762939453,21.150001525878906
6.19,77.68705749511719,-32.905906677246094,5.899312973022461,92.72894287109375,-7.72741174697876,84.33537292480469,-31.05000114440918,10.800000190734863,20.850000381469727
6.203,79.98548889160156,-28.577192306518555,13.292608261108398,35.839202880859375,3.0643184185028076,80.07197570800781,-31.05000114440918,11.550000190734863,21.600000381469727
6.21,81.70931243896484,-12.526463508605957,5.669469833374023,29.044410705566406,-8.526799201965332,55.29096221923828,-31.05000114440918,11.550000190734863,21.600000381469727
6.22,79.41088104248047,-7.508216381072998,2.5282769203186035,55.4241943359375,-18.652372360229492,54.35834503173828,-30.900001525878906,11.700000762939453,21.150001525878906
6.23,80.8665542602539,-8.810662269592285,-6.703764915466309,67.94792938232422,-12.923430442810059,55.4241943359375,-30.900001525878906,11.700000762939453,21.150001525878906
6.24,85.73157501220703,-12.411541938781738,-8.35097599029541,65.68299865722656,-7.72741174697876,52.093414306640625,-31.500001907348633,13.500000953674316,20.55000114440918
6.25,85.88480377197266,-11.377246856689453,-8.848969459533691,75.67534637451172,-11.457886695861816,61.28636932373047,-31.950000762939453,12.15000057220459,20.700000762939453
6.263,79.71733856201172,-11.683704376220703,-10.266336441040039,64.75038146972656,4.130168437957764,65.28330993652344,-31.05000114440918,11.550000190734863,19.5
6.27,78.72135162353516,-4.8267107009887695,-6.052541732788086,88.99846649169922,1.3323123455047607,67.41500854492188,-31.05000114440918,11.550000190734863,19.5
6.28,71.67282104492188,6.971915245056152,-7.6997528076171875,119.90811157226562,-3.0643184185028076,82.7365951538086,-31.05000114440918,11.550000190734863,19.5
6.29,75.00555419921875,7.010222434997559,12.947842597961426,153.21592712402344,-13.323123931884766,98.19142150878906,-30.450000762939453,10.200000762939453,20.700000762939453
6.3,72.55388641357422,2.9496564865112305,15.322891235351562,134.5635528564453,-22.382848739624023,98.32465362548828,-31.650001525878906,11.700000762939453,19.950000762939453
6.32,75.58016204833984,-6.320692539215088,18.502389907836914,93.39509582519531,-18.519142150878906,104.85298156738281,-31.200000762939453,8.25,19.650001525878906
6.323,69.48931121826172,-17.391481399536133,27.044902801513672,78.47319793701172,-27.71209716796875,121.50688934326172,-31.200000762939453,8.25,19.650001525878906
6.33,71.59620666503906,-2.145204782485962,22.754493713378906,68.4808578491211,-32.77488327026367,124.70443725585938,-29.55000114440918,10.800000190734863,17.55000114440918
6.34,72.82203674316406,3.485957622528076,23.175872802734375,81.67074584960938,-23.04900360107422,114.57886505126953,-31.200000762939453,9.75,19.650001525878906
6.35,69.29777526855469,-3.3710360527038574,5.2480902671813965,94.46094512939453,-33.70750427246094,123.37212371826172,-31.650001525878906,10.5,17.400001525878906
6.36,73.51156616210938,-19.07699966430664,1.6855180263519287,93.12863159179688,-45.831546783447266,143.88973999023438,-33.0,7.200000286102295,16.80000114440918
6.379,83.96944427490234,-26.508602142333984,0.2298433631658554,70.47932434082031,-48.62940216064453,136.56201171875,-32.25,7.650000095367432,16.80000114440918
6.383,89.7921371459961,-22.946029663085938,-0.8044517636299133,63.950992584228516,-49.02909469604492,130.43338012695312,-32.25,7.650000095367432,16.80000114440918
6.39,87.3787841796875,-19.80483627319336,-5.51624059677124,69.4134750366211,-57.955589294433594,143.09034729003906,-33.75,7.650000095367432,18.0
6.4,86.88079071044922,-21.643583297729492,-3.1028854846954346,56.62327575683594,-60.08728790283203,132.6983184814453,-33.900001525878906,7.500000476837158,14.850000381469727
6.41,87.72354888916016,-25.81907081604004,-7.508216381072998,46.897396087646484,-74.8759536743164,127.23583221435547,-33.900001525878906,7.500000476837158,17.100000381469727
6.42,93.85270690917969,-22.17988395690918,-21.26051139831543,40.9019889831543,-85.66768646240234,124.03828430175781,-33.900001525878906,5.850000381469727,15.600000381469727
6.44,93.43132781982422,-18.157625198364258,-8.006210327148438,51.82695007324219,-96.19295501708984,147.75344848632812,-33.900001525878906,5.850000381469727,15.600000381469727
6.443,92.78010559082031,-5.975927352905273,-4.137180328369141,67.01531219482422,-102.98774719238281,132.29861450195312,-34.650001525878906,3.6000001430511475,15.90000057220459
6.45,93.9293212890625,-11.453861236572266,0.5363011956214905,63.418067932128906,-106.18529510498047,130.43338012695312,-32.70000076293945,4.350000381469727,13.350000381469727
6.46,94.96361541748047,-17.851167678833008,3.44765043258667,55.02450180053711,-110.848388671875,142.15773010253906,-36.150001525878906,4.800000190734863,13.350000381469727
6.47,94.96361541748047,-23.290794372558594,6.665457725524902,41.035221099853516,-121.3736572265625,144.2894287109375,-34.650001525878906,3.1500000953674316,14.40000057220459
6.48,95.1934585571289,-23.405715942382812,8.504204750061035,11.990811347961426,-130.03369140625,143.3568115234375,-34.650001525878906,3.1500000953674316,14.40000057220459
6.49,96.07452392578125,-16.855180740356445,9.84495735168457,15.055130004882812,-135.36293029785156,149.3522186279297,-34.650001525878906,3.1500000953674316,14.40000057220459
6.504,96.91728210449219,-14.288596153259277,11.41555404663086,21.716691970825195,-148.8192901611328,146.0214385986328,-34.5,2.25,12.750000953674316
6.51,103.81258392333984,-13.177685737609863,9.53849983215332,8.660030364990234,-144.55589294433594,150.81776428222656,-34.05000305175781,2.700000047683716,12.0
6.52,102.58675384521484,-11.760318756103516,8.121131896972656,-3.86370587348938,-153.882080078125,162.5421142578125,-35.25,0.0,11.40000057220459
6.53,97.98988342285156,-14.135366439819336,2.3750481605529785,-4.263399600982666,-160.14395141601562,176.6646270751953,-34.5,0.75,10.950000762939453
6.54,97.72173309326172,-13.867216110229492,1.37906014919281,-22.249616622924805,-177.06431579589844,186.3905029296875,-34.5,0.75,10.950000762939453
6.56,101.39923095703125,-9.385271072387695,-0.038307227194309235,-32.108726501464844,-179.9954071044922,184.1255645751953,-34.80000305175781,-2.25,9.450000762939453
6.564,102.05045318603516,0.26815059781074524,-5.784391403198242,-14.388973236083984,-182.92648315429688,192.7855987548828,-36.30000305175781,-3.750000238418579,9.90000057220459
6.57,96.3426742553711,1.1492167711257935,0.0,-6.661561965942383,-202.9111785888672,207.84072875976562,-34.650001525878906,-1.350000023841858,9.300000190734863
6.58,97.5685043334961,-0.6512228846549988,-1.2641384601593018,-13.323123931884766,-196.51608276367188,206.6416473388672,-34.80000305175781,-3.750000238418579,9.450000762939453
6.59,98.02819061279297,-8.810662269592285,-2.6431987285614014,-25.313934326171875,-225.42726135253906,212.23736572265625,-34.80000305175781,-3.750000238418579,9.450000762939453
6.6,103.92750549316406,2.030282974243164,-7.010222434997559,-31.042879104614258,-216.2342987060547,209.4394989013672,-34.05000305175781,-4.950000286102295,6.600000381469727
6.62,95.00192260742188,14.173673629760742,5.51624059677124,9.326186180114746,-238.084228515625,219.9647674560547,-33.75,-7.200000286102295,6.150000095367432
6.624,95.8063735961914,21.26051139831543,3.2178070545196533,39.43644714355469,-250.34149169921875,245.545166015625,-34.20000076293945,-5.850000381469727,6.750000476837158
6.63,103.35289764404297,25.81907081604004,14.67166805267334,64.21745300292969,-259.4012145996094,259.93414306640625,-33.30000305175781,-6.900000095367432,3.9000000953674316
6.64,100.55647277832031,32.02484130859375,15.705963134765625,141.35833740234375,-278.0535888671875,263.2649230957031,-33.45000076293945,-9.450000762939453,4.5
6.65,104.92349243164062,40.567352294921875,39.07337188720703,290.57733154296875,-272.32464599609375,257.5359802246094,-33.45000076293945,-9.450000762939453,4.5
6.66,105.19164276123047,44.85776138305664,11.41555404663086,465.7763977050781,-271.2587890625,323.218994140625,-32.70000076293945,-11.700000762939453,3.450000047683716
6.68,108.02638244628906,23.02264404296875,37.84754180908203,594.2113037109375,-263.5314025878906,376.9111633300781,-32.55000305175781,-13.800000190734863,2.5500001907348633
6.683,114.2321548461914,-5.861005783081055,33.90189743041992,655.4976806640625,-223.56201171875,358.6584777832031,-31.80000114440918,-14.250000953674316,1.8000000715255737
6.69,95.1934585571289,-30.454246520996094,43.67023849487305,676.1485595703125,-202.511474609375,326.016845703125,-29.250001907348633,-16.200000762939453,0.30000001192092896
6.7,85.42511749267578,-29.611486434936523,29.03687858581543,710.1224975585938,-200.5130157470703,291.9096374511719,-29.250001907348633,-16.200000762939453,0.30000001192092896
6.71,95.84468078613281,8.580819129943848,41.71657180786133,737.16845703125,-195.45022583007812,255.67074584960938,-28.500001907348633,-18.450000762939453,0.0
6.72,99.63710021972656,56.886234283447266,35.89387130737305,723.978515625,-168.27105712890625,180.12863159179688,-29.400001525878906,-21.0,0.9000000357627869
6.74,67.99533081054688,59.79758071899414,46.926353454589844,723.4456176757812,-148.28636169433594,123.37212371826172,-29.400001525878906,-22.5,0.9000000357627869
6.744,48.72679138183594,45.04929733276367,52.902278900146484,672.151611328125,-156.41346740722656,41.701377868652344,-27.900001525878906,-23.25,2.25
6.75,56.65638732910156,21.950040817260742,53.59181213378906,644.1730346679688,-163.6079559326172,22.382848739624023,-27.900001525878906,-23.25,2.25
6.76,61.866172790527344,12.679692268371582,54.702720642089844,581.82080078125,-175.9984588623047,-25.313934326171875,-27.150001525878906,-24.900001525878906,2.700000047683716
6.77,68.34009552001953,2.8347349166870117,54.779335021972656,534.5237426757812,-198.9142303466797,-74.20980072021484,-28.05000114440918,-25.500001907348633,2.8500001430511475
6.78,67.99533081054688,-7.546523571014404,51.21676254272461,485.7610778808594,-224.62786865234375,-117.77641296386719,-26.700000762939453,-25.200000762939453,3.450000047683716
6.8,67.84210205078125,-9.346963882446289,48.57356262207031,423.9418029785156,-229.5574188232422,-177.73046875,-27.750001907348633,-26.250001907348633,3.3000001907348633
6.804,61.444793701171875,-5.822698593139648,50.5272331237793,362.6554260253906,-251.27410888671875,-249.1424102783203,-25.950000762939453,-26.400001525878906,3.0
6.81,53.8216552734375,0.19153612852096558,55.46886444091797,350.66461181640625,-264.0643005371094,-272.59112548828125,-25.950000762939453,-26.400001525878906,3.0
6.82,56.08177947998047,-4.213795185089111,56.92454147338867,318.42266845703125,-265.3966369628906,-315.35833740234375,-28.05000114440918,-25.500001907348633,0.6000000238418579
6.83,60.29557418823242,-11.91354751586914,63.283538818359375,269.6600341796875,-256.4701232910156,-360.9234313964844,-25.950000762939453,-25.650001525878906,0.9000000357627869
6.84,63.36015319824219,-16.81687355041504,71.48128509521484,247.8101043701172,-257.6692199707031,-399.56048583984375,-27.450000762939453,-24.150001525878906,1.9500000476837158
6.86,63.62830352783203,-16.395492553710938,73.0135726928711,251.5405731201172,-248.47625732421875,-427.2725830078125,-26.700000762939453,-22.950000762939453,1.2000000476837158
6.863,63.436767578125,-14.518439292907715,78.68304443359375,267.1286315917969,-216.6339874267578,-468.7074890136719,-28.650001525878906,-22.950000762939453,1.2000000476837158
6.87,68.45501708984375,-11.1474027633667,79.75564575195312,277.25421142578125,-212.37059020996094,-482.69677734375,-28.650001525878906,-22.950000762939453,0.15000000596046448
6.88,73.28172302246094,-14.939818382263184,79.90887451171875,313.0934143066406,-201.84532165527344,-500.4165344238281,-29.55000114440918,-21.150001525878906,-0.30000001192092896
6.89,80.98147583007812,-23.9420166015625,78.45320129394531,324.4180603027344,-179.72894287109375,-523.1990966796875,-32.400001525878906,-20.55000114440918,-0.45000001788139343
6.9,84.19928741455078,-31.373619079589844,78.22335815429688,329.0811462402344,-174.0,-532.5252685546875,-31.200000762939453,-20.55000114440918,-0.15000000596046448
6.921,86.91909790039062,-34.74465560913086,75.42693328857422,322.9525146484375,-155.21438598632812,-551.444091796875,-31.200000762939453,-20.55000114440918,-0.15000000596046448
6.925,90.97966766357422,-36.8132438659668,72.63050079345703,293.7748718261719,-136.69525146484375,-546.3812866210938,-34.80000305175781,-14.250000953674316,0.30000001192092896
6.93,94.69546508789062,-42.674251556396484,71.36636352539062,283.2496032714844,-129.50076293945312,-574.8927612304688,-34.80000305175781,-14.250000953674316,0.30000001192092896
6.94,93.9676284790039,-46.42835998535156,71.8643569946289,241.9479217529297,-102.32159423828125,-573.8269653320312,-37.80000305175781,-13.500000953674316,-0.6000000238418579
6.95,94.542236328125,-51.33168411254883,71.09821319580078,200.11331176757812,-92.86217498779297,-574.35986328125,-36.0,-10.050000190734863,0.30000001192092896
6.96,89.52398681640625,-53.668426513671875,68.41670989990234,137.09494018554688,-49.82848358154297,-595.5436401367188,-37.80000305175781,-9.15000057220459,-1.0500000715255737
6.98,89.63890838623047,-55.27732849121094,66.84611511230469,81.67074584960938,-19.85145378112793,-604.0704345703125,-37.80000305175781,-9.15000057220459,-1.0500000715255737
6.983,91.20951080322266,-63.24523162841797,62.74723815917969,-3.3307809829711914,10.658498764038086,-605.669189453125,-38.70000076293945,-0.45000001788139343,0.45000001788139343
6.99,89.98367309570312,-72.4772720336914,56.120086669921875,-51.29402542114258,29.7105655670166,-583.0198974609375,-38.70000076293945,-0.45000001788139343,0.45000001788139343
7.0,88.6046142578125,-76.26969146728516,52.32767105102539,-127.36906433105469,58.4885139465332,-606.2021484375,-40.650001525878906,4.350000381469727,1.6500000953674316
7.01,88.25984954833984,-78.3765869140625,43.593624114990234,-199.44715881347656,92.3292465209961,-596.7427368164062,-37.650001525878906,5.550000190734863,2.25
7.02,92.85671997070312,-77.1890640258789,34.66804122924805,-264.73046875,100.72281646728516,-585.151611328125,-37.650001525878906,5.550000190734863,2.25
7.041,98.48788452148438,-74.00955963134766,27.198131561279297,-308.1638488769531,115.37825012207031,-572.3613891601562,-36.75,12.750000953674316,3.9000000953674316
7.045,98.94757080078125,-66.8844223022461,19.958065032958984,-325.88360595703125,111.5145492553711,-502.1485290527344,-32.400001525878906,18.30000114440918,7.800000190734863
7.05,107.6050033569336,-56.235008239746094,2.719813108444214,-314.6921691894531,104.85298156738281,-480.0321350097656,-32.400001525878906,18.30000114440918,7.800000190734863
7.06,111.39741516113281,-50.68046188354492,-4.137180328369141,-267.1286315917969,78.73966217041016,-418.612548828125,-29.700000762939453,21.0,6.750000476837158
7.07,112.08694458007812,-43.13393783569336,-14.939818382263184,-184.25880432128906,75.5421142578125,-355.8606262207031,-29.700000762939453,21.0,6.750000476837158
7.08,105.49810028076172,-42.32948684692383,-19.99637222290039,-85.26799011230469,84.60183715820312,-292.7090148925781,-29.700000762939453,21.0,6.750000476837158
7.1,97.6451187133789,-52.32767105102539,-16.89348793029785,-6.661561965942383,77.67381286621094,-215.3016815185547,-24.30000114440918,25.80000114440918,11.40000057220459
7.104,93.2780990600586,-64.58598327636719,-11.492168426513672,40.502296447753906,81.93721008300781,-126.5696792602539,-23.25,25.500001907348633,13.500000953674316
7.11,96.07452392578125,-74.3160171508789,-17.42978858947754,45.298622131347656,79.0061264038086,-63.81776428222656,-21.75,27.450000762939453,13.500000953674316
7.12,100.40324401855469,-74.7374038696289,-23.788787841796875,51.4272575378418,61.41960144042969,11.191424369812012,-21.75,27.450000762939453,13.500000953674316
