time,accel_x,accel_y,accel_z,gyro_x,gyro_y,gyro_z,mag_x,mag_y,mag_z
0.0,78.10843658447266,-18.04270362854004,12.832921028137207,1.4655436277389526,3.86370587348938,2.797856092453003,-40.5,-2.700000047683716,-3.9000000953674316
0.003,77.68705749511719,-9.155426979064941,12.564770698547363,-8.260336875915527,9.192955017089844,5.728943347930908,-40.650001525878906,-2.8500001430511475,-4.950000286102295
0.011,77.45721435546875,-9.155426979064941,12.143390655517578,-2.6646246910095215,8.660030364990234,1.4655436277389526,-40.650001525878906,-2.8500001430511475,-4.950000286102295
0.021,77.38059997558594,-8.96389102935791,12.832921028137207,-3.86370587348938,2.9310872554779053,-6.128636837005615,-40.650001525878906,-2.8500001430511475,-4.950000286102295
0.031,77.95520782470703,-8.580819129943848,13.48414421081543,5.8621745109558105,0.9326186776161194,10.392036437988281,-40.20000076293945,-1.350000023841858,-3.450000047683716
0.041,77.45721435546875,-8.427590370178223,12.871228218078613,0.2664624750614166,2.6646246910095215,-1.1990811824798584,-40.20000076293945,-2.4000000953674316,-4.200000286102295
0.06,78.29997253417969,-9.040505409240723,11.645397186279297,-1.3323123455047607,8.260336875915527,-1.1990811824798584,-40.05000305175781,-3.450000047683716,-3.6000001430511475
0.064,76.76768493652344,-8.580819129943848,12.947842597961426,0.39969372749328613,6.261868000030518,-3.0643184185028076,-39.150001525878906,-4.050000190734863,-4.5
0.071,77.84028625488281,-7.661445617675781,12.334927558898926,7.06125545501709,-3.197549819946289,2.531393527984619,-39.150001525878906,-4.050000190734863,-4.5
0.081,76.38461303710938,-9.117119789123535,12.986149787902832,3.0643184185028076,7.327718257904053,-3.197549819946289,-41.55000305175781,-2.700000047683716,-3.6000001430511475
0.091,76.76768493652344,-10.036493301391602,12.832921028137207,7.9938740730285645,7.194486618041992,-7.72741174697876,-40.650001525878906,-4.050000190734863,-4.200000286102295
0.101,78.60643005371094,-9.921571731567383,11.72201156616211,14.255742073059082,-5.329249382019043,3.7304747104644775,-39.900001525878906,-2.1000001430511475,-4.200000286102295
0.12,78.07012939453125,-7.010222434997559,11.492168426513672,15.188361167907715,-6.395099639892578,6.794793128967285,-39.30000305175781,-2.25,-4.350000381469727
0.124,76.69107055664062,-7.354987621307373,12.105083465576172,9.059723854064941,-2.531393527984619,13.056661605834961,-39.30000305175781,-2.25,-4.350000381469727
0.131,77.763671875,-9.002198219299316,12.143390655517578,6.661561965942383,-5.462480545043945,6.661561965942383,-40.95000076293945,-3.1500000953674316,-3.450000047683716
0.141,76.95922088623047,-8.044517517089844,14.939818382263184,3.9969370365142822,-6.395099639892578,16.65390396118164,-40.95000076293945,-2.1000001430511475,-3.750000238418579
0.151,78.64473724365234,-8.389283180236816,13.522451400756836,-0.5329249501228333,-4.929555892944336,6.395099639892578,-39.45000076293945,-4.050000190734863,-3.750000238418579
0.161,77.8019790649414,-9.84495735168457,13.445837020874023,-6.661561965942383,-5.595712184906006,9.592649459838867,-38.70000076293945,-2.8500001430511475,-4.200000286102295
0.18,76.95922088623047,-10.72602367401123,13.982137680053711,-3.197549819946289,-12.25727367401123,28.511484146118164,-38.70000076293945,-2.8500001430511475,-4.200000286102295
0.184,76.07815551757812,-11.60708999633789,13.10107135772705,-10.258805274963379,-12.124042510986328,30.509952545166016,-40.20000076293945,-4.200000286102295,-4.350000381469727
0.191,76.84429931640625,-10.189722061157227,12.60307788848877,-16.387441635131836,-2.531393527984619,11.457886695861816,-40.20000076293945,-2.8500001430511475,-3.750000238418579
0.201,76.84429931640625,-10.342951774597168,11.683704376220703,-10.92496109008789,-5.995405673980713,22.915773391723633,-40.95000076293945,-3.1500000953674316,-4.5
0.211,76.5761489868164,-7.6997528076171875,10.917559623718262,-11.857580184936523,-6.395099639892578,25.447166442871094,-40.80000305175781,-2.700000047683716,-4.650000095367432
0.221,77.57213592529297,-7.1251444816589355,11.990161895751953,-13.722817420959473,6.5283308029174805,15.188361167907715,-41.400001525878906,-4.350000381469727,-4.5
0.241,76.84429931640625,-7.240066051483154,10.879252433776855,-9.992342948913574,-0.39969372749328613,17.186830520629883,-41.400001525878906,-4.350000381469727,-4.5
0.244,75.84831237792969,-10.917559623718262,9.576807022094727,-2.9310872554779053,0.9326186776161194,13.456355094909668,-39.45000076293945,-4.800000190734863,-5.700000286102295
0.251,76.42292022705078,-12.717999458312988,8.96389102935791,2.9310872554779053,-0.7993874549865723,19.98468589782715,-39.45000076293945,-4.800000190734863,-5.700000286102295
0.261,76.72937774658203,-12.756306648254395,9.730035781860352,-1.7320060729980469,11.857580184936523,18.2526798248291,-39.75,-3.0,-4.650000095367432
0.271,76.84429931640625,-10.457873344421387,10.72602367401123,2.531393527984619,1.7320060729980469,20.650842666625977,-39.30000305175781,-4.5,-4.650000095367432
0.281,77.34229278564453,-10.496180534362793,10.5344877243042,4.529861927032471,6.5283308029174805,29.977027893066406,-39.30000305175781,-4.5,-4.650000095367432
0.3,76.69107055664062,-10.955866813659668,10.228029251098633,0.9326186776161194,3.9969370365142822,27.84532928466797,-39.30000305175781,-4.200000286102295,-5.400000095367432
0.304,76.34630584716797,-10.342951774597168,10.572794914245605,2.6646246910095215,11.990811347961426,24.11485481262207,-42.150001525878906,-4.800000190734863,-4.5
0.311,76.38461303710938,-12.756306648254395,13.560758590698242,5.595712184906006,7.460949420928955,23.315465927124023,-42.150001525878906,-4.800000190734863,-4.5
0.321,77.1890640258789,-12.832921028137207,11.377246856689453,-3.0643184185028076,19.052066802978516,17.053598403930664,-41.25,-4.200000286102295,-3.9000000953674316
0.331,77.30398559570312,-12.832921028137207,11.070788383483887,-6.261868000030518,15.721285820007324,19.718223571777344,-41.25,-4.200000286102295,-3.9000000953674316
0.341,75.42693328857422,-10.228029251098633,11.798625946044922,7.860642910003662,8.793261528015137,20.517610549926758,-41.25,-4.200000286102295,-3.9000000953674316
0.36,75.9632339477539,-10.189722061157227,12.373234748840332,15.321592330932617,9.326186180114746,29.7105655670166,-41.70000076293945,-5.850000381469727,-6.300000190734863
0.364,77.38059997558594,-9.998186111450195,11.91354751586914,18.652372360229492,17.986217498779297,14.788667678833008,-40.05000305175781,-4.5,-4.350000381469727
0.371,76.84429931640625,-10.572794914245605,13.177685737609863,12.124042510986328,17.32006072998047,22.116384506225586,-40.05000305175781,-4.5,-4.350000381469727
0.381,76.03984832763672,-11.453861236572266,13.177685737609863,24.64777946472168,10.258805274963379,28.911178588867188,-41.400001525878906,-4.800000190734863,-4.950000286102295
0.391,75.9249267578125,-12.832921028137207,11.683704376220703,8.127105712890625,17.986217498779297,33.57427215576172,-41.400001525878906,-4.800000190734863,-4.950000286102295
0.401,76.69107055664062,-13.982137680053711,12.02846908569336,4.263399600982666,18.2526798248291,22.782541275024414,-40.80000305175781,-4.5,-4.350000381469727
0.42,76.76768493652344,-11.530475616455078,12.526463508605957,12.390504837036133,10.658498764038086,34.906585693359375,-40.95000076293945,-5.100000381469727,-4.200000286102295
0.423,76.23138427734375,-10.955866813659668,13.48414421081543,11.857580184936523,19.185298919677734,21.583459854125977,-40.80000305175781,-4.200000286102295,-3.3000001907348633
0.431,76.69107055664062,-12.717999458312988,13.254301071166992,7.594180583953857,19.052066802978516,32.108726501464844,-40.80000305175781,-4.200000286102295,-3.3000001907348633
0.441,76.07815551757812,-11.03248119354248,11.990161895751953,7.9938740730285645,20.117916107177734,36.771820068359375,-40.80000305175781,-4.200000286102295,-3.3000001907348633
0.451,75.23539733886719,-9.691728591918945,12.143390655517578,17.453292846679688,13.456355094909668,43.56661605834961,-42.0,-5.700000286102295,-3.6000001430511475
0.461,75.9632339477539,-9.691728591918945,15.169661521911621,19.31852912902832,22.116384506225586,32.108726501464844,-40.5,-7.200000286102295,-3.6000001430511475
0.48,76.537841796875,-13.905523300170898,13.867216110229492,14.92189884185791,17.586523056030273,35.57273864746094,-41.400001525878906,-6.750000476837158,-4.200000286102295
0.484,75.9632339477539,-14.939818382263184,14.020444869995117,37.83767318725586,12.790199279785156,43.56661605834961,-41.400001525878906,-6.750000476837158,-4.200000286102295
0.491,74.62248229980469,-8.504204750061035,13.445837020874023,46.897396087646484,18.78560447692871,42.23430252075195,-41.400001525878906,-6.750000476837158,-4.200000286102295
0.501,73.43495178222656,-7.393294811248779,14.135366439819336,50.09494400024414,19.98468589782715,44.63246536254883,-42.150001525878906,-7.500000476837158,-4.200000286102295
0.511,76.72937774658203,-14.020444869995117,13.369222640991211,51.160797119140625,23.315465927124023,46.364471435546875,-40.5,-6.450000286102295,-2.8500001430511475
0.521,75.58016204833984,-16.625335693359375,12.717999458312988,48.62940216064453,18.652372360229492,47.0306282043457,-40.80000305175781,-7.200000286102295,-3.6000001430511475
0.54,75.77169799804688,-16.81687355041504,14.824896812438965,34.373661041259766,25.980091094970703,34.10719680786133,-40.80000305175781,-7.200000286102295,-4.350000381469727
0.543,75.8866195678711,-12.756306648254395,19.574993133544922,43.96630859375,13.323123931884766,48.8958625793457,-40.80000305175781,-7.200000286102295,-4.350000381469727
0.551,73.47325897216797,-8.542511940002441,21.528661727905273,47.163856506347656,12.790199279785156,42.633995056152344,-40.5,-8.100000381469727,-3.9000000953674316
0.561,72.93695831298828,-10.994174003601074,20.149600982666016,53.95865249633789,18.78560447692871,42.90045928955078,-40.5,-8.850000381469727,-4.650000095367432
0.571,74.00955963134766,-19.766529083251953,16.778566360473633,40.635528564453125,24.914241790771484,34.50688934326172,-41.70000076293945,-10.200000762939453,-2.700000047683716
0.581,74.43093872070312,-19.80483627319336,14.824896812438965,30.776416778564453,26.779478073120117,36.905052185058594,-42.30000305175781,-7.200000286102295,-2.8500001430511475
0.6,74.77571105957031,-16.242263793945312,15.782577514648438,41.035221099853516,20.517610549926758,28.644716262817383,-42.30000305175781,-7.200000286102295,-2.8500001430511475
0.603,75.15878295898438,-9.308655738830566,17.659631729125977,69.4134750366211,14.788667678833008,44.63246536254883,-41.25,-8.40000057220459,-3.3000001907348633
0.611,74.96724700927734,-11.798625946044922,20.379444122314453,76.87442779541016,17.586523056030273,40.23583221435547,-40.5,-9.600000381469727,-3.3000001907348633
0.621,75.04386138916016,-18.23423957824707,18.34916114807129,81.93721008300781,14.12251091003418,36.10566711425781,-42.150001525878906,-9.75,-3.750000238418579
0.631,77.26567840576172,-27.811046600341797,16.970102310180664,55.55742645263672,8.260336875915527,34.50688934326172,-41.400001525878906,-9.0,-3.450000047683716
0.641,76.34630584716797,-29.879636764526367,15.24627685546875,25.580398559570312,15.721285820007324,29.177640914916992,-41.400001525878906,-9.0,-3.450000047683716
0.66,76.76768493652344,-26.85336685180664,13.599065780639648,17.32006072998047,10.658498764038086,25.980091094970703,-41.55000305175781,-11.100000381469727,-4.350000381469727
0.664,77.1507568359375,-25.857378005981445,13.21599292755127,13.189892768859863,12.124042510986328,21.45022964477539,-42.900001525878906,-9.75,-4.5
0.671,76.19307708740234,-21.222204208374023,14.288596153259277,11.324655532836914,17.852985382080078,7.9938740730285645,-42.45000076293945,-9.75,-2.25
0.681,75.77169799804688,-20.149600982666016,17.161638259887695,7.460949420928955,20.117916107177734,10.92496109008789,-41.55000305175781,-11.850000381469727,-3.3000001907348633
0.691,77.03583526611328,-20.915746688842773,16.970102310180664,4.529861927032471,19.85145378112793,6.661561965942383,-43.20000076293945,-10.200000762939453,-2.25
0.701,74.39263153076172,-21.796812057495117,15.782577514648438,11.324655532836914,9.059723854064941,11.058192253112793,-43.20000076293945,-10.200000762939453,-2.25
0.72,74.04786682128906,-18.54069709777832,18.11931800842285,-6.661561965942383,17.719755172729492,7.327718257904053,-42.30000305175781,-10.800000190734863,-2.8500001430511475
0.724,74.3160171508789,-20.685903549194336,20.41775131225586,-4.130168437957764,13.856048583984375,6.261868000030518,-42.30000305175781,-10.800000190734863,-2.8500001430511475
0.731,73.7031021118164,-18.962078094482422,19.345149993896484,-7.860642910003662,11.058192253112793,10.791729927062988,-42.900001525878906,-11.40000057220459,-3.450000047683716
0.741,73.51156616210938,-18.310853958129883,19.345149993896484,-7.594180583953857,14.788667678833008,3.86370587348938,-40.95000076293945,-10.200000762939453,-2.700000047683716
0.751,76.61445617675781,-19.766529083251953,17.73624610900879,-17.852985382080078,14.255742073059082,6.9280242919921875,-40.95000076293945,-10.200000762939453,-2.700000047683716
0.761,76.88260650634766,-17.046716690063477,16.58702850341797,-11.857580184936523,-0.7993874549865723,11.457886695861816,-42.0,-9.15000057220459,-2.1000001430511475
0.78,75.12047576904297,-12.90953540802002,21.107282638549805,0.2664624750614166,-4.529861927032471,18.385910034179688,-43.05000305175781,-10.800000190734863,-2.5500001907348633
0.783,73.12849426269531,-11.875240325927734,20.609289169311523,12.656967163085938,2.531393527984619,11.857580184936523,-42.45000076293945,-10.5,-2.25
0.791,71.51959228515625,-15.24627685546875,19.651607513427734,28.511484146118164,-5.462480545043945,15.055130004882812,-43.05000305175781,-11.100000381469727,-3.3000001907348633
0.801,72.66880798339844,-23.75048065185547,17.851167678833008,22.649311065673828,-5.728943347930908,18.119447708129883,-43.05000305175781,-11.100000381469727,-3.3000001907348633
0.811,74.54586791992188,-26.2021427154541,16.510414123535156,3.0643184185028076,4.130168437957764,11.324655532836914,-43.05000305175781,-11.100000381469727,-3.3000001907348633
0.821,76.11646270751953,-21.643583297729492,13.177685737609863,-1.1990811824798584,5.995405673980713,12.656967163085938,-40.80000305175781,-11.100000381469727,-3.3000001907348633
0.839,75.31201171875,-17.42978858947754,13.560758590698242,15.188361167907715,-2.2649309635162354,24.64777946472168,-42.45000076293945,-11.700000762939453,-2.700000047683716
0.842,74.46924591064453,-17.50640296936035,13.10107135772705,21.050535202026367,4.529861927032471,18.78560447692871,-42.45000076293945,-11.700000762939453,-2.700000047683716
0.851,75.08216857910156,-19.49837875366211,13.867216110229492,13.323123931884766,10.392036437988281,19.185298919677734,-42.150001525878906,-11.40000057220459,-3.0
0.861,74.2394027709961,-23.865402221679688,14.67166805267334,5.595712184906006,6.128636837005615,27.578866958618164,-42.150001525878906,-11.40000057220459,-3.0
0.871,74.6607894897461,-24.13355255126953,14.939818382263184,1.4655436277389526,3.4640121459960938,20.784072875976562,-43.650001525878906,-11.40000057220459,-1.9500000476837158
0.881,74.3160171508789,-22.256498336791992,16.81687355041504,-8.926492691040039,12.790199279785156,21.716691970825195,-41.70000076293945,-11.700000762939453,-3.0
0.991,74.2777099609375,-25.933992385864258,19.07699966430664,-42.101070404052734,-7.194486618041992,28.378253936767578,-43.5,-13.050000190734863,-2.8500001430511475
1.009,74.46924591064453,-24.746469497680664,17.468095779418945,-49.29555892944336,1.9984685182571411,49.29555892944336,-42.0,-13.800000190734863,-3.3000001907348633
1.013,74.89063262939453,-23.63555908203125,15.322891235351562,-72.0781021118164,5.329249382019043,48.09647750854492,-42.150001525878906,-14.850000381469727,-2.25
1.021,75.69508361816406,-29.03687858581543,11.03248119354248,-81.13782501220703,13.856048583984375,43.16691970825195,-42.150001525878906,-14.850000381469727,-2.25
1.031,75.65677642822266,-33.672054290771484,9.423578262329102,-103.12097930908203,14.255742073059082,51.027565002441406,-40.650001525878906,-14.850000381469727,-3.0
1.041,76.61445617675781,-30.952239990234375,14.36521053314209,-96.59264373779297,7.06125545501709,51.560489654541016,-40.95000076293945,-14.850000381469727,-1.9500000476837158
1.051,78.18505096435547,-17.391481399536133,23.060951232910156,-88.46553802490234,-0.2664624750614166,49.02909469604492,-42.75,-13.500000953674316,-2.8500001430511475
1.061,77.763671875,-13.867216110229492,28.38565444946289,-65.68299865722656,-11.591117858886719,56.22358322143555,-43.05000305175781,-14.250000953674316,-3.3000001907348633
1.073,76.95922088623047,-12.986149787902832,28.807035446166992,-44.23276901245117,-18.91883659362793,47.56355285644531,-42.900001525878906,-14.250000953674316,-3.3000001907348633
1.081,75.9249267578125,-23.52063751220703,21.107282638549805,-55.15773391723633,-17.32006072998047,70.74578857421875,-42.900001525878906,-15.600000381469727,-0.9000000357627869
1.091,74.00955963134766,-27.734432220458984,22.90772247314453,-78.73966217041016,-11.457886695861816,70.47932434082031,-41.70000076293945,-15.15000057220459,-2.25
1.101,76.80599212646484,-28.768728256225586,19.07699966430664,-77.54058074951172,-15.588054656982422,57.422664642333984,-40.95000076293945,-14.850000381469727,-0.45000001788139343
1.111,78.4148941040039,-27.46628189086914,18.004396438598633,-82.07044219970703,-15.588054656982422,63.151607513427734,-42.30000305175781,-15.750000953674316,-1.0500000715255737
1.13,78.14674377441406,-25.51261329650879,15.284584045410156,-85.13475799560547,-16.65390396118164,55.4241943359375,-42.30000305175781,-15.750000953674316,-1.0500000715255737
1.134,80.71332550048828,-27.46628189086914,11.60708999633789,-99.92343139648438,-24.781009674072266,72.61102294921875,-41.70000076293945,-17.100000381469727,-1.6500000953674316
1.141,82.59038543701172,-25.780763626098633,12.181697845458984,-92.99540710449219,-32.77488327026367,70.21286010742188,-41.70000076293945,-17.100000381469727,-1.6500000953674316
1.151,83.85452270507812,-23.3291015625,12.679692268371582,-91.13016510009766,-37.4379768371582,87.79938507080078,-43.650001525878906,-17.100000381469727,-2.25
1.161,86.45941162109375,-21.37543296813965,13.445837020874023,-84.86830139160156,-42.23430252075195,81.27105712890625,-43.5,-16.5,-2.5500001907348633
1.171,85.34850311279297,-23.9420166015625,11.91354751586914,-79.0061264038086,-51.027565002441406,93.66156005859375,-43.20000076293945,-15.90000057220459,-2.25
1.189,89.14091491699219,-27.88766098022461,14.250288963317871,-78.07350158691406,-60.22052001953125,92.59571075439453,-43.20000076293945,-15.90000057220459,-2.25
1.194,92.16719055175781,-26.163835525512695,15.207969665527344,-91.66309356689453,-57.15620040893555,87.66615295410156,-42.45000076293945,-17.55000114440918,-2.700000047683716
1.201,90.74982452392578,-27.734432220458984,16.855180740356445,-93.52832794189453,-60.48698043823242,95.79325866699219,-42.45000076293945,-17.55000114440918,-2.700000047683716
1.211,86.57433319091797,-30.722396850585938,16.66364288330078,-101.78866577148438,-64.61714935302734,96.32618713378906,-42.30000305175781,-16.950000762939453,-1.8000000715255737
1.221,86.34449005126953,-30.645782470703125,13.599065780639648,-102.98774719238281,-72.61102294921875,98.59111785888672,-41.55000305175781,-17.700000762939453,-2.5500001907348633
1.231,87.87677764892578,-27.542896270751953,9.768342971801758,-113.11331939697266,-68.34762573242188,100.05665588378906,-41.55000305175781,-17.700000762939453,-2.5500001907348633
1.25,86.1146469116211,-26.54690933227539,8.619126319885254,-113.3797836303711,-85.66768646240234,107.3843765258789,-41.70000076293945,-17.850000381469727,-4.200000286102295
1.254,86.91909790039062,-27.236438751220703,9.730035781860352,-128.03521728515625,-94.59417724609375,114.97856140136719,-40.05000305175781,-18.900001525878906,-3.6000001430511475
1.261,90.2901382446289,-25.627534866333008,10.5344877243042,-137.09494018554688,-85.80091857910156,106.4517593383789,-42.150001525878906,-19.05000114440918,-4.5
1.271,92.55026245117188,-22.792800903320312,14.36521053314209,-146.5543670654297,-92.3292465209961,146.0214385986328,-42.150001525878906,-19.05000114440918,-4.5
1.281,93.8910140991211,-21.45204734802246,13.637372970581055,-155.88055419921875,-107.65084075927734,130.30015563964844,-42.150001525878906,-19.05000114440918,-4.5
1.291,96.57251739501953,-18.923770904541016,13.10107135772705,-170.0030517578125,-106.71822357177734,138.8269500732422,-41.25,-21.600000381469727,-3.6000001430511475
1.31,97.53019714355469,-16.35718536376953,12.60307788848877,-183.05972290039062,-109.11638641357422,151.2174530029297,-42.75,-21.600000381469727,-4.650000095367432
1.314,96.03621673583984,-8.619126319885254,11.377246856689453,-184.79173278808594,-119.24195861816406,175.9984588623047,-40.5,-21.600000381469727,-4.350000381469727
1.321,96.87897491455078,-4.098873138427734,11.60708999633789,-187.85604858398438,-130.30015563964844,188.1225128173828,-41.25,-21.900001525878906,-5.400000095367432
1.331,97.26204681396484,-2.911349296569824,10.113107681274414,-214.10260009765625,-118.57579803466797,194.6508331298828,-41.25,-21.900001525878906,-5.400000095367432
1.341,98.94757080078125,0.9959878921508789,7.354987621307373,-224.3614044189453,-124.8376693725586,203.17764282226562,-39.900001525878906,-23.700000762939453,-6.0
1.351,97.98988342285156,9.998186111450195,8.810662269592285,-205.84225463867188,-138.96017456054688,228.6248016357422,-40.20000076293945,-24.150001525878906,-6.0
1.37,98.98587799072266,18.310853958129883,3.9839515686035156,-194.78407287597656,-142.95712280273438,254.60488891601562,-40.20000076293945,-23.25,-6.0
1.374,100.40324401855469,24.59324073791504,2.9879636764526367,-133.76416015625,-140.6921844482422,270.5926513671875,-40.05000305175781,-24.30000114440918,-7.950000286102295
1.381,103.00813293457031,23.9420166015625,-0.727837324142456,-81.8039779663086,-140.02603149414062,295.50689697265625,-40.05000305175781,-24.30000114440918,-7.950000286102295
1.391,103.42951202392578,17.73624610900879,-1.1875240802764893,8.127105712890625,-155.34762573242188,311.7611083984375,-39.900001525878906,-27.600000381469727,-7.800000190734863
1.401,107.87315368652344,-4.060565948486328,-2.3750481605529785,98.32465362548828,-159.07809448242188,334.410400390625,-38.400001525878906,-28.80000114440918,-8.25
1.411,114.19384765625,-24.59324073791504,3.1028854846954346,156.14700317382812,-160.01071166992188,327.08270263671875,-39.150001525878906,-30.600000381469727,-7.050000190734863
1.43,116.26243591308594,-20.95405387878418,9.998186111450195,228.75804138183594,-156.5467071533203,329.3476257324219,-37.650001525878906,-31.500001907348633,-8.550000190734863
1.434,96.57251739501953,-4.367023944854736,21.720197677612305,320.5543518066406,-117.50994873046875,335.2098083496094,-37.650001525878906,-31.500001907348633,-8.550000190734863
1.441,66.84611511230469,-3.4093432426452637,34.782962799072266,336.1424255371094,-81.93721008300781,329.3476257324219,-36.900001525878906,-33.75,-7.500000476837158
1.451,54.51118469238281,-15.744270324707031,44.66622543334961,272.7243347167969,-81.00459289550781,279.6523742675781,-36.30000305175781,-34.80000305175781,-7.950000286102295
1.461,51.867984771728516,-49.531246185302734,37.924156188964844,196.1163787841797,-53.95865249633789,211.83766174316406,-35.55000305175781,-37.05000305175781,-6.900000095367432
1.471,40.145973205566406,-61.29156494140625,28.040889739990234,121.3736572265625,-22.782541275024414,137.3614044189453,-36.45000076293945,-38.85000228881836,-5.25
1.491,43.70854568481445,-49.3397102355957,29.075185775756836,61.01990509033203,-17.986217498779297,60.48698043823242,-37.95000076293945,-38.85000228881836,-5.700000286102295
1.495,53.208740234375,-24.44001007080078,23.597251892089844,31.44257164001465,0.7993874549865723,-21.183767318725586,-37.95000076293945,-38.85000228881836,-5.700000286102295
1.501,41.83149337768555,2.145204782485962,16.970102310180664,20.117916107177734,20.784072875976562,-58.4885139465332,-36.30000305175781,-39.30000305175781,-4.650000095367432
1.511,37.809234619140625,6.856993675231934,16.89348793029785,31.042879104614258,28.644716262817383,-117.64318084716797,-37.05000305175781,-39.0,-4.650000095367432
1.521,30.91393280029297,12.334927558898926,16.47210693359375,52.3598747253418,35.972434997558594,-160.54364013671875,-38.55000305175781,-40.5,-3.6000001430511475
1.531,28.53888511657715,10.649409294128418,15.935806274414062,54.89126968383789,39.16998291015625,-213.8361358642578,-39.900001525878906,-39.60000228881836,-4.200000286102295
1.55,29.84132957458496,2.3750481605529785,14.09705924987793,63.28483963012695,53.82542037963867,-267.7947998046875,-39.900001525878906,-39.60000228881836,-4.200000286102295
1.553,30.60747528076172,-8.312667846679688,10.381258964538574,62.35221862792969,60.75344467163086,-309.2297058105469,-40.80000305175781,-36.30000305175781,-2.1000001430511475
1.561,31.143775939941406,-22.141576766967773,15.284584045410156,52.3598747253418,66.08269500732422,-348.5329284667969,-41.25,-35.85000228881836,-1.8000000715255737
1.571,33.288978576660156,-27.619510650634766,18.081010818481445,10.92496109008789,73.54364013671875,-392.6324462890625,-41.70000076293945,-34.5,0.15000000596046448
1.581,37.46446990966797,-26.393678665161133,18.502389907836914,-25.7136287689209,84.60183715820312,-437.93109130859375,-43.05000305175781,-31.950000762939453,1.8000000715255737
1.591,43.172245025634766,-17.966089248657227,17.046716690063477,-33.70750427246094,90.99693298339844,-466.7090148925781,-43.05000305175781,-31.950000762939453,1.8000000715255737
1.61,46.58158874511719,-14.480132102966309,14.556746482849121,-18.119447708129883,95.26033782958984,-469.6401062011719,-44.70000076293945,-29.850000381469727,1.6500000953674316
1.613,57.65237808227539,-26.240449905395508,13.522451400756836,-11.724349021911621,108.84992218017578,-508.0107116699219,-46.05000305175781,-25.500001907348633,1.350000023841858
1.621,60.41049575805664,-27.121517181396484,15.322891235351562,-12.124042510986328,105.91883087158203,-525.0643310546875,-46.95000076293945,-21.0,3.0
1.631,64.96905517578125,-27.044902801513672,12.334927558898926,-9.992342948913574,108.3169937133789,-541.185302734375,-49.650001525878906,-21.0,3.750000238418579
1.641,73.74140930175781,-25.09123420715332,9.53849983215332,-4.796324729919434,127.5022964477539,-556.107177734375,-47.70000076293945,-17.100000381469727,5.700000286102295
1.651,80.1770248413086,-25.70414924621582,5.669469833374023,8.660030364990234,134.29708862304688,-570.2296752929688,-47.70000076293945,-17.100000381469727,5.700000286102295
1.67,86.1912612915039,-27.389667510986328,6.856993675231934,34.50688934326172,127.76875305175781,-563.0352172851562,-47.400001525878906,-9.75,6.0
1.674,89.94536590576172,-30.91393280029297,7.5848307609558105,47.9632453918457,130.30015563964844,-564.500732421875,-47.25,-8.40000057220459,7.950000286102295
1.681,93.54624938964844,-33.365596771240234,6.3973069190979,41.701377868652344,141.89126586914062,-572.49462890625,-46.5,-4.950000286102295,9.90000057220459
1.691,96.64913177490234,-34.782962799072266,5.363011837005615,41.967838287353516,143.09034729003906,-570.62939453125,-45.45000076293945,-3.1500000953674316,9.300000190734863
1.701,98.64111328125,-36.35355758666992,6.01423454284668,21.983154296875,147.75344848632812,-574.6263427734375,-45.45000076293945,-3.1500000953674316,9.300000190734863
1.711,99.75202178955078,-34.62973403930664,5.056553840637207,8.260336875915527,158.14547729492188,-588.2159423828125,-42.150001525878906,4.050000190734863,11.550000190734863
1.73,101.24600219726562,-32.178070068359375,3.907337188720703,-7.06125545501709,162.6753387451172,-580.88818359375,-39.45000076293945,9.0,14.100000381469727
1.734,104.23396301269531,-28.423961639404297,1.2258312702178955,-18.119447708129883,150.2848358154297,-576.8912353515625,-39.45000076293945,9.0,14.100000381469727
1.741,105.15333557128906,-26.738445281982422,0.3447650372982025,-11.857580184936523,153.882080078125,-575.8253784179688,-37.650001525878906,10.200000762939453,12.300000190734863
1.751,106.14933013916016,-27.696125030517578,-0.3447650372982025,-18.519142150878906,158.545166015625,-588.7488403320312,-37.650001525878906,10.200000762939453,12.300000190734863
1.761,106.87716674804688,-32.063148498535156,1.4173674583435059,-21.983154296875,165.07350158691406,-569.163818359375,-33.30000305175781,13.500000953674316,14.250000953674316
1.771,110.6695785522461,-33.25067138671875,3.5625722408294678,-47.0306282043457,164.5405731201172,-566.2327880859375,-31.500001907348633,15.450000762939453,15.750000953674316
1.79,113.88739013671875,-30.79901123046875,6.435614109039307,-65.81623077392578,172.6676788330078,-559.5712280273438,-29.250001907348633,17.400001525878906,16.5
1.794,115.61121368408203,-23.405715942382812,-1.8387469053268433,-69.54670715332031,161.34303283691406,-516.6707153320312,-25.950000762939453,18.30000114440918,17.100000381469727
1.801,115.84105682373047,-23.865402221679688,-2.911349296569824,-50.62786865234375,150.2848358154297,-479.3659973144531,-25.950000762939453,18.30000114440918,17.700000762939453
1.811,115.49629211425781,-25.5892276763916,-6.550535678863525,-43.96630859375,141.4915771484375,-433.00152587890625,-25.950000762939453,18.30000114440918,17.700000762939453
1.821,114.8067626953125,-33.17405700683594,-9.730035781860352,-42.633995056152344,140.82542419433594,-374.9126892089844,-21.75,19.650001525878906,20.55000114440918
1.831,107.87315368652344,-41.02703857421875,-9.27034854888916,-32.77488327026367,114.97856140136719,-307.63092041015625,-21.150001525878906,22.200000762939453,19.650001525878906
1.85,102.318603515625,-53.93657684326172,-10.611102104187012,-90.86370086669922,89.13169860839844,-190.25421142578125,-18.30000114440918,23.100000381469727,20.850000381469727
1.853,99.2540283203125,-68.26348114013672,-18.157625198364258,-101.52220153808594,77.27411651611328,-154.54823303222656,-18.30000114440918,23.100000381469727,20.850000381469727
1.861,99.2540283203125,-62.74723815917969,-21.030668258666992,-96.8591079711914,44.76569747924805,-102.72128295898438,-18.30000114440918,23.100000381469727,20.850000381469727
1.871,98.87095642089844,-47.615882873535156,-25.474306106567383,-28.24502182006836,9.192955017089844,-17.719755172729492,-15.15000057220459,22.200000762939453,21.150001525878906
1.881,96.57251739501953,-29.22841453552246,-23.290794372558594,33.4410400390625,-19.31852912902832,58.754974365234375,-16.650001525878906,21.75,22.200000762939453
1.9,92.78010559082031,-25.244462966918945,-21.605276107788086,81.67074584960938,-28.644716262817383,131.7657012939453,-16.200000762939453,21.450000762939453,22.950000762939453
1.904,91.66919708251953,-34.9744987487793,-13.905523300170898,101.12251281738281,-45.69831466674805,180.5283203125,-16.80000114440918,21.600000381469727,19.80000114440918
1.911,90.9030532836914,-39.11167907714844,-10.84094524383545,84.60183715820312,-56.889739990234375,178.6630859375,-16.80000114440918,21.600000381469727,19.80000114440918
1.921,91.5159683227539,-33.63374710083008,-9.461885452270508,93.52832794189453,-63.018375396728516,255.67074584960938,-16.80000114440918,20.100000381469727,20.850000381469727
1.931,92.62687683105469,-24.018630981445312,-7.623138427734375,105.5191421508789,-65.28330993652344,239.1500701904297,-18.150001525878906,19.80000114440918,21.450000762939453
1.941,91.05628204345703,-17.276559829711914,-2.3367409706115723,114.57886505126953,-60.62021255493164,261.3996887207031,-19.650001525878906,20.25,19.950000762939453
1.951,80.71332550048828,-14.939818382263184,16.28057098388672,84.33537292480469,1.0658499002456665,228.75804138183594,-18.900001525878906,17.100000381469727,20.400001525878906
1.966,67.45903015136719,-1.9153614044189453,78.22335815429688,-233.0214385986328,-112.84685516357422,93.52832794189453,-18.900001525878906,17.100000381469727,20.400001525878906
1.971,167.44088745117188,83.08837890625,58.724979400634766,-251.4073486328125,-143.2235870361328,126.96936798095703,-18.900001525878906,17.100000381469727,20.400001525878906
1.981,173.11036682128906,102.39521789550781,-39.762901306152344,-52.89280319213867,-57.822357177734375,256.6033630371094,-19.5,16.5,19.5
2.091,76.72937774658203,-43.478702545166016,8.044517517089844,-70.87902069091797,5.062787055969238,119.90811157226562,-25.200000762939453,10.5,18.150001525878906
2.101,75.00555419921875,-20.877439498901367,5.5545477867126465,-90.59724426269531,16.65390396118164,117.11026000976562,-27.450000762939453,8.25,17.700000762939453
2.111,75.9632339477539,2.3367409706115723,6.89530086517334,-69.14701080322266,12.25727367401123,120.17457580566406,-27.450000762939453,8.25,17.700000762939453
2.121,79.6024169921875,5.70777702331543,13.828908920288086,-82.86982727050781,9.059723854064941,115.51148223876953,-27.450000762939453,8.25,17.700000762939453
2.14,79.21934509277344,-6.473921298980713,21.337125778198242,-92.59571075439453,5.8621745109558105,98.05818939208984,-27.30000114440918,8.850000381469727,19.05000114440918
2.144,73.89463806152344,-21.030668258666992,21.030668258666992,-90.86370086669922,6.128636837005615,85.26799011230469,-27.150001525878906,8.25,20.700000762939453
2.151,75.38862609863281,-8.772355079650879,15.935806274414062,-80.33843994140625,4.663093090057373,78.3399658203125,-26.700000762939453,6.750000476837158,19.200000762939453
2.161,76.03984832763672,5.1331682205200195,13.560758590698242,-35.839202880859375,11.591117858886719,79.0061264038086,-27.750001907348633,7.650000095367432,18.75
2.171,76.61445617675781,14.441824913024902,11.568782806396484,21.45022964477539,19.052066802978516,83.40275573730469,-27.750001907348633,7.650000095367432,18.75
2.181,77.57213592529297,7.048529624938965,11.377246856689453,44.36600112915039,7.860642910003662,86.0673828125,-27.30000114440918,6.450000286102295,20.100000381469727
2.201,77.763671875,-11.990161895751953,11.72201156616211,31.042879104614258,11.990811347961426,75.14241790771484,-28.200000762939453,6.750000476837158,18.900001525878906
2.204,78.10843658447266,-22.677879333496094,14.97812557220459,-21.583459854125977,19.584991455078125,73.67687225341797,-27.30000114440918,4.950000286102295,18.30000114440918
2.211,75.15878295898438,-13.330915451049805,19.80483627319336,-23.448698043823242,18.119447708129883,56.756507873535156,-28.200000762939453,6.300000190734863,18.900001525878906
2.221,75.50354766845703,-6.512228488922119,20.11129379272461,-12.523736000061035,6.128636837005615,53.82542037963867,-28.200000762939453,6.300000190734863,18.900001525878906
2.231,76.537841796875,-6.129156112670898,18.502389907836914,-12.656967163085938,9.459418296813965,51.693721771240234,-28.650001525878906,6.750000476837158,20.700000762939453
2.241,76.42292022705078,-5.937620162963867,18.23423957824707,-5.462480545043945,15.987748146057129,56.356815338134766,-30.150001525878906,5.100000381469727,19.200000762939453
2.26,76.11646270751953,-0.07661445438861847,15.552734375,16.520673751831055,12.25727367401123,43.43338394165039,-27.450000762939453,5.550000190734863,18.450000762939453
2.264,75.9249267578125,3.026270866394043,17.8128604888916,12.25727367401123,14.12251091003418,51.560489654541016,-28.500001907348633,6.150000095367432,20.55000114440918
2.271,78.07012939453125,-0.2298433631658554,19.421764373779297,27.17917251586914,18.119447708129883,48.62940216064453,-28.500001907348633,6.150000095367432,20.55000114440918
2.281,76.4995346069336,-1.1875240802764893,21.413740158081055,27.445634841918945,8.926492691040039,48.62940216064453,-28.500001907348633,6.150000095367432,20.55000114440918
2.291,75.19709014892578,-2.451662540435791,25.167848587036133,29.177640914916992,9.192955017089844,60.35375213623047,-27.450000762939453,5.550000190734863,19.650001525878906
2.301,73.43495178222656,-3.9456443786621094,26.278757095336914,20.517610549926758,13.189892768859863,58.4885139465332,-28.650001525878906,4.800000190734863,19.650001525878906
2.32,73.24341583251953,-8.580819129943848,25.129541397094727,10.525267601013184,5.595712184906006,50.76110076904297,-29.55000114440918,5.400000095367432,19.05000114440918
2.324,72.51557922363281,-7.354987621307373,25.39769172668457,6.128636837005615,1.0658499002456665,67.28177642822266,-30.000001907348633,4.5,19.5
2.331,73.93294525146484,-6.167463779449463,22.946029663085938,15.188361167907715,-9.326186180114746,74.74272155761719,-30.000001907348633,4.5,19.5
2.341,78.22335815429688,-11.875240325927734,17.353174209594727,6.395099639892578,-2.531393527984619,64.3506851196289,-27.450000762939453,4.050000190734863,19.200000762939453
2.351,77.03583526611328,-16.28057098388672,11.798625946044922,-1.3323123455047607,-7.06125545501709,70.3460922241211,-29.400001525878906,4.800000190734863,19.650001525878906
2.361,76.23138427734375,-11.683704376220703,12.29662036895752,-4.130168437957764,-6.661561965942383,68.34762573242188,-27.150001525878906,2.1000001430511475,19.650001525878906
2.38,75.50354766845703,-5.324704647064209,16.855180740356445,15.321592330932617,0.9326186776161194,67.14854431152344,-27.900001525878906,2.8500001430511475,20.400001525878906
2.384,73.93294525146484,0.6512228846549988,16.70195198059082,50.09494400024414,-2.2649309635162354,70.47932434082031,-27.900001525878906,2.8500001430511475,20.400001525878906
2.391,73.47325897216797,-1.1875240802764893,21.26051139831543,62.75191116333008,-1.3323123455047607,81.13782501220703,-29.400001525878906,2.1000001430511475,17.700000762939453
2.401,72.66880798339844,-4.367023944854736,23.13756561279297,65.15007781982422,-9.859111785888672,90.33078002929688,-28.500001907348633,3.0,20.100000381469727
2.411,75.65677642822266,-13.177685737609863,21.835119247436523,46.764163970947266,1.8652373552322388,83.66921997070312,-29.400001525878906,1.6500000953674316,18.450000762939453
2.421,77.61044311523438,-16.58702850341797,18.693927764892578,37.4379768371582,-11.191424369812012,93.79479217529297,-28.80000114440918,1.5,18.30000114440918
2.44,77.03583526611328,-12.334927558898926,18.195932388305664,28.644716262817383,-12.523736000061035,104.05359649658203,-28.80000114440918,1.5,18.30000114440918
2.444,77.38059997558594,-9.193734169006348,16.433799743652344,29.444103240966797,-23.581928253173828,117.50994873046875,-28.80000114440918,1.5,18.30000114440918
2.451,83.39483642578125,-21.528661727905273,12.411541938781738,20.117916107177734,-19.052066802978516,110.98162078857422,-28.500001907348633,-1.0500000715255737,18.30000114440918
2.461,82.74361419677734,-24.78477668762207,5.784391403198242,-2.531393527984619,-23.715160369873047,112.98008728027344,-29.400001525878906,0.15000000596046448,18.450000762939453
2.471,77.53382873535156,-19.919757843017578,14.211980819702148,-28.378253936767578,-28.24502182006836,124.30474090576172,-30.000001907348633,-0.75,18.75
2.481,76.80599212646484,-9.117119789123535,19.536685943603516,-18.2526798248291,-30.509952545166016,129.2342987060547,-30.900001525878906,0.15000000596046448,18.900001525878906
2.5,75.73339080810547,-0.5746083855628967,23.75048065185547,-2.9310872554779053,-29.977027893066406,140.82542419433594,-30.900001525878906,0.15000000596046448,18.900001525878906
2.503,73.51156616210938,-2.3367409706115723,23.367408752441406,11.191424369812012,-36.10566711425781,141.4915771484375,-29.55000114440918,-1.0500000715255737,19.5
2.511,76.537841796875,-21.490354537963867,19.421764373779297,1.0658499002456665,-37.70444107055664,145.35528564453125,-32.55000305175781,-1.5,17.55000114440918
2.521,77.57213592529297,-32.13976287841797,18.34916114807129,-33.57427215576172,-37.03828430175781,149.21897888183594,-30.750001907348633,-3.0,19.05000114440918
2.531,79.18103790283203,-33.90189743041992,11.990161895751953,-47.430320739746094,-47.163856506347656,152.949462890625,-31.500001907348633,-2.25,18.0
2.541,76.65276336669922,-22.869415283203125,13.79060173034668,-47.0306282043457,-46.231239318847656,149.88514709472656,-31.500001907348633,-2.25,18.0
2.56,75.42693328857422,-13.445837020874023,13.522451400756836,-30.776416778564453,-40.502296447753906,152.68299865722656,-31.950000762939453,-3.1500000953674316,18.900001525878906
2.564,80.59840393066406,-19.153614044189453,13.522451400756836,-22.782541275024414,-50.89433288574219,151.75038146972656,-30.900001525878906,-4.350000381469727,17.400001525878906
2.571,82.66699981689453,-32.71437072753906,11.990161895751953,-35.17304611206055,-60.35375213623047,149.88514709472656,-31.500001907348633,-3.750000238418579,19.05000114440918
2.581,83.81621551513672,-33.978511810302734,9.84495735168457,-64.084228515625,-53.95865249633789,146.9540557861328,-32.70000076293945,-4.350000381469727,16.650001525878906
2.591,84.85050964355469,-30.68408966064453,16.05072784423828,-75.40888214111328,-56.09035110473633,144.1562042236328,-32.70000076293945,-4.350000381469727,16.650001525878906
2.601,85.84649658203125,-23.252487182617188,18.157625198364258,-58.888206481933594,-65.81623077392578,150.2848358154297,-32.70000076293945,-4.350000381469727,16.650001525878906
2.62,88.22154235839844,-22.754493713378906,16.625335693359375,-56.22358322143555,-69.28024291992188,156.94639587402344,-32.70000076293945,-6.300000190734863,18.150001525878906
2.623,88.25984954833984,-28.577192306518555,13.254301071166992,-71.81163787841797,-81.8039779663086,152.81622314453125,-31.950000762939453,-7.050000190734863,15.600000381469727
2.631,91.66919708251953,-34.24666213989258,11.109095573425293,-83.26952362060547,-83.5359878540039,159.61102294921875,-33.150001525878906,-8.25,16.650001525878906
2.641,91.05628204345703,-33.365596771240234,12.717999458312988,-102.58805084228516,-87.66615295410156,155.34762573242188,-31.500001907348633,-9.15000057220459,15.750000953674316
2.651,91.09458923339844,-30.91393280029297,14.556746482849121,-119.7748794555664,-81.40428924560547,155.08116149902344,-31.500001907348633,-9.15000057220459,15.750000953674316
2.661,93.2780990600586,-26.891674041748047,13.943830490112305,-117.77641296386719,-88.99846649169922,163.74119567871094,-33.0,-10.350000381469727,16.05000114440918
2.68,93.9676284790039,-24.018630981445312,14.863204002380371,-104.45329284667969,-105.78560638427734,171.86830139160156,-34.20000076293945,-11.40000057220459,15.600000381469727
2.684,102.62506103515625,-19.38345718383789,13.905523300170898,-75.67534637451172,-122.3062744140625,176.39816284179688,-32.70000076293945,-12.15000057220459,14.850000381469727
2.691,107.6050033569336,-18.04270362854004,19.19192123413086,-82.33690643310547,-116.71056365966797,170.0030517578125,-32.70000076293945,-12.15000057220459,14.850000381469727
2.701,103.85089111328125,-20.685903549194336,16.970102310180664,-91.79632568359375,-123.9050521850586,197.848388671875,-32.70000076293945,-12.15000057220459,14.850000381469727
2.711,101.7439956665039,-25.167848587036133,14.901511192321777,-121.3736572265625,-133.49769592285156,212.77027893066406,-32.70000076293945,-12.90000057220459,14.100000381469727
2.721,105.88117218017578,-20.494365692138672,16.970102310180664,-144.1562042236328,-130.96630859375,213.8361358642578,-33.45000076293945,-14.40000057220459,13.350000381469727
2.74,108.52437591552734,-13.713987350463867,15.169661521911621,-151.48391723632812,-139.2266387939453,230.3568115234375,-33.45000076293945,-15.15000057220459,13.050000190734863
2.744,109.82682037353516,-7.661445617675781,14.058752059936523,-164.00765991210938,-145.0888214111328,239.68299865722656,-33.0,-17.400001525878906,13.500000953674316
2.751,113.35108184814453,-3.294421434402466,13.79060173034668,-166.40582275390625,-143.88973999023438,252.20672607421875,-33.0,-17.400001525878906,13.500000953674316
2.761,114.7684555053711,0.9576807022094727,15.820884704589844,-166.80551147460938,-145.0888214111328,265.52984619140625,-33.0,-17.400001525878906,13.500000953674316
2.771,123.04281616210938,9.653421401977539,15.207969665527344,-169.8698272705078,-142.82388305664062,278.5865173339844,-33.0,-19.200000762939453,12.0
2.781,120.3613052368164,24.554933547973633,17.583017349243164,-171.60183715820312,-142.69065856933594,284.98162841796875,-33.150001525878906,-22.5,10.800000190734863
2.8,115.30475616455078,26.240449905395508,21.030668258666992,-174.79937744140625,-131.36599731445312,302.3016662597656,-31.650001525878906,-23.700000762939453,9.0
2.803,99.866943359375,13.637372970581055,15.591041564941406,-182.12710571289062,-125.7702865600586,300.30322265625,-31.650001525878906,-23.700000762939453,9.0
2.811,97.37696838378906,3.8307228088378906,9.078812599182129,-171.06890869140625,-126.03675079345703,309.62939453125,-31.650001525878906,-23.700000762939453,9.0
2.821,90.78813171386719,-18.34916114807129,0.8810662031173706,-95.52679443359375,-137.8943328857422,314.5589599609375,-32.25,-25.80000114440918,8.40000057220459
2.831,95.57653045654297,-35.204341888427734,11.760318756103516,14.92189884185791,-128.96783447265625,319.8882141113281,-31.650001525878906,-28.350000381469727,6.300000190734863
2.841,102.2802963256836,-22.448034286499023,31.680076599121094,143.88973999023438,-136.16232299804688,345.6018371582031,-31.650001525878906,-28.80000114440918,7.050000190734863
2.86,99.866943359375,-12.105083465576172,22.218191146850586,191.58651733398438,-102.8545150756836,349.4655456542969,-30.30000114440918,-31.650001525878906,6.600000381469727
2.864,53.43858337402344,-54.74102783203125,26.508602142333984,112.31393432617188,-74.47626495361328,256.7366027832031,-30.450000762939453,-33.75,7.500000476837158
2.871,48.343719482421875,-51.21676254272461,18.962078094482422,65.016845703125,-52.626338958740234,186.5237274169922,-30.450000762939453,-33.75,7.500000476837158
2.881,51.1401481628418,-28.53888511657715,22.639572143554688,13.989279747009277,-52.626338958740234,130.43338012695312,-28.950000762939453,-34.95000076293945,5.700000286102295
2.891,59.18466567993164,-0.2298433631658554,16.395492553710938,7.06125545501709,-29.577335357666016,82.20367431640625,-30.150001525878906,-36.900001525878906,6.300000190734863
2.901,50.41231155395508,17.889474868774414,12.526463508605957,22.116384506225586,4.263399600982666,14.788667678833008,-27.450000762939453,-35.25,5.700000286102295
2.919,42.1762580871582,26.96828842163086,17.774553298950195,108.050537109375,32.64165496826172,-56.62327575683594,-27.450000762939453,-35.25,5.700000286102295
2.923,31.22039031982422,12.526463508605957,10.72602367401123,131.7657012939453,37.83767318725586,-74.60948944091797,-28.05000114440918,-38.55000305175781,6.900000095367432
2.931,30.0711727142334,8.006210327148438,9.768342971801758,148.28636169433594,51.693721771240234,-113.64624786376953,-29.250001907348633,-76.6500015258789,6.900000095367432
2.941,28.61549949645996,-0.8810662031173706,9.500192642211914,158.27871704101562,63.018375396728516,-162.1424102783203,-28.200000762939453,-38.85000228881836,8.25
2.951,27.083209991455078,-7.2783732414245605,10.228029251098633,142.95712280273438,67.5482406616211,-231.2894287109375,-29.250001907348633,-39.0,8.40000057220459
2.961,26.96828842163086,-8.197746276855469,9.232041358947754,127.76875305175781,86.73353576660156,-281.5176086425781,-29.250001907348633,-39.0,8.40000057220459
2.98,27.542896270751953,-7.240066051483154,8.274360656738281,130.03369140625,94.46094512939453,-324.6845397949219,-30.000001907348633,-36.30000305175781,10.200000762939453
2.984,31.450233459472656,-8.389283180236816,9.500192642211914,143.4900360107422,93.66156005859375,-369.7166748046875,-30.000001907348633,-36.30000305175781,10.65000057220459
2.991,33.557132720947266,-12.143390655517578,10.917559623718262,145.6217498779297,97.92495727539062,-394.4976806640625,-31.80000114440918,-35.10000228881836,11.700000762939453
3.001,37.73262023925781,-19.421764373779297,11.338939666748047,120.17457580566406,113.3797836303711,-437.1316833496094,-31.650001525878906,-34.5,12.300000190734863
3.011,44.28315353393555,-26.087221145629883,12.373234748840332,102.72128295898438,112.98008728027344,-476.70135498046875,-31.650001525878906,-34.5,12.300000190734863
3.021,47.884033203125,-29.496564865112305,13.407529830932617,72.87748718261719,115.91117858886719,-506.0122375488281,-33.0,-31.950000762939453,13.200000762939453
3.034,54.587799072265625,-31.335311889648438,12.066776275634766,43.16691970825195,126.16998291015625,-550.6447143554688,-34.650001525878906,-29.55000114440918,13.350000381469727
3.041,62.479087829589844,-32.44622039794922,10.879252433776855,29.977027893066406,133.89739990234375,-560.5038452148438,-33.45000076293945,-29.55000114440918,14.40000057220459
3.051,69.06793212890625,-33.863590240478516,10.304644584655762,31.575803756713867,136.69525146484375,-564.3674926757812,-34.95000076293945,-27.600000381469727,15.90000057220459
3.061,76.88260650634766,-34.32327651977539,7.4316020011901855,27.445634841918945,138.6937255859375,-579.95556640625,-34.95000076293945,-27.600000381469727,15.90000057220459
3.071,81.70931243896484,-36.16202163696289,8.236053466796875,13.456355094909668,146.68759155273438,-589.9479370117188,-34.95000076293945,-27.600000381469727,15.90000057220459
3.081,85.92311096191406,-37.46446990966797,8.312667846679688,17.986217498779297,136.4287872314453,-595.9432983398438,-37.5,-23.55000114440918,19.5
3.094,92.55026245117188,-36.928165435791016,9.117119789123535,17.053598403930664,151.2174530029297,-600.7396240234375,-37.5,-20.850000381469727,18.75
3.101,100.09678649902344,-31.7183837890625,11.070788383483887,27.84532928466797,159.21133422851562,-601.938720703125,-37.650001525878906,-17.850000381469727,20.400001525878906
3.111,100.63308715820312,-31.986534118652344,9.576807022094727,36.771820068359375,161.87594604492188,-593.9448852539062,-37.95000076293945,-14.850000381469727,21.75
3.121,101.89722442626953,-30.875625610351562,10.687716484069824,49.56201934814453,157.34608459472656,-585.151611328125,-37.95000076293945,-14.850000381469727,21.75
3.131,104.42549896240234,-32.82929229736328,9.346963882446289,45.69831466674805,158.81163024902344,-578.7564697265625,-37.20000076293945,-10.5,24.450000762939453
3.149,105.15333557128906,-35.6257209777832,10.036493301391602,21.84992218017578,167.33843994140625,-579.2894287109375,-36.75,-7.650000095367432,23.850000381469727
3.153,106.14933013916016,-37.27293395996094,7.048529624938965,5.462480545043945,170.0030517578125,-569.5635375976562,-36.45000076293945,-6.750000476837158,26.250001907348633
3.161,105.76625061035156,-37.694313049316406,3.6774938106536865,-3.86370587348938,170.4027557373047,-559.7044067382812,-35.55000305175781,-3.450000047683716,27.900001525878906
3.171,107.14531707763672,-37.387855529785156,3.2561142444610596,-15.055130004882812,172.6676788330078,-565.5665893554688,-35.55000305175781,-3.450000047683716,27.900001525878906
3.181,107.6050033569336,-35.24264907836914,0.15322890877723694,-31.842266082763672,172.80091857910156,-568.4976806640625,-34.80000305175781,0.0,30.450000762939453
3.191,108.71591186523438,-34.55311965942383,3.2561142444610596,-42.500762939453125,171.06890869140625,-552.5099487304688,-32.25,0.30000001192092896,31.200000762939453
3.21,110.20989227294922,-33.05913543701172,1.4173674583435059,-51.693721771240234,168.0045928955078,-534.3905029296875,-30.750001907348633,4.200000286102295,32.25
3.214,113.88739013671875,-33.13574981689453,-0.3447650372982025,-57.689125061035156,160.6768798828125,-490.8238830566406,-30.000001907348633,6.450000286102295,33.75
3.221,114.8067626953125,-32.86759948730469,-4.558559894561768,-57.55589294433594,156.14700317382812,-460.0474548339844,-30.000001907348633,6.450000286102295,33.75
3.231,114.34707641601562,-34.09343338012695,-7.929595947265625,-57.822357177734375,145.6217498779297,-421.9433288574219,-27.150001525878906,9.0,36.150001525878906
3.241,111.09095764160156,-37.924156188964844,-10.266336441040039,-62.618682861328125,135.36293029785156,-364.3874206542969,-24.0,8.40000057220459,37.80000305175781
3.251,110.59296417236328,-43.32547378540039,-10.304644584655762,-82.6033706665039,126.30321502685547,-309.76263427734375,-24.900001525878906,9.0,37.95000076293945
3.269,110.51634979248047,-52.05952072143555,-11.530475616455078,-90.33078002929688,103.52066802978516,-232.35528564453125,-21.900001525878906,12.15000057220459,39.150001525878906
3.273,106.30255889892578,-59.759273529052734,-10.955866813659668,-111.781005859375,65.68299865722656,-142.02450561523438,-21.0,11.550000190734863,39.0
3.281,104.38719177246094,-55.622093200683594,-19.115306854248047,-92.46247863769531,46.764163970947266,-83.66921997070312,-21.0,11.550000190734863,39.0
3.291,102.62506103515625,-45.777137756347656,-21.413740158081055,-32.5084228515625,7.72741174697876,-6.794793128967285,-20.400001525878906,9.75,40.95000076293945
3.301,96.18944549560547,-33.978511810302734,-20.41775131225586,20.117916107177734,-15.321592330932617,74.20980072021484,-19.5,9.600000381469727,42.30000305175781
3.311,91.55427551269531,-28.040889739990234,-16.35718536376953,59.95405578613281,-41.568145751953125,147.0872802734375,-19.5,10.800000190734863,42.30000305175781
3.33,89.29414367675781,-31.60346221923828,-13.637372970581055,82.47013854980469,-48.22970962524414,192.25267028808594,-19.05000114440918,9.600000381469727,41.55000305175781
3.334,90.36675262451172,-35.31926345825195,-11.798625946044922,96.32618713378906,-65.54976654052734,232.75497436523438,-19.05000114440918,9.600000381469727,41.55000305175781
3.341,93.20148468017578,-29.53487205505371,-9.346963882446289,111.11485290527344,-70.61255645751953,257.6692199707031,-18.900001525878906,7.800000190734863,41.70000076293945
3.351,93.66117095947266,-23.980323791503906,-10.611102104187012,119.10872650146484,-76.60796356201172,282.1837463378906,-20.400001525878906,9.0,42.45000076293945
3.361,90.02198028564453,-18.847156524658203,-6.167463779449463,135.4961700439453,-63.551300048828125,295.6401062011719,-21.450000762939453,9.450000762939453,42.0
3.371,73.28172302246094,-18.272546768188477,15.705963134765625,101.9218978881836,7.194486618041992,259.4012145996094,-22.950000762939453,8.700000762939453,41.25
3.39,60.678646087646484,0.15322890877723694,102.16537475585938,-200.5130157470703,-69.14701080322266,94.32771301269531,-22.950000762939453,8.700000762939453,41.25
3.395,147.2146759033203,69.9873046875,136.02896118164062,-135.4961700439453,-163.0750274658203,252.4731903076172,-21.150001525878906,7.050000190734863,42.0
3.401,136.297119140625,104.27227020263672,-99.52217864990234,33.4410400390625,-65.41653442382812,357.5926513671875,-23.400001525878906,4.800000190734863,42.45000076293945
3.411,87.22555541992188,48.037261962890625,-52.02121353149414,180.26187133789062,-24.248085021972656,365.5865173339844,-22.5,3.750000238418579,42.30000305175781
3.421,60.678646087646484,-29.917943954467773,14.939818382263184,149.7519073486328,-37.304744720458984,336.5421142578125,-24.0,3.750000238418579,42.30000305175781
3.431,58.418521881103516,-83.31822204589844,28.8453426361084,15.588054656982422,-39.70290756225586,248.34303283691406,-23.55000114440918,4.200000286102295,41.10000228881836
3.45,49.49293899536133,-60.7935676574707,44.74283981323242,-26.379785537719727,-54.22511291503906,213.0367431640625,-23.55000114440918,4.200000286102295,41.10000228881836
3.454,62.32585906982422,-9.806650161743164,37.27293395996094,96.99234008789062,-49.42878723144531,227.95864868164062,-25.05000114440918,3.0,41.10000228881836
3.461,83.43314361572266,-2.873042106628418,26.393678665161133,156.94639587402344,-48.8958625793457,224.76109313964844,-26.55000114440918,2.25,41.10000228881836
3.471,85.76988220214844,-11.798625946044922,26.623523712158203,159.8774871826172,-51.027565002441406,211.0382843017578,-25.80000114440918,0.75,41.55000305175781
3.481,74.12448120117188,-22.409727096557617,20.264522552490234,119.64165496826172,-41.83460998535156,195.050537109375,-26.55000114440918,1.0500000715255737,40.05000305175781
3.591,76.99752807617188,-4.63517427444458,10.304644584655762,20.91730499267578,-10.525267601013184,112.18070220947266,-28.950000762939453,-2.1000001430511475,39.45000076293945
3.601,79.0278091430664,-13.369222640991211,10.687716484069824,18.78560447692871,-5.728943347930908,96.72587585449219,-28.950000762939453,-2.1000001430511475,39.45000076293945
3.611,79.6024169921875,-20.609289169311523,11.224017143249512,-7.194486618041992,0.1332312375307083,87.9326171875,-29.55000114440918,-4.5,39.60000228881836
3.63,76.80599212646484,-20.456058502197266,11.91354751586914,-24.51454734802246,1.0658499002456665,63.950992584228516,-28.80000114440918,-5.700000286102295,40.80000305175781
3.633,75.69508361816406,-16.47210693359375,12.526463508605957,-1.4655436277389526,1.3323123455047607,69.28024291992188,-28.05000114440918,-3.750000238418579,41.10000228881836
3.641,75.84831237792969,-6.742072105407715,11.875240325927734,8.793261528015137,0.5329249501228333,69.54670715332031,-28.05000114440918,-3.750000238418579,41.10000228881836
3.651,76.03984832763672,-5.439626216888428,13.330915451049805,19.584991455078125,1.5987749099731445,67.814697265625,-28.05000114440918,-3.750000238418579,41.10000228881836
3.661,77.84028625488281,-14.250288963317871,14.326903343200684,8.127105712890625,10.525267601013184,63.151607513427734,-28.05000114440918,-3.750000238418579,41.10000228881836
3.671,77.68705749511719,-19.230228424072266,15.093047142028809,-5.8621745109558105,8.39356803894043,63.28483963012695,-29.250001907348633,-3.450000047683716,41.10000228881836
3.69,78.60643005371094,-15.820884704589844,11.338939666748047,-9.992342948913574,9.326186180114746,63.018375396728516,-28.950000762939453,-5.100000381469727,41.70000076293945
3.695,76.19307708740234,-10.994174003601074,13.867216110229492,1.7320060729980469,7.327718257904053,62.8851432800293,-27.750001907348633,-5.700000286102295,40.05000305175781
3.701,73.43495178222656,-7.6997528076171875,16.05072784423828,4.263399600982666,11.857580184936523,67.28177642822266,-27.750001907348633,-5.700000286102295,40.05000305175781
3.711,73.43495178222656,-11.645397186279297,17.889474868774414,8.926492691040039,4.396630764007568,63.28483963012695,-27.750001907348633,-5.700000286102295,40.05000305175781
3.721,73.16680145263672,-14.863204002380371,16.778566360473633,-5.995405673980713,2.2649309635162354,30.776416778564453,-29.400001525878906,-6.300000190734863,41.25
3.731,76.34630584716797,-16.35718536376953,21.643583297729492,-10.92496109008789,3.7304747104644775,59.287899017333984,-31.200000762939453,-7.500000476837158,40.650001525878906
3.75,77.763671875,-10.802638053894043,20.456058502197266,1.5987749099731445,-10.125574111938477,69.4134750366211,-30.000001907348633,-6.150000095367432,41.55000305175781
3.753,71.51959228515625,-2.75812029838562,22.677879333496094,23.848390579223633,-3.86370587348938,72.87748718261719,-30.000001907348633,-6.150000095367432,41.55000305175781
3.761,73.0518798828125,-6.282385349273682,22.984336853027344,36.372127532958984,-3.86370587348938,69.28024291992188,-30.000001907348633,-6.150000095367432,41.55000305175781
3.771,73.32003021240234,-12.947842597961426,17.276559829711914,38.50382614135742,-6.128636837005615,66.08269500732422,-30.000001907348633,-9.600000381469727,41.85000228881836
3.781,74.46924591064453,-24.24847412109375,13.177685737609863,26.379785537719727,-9.992342948913574,74.20980072021484,-28.650001525878906,-6.750000476837158,41.25
3.791,75.61846923828125,-24.66985511779785,12.60307788848877,6.128636837005615,-0.6661561727523804,80.33843994140625,-28.650001525878906,-7.800000190734863,41.70000076293945
3.81,75.58016204833984,-15.437812805175781,15.054739952087402,25.980091094970703,-13.056661605834961,91.66309356689453,-28.80000114440918,-9.15000057220459,41.55000305175781
3.813,77.95520782470703,-7.929595947265625,17.1999454498291,22.382848739624023,-8.127105712890625,87.39968872070312,-28.80000114440918,-9.15000057220459,41.55000305175781
3.821,77.68705749511719,-9.423578262329102,17.889474868774414,36.63859176635742,-11.324655532836914,102.72128295898438,-30.30000114440918,-7.650000095367432,40.35000228881836
3.831,76.69107055664062,-12.679692268371582,14.020444869995117,17.719755172729492,-9.459418296813965,93.52832794189453,-28.80000114440918,-8.40000057220459,40.05000305175781
3.841,76.95922088623047,-17.161638259887695,15.820884704589844,20.517610549926758,-10.125574111938477,100.3231201171875,-27.750001907348633,-8.100000381469727,40.80000305175781
3.851,77.64875030517578,-21.222204208374023,15.552734375,7.594180583953857,-18.385910034179688,112.18070220947266,-29.250001907348633,-9.15000057220459,41.55000305175781
3.87,76.38461303710938,-21.796812057495117,15.476119995117188,-4.796324729919434,-12.656967163085938,105.91883087158203,-29.250001907348633,-9.15000057220459,41.55000305175781
3.874,76.69107055664062,-14.901511192321777,16.35718536376953,-13.456355094909668,-14.12251091003418,116.84379577636719,-30.000001907348633,-9.15000057220459,40.35000228881836
3.881,77.49552154541016,-16.66364288330078,15.284584045410156,-9.059723854064941,-19.185298919677734,119.64165496826172,-31.500001907348633,-10.350000381469727,40.35000228881836
3.891,77.1507568359375,-22.639572143554688,13.982137680053711,-18.519142150878906,-23.04900360107422,134.5635528564453,-29.400001525878906,-9.75,40.650001525878906
3.901,78.72135162353516,-27.46628189086914,10.611102104187012,-47.163856506347656,-15.45482349395752,130.1669158935547,-30.150001525878906,-10.5,42.0
3.911,79.52580261230469,-26.12552833557129,12.7946138381958,-55.4241943359375,-16.65390396118164,135.89585876464844,-29.250001907348633,-11.100000381469727,41.10000228881836
3.928,78.79796600341797,-17.73624610900879,17.62132453918457,-43.69984436035156,-27.578866958618164,140.82542419433594,-29.250001907348633,-11.100000381469727,41.10000228881836
3.932,81.70931243896484,-21.107282638549805,20.072986602783203,-39.70290756225586,-32.77488327026367,144.68911743164062,-29.250001907348633,-13.500000953674316,40.35000228881836
3.941,81.21131896972656,-24.325088500976562,19.728221893310547,-39.83613967895508,-35.57273864746094,154.9479217529297,-29.55000114440918,-14.250000953674316,40.35000228881836
3.951,82.62869262695312,-27.46628189086914,16.47210693359375,-55.29096221923828,-36.10566711425781,160.8101043701172,-30.30000114440918,-13.500000953674316,40.05000305175781
3.961,85.19527435302734,-29.15180015563965,14.326903343200684,-67.68146514892578,-42.90045928955078,158.4119415283203,-29.400001525878906,-14.100000381469727,40.650001525878906
3.971,86.07633972167969,-27.427974700927734,16.395492553710938,-85.93415069580078,-45.69831466674805,166.67227172851562,-29.400001525878906,-14.100000381469727,40.650001525878906
3.99,87.03401947021484,-25.5892276763916,15.744270324707031,-75.67534637451172,-55.02450180053711,162.6753387451172,-31.650001525878906,-15.90000057220459,38.70000076293945
3.994,88.91107177734375,-26.01060676574707,17.583017349243164,-71.14547729492188,-60.88667678833008,163.74119567871094,-31.650001525878906,-15.90000057220459,38.70000076293945
4.001,86.95740509033203,-26.31706428527832,15.054739952087402,-84.86830139160156,-48.09647750854492,158.27871704101562,-30.30000114440918,-16.950000762939453,41.55000305175781
4.011,88.41307830810547,-29.688100814819336,12.679692268371582,-79.13935852050781,-60.75344467163086,189.72128295898438,-30.750001907348633,-17.700000762939453,40.35000228881836
4.021,90.06028747558594,-30.109479904174805,10.802638053894043,-74.60948944091797,-78.07350158691406,177.33078002929688,-30.750001907348633,-17.700000762939453,40.35000228881836
4.031,90.71151733398438,-30.301015853881836,10.572794914245605,-79.9387435913086,-81.40428924560547,184.6584930419922,-30.750001907348633,-17.700000762939453,40.35000228881836
4.044,91.24781799316406,-30.14778709411621,11.109095573425293,-89.7978515625,-92.46247863769531,186.5237274169922,-31.500001907348633,-21.150001525878906,39.60000228881836
4.051,93.46963500976562,-30.14778709411621,13.599065780639648,-98.85757446289062,-79.2725830078125,186.3905029296875,-30.900001525878906,-21.450000762939453,38.400001525878906
4.061,93.16317749023438,-29.190107345581055,13.407529830932617,-97.92495727539062,-93.52832794189453,197.9816131591797,-31.80000114440918,-22.350000381469727,40.05000305175781
4.071,95.00192260742188,-29.266721725463867,10.687716484069824,-108.18376159667969,-94.19448852539062,195.983154296875,-31.80000114440918,-24.750001907348633,37.80000305175781
4.081,102.62506103515625,-26.66183090209961,11.60708999633789,-101.38896942138672,-111.781005859375,209.03981018066406,-31.80000114440918,-24.750001907348633,37.80000305175781
4.291,43.01901626586914,36.16202163696289,10.496180534362793,11.857580184936523,35.705970764160156,-53.95865249633789,-27.000001907348633,-51.30000305175781,28.200000762939453
4.301,37.00477981567383,35.5874137878418,9.461885452270508,99.3905029296875,37.57120895385742,-94.0612564086914,-26.700000762939453,-49.650001525878906,27.750001907348633
4.311,30.454246520996094,20.877439498901367,10.342951774597168,140.6921844482422,61.81929397583008,-156.94639587402344,-27.900001525878906,-49.95000076293945,29.250001907348633
4.321,27.88766098022461,4.865017890930176,12.105083465576172,152.1500701904297,71.94486999511719,-208.64012145996094,-27.30000114440918,-49.80000305175781,30.150001525878906
4.34,26.393678665161133,-6.818686485290527,13.560758590698242,138.96017456054688,85.66768646240234,-249.94180297851562,-27.450000762939453,-49.650001525878906,30.30000114440918
4.344,26.31706428527832,-10.802638053894043,14.09705924987793,126.96936798095703,104.98621368408203,-322.15313720703125,-27.450000762939453,-49.650001525878906,30.30000114440918
4.351,26.891674041748047,-11.03248119354248,11.41555404663086,101.12251281738281,112.84685516357422,-337.0750427246094,-28.200000762939453,-48.900001525878906,31.80000114440918
4.361,29.917943954467773,-11.645397186279297,9.921571731567383,103.25421142578125,125.7702865600586,-384.5053405761719,-28.500001907348633,-46.650001525878906,33.45000076293945
4.371,33.17405700683594,-14.326903343200684,9.117119789123535,114.97856140136719,128.96783447265625,-427.40582275390625,-30.450000762939453,-46.5,33.60000228881836
4.381,38.613685607910156,-20.187908172607422,9.117119789123535,99.92343139648438,126.7029037475586,-470.7059631347656,-30.150001525878906,-44.25,35.400001525878906
4.401,44.97268295288086,-22.256498336791992,10.955866813659668,68.34762573242188,128.03521728515625,-515.6049194335938,-33.150001525878906,-44.25,34.650001525878906
4.405,51.561527252197266,-19.49837875366211,8.427590370178223,63.551300048828125,130.83306884765625,-538.787109375,-33.900001525878906,-40.35000228881836,36.60000228881836
4.411,59.950809478759766,-23.9420166015625,4.443638324737549,57.02296829223633,134.16384887695312,-561.9693603515625,-33.900001525878906,-40.35000228881836,36.60000228881836
4.421,63.81983947753906,-29.84132957458496,5.2480902671813965,44.89892578125,148.4196014404297,-587.8162231445312,-35.400001525878906,-38.400001525878906,38.400001525878906
4.431,69.68084716796875,-38.76691436767578,5.1331682205200195,27.71209716796875,147.22052001953125,-613.2633666992188,-36.30000305175781,-37.05000305175781,38.55000305175781
4.441,76.46122741699219,-40.91211700439453,5.822698593139648,13.722817420959473,139.49310302734375,-625.387451171875,-37.05000305175781,-35.10000228881836,39.0
4.46,82.20730590820312,-36.54509353637695,6.780379295349121,10.125574111938477,155.747314453125,-638.9769897460938,-37.05000305175781,-35.10000228881836,39.0
4.464,88.22154235839844,-32.40791320800781,7.7763671875,16.65390396118164,158.27871704101562,-629.517578125,-41.55000305175781,-28.200000762939453,41.10000228881836
4.471,95.1934585571289,-31.986534118652344,9.730035781860352,32.77488327026367,147.35374450683594,-627.65234375,-41.55000305175781,-28.200000762939453,41.10000228881836
4.481,98.83264923095703,-33.40390396118164,11.03248119354248,42.36753463745117,151.48391723632812,-623.3889770507812,-42.150001525878906,-23.700000762939453,41.25
4.491,104.50211334228516,-35.510799407958984,10.036493301391602,50.76110076904297,167.87135314941406,-625.787109375,-41.25,-20.400001525878906,43.35000228881836
4.501,109.86512756347656,-35.93217849731445,8.236053466796875,56.09035110473633,154.14854431152344,-599.2741088867188,-41.25,-20.400001525878906,43.35000228881836
4.52,111.85710144042969,-40.988731384277344,8.427590370178223,51.82695007324219,149.7519073486328,-594.7442626953125,-40.650001525878906,-15.15000057220459,44.25
4.524,114.00231170654297,-44.85776138305664,6.282385349273682,34.64012145996094,150.95098876953125,-575.1592407226562,-40.95000076293945,-7.800000190734863,48.750003814697266
4.531,112.69985961914062,-45.31745147705078,4.405331134796143,29.177640914916992,151.35069274902344,-564.9004516601562,-40.95000076293945,-7.800000190734863,48.750003814697266
4.541,110.59296417236328,-44.819454193115234,3.5242648124694824,18.78560447692871,129.76722717285156,-549.7120971679688,-39.900001525878906,-4.350000381469727,48.750003814697266
4.551,107.18362426757812,-42.980709075927734,1.0342950820922852,4.396630764007568,138.6937255859375,-549.3123779296875,-37.650001525878906,-2.4000000953674316,48.30000305175781
4.561,106.87716674804688,-41.29519271850586,3.907337188720703,-13.856048583984375,137.22817993164062,-534.1240234375,-37.650001525878906,-2.4000000953674316,48.30000305175781
4.58,109.25221252441406,-42.865787506103516,6.167463779449463,-24.914241790771484,139.89280700683594,-516.803955078125,-34.95000076293945,2.4000000953674316,50.55000305175781
4.584,107.6816177368164,-42.252872467041016,4.443638324737549,-38.77029037475586,145.88819885253906,-468.8407287597656,-31.05000114440918,7.650000095367432,50.400001525878906
4.591,104.04242706298828,-51.02522659301758,-1.1109095811843872,-49.56201934814453,150.55130004882812,-448.8560485839844,-27.450000762939453,9.75,52.80000305175781
4.601,104.34888458251953,-55.77532196044922,-2.6431987285614014,-75.5421142578125,144.95558166503906,-408.3537292480469,-27.450000762939453,9.75,52.80000305175781
4.611,107.91146087646484,-53.63011932373047,-4.865017890930176,-86.3338394165039,117.64318084716797,-353.8621520996094,-23.700000762939453,10.5,51.60000228881836
4.621,107.45177459716797,-47.539268493652344,-10.72602367401123,-89.26493072509766,105.38591003417969,-286.0474548339844,-22.80000114440918,10.350000381469727,51.000003814697266
4.642,106.60901641845703,-46.96466064453125,-15.552734375,-76.74119567871094,84.4686050415039,-224.3614044189453,-20.700000762939453,10.950000762939453,52.35000228881836
4.647,106.14933013916016,-50.68046188354492,-18.579004287719727,-61.15313720703125,52.75957107543945,-132.16539001464844,-18.75,10.050000190734863,52.500003814697266
4.651,103.42951202392578,-54.24303436279297,-17.50640296936035,-59.287899017333984,31.975496292114258,-108.050537109375,-18.75,10.050000190734863,52.500003814697266
4.661,102.58675384521484,-51.255069732666016,-16.203956604003906,-61.552833557128906,13.856048583984375,-22.649311065673828,-18.75,11.550000190734863,52.20000076293945
4.671,100.17340087890625,-44.97268295288086,-15.016432762145996,-36.905052185058594,-2.797856092453003,36.372127532958984,-19.05000114440918,10.800000190734863,53.70000076293945
4.681,98.79434204101562,-37.19631576538086,-14.901511192321777,4.663093090057373,-30.24349021911621,105.11944580078125,-15.90000057220459,10.950000762939453,52.35000228881836
4.7,96.91728210449219,-32.9442138671875,-14.480132102966309,40.36906433105469,-37.17151641845703,152.28330993652344,-18.75,10.350000381469727,52.95000076293945
4.703,94.15916442871094,-30.14778709411621,-11.224017143249512,75.94180297851562,-48.62940216064453,205.5758056640625,-18.75,10.350000381469727,52.95000076293945
4.711,90.94136047363281,-32.86759948730469,-8.65743350982666,98.59111785888672,-63.018375396728516,235.9525146484375,-18.75,10.350000381469727,52.95000076293945
4.721,89.8304443359375,-31.258697509765625,-8.810662269592285,106.85145568847656,-62.8851432800293,257.0030517578125,-19.200000762939453,9.75,50.85000228881836
4.731,87.9533920288086,-27.083209991455078,-3.7158010005950928,115.77794647216797,-31.44257164001465,259.8009033203125,-18.30000114440918,8.40000057220459,51.000003814697266
4.741,73.89463806152344,-20.992361068725586,29.95625114440918,64.75038146972656,11.457886695861816,226.09341430664062,-19.950000762939453,7.500000476837158,50.85000228881836
4.76,95.76806640625,12.105083465576172,136.3737335205078,-197.58192443847656,-157.4793243408203,148.8192901611328,-19.950000762939453,8.25,51.30000305175781
4.764,202.33877563476562,89.44737243652344,25.359384536743164,19.85145378112793,-59.95405578613281,323.75189208984375,-19.950000762939453,8.25,51.30000305175781
4.771,85.5017318725586,52.51920700073242,-49.07155990600586,106.31852722167969,-7.06125545501709,324.151611328125,-20.25,6.450000286102295,49.95000076293945
4.781,42.09964370727539,23.82709503173828,7.086836814880371,125.90351867675781,-41.568145751953125,332.67840576171875,-22.5,4.5,48.150001525878906
4.791,48.38202667236328,-19.230228424072266,17.73624610900879,50.4946403503418,-40.36906433105469,296.3062744140625,-23.25,3.750000238418579,49.20000076293945
4.801,57.03946304321289,-57.88222122192383,16.433799743652344,-30.643184661865234,-31.975496292114258,238.35067749023438,-23.400001525878906,2.8500001430511475,49.05000305175781
4.82,60.257266998291016,-37.77092742919922,34.66804122924805,-62.8851432800293,-56.889739990234375,198.6477813720703,-23.400001525878906,2.8500001430511475,49.05000305175781
4.823,70.86837005615234,-13.982137680053711,14.595053672790527,22.116384506225586,-35.705970764160156,203.3108673095703,-23.400001525878906,4.350000381469727,49.05000305175781
4.831,64.0113754272461,-14.480132102966309,18.272546768188477,72.61102294921875,-8.660030364990234,209.4394989013672,-25.200000762939453,2.4000000953674316,48.750003814697266
4.841,76.23138427734375,-18.655620574951172,33.59543991088867,75.67534637451172,-24.11485481262207,201.84532165527344,-24.900001525878906,2.1000001430511475,48.750003814697266
4.851,98.6028060913086,-32.13976287841797,25.51261329650879,61.01990509033203,-30.776416778564453,193.18528747558594,-25.500001907348633,1.8000000715255737,47.70000076293945
4.861,78.60643005371094,-35.93217849731445,15.016432762145996,25.447166442871094,-27.045940399169922,176.7978515625,-25.500001907348633,1.8000000715255737,47.70000076293945
4.88,75.77169799804688,-31.986534118652344,13.905523300170898,-7.594180583953857,-13.722817420959473,154.14854431152344,-25.500001907348633,1.8000000715255737,47.70000076293945
4.884,76.4995346069336,-16.70195198059082,-0.07661445438861847,-13.58958625793457,0.0,147.75344848632812,-26.55000114440918,0.30000001192092896,48.150001525878906
5.0,76.84429931640625,-14.786589622497559,15.552734375,-1.7320060729980469,7.860642910003662,63.81776428222656,-26.250001907348633,-4.200000286102295,47.400001525878906
5.003,75.9632339477539,-6.665457725524902,18.77054214477539,-1.0658499002456665,3.0643184185028076,61.9525260925293,-26.250001907348633,-4.200000286102295,47.400001525878906
5.011,79.79395294189453,-6.3973069190979,12.986149787902832,6.9280242919921875,12.390504837036133,75.40888214111328,-26.400001525878906,-4.050000190734863,46.80000305175781
5.021,75.19709014892578,-6.3973069190979,16.35718536376953,5.595712184906006,13.056661605834961,70.3460922241211,-26.400001525878906,-4.050000190734863,46.80000305175781
5.031,76.88260650634766,-13.139378547668457,12.29662036895752,-12.124042510986328,-1.7320060729980469,52.626338958740234,-27.750001907348633,-6.450000286102295,47.70000076293945
5.041,79.41088104248047,-23.02264404296875,15.591041564941406,-25.04747200012207,11.058192253112793,42.36753463745117,-27.900001525878906,-5.100000381469727,48.750003814697266
5.06,75.65677642822266,-17.276559829711914,19.07699966430664,-32.108726501464844,11.191424369812012,45.298622131347656,-26.55000114440918,-4.950000286102295,47.70000076293945
5.064,78.64473724365234,-9.883264541625977,15.093047142028809,-4.796324729919434,9.72588062286377,48.362937927246094,-27.900001525878906,-4.800000190734863,49.05000305175781
5.071,75.84831237792969,-9.959878921508789,11.72201156616211,-9.326186180114746,3.86370587348938,55.95711898803711,-26.400001525878906,-6.300000190734863,47.55000305175781
5.081,73.7031021118164,-10.72602367401123,20.187908172607422,-7.9938740730285645,9.72588062286377,49.56201934814453,-26.400001525878906,-6.300000190734863,47.55000305175781
5.091,74.08617401123047,-9.27034854888916,21.835119247436523,4.263399600982666,-4.529861927032471,64.75038146972656,-27.000001907348633,-6.900000095367432,48.150001525878906
5.101,76.30799865722656,-4.9799394607543945,25.933992385864258,8.793261528015137,4.663093090057373,59.4211311340332,-28.05000114440918,-6.150000095367432,47.70000076293945
5.117,70.48529815673828,3.2561142444610596,33.82528305053711,43.16691970825195,0.5329249501228333,62.618682861328125,-27.750001907348633,-6.450000286102295,48.45000076293945
5.121,65.69689178466797,0.15322890877723694,30.530860900878906,44.89892578125,0.0,61.9525260925293,-27.750001907348633,-6.450000286102295,48.45000076293945
5.131,66.34811401367188,-8.121131896972656,34.3615837097168,68.21439361572266,-11.990811347961426,76.20826721191406,-27.750001907348633,-6.450000286102295,48.45000076293945
5.141,69.48931121826172,-18.11931800842285,13.139378547668457,48.22970962524414,-3.9969370365142822,75.27565002441406,-26.700000762939453,-6.750000476837158,48.30000305175781
5.151,74.50755310058594,-25.857378005981445,11.645397186279297,31.176109313964844,-4.396630764007568,72.74425506591797,-26.700000762939453,-6.300000190734863,46.80000305175781
5.161,77.34229278564453,-19.881450653076172,9.883264541625977,20.91730499267578,-9.72588062286377,93.2618637084961,-26.400001525878906,-8.700000762939453,47.25
5.18,79.87056732177734,-10.84094524383545,14.326903343200684,47.297088623046875,-7.327718257904053,87.26646423339844,-27.150001525878906,-7.800000190734863,48.30000305175781
5.183,77.763671875,-5.899312973022461,14.403517723083496,58.888206481933594,-11.324655532836914,116.57733154296875,-27.150001525878906,-7.800000190734863,48.30000305175781
5.191,77.26567840576172,-8.96389102935791,14.97812557220459,66.08269500732422,-16.65390396118164,98.4578857421875,-28.80000114440918,-8.100000381469727,46.650001525878906
5.201,77.45721435546875,-15.514427185058594,15.169661521911621,71.01225280761719,-24.51454734802246,130.43338012695312,-27.900001525878906,-7.050000190734863,46.80000305175781
5.211,77.38059997558594,-19.613300323486328,16.012420654296875,48.8958625793457,-30.776416778564453,113.24655151367188,-26.700000762939453,-8.25,45.75
5.229,80.48348236083984,-25.972299575805664,15.284584045410156,6.5283308029174805,-22.382848739624023,119.37519073486328,-28.200000762939453,-8.25,46.5
5.233,78.18505096435547,-22.2948055267334,20.149600982666016,-5.462480545043945,-33.04134750366211,154.41500854492188,-28.05000114440918,-6.450000286102295,47.400001525878906
5.241,76.76768493652344,-16.05072784423828,18.655620574951172,-6.261868000030518,-27.17917251586914,125.7702865600586,-28.05000114440918,-6.450000286102295,47.400001525878906
5.251,74.89063262939453,-14.97812557220459,17.31486701965332,-5.995405673980713,-25.580398559570312,142.69065856933594,-28.05000114440918,-9.600000381469727,47.400001525878906
5.261,76.11646270751953,-17.774553298950195,16.740259170532227,-5.728943347930908,-32.108726501464844,140.95864868164062,-27.750001907348633,-9.600000381469727,45.900001525878906
5.271,78.45320129394531,-25.627534866333008,17.046716690063477,-14.522205352783203,-44.09954071044922,145.35528564453125,-28.500001907348633,-10.800000190734863,45.60000228881836
5.281,80.21533203125,-31.143775939941406,15.629348754882812,-36.905052185058594,-46.09800720214844,143.09034729003906,-29.400001525878906,-10.950000762939453,46.05000305175781
5.294,82.66699981689453,-31.067161560058594,17.8128604888916,-61.81929397583008,-46.364471435546875,140.02603149414062,-29.700000762939453,-12.15000057220459,45.75
5.301,84.9271240234375,-28.92195701599121,19.651607513427734,-74.60948944091797,-45.69831466674805,144.42266845703125,-29.700000762939453,-12.15000057220459,45.75
5.311,85.5400390625,-25.435998916625977,17.31486701965332,-70.74578857421875,-52.093414306640625,151.2174530029297,-28.950000762939453,-13.200000762939453,45.0
5.321,85.42511749267578,-22.17988395690918,15.361198425292969,-76.4747314453125,-46.764163970947266,146.5543670654297,-30.750001907348633,-13.800000190734863,44.400001525878906
5.331,84.54405212402344,-22.869415283203125,12.986149787902832,-71.14547729492188,-49.96171569824219,150.01837158203125,-29.700000762939453,-12.450000762939453,45.0
5.349,85.38681030273438,-25.780763626098633,8.772355079650879,-63.28483963012695,-65.68299865722656,156.14700317382812,-29.700000762939453,-12.450000762939453,45.0
5.353,85.23358154296875,-27.46628189086914,5.937620162963867,-62.35221862792969,-71.2787094116211,158.4119415283203,-27.750001907348633,-16.5,44.10000228881836
5.361,85.69326782226562,-30.339323043823242,8.427590370178223,-76.60796356201172,-67.41500854492188,154.814697265625,-27.750001907348633,-16.5,44.10000228881836
5.371,86.34449005126953,-31.948226928710938,9.308655738830566,-74.74272155761719,-77.54058074951172,156.81317138671875,-29.55000114440918,-16.200000762939453,44.85000228881836
5.381,85.04204559326172,-28.653806686401367,11.683704376220703,-67.94792938232422,-81.8039779663086,163.74119567871094,-30.150001525878906,-17.850000381469727,42.0
5.391,85.15696716308594,-27.083209991455078,12.48815631866455,-61.01990509033203,-86.3338394165039,166.2725830078125,-30.150001525878906,-17.850000381469727,42.0
5.411,87.14894104003906,-28.38565444946289,14.595053672790527,-63.28483963012695,-82.47013854980469,167.47166442871094,-30.150001525878906,-17.850000381469727,42.0
5.414,88.18323516845703,-35.43418502807617,12.29662036895752,-81.27105712890625,-83.26952362060547,167.73812866210938,-31.650001525878906,-21.75,41.25
5.421,87.18724822998047,-33.48051834106445,11.070788383483887,-87.66615295410156,-83.66921997070312,156.28024291992188,-31.500001907348633,-20.100000381469727,40.35000228881836
5.431,86.22956848144531,-29.95625114440918,12.373234748840332,-96.19295501708984,-92.06278228759766,176.9310760498047,-30.150001525878906,-22.200000762939453,40.650001525878906
5.441,90.48167419433594,-29.53487205505371,9.040505409240723,-94.0612564086914,-102.72128295898438,162.00918579101562,-30.150001525878906,-22.200000762939453,40.650001525878906
5.451,95.30838012695312,-28.998571395874023,8.810662269592285,-99.52373504638672,-112.84685516357422,176.26492309570312,-32.70000076293945,-23.700000762939453,38.70000076293945
5.469,103.81258392333984,-24.286781311035156,10.41956615447998,-97.25880432128906,-116.44409942626953,190.25421142578125,-32.400001525878906,-25.200000762939453,40.20000076293945
5.473,107.94976806640625,-19.07699966430664,11.41555404663086,-105.91883087158203,-105.78560638427734,209.1730499267578,-31.80000114440918,-26.55000114440918,36.75
5.481,107.0687026977539,-21.796812057495117,11.91354751586914,-132.16539001464844,-118.44257354736328,220.23123168945312,-33.30000305175781,-27.750001907348633,36.75
5.491,109.36713409423828,-22.562957763671875,16.47210693359375,-177.19754028320312,-108.84992218017578,201.4456329345703,-33.30000305175781,-27.750001907348633,36.75
5.501,115.30475616455078,-18.34916114807129,16.625335693359375,-201.71209716796875,-112.18070220947266,231.68911743164062,-32.70000076293945,-29.850000381469727,36.150001525878906
5.511,119.86331176757812,-15.361198425292969,11.683704376220703,-224.49462890625,-121.64012145996094,251.5405731201172,-31.650001525878906,-29.55000114440918,35.10000228881836
5.53,123.04281616210938,-7.5848307609558105,12.832921028137207,-271.7917175292969,-122.70597076416016,251.4073486328125,-32.55000305175781,-32.85000228881836,35.25
5.534,118.90563201904297,7.623138427734375,13.139378547668457,-308.1638488769531,-114.57886505126953,257.13629150390625,-33.150001525878906,-33.0,33.900001525878906
5.541,110.63127136230469,26.585216522216797,11.683704376220703,-301.9019775390625,-112.4471664428711,264.1975402832031,-33.150001525878906,-33.0,33.900001525878906
5.551,106.14933013916016,29.84132957458496,7.8529815673828125,-249.40887451171875,-127.5022964477539,282.983154296875,-31.650001525878906,-36.900001525878906,29.850000381469727
5.561,105.91948699951172,14.709975242614746,3.2178070545196533,-133.36447143554688,-130.03369140625,288.44561767578125,-31.500001907348633,-38.25,28.950000762939453
5.571,110.6695785522461,-10.15141487121582,3.907337188720703,-54.35834503173828,-132.0321502685547,296.43951416015625,-32.55000305175781,-40.5,28.950000762939453
5.589,108.869140625,-16.395492553710938,9.959878921508789,41.83460998535156,-139.89280700683594,321.7534484863281,-31.500001907348633,-40.95000076293945,26.400001525878906
5.595,103.65935516357422,-13.330915451049805,29.15180015563965,172.00152587890625,-133.09800720214844,342.93719482421875,-30.000001907348633,-41.25,27.900001525878906
5.601,83.62467956542969,-8.006210327148438,26.508602142333984,213.0367431640625,-109.915771484375,341.07196044921875,-30.000001907348633,-41.25,27.900001525878906
5.611,69.9873046875,-14.595053672790527,32.13976287841797,197.31546020507812,-81.67074584960938,309.8958435058594,-28.950000762939453,-41.85000228881836,25.200000762939453
5.621,51.255069732666016,-31.565155029296875,45.279144287109375,119.5084228515625,-67.01531219482422,221.5635528564453,-29.700000762939453,-42.60000228881836,26.250001907348633
5.631,41.065345764160156,-47.002967834472656,23.980323791503906,70.07962799072266,-36.771820068359375,150.01837158203125,-28.80000114440918,-43.95000076293945,24.900001525878906
5.65,53.51519775390625,-20.685903549194336,28.309040069580078,34.50688934326172,-25.7136287689209,82.47013854980469,-28.950000762939453,-43.5,25.200000762939453
5.654,61.444793701171875,5.51624059677124,16.70195198059082,27.978559494018555,4.929555892944336,23.182235717773438,-28.950000762939453,-43.5,25.200000762939453
5.661,45.31745147705078,19.766529083251953,15.399505615234375,36.372127532958984,9.326186180114746,-5.329249382019043,-26.700000762939453,-45.30000305175781,24.750001907348633
5.671,41.90810775756836,18.004396438598633,10.611102104187012,53.69218826293945,21.84992218017578,-61.552833557128906,-28.80000114440918,-44.85000228881836,25.350000381469727
5.681,37.234622955322266,11.91354751586914,6.742072105407715,79.53904724121094,26.113323211669922,-98.32465362548828,-26.700000762939453,-44.25,23.700000762939453
5.691,35.31926345825195,1.4939818382263184,1.6089035272598267,98.72434997558594,44.49923324584961,-159.21133422851562,-28.05000114440918,-45.150001525878906,23.850000381469727
5.71,32.063148498535156,-8.504204750061035,4.175487995147705,110.71515655517578,54.75803756713867,-212.37059020996094,-28.05000114440918,-45.150001525878906,23.850000381469727
5.714,30.79901123046875,-8.619126319885254,4.443638324737549,134.83001708984375,63.28483963012695,-279.9188232421875,-27.900001525878906,-43.5,24.750001907348633
5.721,29.76471519470215,-4.865017890930176,7.240066051483154,140.82542419433594,69.28024291992188,-308.1638488769531,-27.900001525878906,-42.60000228881836,25.500001907348633
5.731,30.837318420410156,-3.4093432426452637,8.121131896972656,145.48851013183594,78.87289428710938,-359.19140625,-27.900001525878906,-40.35000228881836,23.700000762939453
5.741,32.905906677246094,-6.512228488922119,8.848969459533691,151.2174530029297,90.73047637939453,-389.16845703125,-28.80000114440918,-41.70000076293945,25.650001525878906
5.751,37.809234619140625,-16.35718536376953,11.875240325927734,145.35528564453125,85.13475799560547,-417.679931640625,-29.55000114440918,-39.30000305175781,25.650001525878906
5.77,43.478702545166016,-25.550920486450195,13.828908920288086,112.18070220947266,85.53445434570312,-462.3124084472656,-29.55000114440918,-39.30000305175781,25.650001525878906
5.774,47.69249725341797,-27.925968170166016,13.522451400756836,87.9326171875,104.18682861328125,-504.2802429199219,-30.150001525878906,-36.900001525878906,25.80000114440918
5.781,54.31964874267578,-28.883649826049805,10.074800491333008,79.13935852050781,100.9892807006836,-520.534423828125,-29.55000114440918,-35.55000305175781,26.850000381469727
5.791,60.257266998291016,-29.381643295288086,7.6997528076171875,84.60183715820312,100.3231201171875,-543.8499145507812,-30.000001907348633,-34.80000305175781,27.900001525878906
5.801,68.1485595703125,-28.38565444946289,7.508216381072998,88.865234375,99.65696716308594,-559.7044067382812,-31.05000114440918,-34.80000305175781,27.150001525878906
5.811,78.64473724365234,-30.415939331054688,4.596867084503174,84.4686050415039,107.25114440917969,-574.6263427734375,-31.05000114440918,-34.80000305175781,27.150001525878906
5.83,84.9271240234375,-31.986534118652344,2.5665841102600098,91.79632568359375,97.39203643798828,-578.7564697265625,-31.200000762939453,-31.80000114440918,27.000001907348633
5.834,89.98367309570312,-35.54910659790039,1.9919757843017578,92.06278228759766,93.12863159179688,-585.0183715820312,-34.5,-31.200000762939453,28.200000762939453
5.841,94.15916442871094,-35.89387130737305,4.022258758544922,88.06584930419922,97.5252685546875,-593.9448852539062,-33.900001525878906,-27.600000381469727,29.55000114440918
5.851,97.45358276367188,-35.05111312866211,5.1331682205200195,103.92036437988281,94.86064147949219,-599.673828125,-34.05000305175781,-27.750001907348633,29.400001525878906
5.861,103.54443359375,-33.40390396118164,6.3973069190979,126.7029037475586,87.26646423339844,-580.6217041015625,-34.05000305175781,-27.750001907348633,29.400001525878906
5.871,107.71992492675781,-33.40390396118164,9.500192642211914,147.22052001953125,81.53751373291016,-573.2940063476562,-36.45000076293945,-21.75,29.55000114440918
5.89,110.55465698242188,-35.089420318603516,10.72602367401123,146.1546630859375,98.4578857421875,-569.8300170898438,-37.95000076293945,-22.950000762939453,30.600000381469727
5.895,110.01835632324219,-39.035064697265625,11.185709953308105,130.03369140625,98.85757446289062,-557.039794921875,-39.150001525878906,-20.55000114440918,30.30000114440918
5.901,107.94976806640625,-46.198516845703125,11.836933135986328,125.90351867675781,87.0,-550.7779541015625,-39.75,-19.650001525878906,31.200000762939453
5.911,106.83885955810547,-48.68848419189453,10.15141487121582,94.19448852539062,96.59264373779297,-543.983154296875,-39.75,-19.650001525878906,31.200000762939453
5.921,103.81258392333984,-47.80741882324219,9.84495735168457,61.15313720703125,103.25421142578125,-543.4501953125,-39.75,-19.650001525878906,31.200000762939453
5.931,100.86293029785156,-45.585601806640625,9.078812599182129,43.03369140625,100.18988800048828,-536.2557373046875,-43.80000305175781,-11.850000381469727,31.500001907348633
5.95,98.14311981201172,-43.9766960144043,10.342951774597168,10.791729927062988,114.57886505126953,-539.4533081054688,-45.0,-8.40000057220459,31.950000762939453
5.953,100.32662963867188,-46.0452880859375,11.836933135986328,-40.76875686645508,121.90658569335938,-532.1255493164062,-43.5,-5.700000286102295,33.0
5.961,99.36894989013672,-51.71475601196289,11.683704376220703,-80.73812866210938,134.69677734375,-512.673828125,-45.0,-4.200000286102295,33.75
5.971,98.83264923095703,-50.06754684448242,8.542511940002441,-116.9770278930664,139.7595672607422,-503.747314453125,-45.0,-4.200000286102295,33.75
5.981,104.1190414428711,-44.47468948364258,2.451662540435791,-142.95712280273438,146.1546630859375,-478.5666198730469,-45.150001525878906,1.350000023841858,33.60000228881836
5.991,109.5203628540039,-36.58340072631836,-5.5545477867126465,-121.24042510986328,130.83306884765625,-430.0704345703125,-43.95000076293945,2.8500001430511475,34.650001525878906
6.01,111.85710144042969,-29.64979362487793,-12.22000503540039,-90.33078002929688,120.84072875976562,-386.5038146972656,-43.650001525878906,4.050000190734863,35.85000228881836
6.014,109.86512756347656,-28.38565444946289,-16.855180740356445,-38.63705825805664,94.59417724609375,-314.8254089355469,-41.70000076293945,5.550000190734863,35.85000228881836
6.021,107.79653930664062,-29.726408004760742,-16.395492553710938,-24.381317138671875,95.52679443359375,-272.19140625,-41.70000076293945,5.550000190734863,35.85000228881836
6.031,104.23396301269531,-36.50678634643555,-17.966089248657227,-4.929555892944336,73.41041564941406,-193.98468017578125,-41.55000305175781,9.600000381469727,34.5
6.041,100.05847930908203,-48.42033386230469,-18.54069709777832,-1.7320060729980469,42.500762939453125,-120.30780792236328,-42.900001525878906,10.200000762939453,36.60000228881836
6.051,97.18543243408203,-53.28535461425781,-20.685903549194336,-2.6646246910095215,25.7136287689209,-57.15620040893555,-41.70000076293945,12.450000762939453,36.900001525878906
6.07,97.37696838378906,-50.68046188354492,-17.00840950012207,8.660030364990234,10.658498764038086,10.125574111938477,-41.70000076293945,12.450000762939453,36.60000228881836
6.074,95.46160888671875,-40.260894775390625,-13.48414421081543,49.16232681274414,-36.372127532958984,85.4012222290039,-42.45000076293945,12.450000762939453,34.35000228881836
6.081,93.46963500976562,-34.13174057006836,-7.8529815673828125,66.08269500732422,-37.83767318725586,123.10566711425781,-42.45000076293945,12.450000762939453,34.35000228881836
6.091,91.86073303222656,-34.82126998901367,-7.2783732414245605,83.40275573730469,-54.4915771484375,168.5375213623047,-44.55000305175781,14.550000190734863,34.95000076293945
6.101,87.3787841796875,-34.01681900024414,-3.179499864578247,79.0061264038086,-62.35221862792969,200.77947998046875,-42.75,13.500000953674316,35.55000305175781
6.111,86.07633972167969,-29.34333610534668,0.38307225704193115,75.00918579101562,-63.28483963012695,211.70443725585938,-46.650001525878906,13.200000762939453,33.30000305175781
6.13,84.69728088378906,-19.80483627319336,1.6089035272598267,86.20060729980469,-63.684532165527344,227.6921844482422,-45.0,12.750000953674316,34.95000076293945
6.134,68.91470336914062,-10.228029251098633,12.373234748840332,102.72128295898438,-31.176109313964844,237.41806030273438,-46.5,11.550000190734863,33.45000076293945
6.141,57.6906852722168,-11.224017143249512,29.4582576751709,115.2450180053711,21.583459854125977,222.4961700439453,-46.5,11.550000190734863,33.45000076293945
6.151,44.74283981323242,-11.070788383483887,94.88700103759766,-136.16232299804688,-17.32006072998047,129.6339874267578,-49.20000076293945,10.200000762939453,32.55000305175781
6.161,139.85968017578125,21.720197677612305,167.402587890625,-341.7381286621094,-160.6768798828125,127.23583221435547,-48.750003814697266,8.850000381469727,31.500001907348633
6.171,217.2019805908203,80.10041046142578,-79.29595947265625,-85.93415069580078,-41.568145751953125,284.04901123046875,-48.30000305175781,8.850000381469727,32.70000076293945
6.19,82.39884948730469,34.591426849365234,-48.42033386230469,50.76110076904297,-8.39356803894043,290.8437805175781,-48.30000305175781,8.850000381469727,32.70000076293945
6.194,63.93476104736328,-37.15800857543945,17.50640296936035,47.9632453918457,-42.500762939453125,292.0428771972656,-52.650001525878906,4.050000190734863,32.85000228881836
6.201,67.15257263183594,-52.51920700073242,9.806650161743164,-4.796324729919434,-37.4379768371582,245.27870178222656,-52.650001525878906,4.050000190734863,32.85000228881836
6.211,67.22918701171875,-48.037261962890625,16.242263793945312,-78.07350158691406,-48.62940216064453,197.31546020507812,-51.750003814697266,2.700000047683716,30.450000762939453
6.221,70.48529815673828,-2.298433542251587,11.492168426513672,-35.03981399536133,-27.84532928466797,192.51913452148438,-54.000003814697266,2.25,30.450000762939453
6.231,65.888427734375,16.203956604003906,5.363011837005615,97.92495727539062,-5.8621745109558105,213.70291137695312,-54.000003814697266,2.25,30.450000762939453
6.247,80.67501831054688,0.4213795065879822,29.688100814819336,110.71515655517578,-16.65390396118164,219.83154296875,-53.400001525878906,0.45000001788139343,29.55000114440918
6.251,88.0300064086914,-35.05111312866211,6.01423454284668,94.72740936279297,-7.860642910003662,218.76568603515625,-53.400001525878906,0.45000001788139343,29.55000114440918
6.261,75.69508361816406,-32.82929229736328,6.205770969390869,45.56508255004883,12.656967163085938,187.72280883789062,-54.150001525878906,-1.6500000953674316,30.30000114440918
6.271,68.60824584960938,-10.381258964538574,11.645397186279297,53.558956146240234,16.78713607788086,187.98927307128906,-54.30000305175781,-3.0,27.900001525878906
6.281,77.87859344482422,3.907337188720703,7.508216381072998,72.21133422851562,10.658498764038086,200.11331176757812,-54.30000305175781,-3.0,27.900001525878906
6.299,78.56812286376953,-1.9536685943603516,8.312667846679688,46.09800720214844,19.85145378112793,197.9816131591797,-56.400001525878906,-3.1500000953674316,29.850000381469727
6.303,76.537841796875,-19.574993133544922,13.867216110229492,-23.182235717773438,17.186830520629883,163.74119567871094,-55.95000076293945,-5.100000381469727,28.80000114440918
6.311,79.21934509277344,-33.82528305053711,16.855180740356445,-43.03369140625,3.86370587348938,151.2174530029297,-55.20000076293945,-6.750000476837158,29.55000114440918
6.321,77.87859344482422,-32.13976287841797,15.24627685546875,-82.07044219970703,2.2649309635162354,131.63246154785156,-57.150001525878906,-7.050000190734863,28.05000114440918
6.331,74.16278839111328,-21.796812057495117,15.016432762145996,-82.6033706665039,20.784072875976562,104.7197494506836,-57.150001525878906,-7.050000190734863,28.05000114440918
6.341,73.664794921875,-9.461885452270508,8.006210327148438,-53.026031494140625,12.25727367401123,99.79019927978516,-57.750003814697266,-8.40000057220459,30.450000762939453
6.359,77.26567840576172,-2.9496564865112305,9.998186111450195,-19.45176124572754,16.65390396118164,101.9218978881836,-57.750003814697266,-8.100000381469727,30.150001525878906
6.363,80.8282470703125,-8.236053466796875,7.623138427734375,-1.7320060729980469,20.38437843322754,87.79938507080078,-56.250003814697266,-8.850000381469727,28.200000762939453
6.371,77.1124496459961,-14.556746482849121,5.746084213256836,-3.3307809829711914,34.906585693359375,81.53751373291016,-58.05000305175781,-10.050000190734863,28.950000762939453
6.381,78.22335815429688,-15.437812805175781,8.887276649475098,-2.398162364959717,24.64777946472168,80.60489654541016,-58.05000305175781,-10.050000190734863,28.950000762939453
6.391,76.4995346069336,-9.27034854888916,11.377246856689453,-0.5329249501228333,24.781009674072266,72.47779083251953,-57.30000305175781,-9.600000381469727,30.450000762939453
6.401,78.3382797241211,-3.294421434402466,16.089035034179688,3.4640121459960938,19.584991455078125,66.34915924072266,-57.150001525878906,-11.40000057220459,29.55000114440918
6.42,80.10041046142578,-8.65743350982666,16.318878173828125,2.2649309635162354,16.520673751831055,68.4808578491211,-57.000003814697266,-10.800000190734863,29.400001525878906
6.424,79.90887451171875,-15.207969665527344,19.230228424072266,-36.238895416259766,27.17917251586914,59.95405578613281,-56.55000305175781,-11.100000381469727,30.150001525878906
6.431,75.19709014892578,-14.595053672790527,19.536685943603516,-37.17151641845703,24.781009674072266,49.02909469604492,-56.55000305175781,-11.550000190734863,29.700000762939453
6.441,75.23539733886719,-10.572794914245605,18.732234954833984,-34.64012145996094,25.04747200012207,51.4272575378418,-56.55000305175781,-11.550000190734863,29.700000762939453
6.451,74.04786682128906,-10.496180534362793,19.421764373779297,-24.381317138671875,17.053598403930664,50.22817611694336,-57.45000076293945,-13.200000762939453,30.600000381469727
6.461,74.89063262939453,-10.687716484069824,16.58702850341797,-20.91730499267578,15.45482349395752,57.422664642333984,-57.150001525878906,-10.950000762939453,30.600000381469727
6.479,75.54185485839844,-9.883264541625977,18.004396438598633,-28.77794647216797,20.251148223876953,41.168453216552734,-57.000003814697266,-13.050000190734863,30.900001525878906
6.483,77.49552154541016,-9.002198219299316,18.081010818481445,-25.18070411682129,16.12097930908203,40.36906433105469,-57.150001525878906,-15.15000057220459,30.600000381469727
6.491,77.22737121582031,-11.109095573425293,18.847156524658203,-23.182235717773438,18.119447708129883,47.9632453918457,-57.150001525878906,-15.15000057220459,30.600000381469727
6.501,74.85232543945312,-10.611102104187012,19.574993133544922,-27.84532928466797,24.51454734802246,38.50382614135742,-56.400001525878906,-13.65000057220459,31.05000114440918
6.511,73.74140930175781,-10.72602367401123,17.42978858947754,-25.846860885620117,21.583459854125977,37.4379768371582,-57.000003814697266,-13.050000190734863,31.500001907348633
6.521,74.58417510986328,-9.308655738830566,21.413740158081055,-15.721285820007324,4.663093090057373,43.96630859375,-58.05000305175781,-13.050000190734863,31.200000762939453
6.541,78.14674377441406,-13.062764167785645,20.072986602783203,-26.912710189819336,12.923430442810059,36.771820068359375,-58.20000076293945,-13.200000762939453,29.850000381469727
6.544,79.10442352294922,-14.211980819702148,17.1999454498291,-33.97396469116211,5.329249382019043,50.22817611694336,-58.20000076293945,-13.200000762939453,29.850000381469727
6.551,74.85232543945312,-6.167463779449463,18.579004287719727,-35.439510345458984,13.989279747009277,54.62480926513672,-57.000003814697266,-13.050000190734863,30.150001525878906
6.561,74.2394027709961,-2.719813108444214,19.843143463134766,-18.519142150878906,5.995405673980713,70.21286010742188,-56.70000076293945,-14.100000381469727,31.350000381469727
6.571,77.1124496459961,-2.719813108444214,20.226215362548828,-15.45482349395752,11.191424369812012,58.222049713134766,-56.70000076293945,-16.350000381469727,30.600000381469727
6.581,76.537841796875,-12.756306648254395,19.49837875366211,-21.583459854125977,9.192955017089844,57.422664642333984,-57.750003814697266,-16.5,30.450000762939453
6.6,77.38059997558594,-20.41775131225586,17.238252639770508,-32.37519073486328,2.2649309635162354,49.16232681274414,-57.900001525878906,-17.100000381469727,30.600000381469727
6.604,77.07414245605469,-19.038692474365234,16.66364288330078,-38.50382614135742,1.8652373552322388,62.35221862792969,-57.900001525878906,-17.100000381469727,30.600000381469727
6.611,75.9632339477539,-5.4013190269470215,18.195932388305664,-38.37059783935547,4.663093090057373,72.87748718261719,-56.55000305175781,-17.700000762939453,31.200000762939453
6.621,75.00555419921875,-2.451662540435791,21.107282638549805,-16.520673751831055,-1.8652373552322388,85.26799011230469,-56.55000305175781,-15.750000953674316,30.900001525878906
6.631,73.54987335205078,0.038307227194309235,23.9420166015625,5.462480545043945,-3.597243309020996,85.80091857910156,-57.30000305175781,-17.700000762939453,30.150001525878906
6.641,73.7031021118164,-6.588842868804932,24.516624450683594,2.531393527984619,0.6661561727523804,90.33078002929688,-57.000003814697266,-20.100000381469727,30.450000762939453
6.66,74.43093872070312,-17.276559829711914,21.911733627319336,-13.189892768859863,-2.6646246910095215,88.73200225830078,-57.000003814697266,-20.100000381469727,30.450000762939453
6.664,75.42693328857422,-27.88766098022461,18.655620574951172,-51.29402542114258,-1.5987749099731445,77.94027709960938,-58.650001525878906,-19.5,31.350000381469727
6.671,75.58016204833984,-19.460071563720703,22.256498336791992,-61.68606185913086,1.1990811824798584,80.47166442871094,-57.000003814697266,-21.150001525878906,29.400001525878906
6.681,75.46524047851562,-13.48414421081543,22.90772247314453,-57.02296829223633,4.929555892944336,91.92955017089844,-56.400001525878906,-20.25,29.55000114440918
6.691,73.74140930175781,-11.990161895751953,26.048913955688477,-59.68759536743164,-10.658498764038086,102.45481872558594,-56.250003814697266,-22.350000381469727,31.500001907348633
6.701,76.07815551757812,-17.544710159301758,22.869415283203125,-67.94792938232422,-10.125574111938477,100.85604858398438,-56.250003814697266,-22.350000381469727,31.500001907348633
6.721,77.68705749511719,-22.984336853027344,21.030668258666992,-91.92955017089844,-8.260336875915527,98.99080657958984,-55.95000076293945,-23.700000762939453,29.55000114440918
6.725,79.79395294189453,-22.60126495361328,19.038692474365234,-98.99080657958984,-21.316997528076172,116.71056365966797,-56.70000076293945,-22.950000762939453,29.55000114440918
6.731,82.5137710571289,-14.288596153259277,14.288596153259277,-97.12557220458984,-29.84379768371582,123.63858795166016,-57.000003814697266,-23.850000381469727,29.700000762939453
6.741,84.04605865478516,-12.411541938781738,13.828908920288086,-92.46247863769531,-25.7136287689209,131.89892578125,-57.150001525878906,-26.850000381469727,29.250001907348633
6.751,82.4754638671875,-8.159439086914062,12.411541938781738,-79.13935852050781,-32.108726501464844,145.48851013183594,-57.150001525878906,-26.850000381469727,29.250001907348633
6.761,86.03803253173828,-14.480132102966309,6.780379295349121,-63.950992584228516,-45.831546783447266,166.00611877441406,-57.150001525878906,-26.850000381469727,29.250001907348633
6.78,87.30216979980469,-17.659631729125977,6.358999729156494,-54.89126968383789,-61.28636932373047,184.92495727539062,-58.650001525878906,-28.350000381469727,28.500001907348633
6.784,88.25984954833984,-18.157625198364258,10.572794914245605,-39.83613967895508,-88.06584930419922,194.78407287597656,-55.500003814697266,-27.750001907348633,28.200000762939453
6.791,89.217529296875,-5.592854976654053,17.12333106994629,-23.04900360107422,-82.47013854980469,195.84991455078125,-57.900001525878906,-29.55000114440918,27.000001907348633
6.801,85.38681030273438,-9.806650161743164,21.26051139831543,-15.854516983032227,-92.46247863769531,204.90963745117188,-55.500003814697266,-30.900001525878906,26.400001525878906
6.811,82.89684295654297,-31.83330535888672,20.226215362548828,-56.49004364013672,-89.13169860839844,192.3859100341797,-55.500003814697266,-30.900001525878906,26.400001525878906
6.821,84.8888168334961,-51.867984771728516,17.276559829711914,-110.848388671875,-85.00152587890625,186.3905029296875,-55.650001525878906,-32.55000305175781,26.250001907348633
6.84,86.49771881103516,-47.117889404296875,13.982137680053711,-143.2235870361328,-95.26033782958984,186.25726318359375,-55.80000305175781,-33.900001525878906,26.100000381469727
6.844,88.41307830810547,-37.11970138549805,11.91354751586914,-140.82542419433594,-99.52373504638672,182.12710571289062,-56.55000305175781,-35.85000228881836,23.100000381469727
6.851,92.51195526123047,-30.301015853881836,7.814674377441406,-145.48851013183594,-97.7917251586914,183.99234008789062,-56.55000305175781,-35.85000228881836,23.100000381469727
6.861,91.20951080322266,-26.66183090209961,3.9456443786621094,-128.03521728515625,-107.51760864257812,192.51913452148438,-56.55000305175781,-35.85000228881836,23.100000381469727
6.871,90.48167419433594,-27.88766098022461,1.072602391242981,-124.97090148925781,-118.04287719726562,197.18223571777344,-56.55000305175781,-38.25,21.600000381469727
6.881,92.6651840209961,-28.19411849975586,-1.455674648284912,-143.88973999023438,-115.64471435546875,195.31700134277344,-56.250003814697266,-37.05000305175781,20.850000381469727
6.9,97.0322036743164,-27.27474594116211,0.0,-150.151611328125,-140.29249572753906,200.24655151367188,-56.250003814697266,-38.25,20.55000114440918
6.904,107.6050033569336,-26.01060676574707,8.121131896972656,-147.35374450683594,-150.2848358154297,208.5068817138672,-55.95000076293945,-41.55000305175781,19.950000762939453
6.911,112.27848052978516,-21.14558982849121,11.951854705810547,-159.21133422851562,-140.42572021484375,188.92189025878906,-55.95000076293945,-41.55000305175781,19.950000762939453
6.921,111.12926483154297,-21.37543296813965,10.917559623718262,-181.99386596679688,-150.55130004882812,191.9862060546875,-55.95000076293945,-41.55000305175781,19.950000762939453
6.931,110.24819946289062,-20.149600982666016,9.078812599182129,-176.39816284179688,-165.3399658203125,187.4563446044922,-55.05000305175781,-42.900001525878906,15.750000953674316
6.941,118.4459457397461,-8.619126319885254,7.469909191131592,-182.2603302001953,-167.33843994140625,188.1225128173828,-56.400001525878906,-43.5,14.850000381469727
6.96,120.01654052734375,13.330915451049805,4.290409564971924,-187.4563446044922,-163.87442016601562,202.77793884277344,-54.900001525878906,-44.25,14.100000381469727
6.963,117.64149475097656,22.60126495361328,6.244078159332275,-195.71669006347656,-168.27105712890625,219.69830322265625,-56.250003814697266,-44.85000228881836,10.65000057220459
6.971,112.04863739013672,28.653806686401367,3.3710360527038574,-185.5911102294922,-181.8606414794922,229.0244903564453,-56.250003814697266,-44.85000228881836,10.65000057220459
6.981,111.9720230102539,34.20835494995117,5.822698593139648,-162.94180297851562,-179.19601440429688,253.4058074951172,-55.500003814697266,-45.60000228881836,9.90000057220459
6.991,107.71992492675781,40.29920196533203,9.193734169006348,-103.65390014648438,-182.12710571289062,232.88819885253906,-56.55000305175781,-47.10000228881836,6.900000095367432
7.001,107.71992492675781,29.305028915405273,8.695740699768066,22.782541275024414,-227.1592559814453,268.8606262207031,-55.80000305175781,-47.85000228881836,5.850000381469727
7.02,109.4437484741211,-4.481945514678955,8.389283180236816,224.3614044189453,-229.4241943359375,338.8070373535156,-55.500003814697266,-49.05000305175781,6.600000381469727
7.023,116.14751434326172,-14.863204002380371,33.71036148071289,399.1607971191406,-203.3108673095703,344.9356689453125,-55.05000305175781,-50.250003814697266,3.9000000953674316
7.031,107.37516021728516,-7.2783732414245605,40.988731384277344,449.921875,-173.6002960205078,346.93414306640625,-55.05000305175781,-50.250003814697266,3.9000000953674316
7.041,81.51777648925781,-1.37906014919281,47.845726013183594,469.5068664550781,-141.0918731689453,355.0612487792969,-54.900001525878906,-50.85000228881836,2.25
7.051,54.66441345214844,-16.1656494140625,60.21895980834961,369.7166748046875,-118.44257354736328,304.6998291015625,-54.45000076293945,-51.900001525878906,4.5
7.061,47.884033203125,-51.982906341552734,37.73262023925781,280.4517517089844,-72.87748718261719,205.44256591796875,-53.250003814697266,-55.20000076293945,3.9000000953674316
7.08,40.107666015625,-61.329872131347656,38.80522155761719,200.5130157470703,-71.41194152832031,140.1592559814453,-53.250003814697266,-55.20000076293945,3.9000000953674316
7.085,54.01319122314453,-36.315250396728516,40.145973205566406,88.33231353759766,-37.97090148925781,27.045940399169922,-52.650001525878906,-55.05000305175781,4.200000286102295
7.091,53.170433044433594,-2.5665841102600098,28.53888511657715,64.88361358642578,-27.31240463256836,-4.130168437957764,-52.95000076293945,-53.85000228881836,4.200000286102295
7.101,45.81544494628906,3.2178070545196533,27.006595611572266,38.50382614135742,-11.724349021911621,-48.22970962524414,-52.80000305175781,-54.000003814697266,3.9000000953674316
7.116,35.89387130737305,-0.19153612852096558,23.52063751220703,13.856048583984375,-3.197549819946289,-113.77947998046875,-52.95000076293945,-51.60000228881836,4.200000286102295
7.121,28.998571395874023,-6.052541732788086,20.41775131225586,-0.5329249501228333,5.329249382019043,-151.88360595703125,-52.95000076293945,-51.60000228881836,4.200000286102295
7.131,27.351360321044922,-9.117119789123535,20.877439498901367,-13.456355094909668,16.520673751831055,-201.578857421875,-54.000003814697266,-50.250003814697266,4.350000381469727
7.141,25.20615577697754,-8.887276649475098,18.77054214477539,-7.327718257904053,24.51454734802246,-234.35374450683594,-57.45000076293945,-47.70000076293945,4.200000286102295
7.151,25.70414924621582,-4.022258758544922,13.369222640991211,5.196018218994141,35.03981399536133,-285.781005859375,-57.150001525878906,-46.20000076293945,2.700000047683716
7.161,25.857378005981445,-6.665457725524902,14.480132102966309,-0.2664624750614166,49.82848358154297,-340.8055114746094,-59.400001525878906,-45.75,3.750000238418579
7.18,29.305028915405273,-8.274360656738281,15.935806274414062,15.854516983032227,71.14547729492188,-404.8897399902344,-59.400001525878906,-45.75,3.750000238418579
7.183,36.39186477661133,-13.828908920288086,17.73624610900879,14.255742073059082,78.87289428710938,-421.410400390625,-59.55000305175781,-40.5,3.9000000953674316
7.191,36.27694320678711,-17.966089248657227,17.161638259887695,14.255742073059082,93.39509582519531,-435.6661376953125,-63.150001525878906,-36.150001525878906,4.5
7.201,38.2689208984375,-26.12552833557129,17.085023880004883,-1.3323123455047607,97.12557220458984,-469.107177734375,-63.30000305175781,-34.35000228881836,4.350000381469727
7.211,42.980709075927734,-28.002582550048828,17.73624610900879,7.594180583953857,109.24961853027344,-498.95098876953125,-63.30000305175781,-29.700000762939453,5.850000381469727
7.229,50.757076263427734,-23.44402313232422,15.974113464355469,30.509952545166016,117.11026000976562,-519.2021484375,-63.30000305175781,-29.700000762939453,5.850000381469727
7.233,58.80159378051758,-18.88546371459961,13.599065780639648,52.626338958740234,137.22817993164062,-538.9203491210938,-66.1500015258789,-19.80000114440918,6.750000476837158
7.241,73.51156616210938,-20.64759635925293,10.879252433776855,57.02296829223633,148.68606567382812,-541.7182006835938,-66.75,-16.200000762939453,7.350000381469727
7.251,79.71733856201172,-29.496564865112305,9.806650161743164,61.41960144042969,150.6845245361328,-555.4410400390625,-66.30000305175781,-13.050000190734863,8.40000057220459
7.261,88.0300064086914,-38.920143127441406,8.619126319885254,35.972434997558594,156.28024291992188,-570.7626342773438,-64.95000457763672,-9.0,7.500000476837158
7.271,91.59258270263672,-46.0452880859375,7.2783732414245605,12.523736000061035,153.0826873779297,-572.8943481445312,-63.900001525878906,-5.100000381469727,10.050000190734863
7.281,96.30436706542969,-41.29519271850586,6.358999729156494,8.260336875915527,145.2220458984375,-570.4961547851562,-63.900001525878906,-5.100000381469727,10.050000190734863
7.294,96.57251739501953,-35.204341888427734,7.048529624938965,-3.197549819946289,157.0796356201172,-578.4900512695312,-60.900001525878906,4.800000190734863,11.850000381469727
7.301,98.18142700195312,-33.02082824707031,8.65743350982666,-6.128636837005615,158.0122528076172,-575.8253784179688,-58.95000076293945,5.850000381469727,11.850000381469727
7.311,98.79434204101562,-32.178070068359375,8.65743350982666,-8.926492691040039,153.61561584472656,-571.8284912109375,-56.250003814697266,10.800000190734863,13.950000762939453
7.321,97.33866119384766,-33.40390396118164,6.818686485290527,-25.980091094970703,160.54364013671875,-569.0306396484375,-55.05000305175781,13.500000953674316,12.0
7.331,97.0322036743164,-34.20835494995117,5.70777702331543,-53.42572784423828,171.60183715820312,-573.5604858398438,-55.05000305175781,13.500000953674316,12.0
7.349,95.46160888671875,-31.90991973876953,5.51624059677124,-64.48391723632812,179.32923889160156,-576.3583374023438,-48.900001525878906,18.30000114440918,15.15000057220459
7.353,97.26204681396484,-25.052927017211914,4.022258758544922,-65.54976654052734,175.46554565429688,-574.7595825195312,-46.05000305175781,21.900001525878906,16.05000114440918
7.361,100.78631591796875,-22.83110809326172,2.298433542251587,-68.88054656982422,184.39202880859375,-579.8223266601562,-43.650001525878906,23.25,15.15000057220459
7.371,102.2802963256836,-23.099258422851562,2.2601263523101807,-81.53751373291016,202.11178588867188,-590.6140747070312,-39.75,24.30000114440918,16.80000114440918
7.381,106.57070922851562,-28.960264205932617,1.9919757843017578,-95.79325866699219,200.646240234375,-578.623291015625,-39.75,24.30000114440918,16.80000114440918
7.391,113.50431060791016,-35.5874137878418,1.3407529592514038,-120.70750427246094,206.6416473388672,-564.500732421875,-34.05000305175781,28.950000762939453,17.25
7.411,117.48826599121094,-32.676063537597656,-0.9193734526634216,-120.30780792236328,199.44715881347656,-561.8361206054688,-30.450000762939453,30.30000114440918,17.100000381469727
7.414,118.02456665039062,-23.75048065185547,-5.746084213256836,-99.3905029296875,199.18069458007812,-505.8789978027344,-28.80000114440918,30.450000762939453,18.0
7.421,120.66776275634766,-20.034679412841797,-8.35097599029541,-73.41041564941406,186.3905029296875,-465.1102600097656,-26.400001525878906,31.80000114440918,18.150001525878906
7.431,120.3613052368164,-23.558944702148438,-6.512228488922119,-56.62327575683594,168.40428161621094,-414.4823913574219,-26.400001525878906,31.80000114440918,18.150001525878906
7.441,121.43390655517578,-29.15180015563965,-11.41555404663086,-42.90045928955078,153.61561584472656,-358.1255798339844,-26.400001525878906,31.80000114440918,18.150001525878906
7.451,117.71810913085938,-36.08540725708008,-17.92778205871582,-12.523736000061035,115.37825012207031,-281.5176086425781,-19.05000114440918,32.400001525878906,19.80000114440918
7.469,111.12926483154297,-45.24083709716797,-19.460071563720703,-1.8652373552322388,99.12403869628906,-200.11331176757812,-19.80000114440918,31.650001525878906,17.55000114440918
7.473,102.73998260498047,-58.76328659057617,-14.441824913024902,-25.18070411682129,68.74732208251953,-108.18376159667969,-19.5,32.400001525878906,18.75
7.481,96.49590301513672,-72.63050079345703,-11.836933135986328,-54.091880798339844,47.163856506347656,-43.03369140625,-18.75,30.900001525878906,18.0
7.491,97.18543243408203,-69.9873046875,-13.21599292755127,-43.83307647705078,11.324655532836914,28.378253936767578,-18.75,30.900001525878906,18.0
7.501,97.83665466308594,-48.68848419189453,-12.526463508605957,-10.258805274963379,-23.581928253173828,99.65696716308594,-18.30000114440918,30.900001525878906,17.55000114440918
7.511,93.2780990600586,-31.335311889648438,-11.41555404663086,31.309341430664062,-31.042879104614258,163.20826721191406,-19.200000762939453,29.850000381469727,17.100000381469727
7.53,87.30216979980469,-30.14778709411621,-7.201758861541748,54.62480926513672,-51.4272575378418,208.24041748046875,-19.650001525878906,28.80000114440918,16.650001525878906
7.534,87.30216979980469,-36.39186477661133,-2.7964274883270264,38.77029037475586,-61.41960144042969,251.94027709960938,-20.55000114440918,29.250001907348633,16.05000114440918
7.541,92.51195526123047,-34.66804122924805,-1.7621324062347412,32.37519073486328,-58.222049713134766,270.5926513671875,-20.55000114440918,29.250001907348633,16.05000114440918
7.551,92.32041931152344,-27.504589080810547,-2.4133553504943848,42.500762939453125,-75.94180297851562,289.1117858886719,-21.0,28.950000762939453,15.000000953674316
7.561,95.46160888671875,-8.65743350982666,1.1875240802764893,90.86370086669922,-67.814697265625,302.96783447265625,-22.05000114440918,25.80000114440918,12.750000953674316
7.571,83.96944427490234,14.135366439819336,31.52684783935547,53.159263610839844,-38.77029037475586,212.1041259765625,-24.900001525878906,24.900001525878906,13.050000190734863
7.59,115.9942855834961,71.09821319580078,161.96295166015625,-248.60948181152344,-196.51608276367188,142.5574188232422,-24.900001525878906,25.650001525878906,14.100000381469727
7.595,212.87326049804688,168.78164672851562,-45.08760452270508,246.477783203125,-38.37059783935547,412.3506774902344,-24.900001525878906,25.650001525878906,14.100000381469727
7.601,58.57175064086914,14.595053672790527,-38.15399932861328,316.8238830566406,-7.460949420928955,395.2970886230469,-24.900001525878906,25.650001525878906,14.100000381469727
7.611,34.62973403930664,-37.57939147949219,20.609289169311523,253.93873596191406,-38.10413360595703,352.9295349121094,-26.700000762939453,21.75,12.300000190734863
7.621,42.29117965698242,-94.08255004882812,39.41813659667969,66.48238372802734,-39.83613967895508,282.1837463378906,-29.55000114440918,20.850000381469727,11.700000762939453
7.631,49.9526252746582,-91.97565460205078,46.42835998535156,-53.69218826293945,-74.20980072021484,225.42726135253906,-30.150001525878906,18.30000114440918,9.75
