time,accel_x,accel_y,accel_z,gyro_x,gyro_y,gyro_z,mag_x,mag_y,mag_z
0.0,16.58702850341797,47.424346923828125,-38.07738494873047,-12.124042510986328,8.526799201965332,-7.860642910003662,-6.450000286102295,21.0,-13.050000190734863
0.01,13.062764167785645,66.65457153320312,-36.27694320678711,-9.992342948913574,3.9969370365142822,-4.796324729919434,-6.0,21.150001525878906,-15.000000953674316
0.02,11.338939666748047,65.73519897460938,-35.47249221801758,-2.2649309635162354,-4.263399600982666,-4.796324729919434,-6.450000286102295,20.55000114440918,-14.40000057220459
0.03,11.836933135986328,67.38241577148438,-35.47249221801758,0.2664624750614166,-2.2649309635162354,-4.529861927032471,-6.450000286102295,20.55000114440918,-14.40000057220459
0.04,13.637372970581055,69.25946807861328,-36.69832229614258,2.6646246910095215,1.5987749099731445,-4.130168437957764,-6.300000190734863,21.900001525878906,-12.750000953674316
0.06,12.22000503540039,70.5619125366211,-35.54910659790039,4.663093090057373,5.062787055969238,-5.329249382019043,-5.400000095367432,21.450000762939453,-14.40000057220459
0.063,12.258312225341797,66.5396499633789,-37.387855529785156,3.0643184185028076,0.1332312375307083,-6.5283308029174805,-6.300000190734863,20.850000381469727,-13.950000762939453
0.07,11.530475616455078,66.9227294921875,-37.77092742919922,-3.9969370365142822,5.062787055969238,-9.592649459838867,-6.300000190734863,20.850000381469727,-13.950000762939453
0.08,11.1474027633667,66.5396499633789,-37.46446990966797,-7.194486618041992,2.2649309635162354,-8.526799201965332,-6.300000190734863,20.850000381469727,-13.950000762939453
0.09,11.798625946044922,67.99533081054688,-37.27293395996094,0.2664624750614166,-4.663093090057373,-13.189892768859863,-6.300000190734863,21.600000381469727,-14.250000953674316
0.1,13.139378547668457,67.80379486083984,-36.69832229614258,-12.25727367401123,-2.398162364959717,1.7320060729980469,-6.450000286102295,21.75,-14.100000381469727
0.118,12.60307788848877,65.54366302490234,-36.04710006713867,-9.192955017089844,-3.0643184185028076,-4.663093090057373,-4.950000286102295,19.05000114440918,-14.100000381469727
0.122,10.649409294128418,66.07996368408203,-35.28095626831055,-14.92189884185791,3.4640121459960938,-9.326186180114746,-4.950000286102295,19.05000114440918,-14.100000381469727
0.13,11.224017143249512,65.96504211425781,-35.510799407958984,-14.92189884185791,0.6661561727523804,-5.728943347930908,-4.950000286102295,19.05000114440918,-14.100000381469727
0.14,11.109095573425293,67.30580139160156,-36.621707916259766,-15.721285820007324,6.261868000030518,-9.592649459838867,-4.950000286102295,19.05000114440918,-14.100000381469727
0.15,12.373234748840332,69.25946807861328,-36.315250396728516,-9.859111785888672,3.3307809829711914,-4.796324729919434,-7.050000190734863,21.150001525878906,-13.200000762939453
0.16,12.066776275634766,69.68084716796875,-35.85556411743164,5.728943347930908,0.9326186776161194,-3.86370587348938,-5.700000286102295,20.55000114440918,-14.100000381469727
0.179,12.449849128723145,71.02159881591797,-36.96647262573242,5.728943347930908,-5.995405673980713,-6.261868000030518,-5.400000095367432,21.450000762939453,-14.40000057220459
0.183,11.262324333190918,67.72718048095703,-35.97048568725586,0.9326186776161194,-3.3307809829711914,-9.72588062286377,-7.050000190734863,20.850000381469727,-13.500000953674316
0.19,11.568782806396484,67.07595825195312,-36.58340072631836,1.0658499002456665,-6.794793128967285,1.8652373552322388,-7.050000190734863,20.850000381469727,-13.500000953674316
0.2,11.91354751586914,66.69288635253906,-37.311241149902344,-9.72588062286377,5.062787055969238,-5.462480545043945,-6.0,21.900001525878906,-13.500000953674316
0.21,11.1474027633667,66.9610366821289,-36.08540725708008,-11.591117858886719,8.127105712890625,-5.462480545043945,-6.750000476837158,19.650001525878906,-13.950000762939453
0.22,11.492168426513672,66.9227294921875,-35.66402816772461,-9.059723854064941,5.728943347930908,-8.127105712890625,-6.150000095367432,20.25,-14.100000381469727
0.239,12.105083465576172,69.3743896484375,-35.204341888427734,-3.4640121459960938,0.5329249501228333,9.326186180114746,-6.150000095367432,20.25,-13.350000381469727
0.243,10.457873344421387,67.61225891113281,-36.16202163696289,-5.062787055969238,5.995405673980713,4.396630764007568,-6.300000190734863,21.150001525878906,-14.250000953674316
0.25,11.875240325927734,67.91871643066406,-34.93619155883789,-5.062787055969238,7.460949420928955,-9.059723854064941,-6.300000190734863,21.150001525878906,-14.250000953674316
0.26,11.109095573425293,67.26749420166016,-36.04710006713867,-2.131699800491333,-3.9969370365142822,0.1332312375307083,-6.750000476837158,20.100000381469727,-13.500000953674316
0.27,11.568782806396484,67.88040924072266,-36.35355758666992,2.9310872554779053,0.39969372749328613,-0.7993874549865723,-7.650000095367432,21.75,-13.050000190734863
0.28,12.143390655517578,69.56592559814453,-35.47249221801758,-0.7993874549865723,9.326186180114746,-3.4640121459960938,-5.700000286102295,20.55000114440918,-12.600000381469727
0.299,11.338939666748047,70.14053344726562,-35.395877838134766,5.062787055969238,10.658498764038086,-10.258805274963379,-5.700000286102295,20.55000114440918,-12.600000381469727
0.304,12.181697845458984,67.38241577148438,-35.47249221801758,3.0643184185028076,3.9969370365142822,-0.9326186776161194,-7.050000190734863,21.600000381469727,-14.700000762939453
0.31,11.262324333190918,67.15257263183594,-36.69832229614258,2.6646246910095215,1.0658499002456665,-0.39969372749328613,-5.700000286102295,20.55000114440918,-14.100000381469727
0.32,11.070788383483887,66.5396499633789,-37.502777099609375,3.597243309020996,5.595712184906006,-3.9969370365142822,-5.550000190734863,20.400001525878906,-14.250000953674316
0.33,11.951854705810547,67.30580139160156,-36.430171966552734,5.196018218994141,3.4640121459960938,-6.5283308029174805,-6.300000190734863,20.100000381469727,-13.500000953674316
0.34,12.411541938781738,67.26749420166016,-35.28095626831055,4.796324729919434,0.7993874549865723,-3.3307809829711914,-6.300000190734863,20.100000381469727,-13.500000953674316
0.359,12.449849128723145,66.80780792236328,-36.736629486083984,-2.6646246910095215,0.2664624750614166,-1.4655436277389526,-6.0,20.850000381469727,-12.0
0.363,11.1474027633667,66.07996368408203,-36.69832229614258,-3.597243309020996,0.1332312375307083,-1.4655436277389526,-6.0,19.650001525878906,-14.250000953674316
0.37,11.990161895751953,65.888427734375,-36.04710006713867,-6.661561965942383,-2.398162364959717,2.531393527984619,-6.150000095367432,20.55000114440918,-14.40000057220459
0.38,11.951854705810547,66.84611511230469,-37.11970138549805,2.797856092453003,-0.5329249501228333,4.929555892944336,-5.400000095367432,22.200000762939453,-14.850000381469727
0.39,11.492168426513672,67.80379486083984,-35.28095626831055,-1.9984685182571411,9.326186180114746,-7.460949420928955,-5.700000286102295,21.0,-13.65000057220459
0.4,12.373234748840332,69.71915435791016,-35.66402816772461,3.7304747104644775,6.5283308029174805,-0.39969372749328613,-5.700000286102295,21.0,-13.65000057220459
0.413,12.066776275634766,68.87639617919922,-36.69832229614258,6.261868000030518,3.197549819946289,-0.1332312375307083,-6.0,21.150001525878906,-14.250000953674316
0.42,13.522451400756836,67.22918701171875,-36.621707916259766,2.2649309635162354,3.86370587348938,-5.995405673980713,-5.700000286102295,21.450000762939453,-14.100000381469727
0.43,12.986149787902832,66.4630355834961,-36.66001510620117,-1.9984685182571411,4.263399600982666,-7.72741174697876,-7.200000286102295,22.200000762939453,-13.050000190734863
0.44,11.30063247680664,67.15257263183594,-36.77493667602539,8.660030364990234,-7.9938740730285645,-7.194486618041992,-6.450000286102295,21.450000762939453,-13.350000381469727
0.45,12.48815631866455,68.26348114013672,-36.46847915649414,2.398162364959717,0.1332312375307083,-15.987748146057129,-6.450000286102295,21.450000762939453,-13.350000381469727
0.46,11.836933135986328,67.26749420166016,-36.39186477661133,1.3323123455047607,10.92496109008789,-2.9310872554779053,-7.200000286102295,20.55000114440918,-14.100000381469727
0.479,11.990161895751953,67.11426544189453,-36.88985824584961,3.86370587348938,1.5987749099731445,-7.460949420928955,-6.150000095367432,20.25,-14.100000381469727
0.483,12.258312225341797,66.8844223022461,-37.27293395996094,9.592649459838867,0.39969372749328613,-1.0658499002456665,-6.150000095367432,20.25,-14.100000381469727
0.49,12.334927558898926,67.38241577148438,-36.66001510620117,5.062787055969238,11.191424369812012,-3.4640121459960938,-6.300000190734863,20.400001525878906,-14.250000953674316
0.5,12.334927558898926,67.22918701171875,-37.19631576538086,4.929555892944336,4.663093090057373,-7.194486618041992,-6.300000190734863,20.400001525878906,-14.250000953674316
0.51,11.760318756103516,66.9610366821289,-36.736629486083984,9.72588062286377,9.059723854064941,0.5329249501228333,-6.300000190734863,20.400001525878906,-14.250000953674316
0.52,11.683704376220703,66.84611511230469,-37.387855529785156,-0.6661561727523804,16.78713607788086,-10.258805274963379,-7.200000286102295,19.5,-15.15000057220459
0.533,12.334927558898926,67.07595825195312,-36.8515510559082,11.324655532836914,-1.1990811824798584,-3.3307809829711914,-6.450000286102295,20.55000114440918,-13.65000057220459
0.54,11.875240325927734,65.58197021484375,-36.928165435791016,11.324655532836914,2.797856092453003,-10.525267601013184,-7.050000190734863,21.600000381469727,-13.200000762939453
0.55,10.879252433776855,66.84611511230469,-37.00477981567383,14.388973236083984,7.594180583953857,-4.796324729919434,-4.800000190734863,21.150001525878906,-14.700000762939453
0.56,11.185709953308105,68.34009552001953,-36.35355758666992,19.718223571777344,11.724349021911621,-10.258805274963379,-4.800000190734863,21.150001525878906,-14.700000762939453
0.57,11.185709953308105,70.75344848632812,-37.694313049316406,31.176109313964844,4.663093090057373,-8.127105712890625,-6.450000286102295,19.5,-14.100000381469727
0.58,11.530475616455078,70.17884063720703,-37.694313049316406,34.906585693359375,7.194486618041992,-2.398162364959717,-6.900000095367432,21.450000762939453,-13.65000057220459
0.6,11.530475616455078,69.14454650878906,-36.928165435791016,30.110260009765625,11.724349021911621,-3.86370587348938,-7.800000190734863,21.600000381469727,-13.500000953674316
0.604,9.385271072387695,66.9227294921875,-38.613685607910156,30.643184661865234,14.12251091003418,-8.660030364990234,-7.800000190734863,21.600000381469727,-13.500000953674316
0.61,12.105083465576172,66.15657806396484,-37.77092742919922,40.635528564453125,6.661561965942383,3.7304747104644775,-7.800000190734863,21.600000381469727,-13.500000953674316
0.62,11.568782806396484,65.81181335449219,-38.15399932861328,35.972434997558594,3.197549819946289,0.2664624750614166,-7.800000190734863,21.600000381469727,-13.500000953674316
0.63,10.457873344421387,66.00334930419922,-38.19230651855469,27.445634841918945,8.926492691040039,-6.9280242919921875,-6.300000190734863,19.200000762939453,-15.750000953674316
0.64,10.304644584655762,65.35212707519531,-38.307228088378906,30.643184661865234,5.8621745109558105,1.8652373552322388,-6.900000095367432,19.5,-14.100000381469727
0.657,10.113107681274414,63.97306823730469,-39.533058166503906,17.186830520629883,4.663093090057373,5.062787055969238,-6.300000190734863,19.650001525878906,-13.500000953674316
0.66,9.653421401977539,61.444793701171875,-39.87782287597656,9.326186180114746,7.860642910003662,-1.9984685182571411,-6.300000190734863,19.650001525878906,-13.500000953674316
0.67,10.496180534362793,62.59400939941406,-39.99274444580078,5.329249382019043,0.9326186776161194,-4.929555892944336,-6.300000190734863,19.650001525878906,-13.500000953674316
0.68,11.798625946044922,63.74322509765625,-38.34553527832031,1.0658499002456665,0.2664624750614166,-3.4640121459960938,-6.150000095367432,19.80000114440918,-14.40000057220459
0.69,13.177685737609863,67.30580139160156,-39.80120849609375,16.65390396118164,1.9984685182571411,-9.326186180114746,-5.700000286102295,21.450000762939453,-14.100000381469727
0.709,12.7946138381958,69.4126968383789,-39.035064697265625,0.7993874549865723,10.258805274963379,1.4655436277389526,-6.750000476837158,20.850000381469727,-15.000000953674316
0.713,12.679692268371582,68.1868667602539,-38.537071228027344,13.189892768859863,1.5987749099731445,2.2649309635162354,-4.950000286102295,20.25,-14.40000057220459
0.72,12.986149787902832,66.9227294921875,-39.26490783691406,21.45022964477539,-2.398162364959717,7.194486618041992,-4.950000286102295,20.25,-14.40000057220459
0.73,11.91354751586914,66.8844223022461,-39.41813659667969,14.255742073059082,5.8621745109558105,-8.526799201965332,-4.950000286102295,20.25,-14.40000057220459
0.74,12.258312225341797,66.65457153320312,-39.4947509765625,19.185298919677734,1.7320060729980469,-1.0658499002456665,-6.300000190734863,20.850000381469727,-13.950000762939453
0.75,12.258312225341797,67.34410858154297,-38.843528747558594,31.575803756713867,1.7320060729980469,0.1332312375307083,-7.050000190734863,20.400001525878906,-14.250000953674316
0.76,11.836933135986328,66.30980682373047,-41.065345764160156,33.30780792236328,0.39969372749328613,2.2649309635162354,-7.650000095367432,20.25,-13.350000381469727
0.777,11.262324333190918,66.42472839355469,-40.567352294921875,31.709033966064453,2.531393527984619,15.188361167907715,-6.750000476837158,19.650001525878906,-13.950000762939453
0.78,12.22000503540039,67.84210205078125,-40.79719543457031,33.4410400390625,5.329249382019043,13.989279747009277,-6.750000476837158,19.650001525878906,-13.950000762939453
0.79,12.29662036895752,66.76950073242188,-39.4947509765625,29.977027893066406,6.395099639892578,17.719755172729492,-8.25,18.450000762939453,-15.450000762939453
0.8,12.258312225341797,66.84611511230469,-40.95042419433594,37.83767318725586,6.395099639892578,28.511484146118164,-6.750000476837158,20.850000381469727,-14.700000762939453
0.81,11.568782806396484,68.1102523803711,-40.52904510498047,36.10566711425781,17.453292846679688,16.920366287231445,-6.450000286102295,18.75,-15.15000057220459
0.829,13.369222640991211,68.03363800048828,-40.18428039550781,50.36140823364258,9.592649459838867,25.846860885620117,-6.900000095367432,18.75,-15.90000057220459
0.833,10.955866813659668,68.761474609375,-40.873809814453125,51.027565002441406,18.2526798248291,26.912710189819336,-6.450000286102295,19.05000114440918,-16.350000381469727
0.84,11.41555404663086,68.95301055908203,-39.035064697265625,60.08728790283203,16.920366287231445,29.977027893066406,-6.450000286102295,19.05000114440918,-16.350000381469727
0.85,10.649409294128418,67.19087982177734,-41.25688552856445,78.20673370361328,13.58958625793457,26.113323211669922,-7.050000190734863,19.200000762939453,-15.750000953674316
0.86,11.492168426513672,67.03765106201172,-42.32948684692383,77.00765228271484,17.719755172729492,38.50382614135742,-7.950000286102295,20.25,-15.90000057220459
0.87,10.72602367401123,68.37840270996094,-42.44440841674805,72.34455871582031,28.378253936767578,39.83613967895508,-6.450000286102295,18.30000114440918,-15.600000381469727
0.88,11.03248119354248,70.75344848632812,-44.16823196411133,86.60030364990234,36.238895416259766,43.83307647705078,-7.800000190734863,17.400001525878906,-16.80000114440918
0.899,12.066776275634766,72.24742889404297,-44.97268295288086,108.84992218017578,25.18070411682129,72.87748718261719,-7.950000286102295,19.05000114440918,-17.100000381469727
0.903,11.645397186279297,67.11426544189453,-44.12992477416992,106.4517593383789,30.643184661865234,64.61714935302734,-8.700000762939453,18.30000114440918,-17.100000381469727
0.91,11.338939666748047,64.77751922607422,-45.31745147705078,110.71515655517578,36.372127532958984,64.75038146972656,-8.700000762939453,18.30000114440918,-17.100000381469727
0.92,10.764330863952637,61.52140808105469,-46.23682403564453,107.91730499267578,38.10413360595703,69.01377868652344,-8.700000762939453,17.55000114440918,-17.400001525878906
0.93,10.649409294128418,58.9548225402832,-49.37801742553711,93.92802429199219,48.09647750854492,71.67840576171875,-9.15000057220459,17.55000114440918,-16.350000381469727
0.94,11.185709953308105,55.622093200683594,-47.99895477294922,71.14547729492188,53.95865249633789,52.89280319213867,-7.800000190734863,15.750000953674316,-18.30000114440918
0.952,12.947842597961426,56.235008239746094,-46.84973907470703,75.67534637451172,51.027565002441406,66.882080078125,-8.700000762939453,15.15000057220459,-16.650001525878906
0.96,15.782577514648438,62.74723815917969,-48.19049072265625,71.14547729492188,57.955589294433594,73.14395141601562,-8.700000762939453,15.15000057220459,-16.650001525878906
0.97,16.548721313476562,64.47106170654297,-51.063533782958984,67.28177642822266,82.7365951538086,70.87902069091797,-9.450000762939453,15.600000381469727,-17.700000762939453
0.98,15.207969665527344,67.11426544189453,-53.93657684326172,73.41041564941406,86.3338394165039,87.79938507080078,-10.5,16.5,-18.30000114440918
0.99,17.42978858947754,72.82203674316406,-49.99093246459961,94.0612564086914,83.93567657470703,114.3124008178711,-9.450000762939453,14.100000381469727,-17.400001525878906
1.01,19.153614044189453,70.10222625732422,-48.42033386230469,110.04900360107422,85.53445434570312,106.85145568847656,-9.450000762939453,14.100000381469727,-17.400001525878906
1.014,18.04270362854004,62.74723815917969,-47.80741882324219,130.43338012695312,93.52832794189453,104.7197494506836,-12.450000762939453,13.65000057220459,-19.650001525878906
1.02,19.038692474365234,54.894256591796875,-48.80340576171875,140.1592559814453,87.0,118.04287719726562,-12.450000762939453,13.65000057220459,-19.650001525878906
1.03,20.341136932373047,55.35394287109375,-49.9143180847168,137.49464416503906,93.66156005859375,110.848388671875,-11.700000762939453,12.15000057220459,-18.450000762939453
1.04,23.482330322265625,57.65237808227539,-52.174442291259766,115.2450180053711,110.18223571777344,128.3016815185547,-13.200000762939453,13.65000057220459,-19.200000762939453
1.05,25.20615577697754,55.698707580566406,-53.553504943847656,89.26493072509766,116.17764282226562,129.10107421875,-12.15000057220459,11.40000057220459,-19.200000762939453
1.06,25.89568519592285,53.93657684326172,-53.28535461425781,66.74884796142578,106.85145568847656,136.9617156982422,-12.15000057220459,11.40000057220459,-19.200000762939453
1.075,26.12552833557129,50.48892593383789,-52.71074295043945,39.16998291015625,124.03828430175781,142.15773010253906,-15.000000953674316,10.050000190734863,-18.75
1.081,27.696125030517578,52.86397171020508,-50.98691940307617,35.439510345458984,123.2388916015625,144.42266845703125,-13.200000762939453,9.0,-19.200000762939453
1.09,27.46628189086914,55.27732849121094,-50.60384750366211,46.497703552246094,121.50688934326172,154.54823303222656,-15.000000953674316,9.15000057220459,-19.80000114440918
1.1,27.351360321044922,60.985107421875,-48.57356262207031,66.48238372802734,119.37519073486328,165.3399658203125,-15.000000953674316,9.15000057220459,-19.80000114440918
1.11,25.550920486450195,65.39043426513672,-47.424346923828125,85.93415069580078,131.36599731445312,170.66921997070312,-15.90000057220459,9.15000057220459,-19.80000114440918
1.129,25.435998916625977,67.95702362060547,-49.109867095947266,109.24961853027344,132.6983184814453,179.4624786376953,-16.5,6.450000286102295,-18.75
1.133,23.903709411621094,63.74322509765625,-51.63814163208008,123.77182006835938,144.02296447753906,195.31700134277344,-16.650001525878906,6.750000476837158,-19.650001525878906
1.14,22.333112716674805,55.392250061035156,-56.847923278808594,132.9647674560547,139.49310302734375,208.5068817138672,-17.700000762939453,5.850000381469727,-18.150001525878906
1.15,20.149600982666016,49.531246185302734,-55.622093200683594,124.30474090576172,154.28176879882812,203.04440307617188,-17.700000762939453,5.850000381469727,-18.150001525878906
1.16,21.14558982849121,44.35976791381836,-52.55751419067383,110.71515655517578,162.1424102783203,207.30780029296875,-17.700000762939453,5.850000381469727,-18.150001525878906
1.17,25.052927017211914,43.785160064697266,-54.166419982910156,105.65237426757812,170.4027557373047,204.6431884765625,-20.25,4.5,-18.0
1.18,28.768728256225586,45.394065856933594,-51.48491287231445,98.19142150878906,188.65542602539062,217.30015563964844,-21.30000114440918,3.750000238418579,-18.0
1.196,28.8453426361084,52.174442291259766,-53.63011932373047,123.2388916015625,202.9111785888672,224.8943328857422,-21.75,4.200000286102295,-16.5
1.2,33.90189743041992,57.76729965209961,-50.10585403442383,132.56507873535156,199.713623046875,219.69830322265625,-21.900001525878906,0.45000001788139343,-16.350000381469727
1.21,35.05111312866211,57.7289924621582,-51.10184097290039,143.75650024414062,214.10260009765625,255.80397033691406,-21.900001525878906,0.45000001788139343,-16.350000381469727
1.22,37.34954833984375,55.23902130126953,-53.476890563964844,151.48391723632812,231.95558166503906,274.3231201171875,-22.950000762939453,-0.9000000357627869,-15.15000057220459
1.23,39.456443786621094,48.38202667236328,-51.1784553527832,160.6768798828125,231.68911743164062,288.578857421875,-24.750001907348633,-1.5,-16.05000114440918
1.249,40.64396667480469,38.422149658203125,-50.79538345336914,157.21286010742188,249.27565002441406,301.6355285644531,-25.80000114440918,-3.750000238418579,-15.000000953674316
1.253,42.52102279663086,30.91393280029297,-53.8216552734375,124.57120513916016,269.1271057128906,296.9724426269531,-25.05000114440918,-4.950000286102295,-15.000000953674316
1.26,40.95042419433594,25.014619827270508,-53.32366180419922,108.983154296875,283.6492919921875,301.3690490722656,-25.05000114440918,-4.950000286102295,-15.000000953674316
1.27,40.64396667480469,21.98834800720215,-50.91030502319336,95.66002655029297,281.91729736328125,317.09033203125,-25.500001907348633,-5.700000286102295,-12.450000762939453
1.28,41.21857833862305,20.724210739135742,-46.198516845703125,77.14088439941406,302.16845703125,303.6340026855469,-27.30000114440918,-8.850000381469727,-12.450000762939453
1.29,43.9766960144043,21.528661727905273,-42.40610122680664,60.62021255493164,305.76568603515625,297.6385803222656,-26.700000762939453,-8.700000762939453,-11.850000381469727
1.31,48.037261962890625,22.946029663085938,-43.900081634521484,64.61714935302734,301.5022888183594,320.02142333984375,-29.55000114440918,-10.350000381469727,-10.200000762939453
1.314,52.94058609008789,23.788787841796875,-39.647979736328125,48.8958625793457,319.4884948730469,310.8284912109375,-30.450000762939453,-10.950000762939453,-9.75
1.32,55.85193634033203,25.359384536743164,-39.954437255859375,35.439510345458984,320.5543518066406,312.6937255859375,-30.450000762939453,-10.950000762939453,-9.75
1.33,56.733001708984375,27.619510650634766,-38.728607177734375,38.50382614135742,325.084228515625,330.9463806152344,-29.55000114440918,-14.550000190734863,-7.350000381469727
1.34,57.805606842041016,29.611486434936523,-33.44221115112305,44.63246536254883,311.8943176269531,349.4655456542969,-30.30000114440918,-15.750000953674316,-6.900000095367432
1.35,57.34592056274414,22.83110809326172,-30.722396850585938,37.70444107055664,319.35528564453125,367.5849914550781,-30.150001525878906,-16.350000381469727,-5.700000286102295
1.369,58.49513626098633,12.258312225341797,-28.92195701599121,41.30168533325195,324.95098876953125,379.1761169433594,-31.950000762939453,-17.100000381469727,-5.25
1.373,62.59400939941406,3.141192674636841,-23.482330322265625,50.62786865234375,327.74884033203125,371.04901123046875,-31.950000762939453,-17.100000381469727,-5.25
1.38,70.79175567626953,-1.8387469053268433,-23.980323791503906,60.88667678833008,319.4884948730469,359.32464599609375,-31.05000114440918,-20.850000381469727,-3.6000001430511475
1.39,74.6990966796875,-0.5746083855628967,-22.90772247314453,61.9525260925293,336.0091857910156,316.15771484375,-30.30000114440918,-22.350000381469727,-0.6000000238418579
1.4,76.46122741699219,4.060565948486328,-22.333112716674805,100.72281646728516,330.54669189453125,301.9019775390625,-31.500001907348633,-23.55000114440918,-0.30000001192092896
1.41,74.08617401123047,5.937620162963867,-22.409727096557617,130.30015563964844,331.47930908203125,300.0367431640625,-31.950000762939453,-25.200000762939453,1.2000000476837158
1.43,71.67282104492188,6.01423454284668,-24.89969825744629,147.22052001953125,337.34149169921875,266.46246337890625,-31.950000762939453,-25.200000762939453,1.2000000476837158
1.433,67.42072296142578,2.9879636764526367,-27.58120346069336,140.1592559814453,328.5482177734375,279.11944580078125,-32.70000076293945,-26.400001525878906,3.450000047683716
1.44,65.96504211425781,-9.53849983215332,-16.66364288330078,124.03828430175781,314.42572021484375,247.2771759033203,-31.05000114440918,-28.950000762939453,3.9000000953674316
1.45,62.2109375,-19.766529083251953,-10.994174003601074,102.72128295898438,310.42877197265625,254.2052001953125,-29.400001525878906,-28.80000114440918,7.050000190734863
1.46,55.12409973144531,-27.849353790283203,-6.167463779449463,71.41194152832031,303.5007629394531,219.16539001464844,-30.150001525878906,-30.30000114440918,7.500000476837158
1.47,53.247047424316406,-33.097442626953125,-3.9839515686035156,32.90811538696289,296.039794921875,188.2557373046875,-30.150001525878906,-31.05000114440918,9.0
1.48,51.33168411254883,-37.311241149902344,-1.6855180263519287,19.98468589782715,280.8514404296875,156.81317138671875,-30.150001525878906,-31.05000114440918,9.0
1.493,51.7530632019043,-34.66804122924805,0.3064578175544739,-1.1990811824798584,263.5314025878906,117.64318084716797,-29.250001907348633,-31.650001525878906,10.65000057220459
1.5,56.57977294921875,-26.393678665161133,0.9193734526634216,-8.39356803894043,246.07809448242188,106.31852722167969,-30.000001907348633,-31.950000762939453,11.700000762939453
1.51,60.563724517822266,-24.861391067504883,2.183511972427368,-0.5329249501228333,224.3614044189453,68.21439361572266,-28.650001525878906,-33.0,11.550000190734863
1.52,64.0879898071289,-20.456058502197266,3.179499864578247,10.658498764038086,189.72128295898438,45.56508255004883,-28.500001907348633,-31.650001525878906,13.950000762939453
1.53,65.00736236572266,-18.272546768188477,1.4173674583435059,12.790199279785156,163.0750274658203,17.986217498779297,-28.500001907348633,-31.650001525878906,13.950000762939453
1.549,65.62027740478516,-17.851167678833008,-1.4173674583435059,20.517610549926758,122.43950653076172,15.188361167907715,-29.250001907348633,-34.80000305175781,14.250000953674316
1.553,68.41670989990234,-20.570980072021484,1.6089035272598267,4.796324729919434,100.18988800048828,-7.9938740730285645,-28.950000762939453,-33.0,14.850000381469727
1.56,73.97125244140625,-23.865402221679688,7.469909191131592,-7.72741174697876,83.00305938720703,-2.398162364959717,-28.80000114440918,-32.400001525878906,15.000000953674316
1.57,80.44517517089844,-24.13355255126953,5.975927352905273,-18.385910034179688,65.81623077392578,-1.5987749099731445,-28.500001907348633,-31.950000762939453,15.450000762939453
1.58,84.39082336425781,-19.153614044189453,10.113107681274414,-25.18070411682129,34.24042892456055,-2.398162364959717,-28.80000114440918,-32.85000228881836,15.750000953674316
1.59,86.1912612915039,-12.832921028137207,12.181697845458984,-27.31240463256836,20.117916107177734,7.860642910003662,-28.80000114440918,-32.85000228881836,15.750000953674316
1.61,91.66919708251953,-5.363011837005615,7.891288757324219,-25.447166442871094,11.857580184936523,17.053598403930664,-28.950000762939453,-33.0,17.100000381469727
1.614,96.80236053466797,-0.689530074596405,1.8387469053268433,-25.980091094970703,5.995405673980713,47.297088623046875,-28.80000114440918,-31.650001525878906,15.000000953674316
1.62,98.44957733154297,2.1068975925445557,-5.1331682205200195,-30.24349021911621,10.392036437988281,49.96171569824219,-29.250001907348633,-33.900001525878906,16.05000114440918
1.63,98.21973419189453,0.19153612852096558,-5.784391403198242,-44.49923324584961,34.906585693359375,51.560489654541016,-27.30000114440918,-32.400001525878906,15.450000762939453
1.64,93.2780990600586,-6.01423454284668,-5.171475887298584,-69.01377868652344,48.09647750854492,43.56661605834961,-27.30000114440918,-32.400001525878906,15.450000762939453
1.65,90.67321014404297,-15.667655944824219,1.9153614044189453,-87.13323211669922,48.09647750854492,35.705970764160156,-27.000001907348633,-33.900001525878906,13.950000762939453
1.669,94.38900756835938,-23.865402221679688,6.703764915466309,-119.7748794555664,59.82082748413086,2.797856092453003,-28.05000114440918,-34.35000228881836,16.05000114440918
1.673,100.32662963867188,-25.81907081604004,5.975927352905273,-134.03062438964844,69.01377868652344,-6.261868000030518,-27.30000114440918,-33.900001525878906,15.000000953674316
1.68,109.71189880371094,-18.004396438598633,6.818686485290527,-120.84072875976562,60.62021255493164,-3.197549819946289,-27.30000114440918,-35.55000305175781,16.5
1.69,111.58895111083984,-11.492168426513672,9.040505409240723,-94.46094512939453,48.76263427734375,5.462480545043945,-27.30000114440918,-35.55000305175781,16.5
1.7,105.4214859008789,-0.3447650372982025,5.975927352905273,-74.60948944091797,35.439510345458984,18.119447708129883,-27.900001525878906,-33.45000076293945,15.15000057220459
1.71,99.67540740966797,5.975927352905273,2.3367409706115723,-55.95711898803711,32.37519073486328,22.116384506225586,-28.05000114440918,-34.35000228881836,16.05000114440918
1.73,101.24600219726562,4.060565948486328,-4.060565948486328,-45.96477508544922,17.32006072998047,35.839202880859375,-26.55000114440918,-34.35000228881836,15.000000953674316
1.734,110.93772888183594,-1.8387469053268433,-11.377246856689453,-53.95865249633789,44.89892578125,43.56661605834961,-27.450000762939453,-34.95000076293945,15.90000057220459
1.74,117.06688690185547,-14.020444869995117,-6.856993675231934,-62.21898651123047,53.026031494140625,44.63246536254883,-27.450000762939453,-34.95000076293945,15.90000057220459
1.75,115.76444244384766,-21.490354537963867,1.4939818382263184,-77.80704498291016,52.89280319213867,43.43338394165039,-27.450000762939453,-34.95000076293945,15.90000057220459
1.76,109.98004913330078,-31.067161560058594,11.30063247680664,-97.7917251586914,61.9525260925293,26.912710189819336,-26.55000114440918,-35.55000305175781,16.5
1.77,101.89722442626953,-36.66001510620117,12.756306648254395,-110.98162078857422,78.60643005371094,-10.791729927062988,-26.55000114440918,-35.85000228881836,15.450000762939453
1.789,94.96361541748047,-38.46045684814453,17.391481399536133,-95.9264907836914,66.74884796142578,-41.83460998535156,-28.05000114440918,-35.55000305175781,14.700000762939453
1.793,95.76806640625,-33.48051834106445,15.322891235351562,-36.5053596496582,31.44257164001465,-73.54364013671875,-27.000001907348633,-35.10000228881836,15.000000953674316
1.8,106.57070922851562,-13.599065780639648,0.5363011956214905,-5.8621745109558105,18.385910034179688,-61.81929397583008,-27.000001907348633,-35.10000228881836,15.000000953674316
1.81,109.4437484741211,-0.4596867263317108,1.1109095811843872,33.57427215576172,0.2664624750614166,-40.36906433105469,-27.000001907348633,-36.60000228881836,16.5
1.82,106.03440856933594,5.631162166595459,3.485957622528076,42.76722717285156,-18.652372360229492,-37.17151641845703,-27.900001525878906,-35.25,15.90000057220459
1.83,98.75603485107422,0.5363011956214905,2.604891538619995,31.709033966064453,-30.776416778564453,-11.058192253112793,-27.450000762939453,-35.25,15.600000381469727
1.85,89.44737243652344,-9.576807022094727,3.2178070545196533,-11.591117858886719,-23.715160369873047,4.796324729919434,-27.30000114440918,-35.55000305175781,13.950000762939453
1.853,84.314208984375,-19.038692474365234,7.891288757324219,-82.86982727050781,-21.583459854125977,6.395099639892578,-26.55000114440918,-36.30000305175781,17.25
1.86,85.34850311279297,-30.952239990234375,4.711789131164551,-122.9724349975586,-11.324655532836914,8.926492691040039,-26.55000114440918,-36.30000305175781,17.25
1.87,88.68122863769531,-37.77092742919922,5.171475887298584,-164.14088439941406,4.263399600982666,-11.857580184936523,-27.900001525878906,-36.150001525878906,15.15000057220459
1.88,89.71552276611328,-44.97268295288086,7.8529815673828125,-175.33230590820312,3.4640121459960938,-39.30321502685547,-26.250001907348633,-35.85000228881836,15.450000762939453
1.89,86.1146469116211,-47.15619659423828,10.457873344421387,-163.74119567871094,-9.859111785888672,-70.07962799072266,-25.80000114440918,-37.5,13.950000762939453
1.91,78.10843658447266,-36.50678634643555,6.703764915466309,-162.94180297851562,-17.852985382080078,-86.73353576660156,-25.80000114440918,-37.5,13.950000762939453
1.914,72.63050079345703,-20.264522552490234,1.3407529592514038,-165.4731903076172,-5.062787055969238,-87.13323211669922,-27.150001525878906,-36.900001525878906,13.050000190734863
1.92,68.761474609375,-3.869029998779297,-1.4939818382263184,-152.28330993652344,-24.64777946472168,-69.28024291992188,-27.150001525878906,-35.70000076293945,12.300000190734863
1.93,69.9489974975586,-1.455674648284912,-4.213795185089111,-134.69677734375,-20.650842666625977,-65.41653442382812,-27.150001525878906,-36.150001525878906,11.850000381469727
1.94,76.65276336669922,-0.9576807022094727,-5.784391403198242,-139.09341430664062,-6.794793128967285,-44.23276901245117,-28.500001907348633,-37.5,12.0
1.95,81.4794692993164,-3.7158010005950928,-0.038307227194309235,-144.82235717773438,-20.517610549926758,-34.50688934326172,-28.500001907348633,-37.5,12.0
1.97,82.39884948730469,-13.943830490112305,2.7964274883270264,-149.3522186279297,-41.701377868652344,-36.10566711425781,-28.80000114440918,-35.85000228881836,10.950000762939453
1.973,75.08216857910156,-20.341136932373047,-2.2601263523101807,-148.8192901611328,-36.372127532958984,-57.822357177734375,-27.450000762939453,-36.900001525878906,11.850000381469727
1.98,68.45501708984375,-19.460071563720703,-5.018246650695801,-161.2097930908203,-18.119447708129883,-61.01990509033203,-28.500001907348633,-36.30000305175781,9.90000057220459
1.99,65.2755126953125,-19.651607513427734,-3.9839515686035156,-159.74424743652344,-29.177640914916992,-68.08116149902344,-28.05000114440918,-34.80000305175781,10.200000762939453
2.0,61.10002899169922,-18.081010818481445,-3.6391866207122803,-157.612548828125,-28.511484146118164,-91.66309356689453,-28.650001525878906,-34.95000076293945,10.800000190734863
2.01,56.38823699951172,-13.10107135772705,-6.933608055114746,-153.61561584472656,-31.042879104614258,-92.99540710449219,-28.650001525878906,-34.95000076293945,10.800000190734863
2.03,56.77130889892578,-9.308655738830566,-10.496180534362793,-144.55589294433594,-31.44257164001465,-84.60183715820312,-29.55000114440918,-35.85000228881836,9.450000762939453
2.033,59.98911666870117,-7.5848307609558105,-12.60307788848877,-139.35987854003906,-27.84532928466797,-103.92036437988281,-29.250001907348633,-34.80000305175781,9.450000762939453
2.04,62.670623779296875,-4.8267107009887695,-15.437812805175781,-141.6248016357422,-28.111791610717773,-93.52832794189453,-28.500001907348633,-34.35000228881836,8.700000762939453
2.05,61.751251220703125,-4.137180328369141,-16.012420654296875,-150.81776428222656,-23.715160369873047,-112.18070220947266,-29.400001525878906,-34.5,8.550000190734863
2.06,59.18466567993164,-1.1109095811843872,-12.90953540802002,-156.28024291992188,-21.84992218017578,-92.46247863769531,-29.400001525878906,-34.5,8.550000190734863
2.07,57.6906852722168,0.6512228846549988,-9.040505409240723,-161.6094970703125,-18.78560447692871,-99.25727081298828,-29.700000762939453,-34.5,9.300000190734863
2.089,56.80961608886719,3.1028854846954346,-5.286397457122803,-142.82388305664062,-20.91730499267578,-114.04593658447266,-28.950000762939453,-35.70000076293945,8.25
2.093,55.46886444091797,6.129156112670898,-6.435614109039307,-81.13782501220703,-39.16998291015625,-111.5145492553711,-30.450000762939453,-33.75,8.25
2.1,53.783348083496094,14.901511192321777,-13.828908920288086,-40.23583221435547,-46.497703552246094,-111.91423797607422,-28.80000114440918,-33.60000228881836,6.600000381469727
2.11,54.01319122314453,17.50640296936035,-12.871228218078613,11.457886695861816,-49.82848358154297,-104.7197494506836,-28.80000114440918,-33.60000228881836,6.600000381469727
2.12,55.58378601074219,17.8128604888916,-11.1474027633667,49.16232681274414,-64.61714935302734,-99.12403869628906,-30.150001525878906,-32.25,5.700000286102295
2.13,59.41450881958008,14.633360862731934,-16.548721313476562,70.47932434082031,-83.26952362060547,-78.3399658203125,-31.05000114440918,-32.400001525878906,5.850000381469727
2.15,63.05369567871094,9.27034854888916,-21.45204734802246,59.15467071533203,-66.61561584472656,-85.13475799560547,-30.900001525878906,-32.25,5.25
2.154,63.93476104736328,7.163451671600342,-21.75850486755371,30.37672233581543,-63.950992584228516,-63.418067932128906,-28.80000114440918,-31.650001525878906,6.900000095367432
2.16,64.20291137695312,6.89530086517334,-15.629348754882812,12.124042510986328,-51.027565002441406,-60.35375213623047,-30.900001525878906,-32.55000305175781,6.0
2.17,65.00736236572266,7.201758861541748,-12.02846908569336,5.728943347930908,-56.09035110473633,-64.48391723632812,-30.900001525878906,-32.55000305175781,6.0
2.18,66.27149963378906,9.806650161743164,-7.814674377441406,-2.398162364959717,-48.49617004394531,-54.35834503173828,-31.05000114440918,-32.400001525878906,6.150000095367432
2.19,66.57795715332031,14.786589622497559,-9.232041358947754,2.9310872554779053,-58.355281829833984,-43.69984436035156,-30.30000114440918,-30.150001525878906,6.900000095367432
2.21,67.22918701171875,14.211980819702148,-13.024456977844238,17.852985382080078,-60.88667678833008,-41.967838287353516,-31.650001525878906,-32.25,6.300000190734863
2.214,68.761474609375,11.836933135986328,-16.28057098388672,32.37519073486328,-80.60489654541016,-61.01990509033203,-31.200000762939453,-31.05000114440918,6.0
2.22,71.213134765625,11.60708999633789,-20.226215362548828,30.110260009765625,-84.86830139160156,-60.88667678833008,-31.200000762939453,-31.05000114440918,6.0
2.23,73.20510864257812,13.024456977844238,-20.915746688842773,37.97090148925781,-103.52066802978516,-63.684532165527344,-31.500001907348633,-31.200000762939453,6.600000381469727
2.24,74.08617401123047,15.016432762145996,-20.877439498901367,22.51607894897461,-97.12557220458984,-69.28024291992188,-31.200000762939453,-29.100000381469727,4.950000286102295
2.25,77.1507568359375,17.276559829711914,-21.0689754486084,5.8621745109558105,-97.5252685546875,-73.41041564941406,-31.05000114440918,-31.200000762939453,5.850000381469727
2.269,79.6024169921875,15.935806274414062,-21.337125778198242,-19.185298919677734,-92.46247863769531,-90.99693298339844,-31.05000114440918,-31.200000762939453,4.350000381469727
2.274,81.4794692993164,12.29662036895752,-19.766529083251953,-47.297088623046875,-106.18529510498047,-94.72740936279297,-31.05000114440918,-31.200000762939453,4.350000381469727
2.28,84.77389526367188,9.883264541625977,-15.935806274414062,-51.560489654541016,-102.8545150756836,-106.05206298828125,-31.05000114440918,-31.200000762939453,4.350000381469727
2.29,86.8041763305664,12.22000503540039,-14.173673629760742,-48.76263427734375,-108.45022583007812,-142.69065856933594,-32.25,-30.150001525878906,4.650000095367432
2.3,89.60060119628906,18.502389907836914,-12.449849128723145,-7.194486618041992,-123.50535583496094,-159.74424743652344,-31.950000762939453,-30.600000381469727,4.5
2.31,88.0300064086914,28.462270736694336,-14.556746482849121,25.980091094970703,-144.2894287109375,-176.53138732910156,-30.450000762939453,-30.30000114440918,3.450000047683716
2.33,86.22956848144531,34.897884368896484,-15.744270324707031,49.42878723144531,-146.1546630859375,-180.26187133789062,-30.900001525878906,-29.100000381469727,4.200000286102295
2.333,83.50975799560547,36.2003288269043,-19.651607513427734,84.33537292480469,-158.4119415283203,-173.2006072998047,-30.900001525878906,-29.100000381469727,4.200000286102295
2.34,79.83226013183594,29.305028915405273,-21.6818904876709,88.73200225830078,-160.6768798828125,-176.26492309570312,-31.05000114440918,-28.200000762939453,2.1000001430511475
2.35,78.49150848388672,24.78477668762207,-21.26051139831543,78.60643005371094,-160.14395141601562,-184.39202880859375,-31.500001907348633,-25.80000114440918,2.1000001430511475
2.36,76.76768493652344,17.276559829711914,-21.26051139831543,49.69525146484375,-147.62020874023438,-198.24807739257812,-32.70000076293945,-26.100000381469727,0.9000000357627869
2.37,73.77971649169922,10.381258964538574,-22.677879333496094,13.989279747009277,-146.1546630859375,-196.51608276367188,-30.450000762939453,-24.900001525878906,1.9500000476837158
2.389,71.67282104492188,10.381258964538574,-23.13756561279297,-15.055130004882812,-140.42572021484375,-203.8437957763672,-30.450000762939453,-24.900001525878906,1.9500000476837158
2.393,72.28573608398438,13.139378547668457,-23.099258422851562,-55.95711898803711,-130.30015563964844,-217.69984436035156,-31.05000114440918,-23.850000381469727,-0.30000001192092896
2.4,73.12849426269531,20.41775131225586,-21.911733627319336,-58.222049713134766,-137.49464416503906,-223.56201171875,-31.650001525878906,-23.25,1.2000000476837158
2.41,73.28172302246094,22.677879333496094,-20.532672882080078,-47.0306282043457,-138.42726135253906,-211.5712127685547,-30.150001525878906,-21.75,0.9000000357627869
2.42,74.54586791992188,26.508602142333984,-18.195932388305664,-26.246553421020508,-138.16079711914062,-229.95712280273438,-29.700000762939453,-21.450000762939453,-1.2000000476837158
2.43,74.77571105957031,31.565155029296875,-16.778566360473633,-0.7993874549865723,-149.08575439453125,-242.21438598632812,-30.30000114440918,-21.150001525878906,-1.350000023841858
2.45,76.38461303710938,31.565155029296875,-17.238252639770508,24.248085021972656,-161.2097930908203,-216.76722717285156,-30.30000114440918,-21.150001525878906,-1.350000023841858
2.454,77.45721435546875,31.641769409179688,-19.99637222290039,34.64012145996094,-150.55130004882812,-219.16539001464844,-30.900001525878906,-18.30000114440918,-1.9500000476837158
2.46,76.69107055664062,30.99054718017578,-21.222204208374023,39.70290756225586,-155.34762573242188,-215.03521728515625,-30.900001525878906,-18.30000114440918,-1.9500000476837158
2.47,75.23539733886719,29.95625114440918,-20.609289169311523,36.372127532958984,-150.6845245361328,-209.3062744140625,-31.650001525878906,-18.30000114440918,-2.25
2.48,74.39263153076172,26.2021427154541,-22.792800903320312,35.439510345458984,-148.95252990722656,-195.5834503173828,-30.900001525878906,-17.55000114440918,-3.0
2.49,73.51156616210938,23.290794372558594,-23.63555908203125,10.791729927062988,-139.2266387939453,-196.915771484375,-30.900001525878906,-17.55000114440918,-3.0
2.51,73.35833740234375,21.107282638549805,-20.915746688842773,4.130168437957764,-136.29556274414062,-184.25880432128906,-29.400001525878906,-15.90000057220459,-3.750000238418579
2.513,72.93695831298828,22.103269577026367,-21.45204734802246,-16.520673751831055,-125.90351867675781,-184.79173278808594,-28.500001907348633,-15.750000953674316,-3.3000001907348633
2.52,73.35833740234375,23.9420166015625,-20.034679412841797,-23.98162269592285,-124.57120513916016,-179.595703125,-28.500001907348633,-15.750000953674316,-3.3000001907348633
2.53,73.0135726928711,26.240449905395508,-19.843143463134766,-30.643184661865234,-113.11331939697266,-164.27410888671875,-28.80000114440918,-15.450000762939453,-4.650000095367432
2.54,72.93695831298828,28.577192306518555,-20.532672882080078,-18.385910034179688,-106.18529510498047,-156.01377868652344,-29.55000114440918,-12.300000190734863,-4.650000095367432
2.55,70.90667724609375,29.84132957458496,-20.992361068725586,7.860642910003662,-116.17764282226562,-148.8192901611328,-29.55000114440918,-12.300000190734863,-4.650000095367432
2.57,69.48931121826172,30.0711727142334,-22.677879333496094,17.453292846679688,-100.3231201171875,-156.81317138671875,-29.400001525878906,-11.700000762939453,-5.700000286102295
2.574,70.06391906738281,33.13574981689453,-24.05693817138672,51.560489654541016,-108.84992218017578,-131.89892578125,-29.55000114440918,-11.100000381469727,-6.150000095367432
2.58,69.87238311767578,35.47249221801758,-25.321077346801758,61.81929397583008,-103.92036437988281,-116.44409942626953,-29.55000114440918,-11.100000381469727,-6.150000095367432
2.59,67.95702362060547,34.3998908996582,-25.014619827270508,70.21286010742188,-102.05513000488281,-105.65237426757812,-28.950000762939453,-10.950000762939453,-7.050000190734863
2.6,67.5739517211914,29.22841453552246,-24.746469497680664,69.28024291992188,-88.19908142089844,-86.20060729980469,-28.950000762939453,-10.950000762939453,-7.050000190734863
2.61,64.43275451660156,24.554933547973633,-25.933992385864258,49.29555892944336,-73.81010437011719,-80.33843994140625,-27.750001907348633,-11.850000381469727,-7.350000381469727
2.63,64.39444732666016,22.026655197143555,-24.861391067504883,43.43338394165039,-71.41194152832031,-68.4808578491211,-26.400001525878906,-9.0,-8.550000190734863
2.634,64.27952575683594,21.75850486755371,-23.13756561279297,23.848390579223633,-56.62327575683594,-56.356815338134766,-26.700000762939453,-9.450000762939453,-9.300000190734863
2.64,62.44078063964844,21.0689754486084,-27.46628189086914,3.597243309020996,-38.23736572265625,-57.02296829223633,-26.700000762939453,-9.450000762939453,-9.300000190734863
2.65,62.862159729003906,21.107282638549805,-28.807035446166992,-9.72588062286377,-29.577335357666016,-30.509952545166016,-26.700000762939453,-9.450000762939453,-9.300000190734863
2.66,64.93074798583984,21.950040817260742,-30.224401473999023,-25.447166442871094,-9.059723854064941,-12.790199279785156,-26.700000762939453,-9.450000762939453,-9.300000190734863
2.67,70.83006286621094,24.36339569091797,-28.270732879638672,-40.23583221435547,8.260336875915527,0.0,-27.150001525878906,-9.450000762939453,-9.75
2.69,75.73339080810547,27.27474594116211,-26.470293045043945,-24.381317138671875,11.324655532836914,30.110260009765625,-28.500001907348633,-10.350000381469727,-9.90000057220459
2.693,73.58818054199219,29.075185775756836,-26.43198585510254,-3.4640121459960938,17.586523056030273,42.633995056152344,-29.250001907348633,-9.600000381469727,-9.90000057220459
2.7,67.30580139160156,32.063148498535156,-28.998571395874023,6.395099639892578,32.64165496826172,49.29555892944336,-29.250001907348633,-9.600000381469727,-9.90000057220459
2.71,64.85413360595703,30.186094284057617,-26.85336685180664,22.51607894897461,28.911178588867188,51.160797119140625,-29.250001907348633,-9.600000381469727,-9.90000057220459
2.72,62.555702209472656,25.052927017211914,-25.972299575805664,34.906585693359375,13.989279747009277,68.61408996582031,-28.500001907348633,-9.600000381469727,-10.65000057220459
2.73,61.71294403076172,23.21417999267578,-28.768728256225586,40.23583221435547,23.98162269592285,71.01225280761719,-27.750001907348633,-10.350000381469727,-11.700000762939453
2.75,61.138336181640625,22.2948055267334,-27.504589080810547,39.30321502685547,30.509952545166016,74.07656860351562,-27.150001525878906,-12.450000762939453,-11.100000381469727
2.753,62.90046691894531,21.528661727905273,-24.210166931152344,45.96477508544922,26.513015747070312,91.13016510009766,-27.150001525878906,-12.450000762939453,-11.100000381469727
2.76,66.61626434326172,19.19192123413086,-26.508602142333984,52.626338958740234,13.056661605834961,97.39203643798828,-29.400001525878906,-11.700000762939453,-10.050000190734863
2.77,65.888427734375,19.038692474365234,-28.155811309814453,37.97090148925781,34.24042892456055,106.18529510498047,-26.250001907348633,-12.750000953674316,-11.40000057220459
2.78,65.9267349243164,17.659631729125977,-29.611486434936523,25.04747200012207,31.842266082763672,116.31086730957031,-27.900001525878906,-13.200000762939453,-10.800000190734863
2.79,67.07595825195312,15.935806274414062,-30.109479904174805,7.06125545501709,39.9693717956543,125.50382232666016,-28.200000762939453,-13.65000057220459,-10.800000190734863
2.81,64.77751922607422,16.05072784423828,-29.573179244995117,-15.45482349395752,58.08882141113281,125.10413360595703,-27.000001907348633,-15.000000953674316,-11.40000057220459
2.813,64.96905517578125,16.1656494140625,-31.028854370117188,-30.509952545166016,55.82388687133789,141.35833740234375,-27.000001907348633,-15.000000953674316,-11.40000057220459
2.82,66.15657806396484,14.480132102966309,-28.347347259521484,-31.575803756713867,59.55436325073242,138.42726135253906,-28.950000762939453,-15.600000381469727,-10.800000190734863
2.83,66.19488525390625,14.633360862731934,-25.167848587036133,-31.575803756713867,52.493106842041016,147.4869842529297,-28.80000114440918,-16.200000762939453,-9.90000057220459
2.84,65.2755126953125,12.449849128723145,-22.103269577026367,-31.176109313964844,62.35221862792969,140.42572021484375,-29.700000762939453,-17.100000381469727,-11.100000381469727
2.85,65.54366302490234,10.266336441040039,-21.030668258666992,-41.30168533325195,57.55589294433594,142.5574188232422,-29.55000114440918,-16.200000762939453,-10.65000057220459
2.87,64.20291137695312,9.423578262329102,-21.56696891784668,-41.701377868652344,50.76110076904297,145.75497436523438,-29.55000114440918,-16.200000762939453,-10.65000057220459
2.874,62.862159729003906,8.236053466796875,-23.290794372558594,-55.82388687133789,64.21745300292969,143.09034729003906,-29.700000762939453,-17.850000381469727,-11.100000381469727
2.88,65.65858459472656,10.189722061157227,-25.09123420715332,-63.684532165527344,67.814697265625,133.49769592285156,-28.80000114440918,-18.150001525878906,-9.90000057220459
2.89,66.42472839355469,11.338939666748047,-27.044902801513672,-65.41653442382812,62.8851432800293,147.4869842529297,-29.250001907348633,-19.650001525878906,-11.40000057220459
2.9,69.79576873779297,13.139378547668457,-29.03687858581543,-76.60796356201172,74.34303283691406,156.01377868652344,-29.700000762939453,-18.75,-10.350000381469727
2.91,71.13652038574219,14.288596153259277,-31.067161560058594,-71.81163787841797,76.4747314453125,152.54977416992188,-29.700000762939453,-18.75,-10.350000381469727
2.93,72.82203674316406,12.947842597961426,-28.53888511657715,-81.40428924560547,80.20520782470703,160.54364013671875,-29.700000762939453,-18.75,-10.350000381469727
2.934,75.50354766845703,12.29662036895752,-26.66183090209961,-89.93108367919922,85.53445434570312,162.5421142578125,-30.450000762939453,-19.5,-8.550000190734863
2.94,77.03583526611328,10.649409294128418,-25.51261329650879,-91.92955017089844,84.33537292480469,159.61102294921875,-29.55000114440918,-20.850000381469727,-9.15000057220459
2.95,77.64875030517578,9.806650161743164,-23.75048065185547,-88.99846649169922,79.67227935791016,162.00918579101562,-30.30000114440918,-23.100000381469727,-7.950000286102295
2.96,77.45721435546875,9.040505409240723,-22.103269577026367,-82.33690643310547,65.54976654052734,162.40887451171875,-30.900001525878906,-23.25,-9.0
2.97,77.8019790649414,8.465897560119629,-21.222204208374023,-75.27565002441406,56.356815338134766,161.2097930908203,-30.900001525878906,-23.25,-9.0
2.99,74.04786682128906,7.4316020011901855,-22.026655197143555,-82.86982727050781,64.3506851196289,151.35069274902344,-29.55000114440918,-23.850000381469727,-9.15000057220459
2.993,73.0135726928711,8.159439086914062,-24.401702880859375,-84.4686050415039,56.09035110473633,151.084228515625,-30.150001525878906,-23.700000762939453,-9.0
3.0,69.9873046875,6.856993675231934,-28.002582550048828,-99.79019927978516,58.62174606323242,150.6845245361328,-30.30000114440918,-23.850000381469727,-7.950000286102295
3.01,68.1102523803711,5.51624059677124,-29.803022384643555,-108.983154296875,63.81776428222656,135.62939453125,-28.950000762939453,-24.900001525878906,-9.300000190734863
3.02,66.30980682373047,6.129156112670898,-30.760704040527344,-122.83920288085938,70.87902069091797,137.62786865234375,-28.950000762939453,-24.900001525878906,-9.300000190734863
3.03,66.84611511230469,4.443638324737549,-29.496564865112305,-127.90198516845703,62.35221862792969,136.29556274414062,-30.000001907348633,-25.500001907348633,-7.950000286102295
3.05,66.34811401367188,3.7924153804779053,-27.77273941040039,-137.49464416503906,65.68299865722656,137.49464416503906,-30.450000762939453,-24.900001525878906,-7.800000190734863
3.053,66.30980682373047,5.51624059677124,-26.700138092041016,-156.41346740722656,77.67381286621094,116.44409942626953,-29.250001907348633,-26.55000114440918,-7.650000095367432
3.06,65.54366302490234,8.006210327148438,-24.554933547973633,-149.3522186279297,72.74425506591797,131.36599731445312,-28.05000114440918,-26.250001907348633,-8.700000762939453
3.07,65.19889831542969,8.236053466796875,-22.639572143554688,-135.62939453125,80.07197570800781,121.10719299316406,-29.55000114440918,-26.250001907348633,-8.40000057220459
3.08,65.00736236572266,8.848969459533691,-20.226215362548828,-119.5084228515625,71.67840576171875,122.83920288085938,-29.55000114440918,-26.250001907348633,-8.40000057220459
3.09,66.65457153320312,11.683704376220703,-19.574993133544922,-95.52679443359375,76.20826721191406,119.90811157226562,-29.700000762939453,-26.850000381469727,-7.050000190734863
3.11,69.02962493896484,13.560758590698242,-19.536685943603516,-66.08269500732422,57.422664642333984,120.97396087646484,-29.700000762939453,-27.600000381469727,-8.25
3.114,71.71112823486328,16.58702850341797,-21.528661727905273,-30.110260009765625,53.82542037963867,132.56507873535156,-28.80000114440918,-26.55000114440918,-6.900000095367432
3.12,73.89463806152344,15.820884704589844,-25.014619827270508,-29.977027893066406,55.4241943359375,128.03521728515625,-30.450000762939453,-27.600000381469727,-7.500000476837158
3.13,72.86034393310547,15.054739952087402,-24.78477668762207,-11.058192253112793,43.69984436035156,139.09341430664062,-30.450000762939453,-27.600000381469727,-7.500000476837158
3.14,73.16680145263672,13.369222640991211,-24.554933547973633,-12.523736000061035,44.36600112915039,135.4961700439453,-30.000001907348633,-27.750001907348633,-6.600000381469727
3.15,72.89865112304688,11.224017143249512,-22.869415283203125,-32.77488327026367,53.159263610839844,145.48851013183594,-27.900001525878906,-26.400001525878906,-6.750000476837158
3.17,72.55388641357422,8.389283180236816,-23.367408752441406,-51.027565002441406,62.485450744628906,142.4241943359375,-30.000001907348633,-31.200000762939453,-6.900000095367432
3.174,70.90667724609375,6.512228488922119,-23.252487182617188,-62.485450744628906,60.88667678833008,139.7595672607422,-28.200000762939453,-31.05000114440918,-6.0
3.18,70.44699096679688,9.002198219299316,-22.48634147644043,-70.47932434082031,67.68146514892578,144.42266845703125,-28.650001525878906,-31.05000114440918,-6.750000476837158
3.19,69.91069030761719,8.121131896972656,-21.75850486755371,-67.814697265625,71.41194152832031,132.43185424804688,-28.650001525878906,-31.05000114440918,-6.750000476837158
3.2,71.09821319580078,7.891288757324219,-18.617311477661133,-59.15467071533203,66.48238372802734,133.6309356689453,-29.400001525878906,-32.55000305175781,-6.750000476837158
3.21,72.66880798339844,9.040505409240723,-19.000385284423828,-48.8958625793457,62.8851432800293,121.50688934326172,-30.000001907348633,-29.700000762939453,-5.850000381469727
3.23,75.15878295898438,10.189722061157227,-21.26051139831543,-45.43185043334961,61.15313720703125,115.77794647216797,-28.80000114440918,-31.950000762939453,-5.100000381469727
3.234,76.4995346069336,11.645397186279297,-24.78477668762207,-36.10566711425781,57.822357177734375,117.9096450805664,-27.900001525878906,-33.45000076293945,-6.750000476837158
3.24,76.92091369628906,13.982137680053711,-25.742456436157227,-25.7136287689209,51.4272575378418,121.90658569335938,-27.900001525878906,-33.45000076293945,-6.750000476837158
3.25,77.26567840576172,15.591041564941406,-24.823083877563477,-31.709033966064453,59.02143859863281,104.45329284667969,-27.150001525878906,-33.75,-4.950000286102295
3.26,77.30398559570312,14.326903343200684,-26.01060676574707,-28.911178588867188,61.68606185913086,117.77641296386719,-27.900001525878906,-34.5,-7.050000190734863
3.27,76.76768493652344,11.72201156616211,-25.20615577697754,-24.51454734802246,59.95405578613281,109.51607513427734,-28.200000762939453,-35.25,-3.750000238418579
3.29,76.80599212646484,6.89530086517334,-24.89969825744629,-31.975496292114258,64.3506851196289,103.65390014648438,-27.750001907348633,-34.80000305175781,-5.850000381469727
3.294,76.34630584716797,6.473921298980713,-24.78477668762207,-54.22511291503906,65.54976654052734,94.59417724609375,-27.750001907348633,-34.80000305175781,-5.850000381469727
3.3,76.26969146728516,3.4093432426452637,-25.474306106567383,-68.21439361572266,77.94027709960938,78.87289428710938,-27.750001907348633,-34.80000305175781,-5.850000381469727
3.31,78.79796600341797,0.8427590131759644,-23.02264404296875,-89.5313949584961,76.20826721191406,56.356815338134766,-27.150001525878906,-34.5,-4.200000286102295
3.32,83.16499328613281,1.8770540952682495,-23.673866271972656,-128.3016815185547,77.67381286621094,27.71209716796875,-26.400001525878906,-36.150001525878906,-3.750000238418579
3.33,86.07633972167969,4.443638324737549,-23.82709503173828,-161.6094970703125,77.14088439941406,15.854516983032227,-27.450000762939453,-37.20000076293945,-3.750000238418579
3.35,88.33646392822266,9.84495735168457,-25.20615577697754,-177.86370849609375,77.67381286621094,0.9326186776161194,-27.450000762939453,-37.20000076293945,-3.0
3.354,90.8264389038086,18.502389907836914,-30.109479904174805,-188.92189025878906,85.80091857910156,1.1990811824798584,-28.05000114440918,-35.10000228881836,-4.350000381469727
3.36,92.1288833618164,32.75267791748047,-27.849353790283203,-182.7932586669922,88.46553802490234,-8.39356803894043,-28.05000114440918,-35.10000228881836,-4.350000381469727
3.37,93.50794219970703,35.93217849731445,-23.252487182617188,-155.34762573242188,85.53445434570312,3.4640121459960938,-27.000001907348633,-35.10000228881836,-3.6000001430511475
3.38,92.85671997070312,38.15399932861328,-24.36339569091797,-106.05206298828125,67.814697265625,0.39969372749328613,-28.650001525878906,-36.150001525878906,-4.200000286102295
3.39,89.71552276611328,34.66804122924805,-25.39769172668457,-71.54517364501953,56.22358322143555,-11.724349021911621,-25.80000114440918,-36.60000228881836,-4.650000095367432
3.41,88.33646392822266,32.10145568847656,-24.89969825744629,-35.439510345458984,41.701377868652344,-6.661561965942383,-25.80000114440918,-36.60000228881836,-4.650000095367432
3.414,87.49370574951172,29.419950485229492,-25.81907081604004,-15.854516983032227,37.17151641845703,-21.183767318725586,-27.30000114440918,-36.60000228881836,-3.9000000953674316
3.42,85.15696716308594,29.113492965698242,-30.99054718017578,-8.793261528015137,22.249616622924805,-9.859111785888672,-27.30000114440918,-36.60000228881836,-3.9000000953674316
3.43,82.0923843383789,28.8453426361084,-32.86759948730469,-30.776416778564453,37.17151641845703,-5.329249382019043,-28.05000114440918,-36.60000228881836,-3.9000000953674316
3.44,79.71733856201172,26.96828842163086,-32.292991638183594,-43.30015182495117,41.434913635253906,0.0,-27.750001907348633,-38.25,-2.5500001907348633
3.45,81.67100524902344,25.857378005981445,-33.13574981689453,-39.30321502685547,33.04134750366211,15.188361167907715,-28.500001907348633,-37.5,-2.1000001430511475
3.47,84.77389526367188,26.43198585510254,-32.86759948730469,-48.22970962524414,40.36906433105469,7.594180583953857,-28.500001907348633,-37.5,-2.1000001430511475
3.473,87.11063385009766,29.917943954467773,-32.982521057128906,-20.251148223876953,26.246553421020508,22.782541275024414,-28.05000114440918,-37.80000305175781,-1.8000000715255737
3.48,86.22956848144531,35.16603469848633,-30.99054718017578,-6.5283308029174805,22.51607894897461,25.447166442871094,-28.05000114440918,-37.80000305175781,-1.8000000715255737
3.49,86.42110443115234,34.13174057006836,-26.393678665161133,22.382848739624023,18.78560447692871,30.110260009765625,-27.150001525878906,-39.150001525878906,-2.25
3.5,84.3525161743164,31.680076599121094,-20.072986602783203,39.43644714355469,4.663093090057373,14.655436515808105,-27.900001525878906,-39.150001525878906,-1.2000000476837158
3.51,83.08837890625,27.15982437133789,-19.99637222290039,66.882080078125,-6.9280242919921875,7.327718257904053,-27.900001525878906,-39.150001525878906,-1.2000000476837158
3.53,79.41088104248047,26.738445281982422,-22.90772247314453,94.32771301269531,-13.856048583984375,9.859111785888672,-27.900001525878906,-39.150001525878906,-1.2000000476837158
3.534,78.07012939453125,25.70414924621582,-22.792800903320312,121.10719299316406,-19.185298919677734,-7.9938740730285645,-27.900001525878906,-39.900001525878906,1.2000000476837158
3.54,75.84831237792969,22.524648666381836,-25.359384536743164,124.8376693725586,-16.25421142578125,-30.24349021911621,-25.950000762939453,-41.10000228881836,0.9000000357627869
3.55,75.38862609863281,21.0689754486084,-26.54690933227539,156.5467071533203,-34.773353576660156,-37.57120895385742,-27.000001907348633,-40.5,2.5500001907348633
3.56,75.42693328857422,18.310853958129883,-27.044902801513672,174.0,-39.30321502685547,-46.63093185424805,-27.000001907348633,-40.5,2.5500001907348633
3.57,76.00154113769531,15.897499084472656,-22.409727096557617,160.41041564941406,-41.30168533325195,-68.21439361572266,-27.750001907348633,-39.0,3.3000001907348633
3.59,76.11646270751953,15.169661521911621,-18.195932388305664,144.68911743164062,-53.29249572753906,-74.47626495361328,-27.900001525878906,-39.900001525878906,4.200000286102295
3.594,75.69508361816406,12.143390655517578,-15.476119995117188,104.18682861328125,-38.23736572265625,-84.06890869140625,-27.450000762939453,-39.60000228881836,2.700000047683716
3.6,76.84429931640625,10.189722061157227,-11.41555404663086,98.4578857421875,-47.0306282043457,-86.46707153320312,-27.30000114440918,-39.0,4.350000381469727
3.61,76.92091369628906,11.070788383483887,-9.461885452270508,82.7365951538086,-38.37059783935547,-109.38284301757812,-27.30000114440918,-39.0,4.350000381469727
3.62,79.06611633300781,12.526463508605957,-8.236053466796875,100.72281646728516,-51.160797119140625,-112.31393432617188,-27.30000114440918,-39.0,4.350000381469727
3.63,81.97746276855469,17.73624610900879,-7.891288757324219,115.2450180053711,-55.55742645263672,-131.7657012939453,-29.700000762939453,-37.20000076293945,6.300000190734863
3.65,82.4371566772461,21.030668258666992,-5.324704647064209,136.4287872314453,-67.68146514892578,-137.09494018554688,-29.400001525878906,-37.650001525878906,6.300000190734863
3.654,85.65496063232422,20.724210739135742,-1.800439715385437,146.5543670654297,-78.60643005371094,-146.9540557861328,-29.400001525878906,-36.45000076293945,4.950000286102295
3.66,91.40104675292969,19.460071563720703,0.19153612852096558,152.68299865722656,-94.59417724609375,-145.6217498779297,-30.150001525878906,-35.70000076293945,5.700000286102295
3.67,92.6651840209961,18.617311477661133,-0.8427590131759644,157.21286010742188,-79.40581512451172,-146.28790283203125,-30.150001525878906,-35.70000076293945,5.700000286102295
3.68,94.92530822753906,18.88546371459961,2.030282974243164,152.54977416992188,-76.34149932861328,-146.42112731933594,-30.150001525878906,-35.70000076293945,6.750000476837158
3.69,95.49991607666016,17.276559829711914,1.647210717201233,153.21592712402344,-79.13935852050781,-133.6309356689453,-29.55000114440918,-33.900001525878906,6.600000381469727
3.711,93.12487030029297,13.982137680053711,2.451662540435791,143.88973999023438,-67.814697265625,-154.6814727783203,-31.950000762939453,-33.75,6.750000476837158
3.715,91.86073303222656,12.947842597961426,3.2561142444610596,156.41346740722656,-73.9433364868164,-160.94332885742188,-31.80000114440918,-33.60000228881836,6.600000381469727
3.72,91.24781799316406,14.97812557220459,0.9959878921508789,156.28024291992188,-68.08116149902344,-172.80091857910156,-31.80000114440918,-33.60000228881836,6.600000381469727
3.73,91.5159683227539,16.58702850341797,-0.3064578175544739,178.6630859375,-81.53751373291016,-181.3277130126953,-32.25,-31.650001525878906,6.900000095367432
3.74,91.55427551269531,18.23423957824707,5.018246650695801,185.99081420898438,-78.3399658203125,-205.84225463867188,-33.0,-30.150001525878906,7.350000381469727
3.75,89.63890838623047,18.272546768188477,9.576807022094727,182.92648315429688,-90.33078002929688,-212.5038299560547,-33.900001525878906,-28.350000381469727,6.0
3.77,88.83445739746094,13.445837020874023,8.121131896972656,163.20826721191406,-104.85298156738281,-221.03062438964844,-34.20000076293945,-28.350000381469727,6.0
3.773,84.85050964355469,10.802638053894043,2.5282769203186035,120.84072875976562,-87.26646423339844,-233.55435180664062,-34.05000305175781,-28.200000762939453,6.900000095367432
3.78,78.87458038330078,7.4316020011901855,-3.332728862762451,94.86064147949219,-80.47166442871094,-246.477783203125,-34.05000305175781,-28.200000762939453,6.900000095367432
3.79,77.03583526611328,5.018246650695801,-4.596867084503174,78.87289428710938,-80.8713607788086,-259.4012145996094,-33.0,-24.750001907348633,6.900000095367432
3.8,75.3503189086914,9.193734169006348,-5.477933406829834,57.02296829223633,-61.41960144042969,-271.1255798339844,-32.70000076293945,-24.900001525878906,5.700000286102295
3.81,74.39263153076172,13.445837020874023,-7.2783732414245605,44.89892578125,-55.4241943359375,-275.12249755859375,-33.900001525878906,-22.5,5.25
3.83,75.23539733886719,14.518439292907715,-6.818686485290527,49.02909469604492,-51.160797119140625,-287.77947998046875,-33.30000305175781,-22.350000381469727,6.150000095367432
3.834,77.84028625488281,18.502389907836914,-5.171475887298584,66.08269500732422,-55.15773391723633,-290.1776428222656,-33.30000305175781,-22.350000381469727,6.150000095367432
3.84,78.75965881347656,22.60126495361328,-1.8770540952682495,66.34915924072266,-48.09647750854492,-298.7044372558594,-33.900001525878906,-21.450000762939453,4.950000286102295
3.85,79.44918823242188,23.673866271972656,-1.5322890281677246,75.00918579101562,-51.82695007324219,-302.4349060058594,-34.80000305175781,-20.400001525878906,4.350000381469727
3.86,81.28793334960938,25.09123420715332,-2.9879636764526367,94.86064147949219,-63.950992584228516,-288.71209716796875,-34.95000076293945,-19.5,4.5
3.87,79.75564575195312,23.099258422851562,-3.7158010005950928,105.91883087158203,-72.47779083251953,-291.6431884765625,-34.05000305175781,-16.950000762939453,3.9000000953674316
3.89,77.64875030517578,21.298818588256836,-7.240066051483154,101.12251281738281,-58.08882141113281,-295.3736572265625,-35.400001525878906,-19.05000114440918,3.750000238418579
3.894,77.84028625488281,18.923770904541016,-7.393294811248779,102.8545150756836,-62.085758209228516,-289.9111633300781,-35.400001525878906,-19.05000114440918,3.750000238418579
3.9,76.03984832763672,19.000385284423828,-12.29662036895752,100.58958435058594,-53.159263610839844,-296.9724426269531,-34.650001525878906,-16.350000381469727,4.200000286102295
3.91,74.92893981933594,19.99637222290039,-12.947842597961426,91.66309356689453,-51.160797119140625,-299.90350341796875,-34.95000076293945,-13.65000057220459,4.5
3.92,73.81802368164062,21.6818904876709,-14.403517723083496,97.39203643798828,-54.4915771484375,-291.376708984375,-34.95000076293945,-13.200000762939453,4.200000286102295
3.93,73.47325897216797,20.379444122314453,-14.595053672790527,103.38744354248047,-57.02296829223633,-278.0535888671875,-33.900001525878906,-13.200000762939453,3.750000238418579
3.951,72.01758575439453,22.103269577026367,-13.675680160522461,99.52373504638672,-58.4885139465332,-273.6569519042969,-33.900001525878906,-13.200000762939453,3.750000238418579
3.954,68.34009552001953,23.3291015625,-12.986149787902832,92.3292465209961,-55.55742645263672,-253.93873596191406,-35.400001525878906,-10.950000762939453,3.0
3.96,65.8501205444336,24.59324073791504,-13.828908920288086,95.52679443359375,-53.558956146240234,-250.74119567871094,-36.75,-10.050000190734863,3.9000000953674316
3.97,67.03765106201172,24.938005447387695,-13.48414421081543,94.0612564086914,-51.160797119140625,-240.61561584472656,-36.0,-7.200000286102295,3.9000000953674316
3.98,66.42472839355469,25.20615577697754,-14.441824913024902,87.66615295410156,-46.897396087646484,-237.15159606933594,-35.25,-7.200000286102295,2.5500001907348633
3.99,64.54767608642578,26.815059661865234,-16.203956604003906,83.80245208740234,-45.56508255004883,-233.1546630859375,-35.25,-7.200000286102295,2.5500001907348633
4.011,61.67463684082031,27.198131561279297,-19.306842803955078,79.9387435913086,-46.231239318847656,-220.76416015625,-35.25,-7.200000286102295,2.5500001907348633
4.015,58.03544998168945,25.89568519592285,-20.992361068725586,81.53751373291016,-44.23276901245117,-201.9785614013672,-34.5,-1.5,1.0500000715255737
4.02,55.200714111328125,23.75048065185547,-23.367408752441406,79.53904724121094,-49.29555892944336,-188.52220153808594,-34.5,-1.5,1.0500000715255737
4.03,54.62610626220703,23.558944702148438,-24.44001007080078,68.88054656982422,-42.90045928955078,-179.9954071044922,-36.0,-1.5,1.8000000715255737
4.04,53.40027618408203,24.24847412109375,-23.290794372558594,55.29096221923828,-41.967838287353516,-162.00918579101562,-35.25,-2.700000047683716,2.1000001430511475
4.05,53.01720428466797,26.163835525512695,-21.183897018432617,37.83767318725586,-20.784072875976562,-144.02296447753906,-35.25,-2.700000047683716,2.1000001430511475
4.07,52.289363861083984,27.121517181396484,-22.256498336791992,26.912710189819336,-22.249616622924805,-123.9050521850586,-35.55000305175781,1.0500000715255737,1.0500000715255737
4.073,53.51519775390625,27.657817840576172,-24.89969825744629,13.323123931884766,-9.192955017089844,-94.59417724609375,-35.400001525878906,-0.45000001788139343,1.6500000953674316
4.08,53.93657684326172,27.88766098022461,-27.46628189086914,5.995405673980713,5.995405673980713,-83.26952362060547,-34.95000076293945,2.4000000953674316,0.15000000596046448
4.09,55.507171630859375,28.577192306518555,-30.224401473999023,3.4640121459960938,12.523736000061035,-73.54364013671875,-35.55000305175781,2.25,1.350000023841858
4.1,54.24303436279297,30.415939331054688,-31.028854370117188,-2.398162364959717,23.182235717773438,-44.36600112915039,-35.55000305175781,2.25,1.350000023841858
4.11,54.93256378173828,30.79901123046875,-32.25468444824219,3.0643184185028076,11.990811347961426,-10.92496109008789,-33.900001525878906,2.4000000953674316,0.15000000596046448
4.13,53.74504089355469,28.73042106628418,-31.871612548828125,-6.395099639892578,32.77488327026367,2.6646246910095215,-34.95000076293945,3.1500000953674316,-1.6500000953674316
4.133,52.480899810791016,24.861391067504883,-29.803022384643555,0.9326186776161194,27.045940399169922,38.77029037475586,-34.95000076293945,3.1500000953674316,-1.2000000476837158
4.14,51.063533782958984,20.264522552490234,-28.309040069580078,-1.3323123455047607,20.117916107177734,45.298622131347656,-34.95000076293945,3.1500000953674316,-1.2000000476837158
4.15,51.94459915161133,20.532672882080078,-28.117504119873047,-3.4640121459960938,33.57427215576172,59.4211311340332,-34.650001525878906,3.1500000953674316,0.45000001788139343
4.16,51.1401481628418,20.724210739135742,-25.780763626098633,-20.38437843322754,46.231239318847656,78.3399658203125,-34.650001525878906,3.1500000953674316,0.45000001788139343
4.17,56.57977294921875,21.835119247436523,-24.401702880859375,-17.719755172729492,60.35375213623047,106.4517593383789,-36.150001525878906,3.1500000953674316,-0.15000000596046448
4.19,63.85814666748047,22.7161865234375,-24.286781311035156,-6.5283308029174805,66.61561584472656,150.01837158203125,-35.70000076293945,2.4000000953674316,0.45000001788139343
4.194,69.10623931884766,24.24847412109375,-25.39769172668457,6.395099639892578,78.07350158691406,178.5298614501953,-36.900001525878906,2.1000001430511475,0.15000000596046448
4.2,75.15878295898438,26.738445281982422,-26.85336685180664,19.718223571777344,85.80091857910156,204.90963745117188,-36.900001525878906,2.1000001430511475,0.15000000596046448
4.21,75.04386138916016,27.121517181396484,-30.339323043823242,29.577335357666016,91.52986145019531,225.56048583984375,-36.900001525878906,2.1000001430511475,0.15000000596046448
4.22,77.30398559570312,25.39769172668457,-30.301015853881836,28.644716262817383,97.65850067138672,242.34762573242188,-38.70000076293945,-0.45000001788139343,1.6500000953674316
4.23,76.03984832763672,23.82709503173828,-27.351360321044922,25.846860885620117,104.85298156738281,257.8024597167969,-37.95000076293945,-2.1000001430511475,1.9500000476837158
4.25,74.85232543945312,20.034679412841797,-27.77273941040039,13.989279747009277,103.38744354248047,276.7212829589844,-40.05000305175781,-2.25,1.350000023841858
4.254,72.51557922363281,13.752294540405273,-25.780763626098633,0.39969372749328613,106.85145568847656,278.0535888671875,-38.70000076293945,-3.6000001430511475,2.25
4.26,73.89463806152344,6.090848922729492,-19.574993133544922,-14.522205352783203,113.3797836303711,270.0597229003906,-38.70000076293945,-3.6000001430511475,2.25
4.27,75.58016204833984,6.588842868804932,-18.693927764892578,-37.4379768371582,110.58192443847656,270.1929626464844,-38.70000076293945,-3.6000001430511475,2.25
4.28,73.7031021118164,6.244078159332275,-18.004396438598633,-46.231239318847656,101.12251281738281,268.8606262207031,-40.5,-8.100000381469727,4.350000381469727
4.29,73.24341583251953,8.159439086914062,-17.774553298950195,-60.08728790283203,104.98621368408203,259.8009033203125,-40.650001525878906,-7.500000476837158,5.25
4.311,70.37037658691406,10.15141487121582,-15.935806274414062,-60.88667678833008,89.66461944580078,268.9938659667969,-39.45000076293945,-7.050000190734863,4.950000286102295
4.315,68.34009552001953,14.058752059936523,-17.276559829711914,-55.02450180053711,100.3231201171875,257.8024597167969,-38.400001525878906,-9.75,6.0
4.32,71.8260498046875,17.085023880004883,-18.655620574951172,-41.434913635253906,92.19601440429688,255.53750610351562,-38.400001525878906,-9.75,6.0
4.33,72.09420013427734,18.157625198364258,-18.23423957824707,-17.986217498779297,85.00152587890625,248.60948181152344,-40.95000076293945,-13.200000762939453,6.0
4.34,77.34229278564453,18.34916114807129,-18.732234954833984,7.72741174697876,68.74732208251953,249.6753387451172,-40.95000076293945,-14.850000381469727,6.0
4.35,82.59038543701172,17.31486701965332,-20.494365692138672,20.251148223876953,68.88054656982422,251.67381286621094,-39.45000076293945,-12.90000057220459,7.500000476837158
4.37,83.08837890625,14.824896812438965,-19.230228424072266,12.923430442810059,69.28024291992188,240.882080078125,-39.45000076293945,-12.90000057220459,7.500000476837158
4.374,87.3787841796875,10.917559623718262,-15.399505615234375,-9.72588062286377,63.684532165527344,241.28176879882812,-39.75,-17.700000762939453,7.650000095367432
4.38,91.09458923339844,4.750096321105957,-11.60708999633789,-39.43644714355469,66.48238372802734,241.54823303222656,-38.55000305175781,-16.950000762939453,8.700000762939453
4.39,91.78411865234375,2.5282769203186035,-10.917559623718262,-69.4134750366211,70.87902069091797,243.28024291992188,-39.900001525878906,-19.05000114440918,10.350000381469727
4.4,91.5159683227539,-1.9536685943603516,-11.185709953308105,-108.84992218017578,74.8759536743164,225.42726135253906,-39.75,-20.400001525878906,8.700000762939453
4.41,91.74581146240234,-1.455674648284912,-9.385271072387695,-151.48391723632812,72.61102294921875,222.4961700439453,-39.45000076293945,-21.75,8.25
4.43,91.74581146240234,2.75812029838562,-12.717999458312988,-178.92955017089844,72.61102294921875,220.23123168945312,-39.45000076293945,-21.75,8.25
4.434,89.8304443359375,5.286397457122803,-19.268535614013672,-202.77793884277344,80.73812866210938,221.29708862304688,-39.0,-22.80000114440918,9.450000762939453
4.44,88.5663070678711,9.691728591918945,-19.038692474365234,-212.23736572265625,88.46553802490234,212.23736572265625,-37.95000076293945,-24.150001525878906,8.550000190734863
4.45,87.07232666015625,11.798625946044922,-20.532672882080078,-208.10719299316406,77.67381286621094,215.43490600585938,-39.0,-23.850000381469727,9.90000057220459
4.46,83.96944427490234,12.373234748840332,-17.697938919067383,-198.9142303466797,77.14088439941406,200.91270446777344,-38.70000076293945,-25.650001525878906,10.050000190734863
4.47,83.08837890625,11.1474027633667,-15.322891235351562,-202.511474609375,76.07503509521484,186.65696716308594,-38.70000076293945,-25.650001525878906,10.050000190734863
4.49,79.83226013183594,10.342951774597168,-14.901511192321777,-181.19448852539062,60.75344467163086,183.7258758544922,-37.20000076293945,-27.900001525878906,9.75
4.494,78.9511947631836,10.572794914245605,-15.131354331970215,-179.19601440429688,56.09035110473633,159.74424743652344,-38.25,-28.500001907348633,10.65000057220459
4.501,75.04386138916016,11.30063247680664,-16.089035034179688,-173.46707153320312,63.551300048828125,160.2771759033203,-36.900001525878906,-30.30000114440918,10.050000190734863
4.51,73.58818054199219,11.91354751586914,-14.595053672790527,-160.6768798828125,59.68759536743164,145.75497436523438,-36.75,-29.250001907348633,10.65000057220459
4.52,71.02159881591797,14.250288963317871,-11.72201156616211,-141.4915771484375,44.89892578125,154.0153045654297,-36.75,-29.250001907348633,10.65000057220459
4.53,71.44297790527344,16.127342224121094,-13.330915451049805,-136.29556274414062,53.159263610839844,139.89280700683594,-36.75,-29.250001907348633,10.65000057220459
4.55,73.89463806152344,16.28057098388672,-14.250288963317871,-104.98621368408203,50.76110076904297,133.76416015625,-36.900001525878906,-31.05000114440918,10.350000381469727
4.553,73.47325897216797,16.970102310180664,-14.595053672790527,-61.9525260925293,43.43338394165039,135.0964813232422,-36.30000305175781,-31.950000762939453,11.700000762939453
4.56,77.30398559570312,19.115306854248047,-13.752294540405273,-41.83460998535156,32.108726501464844,136.69525146484375,-36.150001525878906,-32.25,11.550000190734863
4.57,77.95520782470703,19.574993133544922,-13.254301071166992,-27.84532928466797,37.57120895385742,136.16232299804688,-36.30000305175781,-31.950000762939453,11.40000057220459
4.58,78.87458038330078,17.238252639770508,-12.986149787902832,-24.914241790771484,32.37519073486328,146.68759155273438,-36.30000305175781,-31.950000762939453,11.40000057220459
4.59,78.56812286376953,15.820884704589844,-14.403517723083496,-18.652372360229492,25.980091094970703,150.55130004882812,-35.25,-33.60000228881836,10.950000762939453
4.61,78.83627319335938,13.905523300170898,-15.744270324707031,-29.7105655670166,44.09954071044922,140.1592559814453,-36.30000305175781,-33.900001525878906,12.0
4.614,78.60643005371094,11.875240325927734,-14.518439292907715,-31.842266082763672,38.37059783935547,143.62327575683594,-34.650001525878906,-33.45000076293945,10.800000190734863
4.62,80.48348236083984,7.316680431365967,-13.21599292755127,-30.24349021911621,39.16998291015625,137.22817993164062,-34.05000305175781,-34.35000228881836,10.65000057220459
4.63,79.44918823242188,6.282385349273682,-11.836933135986328,-35.57273864746094,37.4379768371582,126.7029037475586,-34.05000305175781,-34.35000228881836,10.65000057220459
4.64,80.36856079101562,6.435614109039307,-11.72201156616211,-51.693721771240234,40.502296447753906,120.97396087646484,-33.45000076293945,-36.150001525878906,10.800000190734863
4.65,78.75965881347656,8.542511940002441,-11.91354751586914,-66.74884796142578,45.16539001464844,105.91883087158203,-33.0,-36.30000305175781,12.750000953674316
4.67,76.46122741699219,10.381258964538574,-13.828908920288086,-72.0781021118164,39.569679260253906,104.98621368408203,-33.0,-37.5,10.950000762939453
4.674,74.39263153076172,11.836933135986328,-15.744270324707031,-71.01225280761719,37.4379768371582,104.7197494506836,-32.400001525878906,-37.650001525878906,13.050000190734863
4.68,72.24742889404297,13.177685737609863,-18.157625198364258,-74.74272155761719,48.49617004394531,84.73506927490234,-33.0,-38.25,12.0
4.69,71.97927856445312,14.058752059936523,-19.881450653076172,-53.558956146240234,39.16998291015625,85.13475799560547,-33.0,-38.25,12.0
4.7,71.51959228515625,15.093047142028809,-21.835119247436523,-47.696781158447266,40.23583221435547,65.54976654052734,-33.150001525878906,-39.60000228881836,14.40000057220459
4.71,71.48128509521484,13.445837020874023,-20.494365692138672,-35.972434997558594,39.30321502685547,63.151607513427734,-32.25,-38.25,11.40000057220459
4.73,73.51156616210938,11.951854705810547,-18.693927764892578,-30.110260009765625,41.168453216552734,55.29096221923828,-32.55000305175781,-38.55000305175781,13.200000762939453
4.734,73.32003021240234,11.645397186279297,-15.591041564941406,-32.64165496826172,28.511484146118164,54.35834503173828,-31.80000114440918,-39.0,12.0
4.74,75.73339080810547,12.986149787902832,-14.97812557220459,-39.16998291015625,39.70290756225586,35.17304611206055,-31.80000114440918,-39.0,12.0
4.75,76.537841796875,15.514427185058594,-16.47210693359375,-44.36600112915039,41.83460998535156,33.84073257446289,-31.200000762939453,-39.150001525878906,13.65000057220459
4.76,76.88260650634766,17.50640296936035,-18.157625198364258,-37.83767318725586,34.64012145996094,45.56508255004883,-30.750001907348633,-39.0,11.700000762939453
4.77,80.13871765136719,19.919757843017578,-19.230228424072266,-33.4410400390625,29.177640914916992,41.168453216552734,-31.500001907348633,-40.20000076293945,12.0
4.79,81.21131896972656,18.847156524658203,-17.8128604888916,-27.31240463256836,27.045940399169922,38.37059783935547,-30.900001525878906,-41.55000305175781,11.850000381469727
4.794,81.67100524902344,12.48815631866455,-21.14558982849121,-20.517610549926758,26.379785537719727,27.978559494018555,-30.900001525878906,-41.55000305175781,11.850000381469727
4.8,80.1770248413086,11.41555404663086,-23.903709411621094,-20.117916107177734,20.650842666625977,35.306278228759766,-30.900001525878906,-41.55000305175781,11.850000381469727
4.81,80.40686798095703,11.453861236572266,-24.823083877563477,-33.70750427246094,30.776416778564453,17.986217498779297,-30.450000762939453,-39.60000228881836,11.100000381469727
4.82,78.60643005371094,11.875240325927734,-23.367408752441406,-50.22817611694336,41.035221099853516,24.51454734802246,-30.30000114440918,-41.25,12.750000953674316
4.83,81.51777648925781,14.020444869995117,-22.60126495361328,-49.69525146484375,42.76722717285156,25.980091094970703,-29.250001907348633,-42.150001525878906,14.700000762939453
4.85,84.77389526367188,18.04270362854004,-24.325088500976562,-46.231239318847656,36.5053596496582,30.776416778564453,-29.250001907348633,-41.25,12.450000762939453
4.854,84.46743774414062,18.617311477661133,-23.597251892089844,-41.168453216552734,43.56661605834961,16.12097930908203,-29.250001907348633,-41.25,12.450000762939453
4.86,82.82022857666016,19.038692474365234,-23.02264404296875,-18.91883659362793,31.176109313964844,13.722817420959473,-30.450000762939453,-41.10000228881836,11.550000190734863
4.87,82.32222747802734,20.800825119018555,-21.605276107788086,0.6661561727523804,28.111791610717773,12.523736000061035,-30.900001525878906,-41.85000228881836,12.300000190734863
4.88,84.65897369384766,20.226215362548828,-15.361198425292969,16.25421142578125,21.183767318725586,-4.130168437957764,-30.30000114440918,-40.5,13.200000762939453
4.89,88.14492797851562,21.337125778198242,-12.986149787902832,35.03981399536133,8.127105712890625,-18.519142150878906,-29.700000762939453,-40.35000228881836,13.050000190734863
4.911,90.9030532836914,22.90772247314453,-18.004396438598633,51.4272575378418,-7.72741174697876,-5.995405673980713,-29.700000762939453,-40.35000228881836,13.050000190734863
4.915,95.69145202636719,21.87342643737793,-25.014619827270508,59.287899017333984,-18.385910034179688,-4.929555892944336,-29.250001907348633,-41.70000076293945,13.950000762939453
4.92,99.75202178955078,19.766529083251953,-27.006595611572266,55.55742645263672,-18.2526798248291,-1.3323123455047607,-29.250001907348633,-41.70000076293945,13.950000762939453
4.93,99.59879302978516,17.1999454498291,-27.542896270751953,42.36753463745117,-7.460949420928955,0.7993874549865723,-28.500001907348633,-39.30000305175781,13.200000762939453
4.94,100.67139434814453,13.177685737609863,-29.53487205505371,31.44257164001465,-9.992342948913574,-3.7304747104644775,-28.650001525878906,-41.10000228881836,13.350000381469727
4.95,96.22775268554688,10.72602367401123,-29.190107345581055,5.462480545043945,0.7993874549865723,-29.444103240966797,-29.55000114440918,-40.5,13.500000953674316
4.97,91.4393539428711,9.998186111450195,-26.85336685180664,-11.058192253112793,6.395099639892578,-43.03369140625,-29.55000114440918,-40.5,13.500000953674316
4.973,87.22555541992188,8.236053466796875,-23.02264404296875,-16.78713607788086,-5.329249382019043,-61.9525260925293,-30.150001525878906,-40.650001525878906,14.100000381469727
4.98,85.5400390625,4.711789131164551,-19.000385284423828,-25.04747200012207,-1.5987749099731445,-89.26493072509766,-30.150001525878906,-40.650001525878906,14.100000381469727
4.99,84.54405212402344,5.784391403198242,-16.548721313476562,-19.98468589782715,-12.124042510986328,-112.04747009277344,-29.700000762939453,-39.900001525878906,13.350000381469727
5.0,84.58235931396484,7.4316020011901855,-13.10107135772705,-12.790199279785156,-26.779478073120117,-138.02755737304688,-29.700000762939453,-39.60000228881836,13.350000381469727
5.01,81.67100524902344,9.883264541625977,-14.824896812438965,6.261868000030518,-47.163856506347656,-152.81622314453125,-29.700000762939453,-39.60000228881836,13.350000381469727
5.03,83.7396011352539,13.177685737609863,-16.58702850341797,21.183767318725586,-55.69065856933594,-168.1378173828125,-29.700000762939453,-39.60000228881836,14.100000381469727
5.034,82.62869262695312,16.625335693359375,-18.081010818481445,42.23430252075195,-67.814697265625,-183.85910034179688,-31.950000762939453,-37.95000076293945,13.65000057220459
5.04,84.42913055419922,15.591041564941406,-19.230228424072266,58.222049713134766,-70.87902069091797,-186.79019165039062,-31.950000762939453,-37.95000076293945,13.65000057220459
5.05,84.42913055419922,14.748282432556152,-19.421764373779297,70.3460922241211,-68.4808578491211,-197.18223571777344,-30.450000762939453,-36.45000076293945,12.600000381469727
5.06,84.73558807373047,12.871228218078613,-20.341136932373047,83.40275573730469,-74.60948944091797,-208.24041748046875,-30.150001525878906,-35.70000076293945,12.600000381469727
5.07,85.31019592285156,11.875240325927734,-18.693927764892578,98.99080657958984,-81.27105712890625,-217.1669158935547,-30.150001525878906,-35.70000076293945,12.600000381469727
5.09,87.07232666015625,9.730035781860352,-18.04270362854004,107.3843765258789,-81.40428924560547,-222.36293029785156,-31.80000114440918,-35.55000305175781,12.750000953674316
5.094,86.7275619506836,9.27034854888916,-14.250288963317871,113.77947998046875,-92.99540710449219,-232.88819885253906,-33.0,-33.900001525878906,13.500000953674316
5.1,88.83445739746094,9.959878921508789,-10.304644584655762,110.04900360107422,-87.66615295410156,-243.5467071533203,-33.0,-33.900001525878906,13.500000953674316
5.11,89.02599334716797,9.730035781860352,-8.312667846679688,115.37825012207031,-98.72434997558594,-243.5467071533203,-35.25,-32.85000228881836,13.200000762939453
5.12,90.21351623535156,9.346963882446289,-5.937620162963867,119.37519073486328,-103.38744354248047,-252.60643005371094,-35.25,-32.85000228881836,13.200000762939453
5.13,92.55026245117188,10.764330863952637,-7.661445617675781,117.11026000976562,-109.78253936767578,-256.6033630371094,-35.55000305175781,-30.900001525878906,12.0
5.151,93.9676284790039,13.675680160522461,-9.078812599182129,124.57120513916016,-117.50994873046875,-244.612548828125,-35.25,-30.150001525878906,12.750000953674316
5.154,93.39302062988281,14.786589622497559,-9.730035781860352,118.70903015136719,-128.03521728515625,-238.084228515625,-35.55000305175781,-28.500001907348633,12.450000762939453
5.16,93.69947814941406,13.48414421081543,-10.113107681274414,105.38591003417969,-113.91270446777344,-245.9448699951172,-35.55000305175781,-28.500001907348633,12.450000762939453
5.17,92.7034912109375,11.760318756103516,-10.074800491333008,94.59417724609375,-113.77947998046875,-248.2097930908203,-35.55000305175781,-28.500001907348633,12.450000762939453
5.18,89.40906524658203,9.155426979064941,-9.730035781860352,89.66461944580078,-114.44563293457031,-245.545166015625,-36.45000076293945,-24.900001525878906,13.050000190734863
5.19,87.80016326904297,5.669469833374023,-9.040505409240723,71.67840576171875,-103.52066802978516,-255.40428161621094,-36.900001525878906,-22.5,11.550000190734863
5.211,85.46342468261719,5.51624059677124,-8.427590370178223,62.75191116333008,-107.91730499267578,-262.865234375,-36.900001525878906,-22.200000762939453,10.350000381469727
5.215,84.2759017944336,6.320692539215088,-7.5848307609558105,50.36140823364258,-105.65237426757812,-264.3307800292969,-38.25,-23.850000381469727,10.950000762939453
5.22,82.62869262695312,3.44765043258667,-4.060565948486328,40.502296447753906,-107.3843765258789,-272.4578857421875,-38.25,-23.850000381469727,10.950000762939453
5.23,82.24561309814453,3.6391866207122803,-4.558559894561768,28.511484146118164,-107.78407287597656,-288.0459289550781,-37.95000076293945,-19.5,9.75
5.24,81.17301177978516,6.512228488922119,-4.711789131164551,27.17917251586914,-111.11485290527344,-286.3139343261719,-39.0,-20.400001525878906,9.90000057220459
5.25,80.8665542602539,7.7763671875,-3.2178070545196533,8.793261528015137,-114.3124008178711,-292.5758056640625,-37.95000076293945,-16.350000381469727,8.550000190734863
5.27,79.52580261230469,7.6997528076171875,-3.44765043258667,-12.923430442810059,-105.38591003417969,-291.376708984375,-39.900001525878906,-17.55000114440918,10.050000190734863
5.274,78.56812286376953,7.661445617675781,-5.4013190269470215,-29.177640914916992,-105.91883087158203,-289.2450256347656,-39.900001525878906,-17.55000114440918,10.050000190734863
5.28,76.42292022705078,10.381258964538574,-6.167463779449463,-25.7136287689209,-104.7197494506836,-284.4486999511719,-38.25,-14.250000953674316,9.450000762939453
5.297,73.54987335205078,10.074800491333008,-6.358999729156494,-30.509952545166016,-91.26339721679688,-273.3905029296875,-41.70000076293945,-12.15000057220459,7.800000190734863
5.301,71.94097137451172,9.078812599182129,-9.308655738830566,-39.43644714355469,-93.66156005859375,-268.32769775390625,-37.95000076293945,-11.700000762939453,6.750000476837158
5.31,71.13652038574219,9.691728591918945,-8.580819129943848,-29.977027893066406,-81.53751373291016,-269.2603454589844,-40.05000305175781,-10.050000190734863,7.950000286102295
5.32,69.02962493896484,10.611102104187012,-6.588842868804932,-29.977027893066406,-82.7365951538086,-253.1393585205078,-39.150001525878906,-10.5,7.500000476837158
5.33,69.29777526855469,13.024456977844238,-5.746084213256836,-28.644716262817383,-62.35221862792969,-247.94332885742188,-39.150001525878906,-10.5,7.500000476837158
5.349,69.02962493896484,12.411541938781738,-5.171475887298584,-18.91883659362793,-66.882080078125,-234.0872802734375,-38.70000076293945,-7.050000190734863,5.25
5.353,69.52761840820312,12.22000503540039,-7.8529815673828125,0.0,-74.34303283691406,-230.75650024414062,-39.0,-7.650000095367432,6.600000381469727
5.36,70.98329162597656,12.334927558898926,-8.810662269592285,-2.2649309635162354,-69.54670715332031,-230.88973999023438,-39.150001525878906,-5.550000190734863,6.0
5.37,73.0518798828125,14.633360862731934,-4.443638324737549,-13.323123931884766,-67.01531219482422,-220.49769592285156,-39.150001525878906,-4.350000381469727,4.5
5.38,72.17081451416016,15.667655944824219,-1.072602391242981,-14.255742073059082,-83.00305938720703,-192.7855987548828,-39.150001525878906,-4.350000381469727,4.5
5.39,69.91069030761719,16.1656494140625,-0.5363011956214905,-20.784072875976562,-74.20980072021484,-171.20213317871094,-39.900001525878906,-4.350000381469727,4.950000286102295
5.41,66.34811401367188,12.756306648254395,-4.060565948486328,-25.04747200012207,-62.485450744628906,-171.86830139160156,-39.0,-3.0,5.100000381469727
5.413,62.172630310058594,11.30063247680664,-8.427590370178223,-36.372127532958984,-41.168453216552734,-143.3568115234375,-36.900001525878906,-3.1500000953674316,4.950000286102295
5.42,56.120086669921875,8.197746276855469,-12.947842597961426,-31.709033966064453,-36.771820068359375,-140.29249572753906,-39.45000076293945,-1.350000023841858,4.950000286102295
5.43,52.55751419067383,8.65743350982666,-14.480132102966309,-28.911178588867188,-11.724349021911621,-126.16998291015625,-39.45000076293945,-1.350000023841858,4.950000286102295
5.44,49.79939651489258,9.691728591918945,-15.820884704589844,-14.788667678833008,-3.7304747104644775,-112.04747009277344,-39.45000076293945,-1.350000023841858,4.950000286102295
5.45,46.96466064453125,10.84094524383545,-16.127342224121094,-0.39969372749328613,0.6661561727523804,-90.99693298339844,-39.150001525878906,-0.45000001788139343,5.700000286102295
5.46,47.884033203125,13.407529830932617,-15.016432762145996,17.453292846679688,6.9280242919921875,-77.67381286621094,-39.150001525878906,0.45000001788139343,4.950000286102295
5.472,48.99494171142578,14.633360862731934,-14.020444869995117,22.382848739624023,15.854516983032227,-59.95405578613281,-38.400001525878906,0.45000001788139343,4.5
5.48,51.561527252197266,19.68991470336914,-12.181697845458984,16.387441635131836,19.85145378112793,-43.30015182495117,-37.5,2.700000047683716,5.850000381469727
5.49,52.67243576049805,23.558944702148438,-13.982137680053711,35.439510345458984,29.977027893066406,-11.191424369812012,-37.5,2.700000047683716,5.850000381469727
5.5,54.05149841308594,28.53888511657715,-11.262324333190918,45.96477508544922,29.977027893066406,25.18070411682129,-37.5,0.30000001192092896,3.9000000953674316
5.51,54.66441345214844,30.952239990234375,-12.29662036895752,58.355281829833984,43.83307647705078,45.16539001464844,-38.70000076293945,2.1000001430511475,4.5
5.53,54.587799072265625,28.309040069580078,-15.514427185058594,79.0061264038086,52.75957107543945,85.53445434570312,-39.30000305175781,1.5,5.850000381469727
5.534,55.315635681152344,24.554933547973633,-19.958065032958984,85.93415069580078,55.82388687133789,106.71822357177734,-38.400001525878906,0.9000000357627869,5.25
5.54,58.38021469116211,21.298818588256836,-25.857378005981445,75.67534637451172,69.4134750366211,110.31546783447266,-38.400001525878906,0.9000000357627869,5.25
5.55,60.678646087646484,19.766529083251953,-27.351360321044922,71.81163787841797,68.21439361572266,126.7029037475586,-37.95000076293945,-0.9000000357627869,6.300000190734863
5.56,63.475074768066406,22.17988395690918,-25.20615577697754,54.62480926513672,76.07503509521484,144.1562042236328,-38.70000076293945,-1.350000023841858,6.300000190734863
5.57,65.46704864501953,24.095245361328125,-25.39769172668457,29.84379768371582,88.19908142089844,165.3399658203125,-37.05000305175781,-1.0500000715255737,5.400000095367432
5.58,65.81181335449219,24.708162307739258,-27.504589080810547,10.125574111938477,98.32465362548828,189.5880584716797,-39.30000305175781,-1.8000000715255737,5.100000381469727
5.596,68.95301055908203,29.381643295288086,-27.734432220458984,-16.78713607788086,114.84532928466797,225.8269500732422,-40.05000305175781,-2.700000047683716,7.350000381469727
5.601,80.33025360107422,34.55311965942383,-21.528661727905273,-5.728943347930908,115.91117858886719,262.06585693359375,-40.05000305175781,-2.700000047683716,7.350000381469727
5.61,85.04204559326172,35.89387130737305,-22.792800903320312,-10.92496109008789,116.9770278930664,282.1837463378906,-40.05000305175781,-4.950000286102295,7.350000381469727
5.62,92.81841278076172,35.74064254760742,-24.631547927856445,-10.392036437988281,120.70750427246094,311.7611083984375,-38.70000076293945,-5.550000190734863,7.050000190734863
5.63,97.18543243408203,38.307228088378906,-27.27474594116211,2.2649309635162354,117.50994873046875,336.40887451171875,-39.45000076293945,-6.300000190734863,10.050000190734863
5.649,96.26605987548828,39.456443786621094,-30.91393280029297,11.990811347961426,123.9050521850586,353.72894287109375,-42.0,-7.650000095367432,7.650000095367432
5.653,93.66117095947266,39.226600646972656,-28.500577926635742,44.36600112915039,107.78407287597656,372.781005859375,-42.0,-7.650000095367432,7.650000095367432
5.66,89.52398681640625,33.7869758605957,-24.095245361328125,53.159263610839844,107.51760864257812,376.7779541015625,-41.55000305175781,-10.350000381469727,8.700000762939453
5.67,87.87677764892578,30.4925537109375,-21.183897018432617,63.950992584228516,107.65084075927734,386.1041259765625,-41.400001525878906,-12.450000762939453,9.300000190734863
5.68,88.48969268798828,27.696125030517578,-20.379444122314453,58.62174606323242,99.79019927978516,381.8407287597656,-41.400001525878906,-14.100000381469727,12.300000190734863
5.69,87.87677764892578,22.026655197143555,-22.946029663085938,65.949462890625,94.86064147949219,382.50689697265625,-40.650001525878906,-14.850000381469727,11.550000190734863
5.71,87.22555541992188,18.54069709777832,-26.700138092041016,69.94640350341797,89.13169860839844,371.71514892578125,-40.650001525878906,-14.850000381469727,11.550000190734863
5.714,86.1912612915039,17.1999454498291,-32.25468444824219,72.61102294921875,98.59111785888672,349.1990661621094,-40.650001525878906,-14.850000381469727,11.550000190734863
5.72,83.77790832519531,19.460071563720703,-35.510799407958984,70.3460922241211,94.32771301269531,340.40582275390625,-39.150001525878906,-20.25,11.850000381469727
5.73,82.16899871826172,20.724210739135742,-34.55311965942383,81.00459289550781,80.8713607788086,326.016845703125,-40.80000305175781,-20.850000381469727,13.500000953674316
5.74,77.53382873535156,19.536685943603516,-34.74465560913086,80.33843994140625,75.5421142578125,302.7013854980469,-39.75,-22.80000114440918,13.500000953674316
5.75,74.50755310058594,14.863204002380371,-32.982521057128906,71.2787094116211,66.61561584472656,273.9234313964844,-38.55000305175781,-24.30000114440918,15.450000762939453
5.769,69.9873046875,8.121131896972656,-29.76471519470215,68.21439361572266,57.422664642333984,259.4012145996094,-38.55000305175781,-24.30000114440918,15.450000762939453
5.773,65.42874145507812,2.604891538619995,-23.673866271972656,33.70750427246094,56.22358322143555,221.69677734375,-39.30000305175781,-25.500001907348633,14.250000953674316
5.78,67.99533081054688,0.8044517636299133,-21.911733627319336,1.4655436277389526,63.018375396728516,205.84225463867188,-37.95000076293945,-27.600000381469727,14.850000381469727
5.79,68.99131774902344,0.15322890877723694,-20.226215362548828,-25.313934326171875,62.8851432800293,179.0627899169922,-36.45000076293945,-28.350000381469727,15.90000057220459
5.8,71.7877426147461,1.0342950820922852,-19.881450653076172,-43.16691970825195,63.151607513427734,171.06890869140625,-37.05000305175781,-27.750001907348633,15.750000953674316
5.81,77.03583526611328,3.141192674636841,-21.528661727905273,-59.02143859863281,60.35375213623047,143.62327575683594,-37.05000305175781,-27.750001907348633,15.750000953674316
5.83,81.67100524902344,5.669469833374023,-20.264522552490234,-61.552833557128906,63.684532165527344,146.42112731933594,-36.45000076293945,-30.600000381469727,15.600000381469727
5.833,84.39082336425781,8.044517517089844,-18.693927764892578,-46.497703552246094,49.96171569824219,134.29708862304688,-36.75,-31.650001525878906,16.05000114440918
5.84,87.3787841796875,8.65743350982666,-20.379444122314453,-43.03369140625,47.163856506347656,126.7029037475586,-36.75,-31.650001525878906,16.05000114440918
5.85,87.53201293945312,8.65743350982666,-21.720197677612305,-34.10719680786133,41.967838287353516,105.65237426757812,-37.05000305175781,-33.150001525878906,15.750000953674316
5.86,87.9533920288086,10.457873344421387,-22.7161865234375,-0.5329249501228333,35.839202880859375,94.19448852539062,-37.05000305175781,-31.650001525878906,15.450000762939453
5.87,87.60862731933594,9.84495735168457,-22.06496238708496,13.056661605834961,23.848390579223633,89.7978515625,-37.05000305175781,-31.650001525878906,15.450000762939453
5.88,86.30618286132812,7.240066051483154,-18.04270362854004,2.797856092453003,22.249616622924805,72.47779083251953,-36.0,-34.35000228881836,15.750000953674316
5.893,83.43314361572266,3.6391866207122803,-15.935806274414062,-7.72741174697876,17.986217498779297,65.41653442382812,-36.150001525878906,-33.0,16.650001525878906
5.9,79.37257385253906,-1.2258312702178955,-15.361198425292969,-22.649311065673828,13.722817420959473,65.41653442382812,-36.150001525878906,-33.0,16.650001525878906
5.91,77.87859344482422,-0.5363011956214905,-15.093047142028809,-47.0306282043457,20.784072875976562,52.493106842041016,-35.25,-33.900001525878906,15.450000762939453
5.92,73.47325897216797,0.3447650372982025,-13.982137680053711,-65.41653442382812,33.97396469116211,33.17457962036133,-35.25,-33.900001525878906,15.450000762939453
5.93,72.55388641357422,1.1875240802764893,-20.034679412841797,-70.74578857421875,40.23583221435547,28.644716262817383,-34.5,-31.950000762939453,16.80000114440918
5.949,70.94498443603516,3.7924153804779053,-20.64759635925293,-60.62021255493164,30.110260009765625,29.044410705566406,-35.70000076293945,-33.45000076293945,15.15000057220459
5.954,70.79175567626953,7.354987621307373,-18.195932388305664,-48.8958625793457,34.50688934326172,29.044410705566406,-36.75,-34.35000228881836,16.80000114440918
5.96,68.761474609375,9.998186111450195,-18.310853958129883,-46.09800720214844,38.37059783935547,23.581928253173828,-36.75,-34.35000228881836,16.80000114440918
5.97,69.45100402832031,12.334927558898926,-18.962078094482422,-21.45022964477539,37.03828430175781,31.44257164001465,-36.75,-34.35000228881836,16.80000114440918
5.98,69.14454650878906,14.288596153259277,-19.268535614013672,6.661561965942383,36.372127532958984,35.57273864746094,-36.75,-34.35000228881836,16.80000114440918
5.99,66.76950073242188,17.31486701965332,-19.153614044189453,26.113323211669922,44.23276901245117,36.10566711425781,-36.150001525878906,-34.95000076293945,15.600000381469727
6.01,67.65056610107422,18.77054214477539,-17.62132453918457,73.9433364868164,31.176109313964844,38.77029037475586,-34.95000076293945,-34.20000076293945,17.400001525878906
6.013,68.91470336914062,18.847156524658203,-18.88546371459961,115.11178588867188,22.249616622924805,46.497703552246094,-35.55000305175781,-34.35000228881836,17.25
6.02,71.59620666503906,14.173673629760742,-17.774553298950195,120.84072875976562,22.51607894897461,40.102603912353516,-35.55000305175781,-34.35000228881836,17.25
6.03,72.17081451416016,13.062764167785645,-15.974113464355469,125.37059783935547,25.313934326171875,37.4379768371582,-34.650001525878906,-34.95000076293945,17.400001525878906
6.04,70.71514129638672,6.435614109039307,-13.407529830932617,128.43490600585938,18.2526798248291,40.635528564453125,-35.70000076293945,-35.70000076293945,19.200000762939453
6.05,70.6002197265625,4.213795185089111,-12.60307788848877,123.77182006835938,15.055130004882812,38.23736572265625,-35.25,-35.55000305175781,19.80000114440918
6.069,70.17884063720703,3.1028854846954346,-13.675680160522461,112.98008728027344,24.51454734802246,25.04747200012207,-35.55000305175781,-35.55000305175781,18.0
6.073,70.67683410644531,2.3367409706115723,-17.085023880004883,103.25421142578125,17.586523056030273,35.705970764160156,-35.55000305175781,-35.55000305175781,18.0
6.08,69.56592559814453,5.018246650695801,-19.038692474365234,102.72128295898438,21.050535202026367,32.108726501464844,-34.05000305175781,-36.30000305175781,20.100000381469727
6.09,71.94097137451172,6.627150535583496,-19.651607513427734,95.79325866699219,31.44257164001465,23.448698043823242,-34.05000305175781,-35.85000228881836,19.5
6.1,71.44297790527344,7.393294811248779,-20.341136932373047,105.11944580078125,19.98468589782715,32.90811538696289,-33.0,-36.30000305175781,21.30000114440918
6.11,71.71112823486328,8.465897560119629,-21.87342643737793,107.51760864257812,17.186830520629883,27.578866958618164,-34.20000076293945,-35.25,20.400001525878906
6.13,73.39664459228516,6.01423454284668,-21.796812057495117,111.781005859375,23.98162269592285,26.379785537719727,-34.05000305175781,-35.85000228881836,22.80000114440918
6.134,74.2777099609375,3.907337188720703,-19.038692474365234,102.8545150756836,23.581928253173828,16.25421142578125,-34.05000305175781,-35.85000228881836,22.80000114440918
6.14,74.3160171508789,1.8387469053268433,-17.583017349243164,89.7978515625,20.650842666625977,25.7136287689209,-34.5,-36.60000228881836,20.55000114440918
6.15,74.89063262939453,2.873042106628418,-17.1999454498291,81.8039779663086,29.177640914916992,20.517610549926758,-34.05000305175781,-35.10000228881836,22.05000114440918
6.16,75.46524047851562,5.286397457122803,-16.012420654296875,78.20673370361328,32.77488327026367,9.192955017089844,-34.650001525878906,-35.70000076293945,21.75
6.17,77.22737121582031,6.588842868804932,-14.633360862731934,87.13323211669922,20.38437843322754,1.1990811824798584,-33.900001525878906,-34.20000076293945,22.950000762939453
6.189,78.56812286376953,10.189722061157227,-19.766529083251953,98.32465362548828,15.45482349395752,14.255742073059082,-33.900001525878906,-34.20000076293945,22.950000762939453
6.193,78.29997253417969,12.756306648254395,-21.87342643737793,113.77947998046875,9.192955017089844,10.525267601013184,-34.05000305175781,-34.80000305175781,23.55000114440918
6.2,81.01978302001953,16.89348793029785,-22.869415283203125,115.91117858886719,5.062787055969238,3.3307809829711914,-33.45000076293945,-35.25,22.5
6.21,82.16899871826172,16.740259170532227,-24.478317260742188,144.1562042236328,-2.6646246910095215,15.721285820007324,-35.400001525878906,-34.5,24.0
6.22,82.74361419677734,15.552734375,-23.482330322265625,153.882080078125,-3.9969370365142822,7.194486618041992,-33.900001525878906,-34.5,25.500001907348633
6.23,82.97345733642578,14.058752059936523,-20.877439498901367,148.8192901611328,1.4655436277389526,1.4655436277389526,-33.900001525878906,-34.5,25.500001907348633
6.25,83.85452270507812,10.074800491333008,-18.54069709777832,149.61868286132812,3.597243309020996,10.392036437988281,-33.900001525878906,-35.25,24.0
6.253,85.04204559326172,9.53849983215332,-17.50640296936035,149.88514709472656,6.395099639892578,11.324655532836914,-34.05000305175781,-33.60000228881836,24.900001525878906
6.26,85.38681030273438,11.109095573425293,-19.728221893310547,147.4869842529297,10.92496109008789,19.31852912902832,-34.20000076293945,-34.20000076293945,24.0
6.27,84.62066650390625,11.760318756103516,-19.038692474365234,155.48085021972656,12.523736000061035,11.857580184936523,-34.20000076293945,-33.45000076293945,24.450000762939453
6.28,84.65897369384766,14.020444869995117,-19.115306854248047,170.53598022460938,-0.2664624750614166,21.716691970825195,-34.5,-31.950000762939453,25.650001525878906
6.29,86.49771881103516,14.211980819702148,-17.92778205871582,187.98927307128906,-4.663093090057373,19.185298919677734,-34.5,-31.950000762939453,25.650001525878906
6.31,86.65094757080078,12.258312225341797,-16.1656494140625,192.51913452148438,-14.388973236083984,4.130168437957764,-36.150001525878906,-33.0,25.500001907348633
6.314,86.45941162109375,11.070788383483887,-15.782577514648438,198.38131713867188,-16.78713607788086,5.462480545043945,-35.55000305175781,-33.150001525878906,27.450000762939453
6.32,86.42110443115234,10.994174003601074,-11.91354751586914,201.71209716796875,-23.448698043823242,-0.9326186776161194,-34.5,-33.60000228881836,27.450000762939453
6.33,87.30216979980469,11.377246856689453,-10.72602367401123,193.85145568847656,-9.326186180114746,-1.8652373552322388,-35.55000305175781,-32.400001525878906,28.650001525878906
6.34,94.00593566894531,13.905523300170898,-12.60307788848877,211.5712127685547,-12.390504837036133,-3.4640121459960938,-35.55000305175781,-32.400001525878906,28.650001525878906
6.35,99.67540740966797,18.387468338012695,-13.637372970581055,237.95098876953125,-27.17917251586914,5.062787055969238,-34.05000305175781,-31.950000762939453,26.100000381469727
6.369,104.1956558227539,18.157625198364258,-16.58702850341797,255.40428161621094,-42.500762939453125,1.4655436277389526,-35.400001525878906,-30.600000381469727,26.250001907348633
6.373,105.45979309082031,16.931795120239258,-17.00840950012207,269.9264831542969,-50.4946403503418,-7.06125545501709,-35.70000076293945,-31.05000114440918,28.500001907348633
6.38,100.32662963867188,10.189722061157227,-13.828908920288086,268.9938659667969,-51.160797119140625,-24.11485481262207,-35.55000305175781,-30.150001525878906,29.700000762939453
6.39,95.49991607666016,10.687716484069824,-10.5344877243042,255.1378173828125,-58.08882141113281,-35.439510345458984,-35.55000305175781,-30.150001525878906,29.700000762939453
6.4,88.71953582763672,10.955866813659668,-8.312667846679688,249.27565002441406,-50.76110076904297,-40.23583221435547,-36.0,-28.950000762939453,28.200000762939453
6.41,83.08837890625,6.627150535583496,-5.5545477867126465,245.4119415283203,-48.8958625793457,-92.19601440429688,-35.400001525878906,-27.600000381469727,30.30000114440918
6.43,80.59840393066406,6.703764915466309,-7.814674377441406,244.74578857421875,-48.62940216064453,-85.66768646240234,-34.80000305175781,-26.55000114440918,29.700000762939453
6.433,80.71332550048828,16.05072784423828,-6.550535678863525,250.74119567871094,-51.560489654541016,-97.5252685546875,-35.400001525878906,-26.100000381469727,30.30000114440918
6.44,78.91288757324219,14.403517723083496,-3.485957622528076,267.9280090332031,-53.159263610839844,-98.4578857421875,-36.0,-26.250001907348633,29.700000762939453
6.45,78.91288757324219,10.764330863952637,-3.5242648124694824,276.98773193359375,-68.08116149902344,-108.84992218017578,-36.0,-26.250001907348633,29.700000762939453
6.46,80.48348236083984,6.971915245056152,-0.3447650372982025,265.79632568359375,-65.016845703125,-129.36753845214844,-36.30000305175781,-23.55000114440918,28.950000762939453
6.47,83.89282989501953,5.51624059677124,5.861005783081055,225.2940216064453,-65.016845703125,-138.56048583984375,-36.150001525878906,-22.5,29.55000114440918
6.489,85.88480377197266,6.358999729156494,7.010222434997559,212.23736572265625,-65.949462890625,-149.21897888183594,-36.30000305175781,-20.400001525878906,30.900001525878906
6.493,88.52799987792969,12.986149787902832,9.040505409240723,211.0382843017578,-63.151607513427734,-160.01071166992188,-37.05000305175781,-20.400001525878906,31.200000762939453
6.5,87.03401947021484,21.183897018432617,13.292608261108398,226.89279174804688,-61.28636932373047,-163.6079559326172,-37.05000305175781,-20.400001525878906,31.200000762939453
6.51,86.61264038085938,19.460071563720703,15.744270324707031,266.3292541503906,-73.14395141601562,-189.45481872558594,-36.900001525878906,-18.75,30.30000114440918
6.52,88.41307830810547,24.823083877563477,14.97812557220459,300.30322265625,-87.9326171875,-188.65542602539062,-36.45000076293945,-17.55000114440918,28.500001907348633
6.53,87.03401947021484,32.9442138671875,12.641385078430176,339.8728942871094,-91.79632568359375,-182.92648315429688,-35.70000076293945,-15.600000381469727,29.250001907348633
6.55,82.74361419677734,33.40390396118164,13.599065780639648,383.3062744140625,-85.00152587890625,-194.91729736328125,-36.30000305175781,-15.000000953674316,28.200000762939453
6.554,80.36856079101562,31.41192626953125,17.353174209594727,418.8789978027344,-80.07197570800781,-203.97702026367188,-36.30000305175781,-15.000000953674316,28.200000762939453
6.56,87.4170913696289,27.542896270751953,25.129541397094727,438.1975402832031,-82.6033706665039,-199.31393432617188,-37.5,-11.100000381469727,28.200000762939453
6.57,92.51195526123047,24.554933547973633,31.067161560058594,452.3200378417969,-95.26033782958984,-227.5589599609375,-36.45000076293945,-9.450000762939453,26.55000114440918
6.58,97.91326904296875,22.141576766967773,37.42616271972656,451.5206604003906,-89.39816284179688,-233.1546630859375,-36.150001525878906,-8.25,26.250001907348633
6.59,98.02819061279297,23.13756561279297,37.617698669433594,452.18682861328125,-108.45022583007812,-230.4900360107422,-37.5,-5.700000286102295,26.400001525878906
6.611,95.38499450683594,21.222204208374023,33.557132720947266,439.52984619140625,-98.99080657958984,-233.0214385986328,-35.70000076293945,-5.550000190734863,26.250001907348633
6.614,89.33245086669922,20.570980072021484,28.270732879638672,404.09033203125,-87.53292083740234,-255.1378173828125,-34.650001525878906,-2.1000001430511475,25.500001907348633
6.62,79.52580261230469,17.1999454498291,25.09123420715332,383.8392028808594,-84.86830139160156,-253.93873596191406,-34.650001525878906,-2.1000001430511475,25.500001907348633
6.63,77.57213592529297,17.62132453918457,22.17988395690918,353.0627746582031,-79.13935852050781,-259.8009033203125,-33.900001525878906,0.45000001788139343,23.700000762939453
6.64,77.03583526611328,19.651607513427734,20.609289169311523,320.95404052734375,-55.95711898803711,-271.9249572753906,-35.25,0.75,23.850000381469727
6.65,80.52178955078125,23.597251892089844,25.321077346801758,304.5666198730469,-51.29402542114258,-271.1255798339844,-34.95000076293945,2.1000001430511475,21.75
6.67,84.8888168334961,27.849353790283203,27.083209991455078,305.6324462890625,-47.0306282043457,-269.9264831542969,-34.95000076293945,2.1000001430511475,21.75
6.673,85.61665344238281,30.37763023376465,26.163835525512695,322.5528259277344,-47.163856506347656,-283.5160827636719,-32.55000305175781,6.450000286102295,22.05000114440918
6.68,80.90486145019531,32.790985107421875,23.13756561279297,333.34454345703125,-42.633995056152344,-281.6508483886719,-32.55000305175781,6.450000286102295,22.05000114440918
6.69,78.56812286376953,32.21637725830078,19.728221893310547,357.7258605957031,-47.163856506347656,-283.915771484375,-33.150001525878906,6.750000476837158,20.400001525878906
6.7,76.72937774658203,32.599449157714844,15.897499084472656,370.1163635253906,-42.23430252075195,-286.713623046875,-30.450000762939453,9.450000762939453,18.900001525878906
6.71,76.537841796875,32.063148498535156,13.254301071166992,380.9081115722656,-42.500762939453125,-287.3797912597656,-30.450000762939453,9.450000762939453,18.900001525878906
6.73,77.45721435546875,29.34333610534668,13.982137680053711,361.9892578125,-48.76263427734375,-277.7871398925781,-30.450000762939453,9.450000762939453,18.900001525878906
6.733,79.21934509277344,26.393678665161133,12.986149787902832,334.54364013671875,-48.362937927246094,-256.4701232910156,-28.80000114440918,13.800000190734863,16.5
6.74,81.59439086914062,22.409727096557617,10.764330863952637,320.8208312988281,-61.15313720703125,-252.60643005371094,-28.80000114440918,13.800000190734863,16.5
6.75,83.50975799560547,19.536685943603516,8.65743350982666,280.8514404296875,-53.026031494140625,-250.20826721191406,-28.950000762939453,12.90000057220459,15.15000057220459
6.76,86.03803253173828,19.038692474365234,6.473921298980713,243.14700317382812,-54.35834503173828,-244.612548828125,-27.900001525878906,14.850000381469727,13.350000381469727
6.77,87.57032012939453,18.4257755279541,6.01423454284668,219.43185424804688,-63.684532165527344,-234.4869842529297,-27.900001525878906,14.850000381469727,13.350000381469727
6.789,87.18724822998047,18.732234954833984,5.975927352905273,183.85910034179688,-50.36140823364258,-222.22970581054688,-27.150001525878906,17.100000381469727,10.800000190734863
6.793,86.38279724121094,19.766529083251953,4.8267107009887695,167.0719757080078,-59.15467071533203,-211.1715087890625,-24.900001525878906,18.30000114440918,11.550000190734863
6.8,84.3525161743164,20.11129379272461,4.060565948486328,145.88819885253906,-55.02450180053711,-204.37672424316406,-24.750001907348633,16.950000762939453,10.950000762939453
6.81,83.6629867553711,19.460071563720703,1.9153614044189453,138.56048583984375,-54.22511291503906,-206.37518310546875,-24.750001907348633,16.950000762939453,10.950000762939453
6.82,83.39483642578125,20.800825119018555,2.2601263523101807,127.36906433105469,-45.96477508544922,-200.77947998046875,-24.750001907348633,16.950000762939453,10.950000762939453
6.83,84.42913055419922,23.597251892089844,1.1492167711257935,142.4241943359375,-44.09954071044922,-200.91270446777344,-23.400001525878906,20.25,9.75
6.85,85.5783462524414,27.849353790283203,-0.15322890877723694,171.06890869140625,-50.36140823364258,-188.1225128173828,-22.05000114440918,20.850000381469727,8.700000762939453
6.854,88.48969268798828,27.811046600341797,0.3447650372982025,187.58958435058594,-50.36140823364258,-173.2006072998047,-22.650001525878906,20.25,8.25
6.86,89.10260772705078,27.542896270751953,0.3064578175544739,191.71975708007812,-48.09647750854492,-176.39816284179688,-20.55000114440918,18.150001525878906,6.900000095367432
6.87,88.41307830810547,25.052927017211914,-1.455674648284912,202.511474609375,-53.42572784423828,-157.612548828125,-20.55000114440918,18.150001525878906,6.900000095367432
6.88,87.3787841796875,23.290794372558594,-2.298433542251587,191.0535888671875,-57.55589294433594,-156.5467071533203,-18.900001525878906,21.450000762939453,7.500000476837158
6.89,86.49771881103516,17.966089248657227,-0.9193734526634216,166.93873596191406,-50.62786865234375,-156.01377868652344,-21.0,19.650001525878906,5.850000381469727
6.91,83.50975799560547,15.131354331970215,-1.0342950820922852,153.21592712402344,-44.76569747924805,-142.5574188232422,-19.200000762939453,19.80000114440918,6.300000190734863
6.913,79.87056732177734,12.181697845458984,-1.9153614044189453,118.70903015136719,-26.113323211669922,-153.0826873779297,-18.450000762939453,21.75,4.5
6.92,77.68705749511719,9.53849983215332,-4.788403511047363,102.05513000488281,-20.517610549926758,-154.9479217529297,-19.650001525878906,21.75,3.750000238418579
6.93,76.03984832763672,7.891288757324219,-4.32871675491333,81.13782501220703,-4.663093090057373,-154.9479217529297,-19.650001525878906,21.75,3.750000238418579
6.94,74.35432434082031,7.8529815673828125,-5.439626216888428,60.22052001953125,8.260336875915527,-160.2771759033203,-18.75,21.900001525878906,2.8500001430511475
6.95,74.35432434082031,8.006210327148438,-5.975927352905273,55.29096221923828,7.06125545501709,-145.48851013183594,-17.700000762939453,22.200000762939453,3.750000238418579
6.97,75.54185485839844,11.338939666748047,-4.6734819412231445,43.03369140625,25.580398559570312,-153.34915161132812,-16.80000114440918,22.350000381469727,3.9000000953674316
6.974,75.69508361816406,18.655620574951172,-5.975927352905273,58.754974365234375,29.444103240966797,-146.1546630859375,-16.80000114440918,23.100000381469727,1.8000000715255737
6.98,75.12047576904297,25.627534866333008,-8.159439086914062,77.4073486328125,13.056661605834961,-138.96017456054688,-16.80000114440918,23.100000381469727,1.8000000715255737
6.99,74.7374038696289,27.427974700927734,-11.338939666748047,109.64930725097656,26.64624786376953,-127.5022964477539,-16.650001525878906,24.150001525878906,4.5
7.0,71.2514419555664,27.313053131103516,-14.595053672790527,132.83154296875,22.116384506225586,-109.51607513427734,-16.05000114440918,22.80000114440918,4.650000095367432
7.01,68.1868667602539,21.911733627319336,-12.986149787902832,131.89892578125,27.71209716796875,-89.26493072509766,-17.25,21.900001525878906,2.5500001907348633
7.03,66.04165649414062,16.089035034179688,-12.679692268371582,125.10413360595703,51.693721771240234,-87.66615295410156,-15.750000953674316,24.30000114440918,2.1000001430511475
7.033,63.97306823730469,12.02846908569336,-15.897499084472656,121.64012145996094,62.8851432800293,-70.3460922241211,-15.750000953674316,23.55000114440918,3.3000001907348633
7.04,68.41670989990234,13.599065780639648,-15.437812805175781,113.51301574707031,74.60948944091797,-46.09800720214844,-15.750000953674316,23.55000114440918,3.3000001907348633
7.05,73.39664459228516,15.935806274414062,-14.556746482849121,97.5252685546875,87.13323211669922,-24.914241790771484,-15.450000762939453,22.200000762939453,2.25
7.06,77.53382873535156,16.35718536376953,-13.254301071166992,96.8591079711914,103.38744354248047,-16.25421142578125,-16.200000762939453,23.700000762939453,1.6500000953674316
