time,accel_x,accel_y,accel_z,gyro_x,gyro_y,gyro_z,mag_x,mag_y,mag_z
0.0,77.41890716552734,-13.982137680053711,-8.65743350982666,-1.1990811824798584,-3.3307809829711914,2.9310872554779053,-31.80000114440918,-30.900001525878906,4.650000095367432
0.01,78.56812286376953,-13.905523300170898,-8.619126319885254,-5.196018218994141,-0.1332312375307083,-5.329249382019043,-31.80000114440918,-30.900001525878906,4.650000095367432
0.02,77.84028625488281,-12.947842597961426,-8.580819129943848,-7.9938740730285645,5.196018218994141,-4.396630764007568,-31.05000114440918,-30.900001525878906,3.6000001430511475
0.03,78.07012939453125,-12.48815631866455,-8.695740699768066,0.1332312375307083,-0.9326186776161194,2.531393527984619,-30.30000114440918,-29.700000762939453,3.6000001430511475
0.04,77.99351501464844,-13.48414421081543,-7.5848307609558105,-3.4640121459960938,0.1332312375307083,4.396630764007568,-31.650001525878906,-31.80000114440918,3.750000238418579
0.058,75.9632339477539,-12.679692268371582,-8.542511940002441,-7.194486618041992,7.06125545501709,0.2664624750614166,-30.150001525878906,-31.80000114440918,4.5
0.061,77.26567840576172,-11.683704376220703,-7.7763671875,-7.460949420928955,4.796324729919434,1.4655436277389526,-30.150001525878906,-31.80000114440918,4.5
0.07,76.84429931640625,-12.526463508605957,-8.236053466796875,0.2664624750614166,-4.663093090057373,5.329249382019043,-32.400001525878906,-29.850000381469727,3.750000238418579
0.08,77.61044311523438,-12.641385078430176,-8.006210327148438,-1.9984685182571411,3.86370587348938,-9.992342948913574,-31.500001907348633,-30.450000762939453,6.150000095367432
0.09,77.49552154541016,-13.330915451049805,-7.163451671600342,-2.398162364959717,11.591117858886719,-5.329249382019043,-30.900001525878906,-31.500001907348633,2.700000047683716
0.108,78.3382797241211,-14.058752059936523,-7.661445617675781,-0.1332312375307083,0.2664624750614166,-11.591117858886719,-31.05000114440918,-31.650001525878906,2.8500001430511475
0.112,78.18505096435547,-13.675680160522461,-7.7763671875,-3.86370587348938,-0.7993874549865723,-6.395099639892578,-31.05000114440918,-31.650001525878906,2.8500001430511475
0.12,77.1890640258789,-14.09705924987793,-8.504204750061035,-6.9280242919921875,1.4655436277389526,-5.196018218994141,-31.05000114440918,-31.650001525878906,2.8500001430511475
0.13,77.53382873535156,-13.713987350463867,-7.201758861541748,-7.06125545501709,4.796324729919434,-3.4640121459960938,-32.25,-30.900001525878906,3.3000001907348633
0.14,78.14674377441406,-12.756306648254395,-7.316680431365967,1.0658499002456665,-1.5987749099731445,8.660030364990234,-31.200000762939453,-31.500001907348633,3.0
0.15,76.30799865722656,-14.09705924987793,-8.734047889709473,-4.396630764007568,-0.39969372749328613,-4.130168437957764,-31.500001907348633,-30.900001525878906,3.9000000953674316
0.16,76.15476989746094,-14.135366439819336,-7.546523571014404,-2.9310872554779053,4.529861927032471,-15.854516983032227,-30.750001907348633,-31.650001525878906,3.6000001430511475
0.175,77.34229278564453,-13.943830490112305,-7.5848307609558105,-8.39356803894043,8.39356803894043,-12.390504837036133,-30.900001525878906,-31.05000114440918,3.0
0.18,76.537841796875,-14.058752059936523,-7.469909191131592,-0.5329249501228333,-3.0643184185028076,1.4655436277389526,-30.900001525878906,-31.05000114440918,3.0
0.19,77.22737121582031,-13.48414421081543,-7.393294811248779,-0.1332312375307083,-5.8621745109558105,-1.5987749099731445,-29.55000114440918,-31.200000762939453,2.8500001430511475
0.2,78.22335815429688,-13.177685737609863,-7.661445617675781,-0.2664624750614166,-3.597243309020996,6.395099639892578,-30.30000114440918,-31.650001525878906,3.9000000953674316
0.21,77.68705749511719,-13.522451400756836,-8.925583839416504,0.39969372749328613,2.531393527984619,-4.663093090057373,-30.450000762939453,-31.500001907348633,4.5
0.228,78.3382797241211,-12.947842597961426,-8.580819129943848,-7.06125545501709,2.531393527984619,-3.86370587348938,-30.450000762939453,-31.500001907348633,4.5
0.232,76.84429931640625,-12.105083465576172,-7.5848307609558105,-9.192955017089844,5.8621745109558105,-2.6646246910095215,-32.25,-31.200000762939453,3.6000001430511475
0.24,77.1124496459961,-12.066776275634766,-8.619126319885254,-5.8621745109558105,-0.39969372749328613,-7.9938740730285645,-32.25,-31.200000762939453,3.6000001430511475
0.25,78.52981567382812,-12.60307788848877,-8.580819129943848,-1.5987749099731445,1.4655436277389526,1.0658499002456665,-31.500001907348633,-31.950000762939453,3.9000000953674316
0.26,77.8019790649414,-12.526463508605957,-7.929595947265625,-4.396630764007568,1.3323123455047607,-5.196018218994141,-31.05000114440918,-30.450000762939453,4.350000381469727
0.27,77.1507568359375,-12.679692268371582,-8.925583839416504,0.2664624750614166,-1.9984685182571411,2.6646246910095215,-31.200000762939453,-29.55000114440918,3.0
0.288,78.3382797241211,-12.48815631866455,-6.933608055114746,3.597243309020996,-5.595712184906006,5.728943347930908,-31.200000762939453,-29.55000114440918,3.0
0.292,77.87859344482422,-12.986149787902832,-8.389283180236816,2.398162364959717,0.6661561727523804,-1.9984685182571411,-31.80000114440918,-31.950000762939453,3.6000001430511475
0.3,77.41890716552734,-13.675680160522461,-8.580819129943848,-5.595712184906006,4.796324729919434,-11.324655532836914,-31.80000114440918,-30.450000762939453,2.1000001430511475
0.31,77.87859344482422,-13.713987350463867,-7.5848307609558105,3.597243309020996,0.7993874549865723,1.8652373552322388,-31.200000762939453,-31.05000114440918,2.700000047683716
0.32,78.14674377441406,-13.752294540405273,-8.96389102935791,-4.796324729919434,-5.062787055969238,2.398162364959717,-31.200000762939453,-31.05000114440918,2.700000047683716
0.33,77.34229278564453,-13.79060173034668,-8.274360656738281,-8.926492691040039,4.663093090057373,-8.260336875915527,-30.750001907348633,-31.200000762939453,2.700000047683716
0.349,77.53382873535156,-13.21599292755127,-7.316680431365967,-2.6646246910095215,-5.462480545043945,-8.127105712890625,-30.750001907348633,-30.450000762939453,4.650000095367432
0.353,77.7253646850586,-12.02846908569336,-7.010222434997559,-0.9326186776161194,-3.197549819946289,7.594180583953857,-32.25,-31.950000762939453,3.9000000953674316
0.36,76.80599212646484,-12.679692268371582,-7.8529815673828125,-8.660030364990234,9.459418296813965,-7.06125545501709,-31.05000114440918,-31.200000762939453,3.6000001430511475
0.37,76.34630584716797,-13.062764167785645,-7.6997528076171875,-4.396630764007568,8.793261528015137,-1.4655436277389526,-31.05000114440918,-31.200000762939453,3.6000001430511475
0.38,77.53382873535156,-12.7946138381958,-7.623138427734375,3.86370587348938,-3.86370587348938,-1.3323123455047607,-30.450000762939453,-31.80000114440918,4.5
0.39,78.22335815429688,-13.10107135772705,-7.393294811248779,5.995405673980713,-7.594180583953857,-1.1990811824798584,-31.05000114440918,-31.950000762939453,3.6000001430511475
0.409,78.52981567382812,-12.756306648254395,-8.236053466796875,-1.9984685182571411,5.462480545043945,-15.321592330932617,-31.05000114440918,-30.900001525878906,3.6000001430511475
0.413,78.52981567382812,-14.595053672790527,-7.7763671875,-10.392036437988281,2.2649309635162354,5.462480545043945,-30.30000114440918,-32.85000228881836,3.6000001430511475
0.42,78.87458038330078,-13.79060173034668,-7.814674377441406,3.9969370365142822,-4.796324729919434,0.5329249501228333,-33.150001525878906,-30.600000381469727,3.750000238418579
0.43,78.10843658447266,-13.10107135772705,-8.006210327148438,-5.062787055969238,1.3323123455047607,-5.062787055969238,-33.150001525878906,-30.600000381469727,3.750000238418579
0.44,77.99351501464844,-13.867216110229492,-8.274360656738281,-5.8621745109558105,-0.9326186776161194,-5.995405673980713,-30.000001907348633,-31.650001525878906,2.5500001907348633
0.45,78.29997253417969,-12.832921028137207,-8.159439086914062,-0.39969372749328613,-1.0658499002456665,-0.39969372749328613,-30.750001907348633,-30.900001525878906,3.9000000953674316
0.469,77.1124496459961,-12.7946138381958,-9.040505409240723,-11.857580184936523,9.326186180114746,-3.9969370365142822,-30.000001907348633,-31.200000762939453,4.350000381469727
0.473,78.18505096435547,-12.526463508605957,-7.661445617675781,-7.460949420928955,3.197549819946289,0.2664624750614166,-30.150001525878906,-29.850000381469727,3.0
0.48,76.92091369628906,-12.181697845458984,-8.044517517089844,-0.6661561727523804,-3.597243309020996,-1.0658499002456665,-30.150001525878906,-29.850000381469727,3.0
0.49,77.8019790649414,-12.258312225341797,-7.086836814880371,3.0643184185028076,-3.4640121459960938,3.197549819946289,-31.200000762939453,-31.500001907348633,3.750000238418579
0.5,76.15476989746094,-12.7946138381958,-7.8529815673828125,-5.995405673980713,7.06125545501709,-0.5329249501228333,-30.30000114440918,-31.200000762939453,2.5500001907348633
0.51,77.91690063476562,-12.717999458312988,-7.7763671875,-3.0643184185028076,6.9280242919921875,-9.72588062286377,-30.30000114440918,-29.250001907348633,2.5500001907348633
0.529,77.49552154541016,-13.407529830932617,-7.929595947265625,1.0658499002456665,-2.131699800491333,1.3323123455047607,-30.150001525878906,-30.30000114440918,3.450000047683716
0.533,77.49552154541016,-13.330915451049805,-7.240066051483154,-3.0643184185028076,-3.7304747104644775,1.3323123455047607,-30.150001525878906,-30.30000114440918,3.450000047683716
0.54,77.45721435546875,-14.09705924987793,-7.354987621307373,-7.860642910003662,6.395099639892578,-1.3323123455047607,-32.25,-30.900001525878906,3.3000001907348633
0.55,76.84429931640625,-14.326903343200684,-7.738059997558594,-2.6646246910095215,-6.261868000030518,-2.6646246910095215,-30.30000114440918,-31.200000762939453,3.3000001907348633
0.56,78.83627319335938,-13.982137680053711,-7.010222434997559,-4.263399600982666,-2.531393527984619,8.39356803894043,-30.900001525878906,-31.05000114440918,1.6500000953674316
0.57,78.3765869140625,-13.867216110229492,-7.738059997558594,-11.591117858886719,4.130168437957764,-1.4655436277389526,-30.30000114440918,-31.650001525878906,3.3000001907348633
0.589,78.14674377441406,-12.641385078430176,-8.044517517089844,-10.125574111938477,4.796324729919434,-2.797856092453003,-31.500001907348633,-31.200000762939453,3.6000001430511475
0.593,78.18505096435547,-12.756306648254395,-8.734047889709473,-1.4655436277389526,-0.2664624750614166,2.9310872554779053,-31.500001907348633,-31.200000762939453,3.6000001430511475
0.6,77.8019790649414,-11.798625946044922,-8.65743350982666,-5.062787055969238,-1.1990811824798584,4.929555892944336,-31.650001525878906,-31.05000114440918,3.0
0.61,77.45721435546875,-12.526463508605957,-8.427590370178223,-3.3307809829711914,10.92496109008789,-7.327718257904053,-31.650001525878906,-31.500001907348633,2.700000047683716
0.62,77.22737121582031,-13.10107135772705,-8.887276649475098,5.995405673980713,-1.9984685182571411,1.7320060729980469,-31.650001525878906,-31.05000114440918,3.450000047683716
0.63,77.38059997558594,-13.024456977844238,-8.159439086914062,1.4655436277389526,-1.3323123455047607,1.9984685182571411,-30.150001525878906,-31.500001907348633,3.0
0.649,77.22737121582031,-13.828908920288086,-8.504204750061035,4.529861927032471,7.9938740730285645,-3.86370587348938,-30.150001525878906,-31.500001907348633,3.0
0.653,77.49552154541016,-12.756306648254395,-8.159439086914062,0.2664624750614166,7.06125545501709,-9.192955017089844,-31.05000114440918,-31.650001525878906,2.5500001907348633
0.66,77.87859344482422,-13.254301071166992,-7.393294811248779,3.197549819946289,-5.728943347930908,3.0643184185028076,-31.05000114440918,-30.900001525878906,3.9000000953674316
0.67,77.53382873535156,-13.675680160522461,-7.967903137207031,-9.059723854064941,5.728943347930908,-9.592649459838867,-30.750001907348633,-31.950000762939453,3.9000000953674316
0.68,77.53382873535156,-13.560758590698242,-8.65743350982666,-8.793261528015137,1.4655436277389526,-9.326186180114746,-30.450000762939453,-31.05000114440918,4.200000286102295
0.69,77.1507568359375,-13.982137680053711,-8.044517517089844,-2.131699800491333,1.0658499002456665,-7.06125545501709,-30.450000762939453,-31.05000114440918,4.200000286102295
0.709,76.92091369628906,-11.951854705810547,-7.814674377441406,-0.7993874549865723,-3.0643184185028076,10.125574111938477,-31.05000114440918,-30.450000762939453,2.8500001430511475
0.713,76.42292022705078,-13.177685737609863,-8.734047889709473,-3.7304747104644775,-0.5329249501228333,-1.8652373552322388,-30.450000762939453,-31.80000114440918,3.750000238418579
0.72,77.68705749511719,-13.254301071166992,-8.044517517089844,1.4655436277389526,2.797856092453003,-9.059723854064941,-30.450000762939453,-30.600000381469727,3.0
0.73,77.57213592529297,-12.105083465576172,-7.393294811248779,-0.7993874549865723,-2.797856092453003,0.39969372749328613,-31.80000114440918,-30.450000762939453,3.3000001907348633
0.74,78.07012939453125,-12.334927558898926,-8.35097599029541,-1.9984685182571411,4.663093090057373,-9.059723854064941,-31.650001525878906,-31.05000114440918,3.450000047683716
0.75,77.45721435546875,-13.062764167785645,-7.5848307609558105,-1.5987749099731445,0.5329249501228333,-1.8652373552322388,-31.650001525878906,-31.05000114440918,3.450000047683716
0.769,78.26166534423828,-12.60307788848877,-7.393294811248779,1.3323123455047607,-0.7993874549865723,-0.1332312375307083,-32.400001525878906,-31.05000114440918,3.450000047683716
0.772,77.7253646850586,-12.7946138381958,-8.006210327148438,-5.595712184906006,6.794793128967285,-4.796324729919434,-30.450000762939453,-30.600000381469727,2.25
0.78,78.79796600341797,-12.679692268371582,-7.891288757324219,-8.793261528015137,1.7320060729980469,-4.796324729919434,-31.05000114440918,-30.450000762939453,2.8500001430511475
0.79,79.14273071289062,-11.91354751586914,-9.346963882446289,-1.3323123455047607,-5.329249382019043,-2.9310872554779053,-30.150001525878906,-31.80000114440918,4.200000286102295
1.046,77.53382873535156,-13.177685737609863,-7.5848307609558105,-3.86370587348938,3.0643184185028076,0.1332312375307083,-31.200000762939453,-30.600000381469727,2.25
1.065,77.1507568359375,-11.070788383483887,-8.236053466796875,3.7304747104644775,0.0,3.86370587348938,-29.700000762939453,-29.850000381469727,4.200000286102295
1.069,77.57213592529297,-12.334927558898926,-7.661445617675781,5.595712184906006,-1.9984685182571411,0.39969372749328613,-29.700000762939453,-29.850000381469727,4.200000286102295
1.076,77.41890716552734,-11.645397186279297,-7.048529624938965,-3.597243309020996,6.261868000030518,-8.260336875915527,-32.70000076293945,-30.30000114440918,3.750000238418579
1.086,77.53382873535156,-12.449849128723145,-7.048529624938965,-4.263399600982666,4.929555892944336,-5.8621745109558105,-30.450000762939453,-31.80000114440918,3.0
1.096,77.26567840576172,-13.024456977844238,-7.1251444816589355,3.86370587348938,-6.128636837005615,0.7993874549865723,-30.30000114440918,-30.450000762939453,4.650000095367432
1.106,78.83627319335938,-14.480132102966309,-8.772355079650879,-7.327718257904053,2.131699800491333,-7.594180583953857,-31.500001907348633,-31.200000762939453,3.9000000953674316
1.126,77.49552154541016,-14.288596153259277,-7.7763671875,-14.522205352783203,2.398162364959717,-2.2649309635162354,-31.500001907348633,-31.200000762939453,3.9000000953674316
1.129,77.763671875,-12.871228218078613,-8.35097599029541,-6.794793128967285,4.130168437957764,-6.128636837005615,-29.700000762939453,-31.05000114440918,4.950000286102295
1.136,77.49552154541016,-14.058752059936523,-7.814674377441406,-6.794793128967285,-0.7993874549865723,2.131699800491333,-30.900001525878906,-31.500001907348633,3.0
1.146,76.4995346069336,-12.60307788848877,-7.891288757324219,-8.526799201965332,6.661561965942383,-5.8621745109558105,-31.05000114440918,-30.450000762939453,5.100000381469727
1.156,76.80599212646484,-12.22000503540039,-8.35097599029541,-5.462480545043945,3.197549819946289,-12.923430442810059,-31.500001907348633,-30.450000762939453,3.6000001430511475
1.166,76.46122741699219,-12.334927558898926,-8.274360656738281,5.329249382019043,-3.597243309020996,-0.1332312375307083,-31.500001907348633,-30.450000762939453,3.6000001430511475
1.185,76.80599212646484,-12.756306648254395,-7.469909191131592,0.9326186776161194,7.594180583953857,-0.5329249501228333,-29.700000762939453,-31.500001907348633,3.750000238418579
1.189,76.92091369628906,-13.330915451049805,-8.197746276855469,-6.9280242919921875,4.263399600982666,-8.39356803894043,-31.80000114440918,-29.700000762939453,5.25
1.196,76.99752807617188,-13.139378547668457,-8.35097599029541,-1.3323123455047607,-0.2664624750614166,-3.4640121459960938,-31.80000114440918,-29.700000762939453,3.6000001430511475
1.206,77.41890716552734,-14.480132102966309,-7.354987621307373,2.9310872554779053,-1.9984685182571411,1.4655436277389526,-31.950000762939453,-31.500001907348633,3.750000238418579
1.216,76.61445617675781,-14.250288963317871,-8.044517517089844,-1.3323123455047607,7.06125545501709,1.1990811824798584,-30.150001525878906,-29.100000381469727,3.750000238418579
1.226,77.03583526611328,-13.828908920288086,-7.814674377441406,1.5987749099731445,-1.8652373552322388,8.260336875915527,-30.150001525878906,-29.100000381469727,3.750000238418579
1.246,78.79796600341797,-13.943830490112305,-8.65743350982666,-4.663093090057373,-2.531393527984619,-2.398162364959717,-30.900001525878906,-32.25,3.750000238418579
1.25,77.61044311523438,-13.330915451049805,-7.2783732414245605,2.2649309635162354,-3.0643184185028076,3.3307809829711914,-31.80000114440918,-31.650001525878906,3.6000001430511475
1.256,77.87859344482422,-13.330915451049805,-7.814674377441406,-3.3307809829711914,4.263399600982666,-0.5329249501228333,-31.80000114440918,-31.650001525878906,3.6000001430511475
1.266,77.41890716552734,-11.530475616455078,-7.6997528076171875,-0.7993874549865723,1.0658499002456665,0.9326186776161194,-30.450000762939453,-29.100000381469727,3.0
1.276,77.30398559570312,-13.21599292755127,-8.006210327148438,-8.526799201965332,7.194486618041992,-6.395099639892578,-30.450000762939453,-29.100000381469727,3.0
1.286,77.26567840576172,-13.10107135772705,-7.1251444816589355,-7.06125545501709,4.130168437957764,-8.127105712890625,-31.80000114440918,-30.150001525878906,4.350000381469727
1.305,77.57213592529297,-12.871228218078613,-8.65743350982666,-3.0643184185028076,-3.197549819946289,1.7320060729980469,-31.200000762939453,-31.80000114440918,2.25
1.308,76.99752807617188,-11.875240325927734,-6.856993675231934,-9.326186180114746,2.9310872554779053,-12.523736000061035,-32.25,-29.700000762939453,3.3000001907348633
1.316,76.99752807617188,-12.986149787902832,-8.236053466796875,1.3323123455047607,-1.8652373552322388,-3.3307809829711914,-32.25,-29.700000762939453,3.3000001907348633
1.326,77.8019790649414,-12.717999458312988,-8.887276649475098,-4.529861927032471,3.3307809829711914,-2.398162364959717,-32.25,-29.700000762939453,3.3000001907348633
1.336,78.03182220458984,-13.79060173034668,-7.929595947265625,0.0,-1.0658499002456665,-1.7320060729980469,-32.25,-29.700000762939453,3.3000001907348633
1.346,77.45721435546875,-13.48414421081543,-8.159439086914062,-8.526799201965332,7.327718257904053,-6.661561965942383,-31.650001525878906,-29.55000114440918,3.750000238418579
1.365,78.29997253417969,-12.29662036895752,-8.121131896972656,-6.5283308029174805,4.263399600982666,-3.197549819946289,-30.000001907348633,-30.450000762939453,3.6000001430511475
1.369,77.68705749511719,-12.143390655517578,-7.623138427734375,1.8652373552322388,1.7320060729980469,1.5987749099731445,-31.650001525878906,-30.30000114440918,1.2000000476837158
1.376,77.1124496459961,-12.7946138381958,-8.236053466796875,4.130168437957764,-4.663093090057373,-1.3323123455047607,-31.650001525878906,-30.30000114440918,1.2000000476837158
1.386,76.5761489868164,-13.48414421081543,-7.7763671875,-5.728943347930908,5.062787055969238,-7.194486618041992,-31.650001525878906,-30.30000114440918,1.2000000476837158
1.396,77.1890640258789,-13.943830490112305,-8.274360656738281,-4.396630764007568,7.860642910003662,-2.2649309635162354,-33.0,-31.950000762939453,3.6000001430511475
1.406,77.1124496459961,-14.058752059936523,-7.469909191131592,6.395099639892578,-0.5329249501228333,-0.9326186776161194,-30.450000762939453,-31.05000114440918,3.450000047683716
1.426,76.76768493652344,-12.832921028137207,-7.508216381072998,-3.197549819946289,3.597243309020996,-4.663093090057373,-29.700000762939453,-30.900001525878906,3.6000001430511475
1.429,78.03182220458984,-12.066776275634766,-8.389283180236816,4.396630764007568,-2.6646246910095215,0.1332312375307083,-29.700000762939453,-32.25,4.200000286102295
1.436,77.61044311523438,-14.901511192321777,-7.316680431365967,-1.1990811824798584,-1.7320060729980469,-7.194486618041992,-29.700000762939453,-32.25,4.200000286102295
1.446,77.8019790649414,-14.824896812438965,-8.580819129943848,-0.7993874549865723,-3.597243309020996,7.72741174697876,-30.450000762939453,-30.450000762939453,3.3000001907348633
1.456,77.22737121582031,-13.139378547668457,-7.661445617675781,-9.992342948913574,5.329249382019043,-3.597243309020996,-30.450000762939453,-30.30000114440918,3.0
1.466,78.03182220458984,-12.449849128723145,-7.661445617675781,-8.926492691040039,4.663093090057373,-6.395099639892578,-30.900001525878906,-30.30000114440918,3.450000047683716
1.484,76.72937774658203,-11.760318756103516,-8.35097599029541,-10.258805274963379,3.3307809829711914,-7.327718257904053,-30.900001525878906,-30.30000114440918,3.450000047683716
1.488,75.9632339477539,-12.756306648254395,-7.8529815673828125,-3.86370587348938,-1.3323123455047607,7.72741174697876,-30.900001525878906,-30.30000114440918,3.450000047683716
1.496,75.50354766845703,-11.951854705810547,-8.427590370178223,-4.529861927032471,5.196018218994141,4.263399600982666,-31.650001525878906,-29.850000381469727,2.25
1.506,77.41890716552734,-12.105083465576172,-8.159439086914062,-0.39969372749328613,3.0643184185028076,-3.7304747104644775,-30.750001907348633,-32.85000228881836,3.3000001907348633
1.516,76.19307708740234,-12.564770698547363,-8.848969459533691,-3.197549819946289,-0.1332312375307083,0.9326186776161194,-29.400001525878906,-31.05000114440918,2.700000047683716
1.526,76.99752807617188,-12.564770698547363,-8.772355079650879,-4.263399600982666,11.191424369812012,-6.9280242919921875,-31.650001525878906,-30.600000381469727,4.200000286102295
1.545,77.7253646850586,-12.756306648254395,-8.772355079650879,-16.25421142578125,1.8652373552322388,-5.728943347930908,-31.650001525878906,-30.600000381469727,4.200000286102295
1.549,79.25765228271484,-10.113107681274414,-8.810662269592285,-18.119447708129883,5.062787055969238,-8.926492691040039,-31.200000762939453,-32.25,4.200000286102295
1.556,78.4148941040039,-10.802638053894043,-9.653421401977539,-14.255742073059082,3.4640121459960938,1.0658499002456665,-32.400001525878906,-30.600000381469727,3.0
1.566,78.03182220458984,-8.197746276855469,-9.615114212036133,-18.91883659362793,8.260336875915527,-1.3323123455047607,-31.500001907348633,-31.650001525878906,3.9000000953674316
1.576,77.38059997558594,-6.89530086517334,-11.262324333190918,0.39969372749328613,0.2664624750614166,18.2526798248291,-31.950000762939453,-31.05000114440918,3.0
1.595,78.18505096435547,-5.592854976654053,-10.879252433776855,1.5987749099731445,4.130168437957764,26.64624786376953,-31.950000762939453,-31.05000114440918,3.0
1.599,79.06611633300781,-5.937620162963867,-10.84094524383545,10.92496109008789,4.796324729919434,24.51454734802246,-31.200000762939453,-30.30000114440918,3.750000238418579
1.606,78.68304443359375,-7.354987621307373,-10.687716484069824,6.794793128967285,4.796324729919434,27.445634841918945,-30.000001907348633,-30.900001525878906,4.650000095367432
1.616,79.79395294189453,-6.89530086517334,-10.304644584655762,13.056661605834961,0.1332312375307083,41.035221099853516,-31.80000114440918,-31.650001525878906,5.100000381469727
1.626,79.25765228271484,-8.044517517089844,-9.385271072387695,7.194486618041992,6.794793128967285,39.9693717956543,-31.650001525878906,-32.55000305175781,3.0
1.636,82.0923843383789,-8.96389102935791,-10.649409294128418,2.9310872554779053,4.529861927032471,40.102603912353516,-30.900001525878906,-31.80000114440918,3.0
1.656,81.93915557861328,-8.312667846679688,-10.342951774597168,2.398162364959717,2.131699800491333,41.568145751953125,-30.900001525878906,-31.80000114440918,3.0
1.659,81.67100524902344,-6.703764915466309,-10.457873344421387,0.5329249501228333,7.194486618041992,44.09954071044922,-31.05000114440918,-33.60000228881836,3.9000000953674316
1.666,80.40686798095703,-6.512228488922119,-10.955866813659668,2.6646246910095215,13.189892768859863,52.75957107543945,-30.450000762939453,-31.80000114440918,3.750000238418579
1.676,80.33025360107422,-5.477933406829834,-10.496180534362793,14.255742073059082,-0.2664624750614166,61.41960144042969,-31.05000114440918,-31.650001525878906,3.3000001907348633
1.686,80.29194641113281,-6.320692539215088,-9.53849983215332,10.392036437988281,-2.6646246910095215,78.60643005371094,-30.450000762939453,-31.500001907348633,4.200000286102295
1.696,83.08837890625,-6.129156112670898,-7.354987621307373,0.6661561727523804,6.128636837005615,73.14395141601562,-30.450000762939453,-31.500001907348633,4.200000286102295
1.715,82.85853576660156,-7.1251444816589355,-8.465897560119629,0.7993874549865723,0.9326186776161194,79.67227935791016,-30.450000762939453,-33.0,3.450000047683716
1.719,82.20730590820312,-7.814674377441406,-10.074800491333008,5.595712184906006,-10.392036437988281,94.19448852539062,-28.950000762939453,-33.45000076293945,3.0
1.726,81.78592681884766,-9.155426979064941,-10.381258964538574,6.661561965942383,-13.189892768859863,97.65850067138672,-29.250001907348633,-33.150001525878906,2.1000001430511475
1.736,81.36454772949219,-9.117119789123535,-10.228029251098633,-3.4640121459960938,-3.0643184185028076,97.65850067138672,-31.05000114440918,-34.35000228881836,3.3000001907348633
1.746,81.441162109375,-8.236053466796875,-10.41956615447998,4.929555892944336,-12.656967163085938,105.91883087158203,-31.05000114440918,-34.35000228881836,3.3000001907348633
1.756,82.5137710571289,-9.346963882446289,-9.576807022094727,2.131699800491333,-12.656967163085938,116.31086730957031,-28.200000762939453,-34.95000076293945,1.9500000476837158
1.776,81.63269805908203,-8.810662269592285,-10.228029251098633,-7.460949420928955,-8.39356803894043,102.72128295898438,-28.650001525878906,-34.95000076293945,2.700000047683716
1.779,78.49150848388672,-9.500192642211914,-11.760318756103516,-3.597243309020996,-1.5987749099731445,115.77794647216797,-28.650001525878906,-34.5,3.0
1.786,76.69107055664062,-10.41956615447998,-11.03248119354248,1.4655436277389526,-12.790199279785156,125.90351867675781,-27.450000762939453,-35.70000076293945,1.6500000953674316
1.796,76.76768493652344,-10.381258964538574,-9.576807022094727,-0.1332312375307083,-3.7304747104644775,135.36293029785156,-28.500001907348633,-36.60000228881836,2.8500001430511475
1.806,75.9249267578125,-9.155426979064941,-10.342951774597168,-12.124042510986328,6.395099639892578,136.56201171875,-28.500001907348633,-36.60000228881836,2.8500001430511475
1.816,75.38862609863281,-9.576807022094727,-9.730035781860352,0.5329249501228333,1.3323123455047607,154.28176879882812,-28.05000114440918,-37.05000305175781,2.8500001430511475
1.836,73.93294525146484,-11.951854705810547,-10.304644584655762,-3.197549819946289,3.597243309020996,150.2848358154297,-27.750001907348633,-36.30000305175781,2.8500001430511475
1.84,74.00955963134766,-13.79060173034668,-12.7946138381958,-6.794793128967285,25.447166442871094,151.35069274902344,-27.30000114440918,-37.5,2.5500001907348633
1.846,74.92893981933594,-17.92778205871582,-11.224017143249512,-3.197549819946289,20.91730499267578,154.54823303222656,-26.250001907348633,-38.55000305175781,2.5500001907348633
1.856,74.50755310058594,-19.536685943603516,-10.72602367401123,3.4640121459960938,17.986217498779297,163.4747314453125,-26.250001907348633,-38.55000305175781,2.5500001907348633
1.866,75.50354766845703,-22.06496238708496,-8.772355079650879,-7.327718257904053,29.977027893066406,160.41041564941406,-26.400001525878906,-39.900001525878906,3.0
1.876,77.763671875,-24.66985511779785,-7.2783732414245605,-24.914241790771484,37.70444107055664,166.00611877441406,-25.950000762939453,-39.60000228881836,2.700000047683716
1.895,76.30799865722656,-27.006595611572266,-7.814674377441406,-29.84379768371582,33.57427215576172,181.06124877929688,-24.450000762939453,-40.650001525878906,1.6500000953674316
1.899,75.31201171875,-28.347347259521484,-8.810662269592285,-48.22970962524414,30.90964698791504,187.05665588378906,-25.200000762939453,-41.85000228881836,2.700000047683716
1.906,75.54185485839844,-27.696125030517578,-7.354987621307373,-57.02296829223633,38.63705825805664,182.12710571289062,-25.200000762939453,-41.85000228881836,2.700000047683716
1.916,73.85633087158203,-26.700138092041016,-8.044517517089844,-54.091880798339844,36.238895416259766,192.65237426757812,-23.25,-42.150001525878906,1.0500000715255737
1.926,72.13250732421875,-25.129541397094727,-10.036493301391602,-41.967838287353516,38.77029037475586,197.18223571777344,-23.400001525878906,-42.60000228881836,1.2000000476837158
1.936,70.29376220703125,-25.167848587036133,-10.41956615447998,-39.03675079345703,43.83307647705078,206.6416473388672,-23.400001525878906,-41.85000228881836,2.700000047683716
1.956,67.80379486083984,-26.508602142333984,-9.959878921508789,-35.839202880859375,46.897396087646484,205.7090301513672,-22.950000762939453,-45.0,2.25
1.959,65.2755126953125,-29.573179244995117,-8.810662269592285,-36.63859176635742,61.15313720703125,217.30015563964844,-22.5,-45.60000228881836,1.8000000715255737
1.966,65.62027740478516,-29.496564865112305,-6.129156112670898,-30.37672233581543,53.29249572753906,229.4241943359375,-22.5,-45.60000228881836,1.8000000715255737
1.976,64.31783294677734,-30.415939331054688,-5.784391403198242,-34.10719680786133,63.684532165527344,240.74884033203125,-20.25,-46.650001525878906,2.8500001430511475
1.986,65.35212707519531,-30.224401473999023,-5.439626216888428,-32.24195861816406,73.54364013671875,249.5421142578125,-20.700000762939453,-47.70000076293945,2.25
1.996,65.2755126953125,-29.994558334350586,-5.477933406829834,-15.721285820007324,63.018375396728516,264.86370849609375,-19.650001525878906,-47.70000076293945,3.0
2.015,64.6242904663086,-34.170047760009766,-2.604891538619995,-22.51607894897461,64.21745300292969,258.6018371582031,-18.75,-47.85000228881836,0.6000000238418579
2.019,58.38021469116211,-42.1762580871582,-6.3973069190979,-15.721285820007324,63.151607513427734,250.87442016601562,-18.75,-47.85000228881836,0.6000000238418579
2.026,57.1160774230957,-43.4020881652832,-7.508216381072998,-9.592649459838867,62.35221862792969,263.93109130859375,-18.0,-48.30000305175781,1.350000023841858
2.036,57.1160774230957,-46.54328155517578,-9.53849983215332,-13.189892768859863,61.81929397583008,258.06890869140625,-17.400001525878906,-49.20000076293945,2.25
2.046,58.87820816040039,-49.18648147583008,-6.282385349273682,-20.517610549926758,64.084228515625,273.9234313964844,-14.700000762939453,-50.85000228881836,0.15000000596046448
2.056,62.01940155029297,-49.99093246459961,-4.32871675491333,-30.110260009765625,67.14854431152344,261.2664489746094,-15.750000953674316,-51.000003814697266,1.0500000715255737
2.072,62.28755187988281,-49.64616775512695,-5.439626216888428,-28.77794647216797,62.618682861328125,281.3843688964844,-13.800000190734863,-51.750003814697266,1.350000023841858
2.076,64.35614013671875,-47.2711181640625,-1.4939818382263184,-35.839202880859375,70.47932434082031,268.32769775390625,-13.800000190734863,-51.750003814697266,1.350000023841858
2.086,65.888427734375,-47.46265411376953,-2.451662540435791,-36.10566711425781,55.55742645263672,277.5206604003906,-12.300000190734863,-51.000003814697266,2.1000001430511475
2.096,64.58598327636719,-46.811431884765625,-3.485957622528076,-35.306278228759766,42.76722717285156,290.444091796875,-10.800000190734863,-52.95000076293945,1.8000000715255737
2.106,60.563724517822266,-48.19049072265625,-5.746084213256836,-36.238895416259766,43.03369140625,283.915771484375,-10.65000057220459,-53.10000228881836,3.0
2.116,58.18867874145508,-46.16020965576172,-8.810662269592285,-43.83307647705078,54.091880798339844,277.7871398925781,-9.75,-53.250003814697266,1.350000023841858
2.134,56.541465759277344,-47.38603973388672,-9.193734169006348,-43.16691970825195,48.09647750854492,288.44561767578125,-7.200000286102295,-54.30000305175781,1.2000000476837158
2.138,56.847923278808594,-46.313438415527344,-6.512228488922119,-31.042879104614258,41.434913635253906,290.57733154296875,-7.650000095367432,-56.250003814697266,0.9000000357627869
2.146,56.50315856933594,-45.470680236816406,-5.363011837005615,-39.9693717956543,45.03215789794922,291.1102600097656,-7.650000095367432,-56.250003814697266,0.9000000357627869
2.156,55.73701477050781,-45.81544494628906,-5.51624059677124,-43.56661605834961,38.23736572265625,290.444091796875,-4.950000286102295,-53.55000305175781,0.9000000357627869
2.166,55.89024353027344,-46.083595275878906,-4.252102375030518,-33.17457962036133,20.650842666625977,297.6385803222656,-3.9000000953674316,-55.80000305175781,0.45000001788139343
2.185,55.12409973144531,-47.04127502441406,-5.899312973022461,-32.90811538696289,21.183767318725586,301.76873779296875,-3.9000000953674316,-55.80000305175781,0.45000001788139343
2.189,52.4042854309082,-47.65419006347656,-8.274360656738281,-27.445634841918945,23.715160369873047,283.915771484375,-1.2000000476837158,-56.250003814697266,2.25
2.196,50.22077560424805,-51.21676254272461,-6.512228488922119,-13.456355094909668,7.06125545501709,286.84686279296875,-1.2000000476837158,-56.250003814697266,2.25
2.206,49.76108932495117,-53.63011932373047,-5.51624059677124,-3.197549819946289,0.0,282.1837463378906,1.0500000715255737,-57.60000228881836,-0.30000001192092896
2.216,45.31745147705078,-56.46485137939453,-7.661445617675781,-7.194486618041992,7.594180583953857,269.52679443359375,0.9000000357627869,-58.20000076293945,0.15000000596046448
2.226,42.71255874633789,-58.839900970458984,-10.41956615447998,-11.324655532836914,9.859111785888672,252.3399658203125,0.9000000357627869,-58.20000076293945,0.15000000596046448
2.245,42.02302932739258,-60.48711013793945,-11.224017143249512,-14.12251091003418,4.929555892944336,252.20672607421875,0.9000000357627869,-58.20000076293945,0.15000000596046448
2.25,40.682273864746094,-60.372188568115234,-10.189722061157227,-13.722817420959473,-3.0643184185028076,244.87901306152344,5.400000095367432,-58.20000076293945,0.15000000596046448
2.256,42.59763717651367,-59.29958724975586,-7.508216381072998,-15.321592330932617,-5.196018218994141,252.73965454101562,6.150000095367432,-57.30000305175781,0.15000000596046448
2.266,42.52102279663086,-57.614070892333984,-9.040505409240723,-5.995405673980713,-15.321592330932617,251.27410888671875,7.500000476837158,-57.60000228881836,1.350000023841858
2.276,42.674251556396484,-58.3036003112793,-9.040505409240723,4.396630764007568,-20.117916107177734,232.35528564453125,7.500000476837158,-57.60000228881836,1.350000023841858
2.286,42.32948684692383,-61.40648651123047,-7.967903137207031,13.056661605834961,-19.052066802978516,228.22511291503906,9.0,-57.60000228881836,1.350000023841858
2.306,40.03105163574219,-62.90046691894531,-10.41956615447998,29.577335357666016,-28.111791610717773,210.2388916015625,10.65000057220459,-57.30000305175781,2.25
2.309,34.62973403930664,-63.74322509765625,-11.070788383483887,42.36753463745117,-29.577335357666016,201.9785614013672,11.550000190734863,-57.60000228881836,1.0500000715255737
2.316,28.040889739990234,-67.68887329101562,-11.645397186279297,45.43185043334961,-36.5053596496582,181.59417724609375,11.700000762939453,-58.500003814697266,0.15000000596046448
2.326,27.198131561279297,-68.83808898925781,-11.875240325927734,43.16691970825195,-30.643184661865234,171.60183715820312,11.700000762939453,-58.500003814697266,0.15000000596046448
2.336,23.290794372558594,-68.7231674194336,-11.224017143249512,64.48391723632812,-38.63705825805664,161.2097930908203,12.90000057220459,-57.30000305175781,2.25
2.346,19.728221893310547,-68.1485595703125,-11.72201156616211,82.33690643310547,-27.17917251586914,151.084228515625,14.40000057220459,-57.000003814697266,1.6500000953674316
2.365,16.778566360473633,-69.3360824584961,-9.691728591918945,98.99080657958984,-36.10566711425781,140.29249572753906,13.500000953674316,-56.400001525878906,2.5500001907348633
2.369,13.713987350463867,-73.6264877319336,-7.661445617675781,128.56814575195312,-49.02909469604492,119.5084228515625,15.000000953674316,-57.60000228881836,2.5500001907348633
2.376,8.848969459533691,-83.1266860961914,-4.367023944854736,139.89280700683594,-43.83307647705078,109.64930725097656,15.000000953674316,-57.60000228881836,2.5500001907348633
2.386,7.010222434997559,-86.42110443115234,-0.5363011956214905,153.21592712402344,-56.356815338134766,98.85757446289062,15.000000953674316,-57.60000228881836,2.5500001907348633
2.396,4.022258758544922,-93.12487030029297,1.6089035272598267,163.34149169921875,-48.76263427734375,71.67840576171875,15.90000057220459,-56.55000305175781,4.5
2.406,0.9193734526634216,-99.52217864990234,3.9456443786621094,177.19754028320312,-64.75038146972656,54.89126968383789,16.05000114440918,-56.70000076293945,4.350000381469727
2.426,-1.2258312702178955,-105.19164276123047,8.542511940002441,182.7932586669922,-64.084228515625,41.701377868652344,16.80000114440918,-57.900001525878906,5.850000381469727
2.429,-1.647210717201233,-109.98004913330078,12.679692268371582,168.27105712890625,-57.55589294433594,14.655436515808105,16.05000114440918,-55.95000076293945,7.350000381469727
2.436,-3.294421434402466,-112.43170928955078,14.633360862731934,159.61102294921875,-46.09800720214844,3.597243309020996,16.05000114440918,-55.95000076293945,7.350000381469727
2.446,-1.5705963373184204,-114.73014831542969,14.67166805267334,159.47779846191406,-44.23276901245117,-8.127105712890625,15.750000953674316,-56.70000076293945,8.40000057220459
2.456,34.24666213989258,-146.83160400390625,5.899312973022461,144.42266845703125,-28.111791610717773,-37.304744720458984,17.400001525878906,-56.55000305175781,8.25
2.466,-7.163451671600342,-112.20186614990234,11.951854705810547,140.02603149414062,-5.196018218994141,-44.63246536254883,16.80000114440918,-56.400001525878906,9.450000762939453
2.485,-1.1875240802764893,-112.27848052978516,11.645397186279297,148.8192901611328,6.395099639892578,-51.960182189941406,15.90000057220459,-57.000003814697266,9.300000190734863
2.488,-0.8044517636299133,-112.01033020019531,21.6818904876709,140.82542419433594,24.248085021972656,-67.01531219482422,15.90000057220459,-57.000003814697266,9.300000190734863
2.496,0.49799394607543945,-112.47001647949219,21.0689754486084,132.56507873535156,25.846860885620117,-75.27565002441406,17.25,-57.900001525878906,8.700000762939453
2.506,0.9959878921508789,-112.69985961914062,20.264522552490234,139.49310302734375,28.378253936767578,-61.28636932373047,17.25,-57.150001525878906,11.40000057220459
2.516,3.44765043258667,-112.39340209960938,22.17988395690918,139.89280700683594,33.84073257446289,-68.88054656982422,16.200000762939453,-56.250003814697266,12.600000381469727
2.526,5.20978307723999,-110.32481384277344,21.14558982849121,124.97090148925781,49.42878723144531,-82.7365951538086,16.200000762939453,-55.80000305175781,11.850000381469727
2.545,4.098873138427734,-107.14531707763672,18.962078094482422,118.30934143066406,53.026031494140625,-90.19754791259766,16.200000762939453,-55.80000305175781,11.850000381469727
2.549,5.899312973022461,-101.47584533691406,21.45204734802246,130.30015563964844,45.831546783447266,-85.93415069580078,16.200000762939453,-55.80000305175781,11.850000381469727
2.556,7.814674377441406,-100.40324401855469,23.558944702148438,122.83920288085938,66.61561584472656,-95.26033782958984,16.5,-57.150001525878906,13.950000762939453
2.566,7.240066051483154,-101.93553161621094,25.39769172668457,126.7029037475586,65.949462890625,-94.86064147949219,15.300000190734863,-58.650001525878906,14.250000953674316
2.576,7.8529815673828125,-104.31057739257812,23.558944702148438,123.9050521850586,61.68606185913086,-90.33078002929688,14.550000190734863,-56.400001525878906,14.250000953674316
2.586,9.691728591918945,-104.50211334228516,22.984336853027344,118.30934143066406,70.3460922241211,-103.65390014648438,15.000000953674316,-57.60000228881836,14.250000953674316
2.602,10.15141487121582,-104.65534210205078,24.9763126373291,101.9218978881836,81.93721008300781,-110.18223571777344,15.000000953674316,-57.60000228881836,14.250000953674316
2.606,13.062764167785645,-103.96581268310547,24.861391067504883,95.39356231689453,82.07044219970703,-125.23736572265625,14.40000057220459,-55.80000305175781,15.90000057220459
2.616,13.062764167785645,-105.3448715209961,26.087221145629883,92.86217498779297,84.73506927490234,-116.0444107055664,13.050000190734863,-56.400001525878906,15.450000762939453
2.626,16.395492553710938,-105.03841400146484,28.19411849975586,79.53904724121094,83.13629150390625,-131.49923706054688,13.500000953674316,-56.400001525878906,15.750000953674316
2.636,19.038692474365234,-103.27628326416016,32.10145568847656,60.22052001953125,88.06584930419922,-107.65084075927734,13.200000762939453,-57.30000305175781,15.600000381469727
2.655,22.141576766967773,-103.04644012451172,32.178070068359375,48.49617004394531,73.41041564941406,-133.49769592285156,13.200000762939453,-57.30000305175781,15.600000381469727
2.659,22.83110809326172,-96.993896484375,27.504589080810547,42.500762939453125,84.33537292480469,-130.83306884765625,13.200000762939453,-57.750003814697266,17.700000762939453
2.666,23.3291015625,-90.36675262451172,23.060951232910156,46.63093185424805,87.26646423339844,-132.83154296875,11.700000762939453,-57.000003814697266,16.350000381469727
2.676,27.734432220458984,-88.37477111816406,23.3291015625,51.4272575378418,92.3292465209961,-126.03675079345703,10.950000762939453,-55.80000305175781,17.100000381469727
2.686,31.794998168945312,-87.30216979980469,30.339323043823242,61.28636932373047,68.61408996582031,-108.71669006347656,10.200000762939453,-57.750003814697266,17.700000762939453
2.696,33.17405700683594,-90.44336700439453,32.75267791748047,51.82695007324219,53.69218826293945,-106.85145568847656,11.25,-56.70000076293945,18.30000114440918
2.715,26.393678665161133,-92.32041931152344,27.083209991455078,42.76722717285156,61.552833557128906,-114.84532928466797,11.25,-56.70000076293945,18.30000114440918
2.719,24.938005447387695,-90.2901382446289,21.337125778198242,38.50382614135742,64.21745300292969,-101.65543365478516,10.65000057220459,-58.20000076293945,18.150001525878906
2.726,22.677879333496094,-93.12487030029297,21.87342643737793,24.248085021972656,65.15007781982422,-104.7197494506836,10.65000057220459,-55.35000228881836,16.650001525878906
2.736,23.099258422851562,-94.00593566894531,23.175872802734375,8.660030364990234,73.67687225341797,-121.3736572265625,10.950000762939453,-57.30000305175781,18.900001525878906
2.746,25.627534866333008,-95.07853698730469,27.198131561279297,0.39969372749328613,61.9525260925293,-127.5022964477539,10.050000190734863,-56.70000076293945,18.30000114440918
2.756,27.77273941040039,-96.72574615478516,31.258697509765625,-18.119447708129883,63.28483963012695,-122.70597076416016,10.050000190734863,-56.70000076293945,18.30000114440918
2.776,28.347347259521484,-98.44957733154297,34.24666213989258,-39.16998291015625,58.222049713134766,-129.10107421875,9.90000057220459,-57.30000305175781,18.150001525878906
2.78,28.768728256225586,-95.69145202636719,31.10546875,-58.888206481933594,55.69065856933594,-148.55282592773438,9.75,-56.70000076293945,19.80000114440918
2.786,30.301015853881836,-86.1146469116211,25.39769172668457,-69.28024291992188,55.02450180053711,-140.29249572753906,8.25,-55.95000076293945,17.55000114440918
2.796,32.063148498535156,-81.97746276855469,23.63555908203125,-71.2787094116211,51.693721771240234,-157.21286010742188,8.25,-56.70000076293945,18.0
2.806,32.82929229736328,-75.42693328857422,22.7161865234375,-77.27411651611328,57.955589294433594,-167.87135314941406,8.25,-56.70000076293945,18.0
2.816,31.83330535888672,-69.48931121826172,23.13756561279297,-74.20980072021484,43.96630859375,-174.66615295410156,7.200000286102295,-57.750003814697266,16.650001525878906
2.836,30.79901123046875,-65.9267349243164,22.562957763671875,-60.35375213623047,33.70750427246094,-172.00152587890625,7.050000190734863,-57.150001525878906,17.25
2.839,26.891674041748047,-63.05369567871094,22.103269577026367,-59.95405578613281,34.24042892456055,-172.134765625,5.550000190734863,-56.70000076293945,17.55000114440918
2.846,29.381643295288086,-64.27952575683594,23.405715942382812,-60.48698043823242,34.773353576660156,-179.19601440429688,5.550000190734863,-56.70000076293945,17.55000114440918
2.856,30.837318420410156,-65.16059112548828,27.15982437133789,-59.4211311340332,16.920366287231445,-171.86830139160156,7.200000286102295,-56.55000305175781,16.350000381469727
2.866,31.565155029296875,-66.42472839355469,28.002582550048828,-71.81163787841797,12.25727367401123,-176.7978515625,7.200000286102295,-56.55000305175781,16.350000381469727
2.876,31.22039031982422,-64.50936889648438,25.474306106567383,-79.0061264038086,7.860642910003662,-188.65542602539062,5.400000095367432,-55.05000305175781,16.650001525878906
2.895,31.871612548828125,-60.257266998291016,22.333112716674805,-84.4686050415039,-0.7993874549865723,-179.72894287109375,4.650000095367432,-57.30000305175781,15.90000057220459
2.899,32.82929229736328,-56.57977294921875,21.643583297729492,-94.72740936279297,9.192955017089844,-190.5206756591797,1.8000000715255737,-55.95000076293945,15.450000762939453
2.906,34.170047760009766,-50.71876907348633,21.413740158081055,-87.39968872070312,2.797856092453003,-186.3905029296875,1.8000000715255737,-55.95000076293945,15.450000762939453
2.916,34.782962799072266,-47.539268493652344,22.06496238708496,-88.33231353759766,3.86370587348938,-193.05206298828125,1.8000000715255737,-55.95000076293945,15.450000762939453
2.926,34.20835494995117,-44.6279182434082,21.720197677612305,-78.07350158691406,-3.197549819946289,-184.5252685546875,0.45000001788139343,-56.55000305175781,15.15000057220459
2.936,35.12772750854492,-43.67023849487305,20.724210739135742,-69.81317138671875,-8.127105712890625,-182.6600341796875,1.8000000715255737,-57.60000228881836,15.750000953674316
2.956,35.74064254760742,-42.63594436645508,21.528661727905273,-66.61561584472656,-9.992342948913574,-190.9203643798828,-0.75,-55.650001525878906,15.000000953674316
2.959,39.91613006591797,-43.86177444458008,20.456058502197266,-57.55589294433594,-22.382848739624023,-189.72128295898438,-0.75,-55.650001525878906,15.000000953674316
2.966,40.145973205566406,-43.287166595458984,21.0689754486084,-58.62174606323242,-27.17917251586914,-189.5880584716797,-0.75,-55.650001525878906,15.000000953674316
2.976,41.754878997802734,-43.24885940551758,20.264522552490234,-61.01990509033203,-20.784072875976562,-199.84686279296875,-0.9000000357627869,-54.30000305175781,14.40000057220459
2.986,43.44039535522461,-42.90409469604492,22.141576766967773,-56.62327575683594,-28.24502182006836,-208.10719299316406,-1.9500000476837158,-55.05000305175781,14.40000057220459
2.996,46.73481750488281,-41.90810775756836,22.37141990661621,-50.36140823364258,-40.9019889831543,-210.77182006835938,-3.1500000953674316,-54.60000228881836,13.050000190734863
3.016,48.11387634277344,-38.8818359375,22.90772247314453,-47.163856506347656,-46.764163970947266,-214.50228881835938,-1.6500000953674316,-56.55000305175781,14.100000381469727
3.019,49.64616775512695,-30.875625610351562,19.99637222290039,-36.238895416259766,-58.355281829833984,-225.56048583984375,-2.25,-54.900001525878906,13.950000762939453
3.026,52.05952072143555,-28.500577926635742,18.11931800842285,-34.906585693359375,-54.89126968383789,-225.96017456054688,-2.25,-54.900001525878906,13.950000762939453
3.036,52.4042854309082,-26.66183090209961,18.004396438598633,-11.058192253112793,-55.95711898803711,-222.76263427734375,-4.950000286102295,-53.85000228881836,11.850000381469727
3.046,54.54949188232422,-22.869415283203125,15.054739952087402,1.9984685182571411,-55.55742645263672,-218.23277282714844,-5.400000095367432,-54.60000228881836,13.65000057220459
3.056,56.311622619628906,-20.724210739135742,13.21599292755127,18.652372360229492,-56.09035110473633,-231.95558166503906,-5.550000190734863,-52.20000076293945,13.500000953674316
3.075,57.53745651245117,-21.950040817260742,12.02846908569336,50.89433288574219,-67.814697265625,-215.96783447265625,-7.200000286102295,-51.900001525878906,14.100000381469727
3.078,58.76328659057617,-22.37141990661621,10.802638053894043,58.08882141113281,-66.74884796142578,-224.62786865234375,-8.550000190734863,-53.70000076293945,15.450000762939453
3.086,59.759273529052734,-22.677879333496094,10.879252433776855,60.35375213623047,-72.47779083251953,-227.1592559814453,-8.550000190734863,-53.70000076293945,15.450000762939453
3.096,59.41450881958008,-23.75048065185547,11.224017143249512,76.60796356201172,-80.73812866210938,-220.36447143554688,-9.75,-51.750003814697266,15.750000953674316
3.106,59.644351959228516,-24.401702880859375,10.764330863952637,82.47013854980469,-91.79632568359375,-220.09800720214844,-11.40000057220459,-51.900001525878906,15.15000057220459
3.116,62.13432312011719,-23.175872802734375,11.951854705810547,77.4073486328125,-84.86830139160156,-223.16232299804688,-11.40000057220459,-51.900001525878906,15.15000057220459
3.134,63.74322509765625,-22.946029663085938,12.564770698547363,76.74119567871094,-96.19295501708984,-211.70443725585938,-10.950000762939453,-49.650001525878906,15.600000381469727
3.138,64.20291137695312,-22.677879333496094,11.492168426513672,81.00459289550781,-111.24808502197266,-204.37672424316406,-12.300000190734863,-51.000003814697266,15.000000953674316
3.146,64.31783294677734,-22.409727096557617,11.492168426513672,81.67074584960938,-119.37519073486328,-197.0489959716797,-13.050000190734863,-49.80000305175781,15.750000953674316
3.156,61.751251220703125,-23.175872802734375,10.304644584655762,78.07350158691406,-112.31393432617188,-196.915771484375,-14.250000953674316,-48.60000228881836,15.000000953674316
3.166,59.452816009521484,-22.2948055267334,9.576807022094727,90.99693298339844,-125.10413360595703,-191.4532928466797,-14.250000953674316,-48.30000305175781,15.750000953674316
3.185,57.15438461303711,-23.175872802734375,10.41956615447998,85.00152587890625,-135.22970581054688,-193.45175170898438,-14.250000953674316,-48.30000305175781,15.750000953674316
3.189,55.698707580566406,-21.030668258666992,9.615114212036133,84.4686050415039,-133.36447143554688,-192.65237426757812,-15.300000190734863,-48.60000228881836,16.05000114440918
3.196,56.77130889892578,-19.766529083251953,9.193734169006348,76.20826721191406,-132.9647674560547,-197.44869995117188,-16.80000114440918,-47.10000228881836,15.750000953674316
3.206,57.499149322509766,-19.99637222290039,11.492168426513672,78.87289428710938,-144.1562042236328,-185.32464599609375,-17.25,-48.30000305175781,16.05000114440918
3.216,58.9165153503418,-19.49837875366211,13.407529830932617,73.27718353271484,-149.21897888183594,-171.7350616455078,-17.400001525878906,-47.25,16.350000381469727
3.226,61.71294403076172,-18.88546371459961,12.947842597961426,71.01225280761719,-142.5574188232422,-182.92648315429688,-17.400001525878906,-47.25,16.350000381469727
3.244,63.55168914794922,-20.76251792907715,11.1474027633667,69.01377868652344,-157.612548828125,-179.86216735839844,-17.55000114440918,-44.85000228881836,15.750000953674316
3.249,63.85814666748047,-21.0689754486084,10.611102104187012,78.87289428710938,-162.6753387451172,-163.74119567871094,-17.55000114440918,-46.35000228881836,15.750000953674316
3.256,64.93074798583984,-23.367408752441406,9.921571731567383,70.07962799072266,-160.14395141601562,-195.71669006347656,-18.900001525878906,-44.25,15.600000381469727
3.266,64.47106170654297,-23.903709411621094,10.572794914245605,61.15313720703125,-162.5421142578125,-183.45941162109375,-19.5,-43.95000076293945,14.700000762939453
3.276,65.12228393554688,-24.746469497680664,9.117119789123535,48.49617004394531,-169.60336303710938,-183.85910034179688,-19.5,-43.95000076293945,14.700000762939453
3.286,66.07996368408203,-22.946029663085938,8.427590370178223,40.635528564453125,-168.80397033691406,-186.12403869628906,-21.150001525878906,-44.25,14.850000381469727
3.306,65.81181335449219,-22.448034286499023,7.508216381072998,22.249616622924805,-149.3522186279297,-189.9877471923828,-21.0,-43.95000076293945,13.500000953674316
3.309,67.91871643066406,-21.14558982849121,7.508216381072998,7.327718257904053,-146.5543670654297,-190.1209716796875,-22.200000762939453,-42.60000228881836,13.350000381469727
3.322,70.10222625732422,-18.77054214477539,10.113107681274414,1.9984685182571411,-160.2771759033203,-189.32159423828125,-22.05000114440918,-43.20000076293945,13.500000953674316
3.326,69.9873046875,-17.391481399536133,8.35097599029541,-12.923430442810059,-154.41500854492188,-201.578857421875,-24.0,-41.70000076293945,12.450000762939453
3.336,71.40467071533203,-15.85919189453125,8.121131896972656,-29.444103240966797,-150.6845245361328,-195.5834503173828,-24.0,-41.70000076293945,12.450000762939453
3.346,70.33206939697266,-13.560758590698242,3.5625722408294678,-34.10719680786133,-139.6263427734375,-183.45941162109375,-24.150001525878906,-38.85000228881836,12.600000381469727
3.356,70.6002197265625,-13.522451400756836,0.19153612852096558,-36.5053596496582,-141.35833740234375,-182.12710571289062,-23.400001525878906,-40.35000228881836,12.600000381469727
3.375,72.51557922363281,-11.492168426513672,-1.2641384601593018,-54.89126968383789,-122.9724349975586,-178.6630859375,-25.500001907348633,-38.25,10.200000762939453
3.379,72.24742889404297,-11.60708999633789,-4.520252704620361,-64.48391723632812,-108.050537109375,-179.72894287109375,-25.950000762939453,-39.150001525878906,10.350000381469727
3.386,74.12448120117188,-8.197746276855469,-7.201758861541748,-59.55436325073242,-107.65084075927734,-161.47625732421875,-25.950000762939453,-39.150001525878906,10.350000381469727
3.396,75.61846923828125,-6.89530086517334,-9.576807022094727,-73.41041564941406,-82.33690643310547,-162.94180297851562,-26.250001907348633,-37.5,10.200000762939453
3.406,77.1507568359375,-2.75812029838562,-9.730035781860352,-71.54517364501953,-79.53904724121094,-153.0826873779297,-25.500001907348633,-37.05000305175781,8.700000762939453
3.416,80.21533203125,-0.38307225704193115,-8.65743350982666,-61.28636932373047,-78.20673370361328,-134.83001708984375,-27.30000114440918,-37.5,10.65000057220459
3.435,82.74361419677734,3.7924153804779053,-10.342951774597168,-66.21592712402344,-63.018375396728516,-128.16845703125,-26.400001525878906,-34.95000076293945,7.800000190734863
3.439,84.69728088378906,6.244078159332275,-10.687716484069824,-57.955589294433594,-55.4241943359375,-109.915771484375,-26.400001525878906,-34.95000076293945,7.800000190734863
3.446,87.03401947021484,9.078812599182129,-12.105083465576172,-42.500762939453125,-60.08728790283203,-89.7978515625,-26.400001525878906,-34.95000076293945,7.800000190734863
3.456,85.65496063232422,9.730035781860352,-11.760318756103516,-27.84532928466797,-55.82388687133789,-94.19448852539062,-26.400001525878906,-34.95000076293945,6.750000476837158
3.466,86.45941162109375,11.875240325927734,-11.185709953308105,-18.91883659362793,-39.30321502685547,-70.74578857421875,-26.55000114440918,-34.35000228881836,9.15000057220459
3.476,86.765869140625,10.457873344421387,-13.10107135772705,-4.929555892944336,-46.497703552246094,-51.29402542114258,-26.700000762939453,-34.5,7.050000190734863
3.496,85.5783462524414,10.41956615447998,-12.90953540802002,16.65390396118164,-37.70444107055664,-32.90811538696289,-27.000001907348633,-34.80000305175781,8.40000057220459
3.499,85.5783462524414,8.08282470703125,-11.070788383483887,26.379785537719727,-27.71209716796875,-10.392036437988281,-27.000001907348633,-34.80000305175781,8.40000057220459
3.506,84.12267303466797,5.975927352905273,-12.986149787902832,19.584991455078125,-10.258805274963379,-2.797856092453003,-27.450000762939453,-33.75,7.500000476837158
3.516,84.58235931396484,4.788403511047363,-14.326903343200684,25.04747200012207,1.1990811824798584,22.51607894897461,-25.950000762939453,-34.95000076293945,7.800000190734863
3.526,88.18323516845703,3.5242648124694824,-9.078812599182129,21.316997528076172,5.995405673980713,29.7105655670166,-27.30000114440918,-34.35000228881836,5.850000381469727
3.536,91.70750427246094,-2.3750481605529785,-4.8267107009887695,13.456355094909668,-3.4640121459960938,25.18070411682129,-27.750001907348633,-33.150001525878906,7.350000381469727
3.556,92.0522689819336,-10.074800491333008,-5.2480902671813965,3.3307809829711914,-18.91883659362793,29.7105655670166,-27.750001907348633,-33.150001525878906,7.350000381469727
3.559,87.45539855957031,-14.786589622497559,-7.7763671875,-30.643184661865234,-3.597243309020996,40.9019889831543,-27.900001525878906,-34.5,7.050000190734863
3.566,81.09639739990234,-12.181697845458984,-14.403517723083496,-50.36140823364258,19.45176124572754,44.09954071044922,-26.700000762939453,-33.75,6.750000476837158
3.576,78.29997253417969,-8.848969459533691,-11.070788383483887,-65.15007781982422,30.90964698791504,45.56508255004883,-24.750001907348633,-34.35000228881836,6.900000095367432
3.586,80.7899398803711,-6.244078159332275,-5.018246650695801,-54.35834503173828,24.51454734802246,58.355281829833984,-27.30000114440918,-34.80000305175781,6.150000095367432
3.596,83.31822204589844,-3.294421434402466,-2.0685901641845703,-47.696781158447266,20.38437843322754,59.15467071533203,-27.30000114440918,-34.80000305175781,6.150000095367432
3.616,85.31019592285156,-4.865017890930176,-0.38307225704193115,-51.29402542114258,18.91883659362793,63.81776428222656,-27.30000114440918,-34.80000305175781,6.150000095367432
3.619,85.92311096191406,-10.72602367401123,-1.4939818382263184,-41.568145751953125,25.7136287689209,69.14701080322266,-25.950000762939453,-35.70000076293945,7.800000190734863
3.626,88.06831359863281,-19.651607513427734,-4.060565948486328,-47.297088623046875,19.584991455078125,66.882080078125,-25.80000114440918,-35.10000228881836,5.400000095367432
3.636,89.60060119628906,-23.13756561279297,-4.481945514678955,-53.42572784423828,24.64777946472168,60.88667678833008,-26.55000114440918,-36.30000305175781,7.350000381469727
3.646,88.37477111816406,-27.15982437133789,-4.558559894561768,-50.89433288574219,23.315465927124023,65.81623077392578,-26.250001907348633,-35.85000228881836,6.600000381469727
3.656,85.5017318725586,-28.002582550048828,-3.7924153804779053,-63.018375396728516,22.915773391723633,53.29249572753906,-26.250001907348633,-35.85000228881836,6.600000381469727
3.676,81.74761962890625,-25.51261329650879,-2.5282769203186035,-65.15007781982422,32.90811538696289,55.02450180053711,-25.650001525878906,-36.150001525878906,6.0
3.679,72.66880798339844,-21.490354537963867,-0.5746083855628967,-61.28636932373047,35.839202880859375,60.75344467163086,-26.400001525878906,-37.20000076293945,6.300000190734863
3.686,69.79576873779297,-20.226215362548828,0.7661445140838623,-58.62174606323242,34.24042892456055,59.4211311340332,-26.400001525878906,-37.20000076293945,6.300000190734863
3.696,68.49332427978516,-17.966089248657227,1.5705963373184204,-51.160797119140625,39.569679260253906,67.28177642822266,-23.700000762939453,-37.650001525878906,6.0
3.706,65.19889831542969,-17.161638259887695,2.3750481605529785,-44.09954071044922,37.83767318725586,70.07962799072266,-23.700000762939453,-37.650001525878906,6.0
3.716,62.785545349121094,-18.77054214477539,2.719813108444214,-32.77488327026367,31.975496292114258,79.9387435913086,-24.900001525878906,-36.150001525878906,6.300000190734863
3.735,61.559715270996094,-22.333112716674805,0.9193734526634216,-20.117916107177734,28.111791610717773,73.0107192993164,-25.05000114440918,-37.80000305175781,6.600000381469727
3.739,56.426544189453125,-31.948226928710938,-3.2561142444610596,-17.053598403930664,34.906585693359375,82.6033706665039,-24.150001525878906,-38.85000228881836,6.0
3.746,57.95883560180664,-33.02082824707031,-3.2178070545196533,-20.38437843322754,41.967838287353516,77.80704498291016,-24.150001525878906,-38.85000228881836,6.0
3.756,58.18867874145508,-36.2003288269043,-2.4899697303771973,-20.117916107177734,44.09954071044922,79.13935852050781,-23.400001525878906,-37.95000076293945,6.0
3.766,59.337894439697266,-39.91613006591797,-0.9193734526634216,-27.71209716796875,52.226646423339844,67.28177642822266,-23.400001525878906,-37.95000076293945,6.0
3.776,61.52140808105469,-42.061336517333984,-1.2641384601593018,-46.09800720214844,64.084228515625,57.422664642333984,-23.55000114440918,-39.0,6.900000095367432
3.792,66.04165649414062,-40.91211700439453,0.1149216815829277,-58.08882141113281,66.61561584472656,54.22511291503906,-23.55000114440918,-39.75,5.850000381469727
3.796,71.13652038574219,-39.80120849609375,2.911349296569824,-57.955589294433594,65.28330993652344,48.09647750854492,-23.55000114440918,-39.75,5.850000381469727
3.806,72.43896484375,-39.11167907714844,3.332728862762451,-75.00918579101562,76.34149932861328,34.24042892456055,-22.05000114440918,-40.95000076293945,7.650000095367432
3.816,75.84831237792969,-38.115692138671875,2.604891538619995,-89.7978515625,73.41041564941406,29.84379768371582,-22.05000114440918,-40.95000076293945,7.650000095367432
3.826,76.46122741699219,-36.50678634643555,0.9959878921508789,-89.93108367919922,63.551300048828125,34.24042892456055,-21.450000762939453,-40.35000228881836,6.300000190734863
3.836,77.1124496459961,-36.2386360168457,-0.9959878921508789,-102.45481872558594,67.814697265625,24.381317138671875,-22.80000114440918,-40.5,7.650000095367432
3.849,76.03984832763672,-35.28095626831055,-2.4133553504943848,-109.38284301757812,70.47932434082031,26.912710189819336,-22.80000114440918,-40.20000076293945,6.900000095367432
3.856,73.7031021118164,-33.05913543701172,-2.5665841102600098,-124.97090148925781,83.66921997070312,24.781009674072266,-22.80000114440918,-40.20000076293945,6.900000095367432
3.866,73.664794921875,-29.76471519470215,-2.1068975925445557,-119.90811157226562,76.34149932861328,22.382848739624023,-22.80000114440918,-40.20000076293945,6.900000095367432
3.876,74.58417510986328,-26.85336685180664,-1.6855180263519287,-129.76722717285156,83.5359878540039,33.84073257446289,-21.450000762939453,-39.60000228881836,6.750000476837158
3.886,73.58818054199219,-23.02264404296875,-1.800439715385437,-127.10260009765625,78.07350158691406,33.97396469116211,-22.5,-41.70000076293945,6.600000381469727
3.905,73.74140930175781,-18.502389907836914,-1.6855180263519287,-120.30780792236328,69.28024291992188,49.16232681274414,-21.150001525878906,-41.10000228881836,6.300000190734863
3.909,75.23539733886719,-17.544710159301758,-0.26815059781074524,-117.9096450805664,61.81929397583008,64.3506851196289,-21.75,-40.5,5.850000381469727
3.916,74.81401824951172,-15.24627685546875,-0.689530074596405,-121.50688934326172,70.3460922241211,65.949462890625,-21.75,-40.5,5.850000381469727
3.926,73.43495178222656,-14.480132102966309,-1.9153614044189453,-118.8422622680664,67.94792938232422,77.94027709960938,-21.75,-40.5,5.850000381469727
3.936,71.13652038574219,-15.437812805175781,-0.26815059781074524,-108.58345794677734,61.41960144042969,85.53445434570312,-21.0,-42.150001525878906,4.650000095367432
3.946,71.13652038574219,-14.173673629760742,-0.1149216815829277,-104.18682861328125,64.3506851196289,93.52832794189453,-20.400001525878906,-41.55000305175781,6.0
3.966,69.56592559814453,-16.1656494140625,0.6512228846549988,-99.65696716308594,57.422664642333984,94.9938735961914,-21.900001525878906,-43.05000305175781,6.750000476837158
3.969,69.29777526855469,-16.35718536376953,0.26815059781074524,-89.5313949584961,49.29555892944336,93.2618637084961,-21.900001525878906,-43.05000305175781,6.750000476837158
3.976,67.68887329101562,-18.962078094482422,-0.6129156351089478,-84.86830139160156,50.76110076904297,98.05818939208984,-19.650001525878906,-43.05000305175781,6.0
3.986,68.87639617919922,-19.153614044189453,-0.4596867263317108,-92.99540710449219,53.29249572753906,86.0673828125,-21.30000114440918,-41.70000076293945,5.850000381469727
3.996,68.26348114013672,-22.677879333496094,-2.75812029838562,-89.13169860839844,52.3598747253418,90.59724426269531,-19.5,-42.900001525878906,4.650000095367432
4.006,68.41670989990234,-23.903709411621094,-0.9193734526634216,-90.73047637939453,55.4241943359375,92.19601440429688,-21.0,-42.900001525878906,5.100000381469727
4.026,68.64655303955078,-25.972299575805664,-3.2178070545196533,-104.45329284667969,61.28636932373047,74.74272155761719,-21.0,-42.900001525878906,5.100000381469727
4.029,68.30178833007812,-25.89568519592285,-2.145204782485962,-106.18529510498047,64.3506851196289,70.07962799072266,-19.80000114440918,-43.95000076293945,5.100000381469727
4.036,68.91470336914062,-26.12552833557129,-1.6089035272598267,-109.24961853027344,55.82388687133789,65.016845703125,-18.30000114440918,-44.400001525878906,5.400000095367432
4.046,67.80379486083984,-22.90772247314453,-1.0342950820922852,-107.11791229248047,56.756507873535156,63.950992584228516,-17.55000114440918,-44.400001525878906,4.650000095367432
4.056,68.30178833007812,-22.37141990661621,-2.7964274883270264,-117.50994873046875,60.75344467163086,54.35834503173828,-18.75,-43.650001525878906,5.400000095367432
4.066,68.07194519042969,-20.494365692138672,-1.6855180263519287,-128.83460998535156,68.74732208251953,52.226646423339844,-17.400001525878906,-43.80000305175781,4.950000286102295
4.085,67.91871643066406,-19.80483627319336,-1.5322890281677246,-114.97856140136719,56.62327575683594,70.3460922241211,-17.400001525878906,-43.80000305175781,4.950000286102295
4.089,68.91470336914062,-18.4257755279541,-2.911349296569824,-118.70903015136719,65.28330993652344,60.62021255493164,-18.0,-45.150001525878906,3.9000000953674316
4.096,70.75344848632812,-16.740259170532227,-2.604891538619995,-118.30934143066406,66.08269500732422,56.22358322143555,-16.950000762939453,-44.25,3.750000238418579
4.106,72.09420013427734,-18.387468338012695,-3.5242648124694824,-107.91730499267578,53.558956146240234,59.15467071533203,-16.650001525878906,-45.75,4.950000286102295
4.116,72.51557922363281,-16.740259170532227,-3.6391866207122803,-95.52679443359375,55.29096221923828,56.62327575683594,-17.400001525878906,-43.80000305175781,4.5
4.126,74.96724700927734,-15.552734375,-4.6734819412231445,-96.45941925048828,63.151607513427734,45.16539001464844,-17.400001525878906,-43.80000305175781,4.5
4.146,75.9249267578125,-15.361198425292969,-4.213795185089111,-89.5313949584961,52.093414306640625,56.756507873535156,-15.750000953674316,-43.650001525878906,4.650000095367432
4.15,78.3382797241211,-17.31486701965332,-3.2178070545196533,-89.93108367919922,57.15620040893555,46.231239318847656,-16.05000114440918,-44.85000228881836,2.8500001430511475
4.156,81.01978302001953,-14.67166805267334,-3.2561142444610596,-86.20060729980469,56.356815338134766,49.42878723144531,-17.400001525878906,-46.20000076293945,2.700000047683716
4.166,82.4371566772461,-14.709975242614746,-4.367023944854736,-74.20980072021484,60.08728790283203,46.897396087646484,-15.15000057220459,-46.20000076293945,3.750000238418579
4.176,82.0540771484375,-15.399505615234375,-3.5242648124694824,-58.08882141113281,46.764163970947266,60.48698043823242,-15.15000057220459,-46.20000076293945,3.750000238418579
4.186,82.0157699584961,-14.480132102966309,-6.3973069190979,-43.83307647705078,46.364471435546875,51.160797119140625,-16.05000114440918,-46.650001525878906,3.3000001907348633
4.206,84.08436584472656,-13.21599292755127,-5.937620162963867,-32.5084228515625,50.09494400024414,45.831546783447266,-16.200000762939453,-47.70000076293945,3.750000238418579
4.209,85.15696716308594,-16.433799743652344,-5.669469833374023,-13.323123931884766,43.03369140625,33.04134750366211,-16.05000114440918,-47.10000228881836,3.3000001907348633
4.216,87.26386260986328,-19.230228424072266,-2.9496564865112305,2.398162364959717,37.97090148925781,32.24195861816406,-16.200000762939453,-46.95000076293945,3.450000047683716
4.226,88.06831359863281,-21.796812057495117,-2.4899697303771973,-0.1332312375307083,38.37059783935547,18.91883659362793,-14.550000190734863,-47.10000228881836,3.6000001430511475
4.236,87.83847045898438,-23.405715942382812,-2.7964274883270264,1.9984685182571411,35.839202880859375,23.182235717773438,-14.550000190734863,-47.10000228881836,3.6000001430511475
4.246,88.83445739746094,-24.631547927856445,-1.9536685943603516,5.995405673980713,40.36906433105469,16.12097930908203,-16.650001525878906,-46.95000076293945,4.200000286102295
4.265,89.90705871582031,-27.236438751220703,-1.1875240802764893,20.91730499267578,24.64777946472168,14.92189884185791,-14.700000762939453,-47.70000076293945,5.25
4.269,93.62286376953125,-27.696125030517578,3.064578056335449,15.188361167907715,32.64165496826172,-7.860642910003662,-14.700000762939453,-47.70000076293945,5.25
4.276,94.92530822753906,-28.232425689697266,3.485957622528076,27.71209716796875,24.64777946472168,-7.72741174697876,-16.200000762939453,-47.70000076293945,4.950000286102295
4.286,94.96361541748047,-29.803022384643555,4.290409564971924,29.044410705566406,20.91730499267578,-16.65390396118164,-16.200000762939453,-47.70000076293945,4.950000286102295
4.296,95.46160888671875,-30.454246520996094,6.512228488922119,33.57427215576172,29.7105655670166,-30.90964698791504,-15.000000953674316,-50.250003814697266,6.150000095367432
4.306,94.12085723876953,-31.90991973876953,5.477933406829834,41.83460998535156,13.856048583984375,-33.04134750366211,-16.05000114440918,-49.500003814697266,5.850000381469727
4.325,90.86474609375,-31.565155029296875,3.754108190536499,42.23430252075195,11.990811347961426,-35.17304611206055,-15.450000762939453,-48.0,7.050000190734863
4.329,86.8041763305664,-27.46628189086914,0.9576807022094727,50.09494400024414,7.9938740730285645,-24.51454734802246,-15.300000190734863,-47.85000228881836,5.400000095367432
4.336,85.11865997314453,-26.163835525512695,0.9193734526634216,43.16691970825195,11.990811347961426,-33.04134750366211,-15.300000190734863,-47.85000228881836,5.400000095367432
4.346,82.32222747802734,-25.550920486450195,0.38307225704193115,57.422664642333984,-0.5329249501228333,-21.983154296875,-15.300000190734863,-47.85000228881836,5.400000095367432
4.356,79.98548889160156,-26.585216522216797,2.183511972427368,62.8851432800293,-2.531393527984619,-24.781009674072266,-16.650001525878906,-48.0,7.500000476837158
4.366,77.91690063476562,-27.427974700927734,2.183511972427368,54.62480926513672,3.9969370365142822,-28.511484146118164,-17.400001525878906,-48.900001525878906,7.500000476837158
4.379,78.03182220458984,-30.722396850585938,6.588842868804932,59.68759536743164,-5.196018218994141,-39.43644714355469,-17.400001525878906,-47.70000076293945,9.0
4.386,78.75965881347656,-31.373619079589844,6.320692539215088,61.9525260925293,-18.652372360229492,-35.03981399536133,-17.55000114440918,-47.55000305175781,8.40000057220459
4.396,79.83226013183594,-29.95625114440918,8.236053466796875,60.88667678833008,-29.444103240966797,-47.9632453918457,-17.55000114440918,-47.55000305175781,8.40000057220459
4.406,80.02379608154297,-26.815059661865234,8.121131896972656,61.9525260925293,-29.044410705566406,-57.822357177734375,-19.5,-48.30000305175781,7.950000286102295
4.416,81.01978302001953,-20.877439498901367,6.358999729156494,85.93415069580078,-42.36753463745117,-56.62327575683594,-18.75,-47.55000305175781,9.90000057220459
4.426,82.16899871826172,-15.399505615234375,6.473921298980713,107.91730499267578,-45.831546783447266,-55.02450180053711,-19.05000114440918,-47.85000228881836,9.90000057220459
4.438,80.52178955078125,-11.990161895751953,8.504204750061035,135.76263427734375,-53.42572784423828,-65.54976654052734,-19.05000114440918,-47.55000305175781,9.90000057220459
4.446,78.07012939453125,-8.35097599029541,9.653421401977539,155.21438598632812,-66.61561584472656,-57.822357177734375,-19.05000114440918,-47.55000305175781,9.90000057220459
4.456,77.30398559570312,-8.96389102935791,9.998186111450195,184.92495727539062,-77.4073486328125,-53.82542037963867,-20.400001525878906,-47.70000076293945,10.050000190734863
4.466,77.91690063476562,-8.274360656738281,9.921571731567383,199.5803985595703,-85.4012222290039,-45.43185043334961,-20.700000762939453,-48.0,11.100000381469727
4.476,74.77571105957031,-9.959878921508789,11.836933135986328,210.90504455566406,-82.6033706665039,-50.76110076904297,-19.650001525878906,-47.25,11.100000381469727
4.495,73.81802368164062,-12.641385078430176,12.526463508605957,233.82081604003906,-93.12863159179688,-40.635528564453125,-20.400001525878906,-46.5,12.600000381469727
4.499,73.43495178222656,-13.828908920288086,13.330915451049805,248.60948181152344,-106.05206298828125,-41.035221099853516,-21.75,-47.55000305175781,12.0
4.506,73.7031021118164,-16.58702850341797,15.705963134765625,252.20672607421875,-102.05513000488281,-55.15773391723633,-21.75,-47.55000305175781,12.0
4.516,73.51156616210938,-18.04270362854004,17.659631729125977,264.4640197753906,-116.9770278930664,-44.36600112915039,-22.80000114440918,-46.650001525878906,14.250000953674316
4.526,72.59219360351562,-19.958065032958984,17.697938919067383,269.52679443359375,-121.3736572265625,-39.83613967895508,-22.650001525878906,-47.70000076293945,14.100000381469727
4.536,71.97927856445312,-20.95405387878418,18.847156524658203,265.1301574707031,-115.64471435546875,-57.02296829223633,-22.950000762939453,-46.95000076293945,14.850000381469727
4.556,71.1748275756836,-21.835119247436523,20.30282974243164,274.45635986328125,-117.9096450805664,-46.764163970947266,-21.75,-45.150001525878906,15.450000762939453
4.559,74.46924591064453,-24.59324073791504,21.911733627319336,272.59112548828125,-119.7748794555664,-67.28177642822266,-21.75,-45.900001525878906,15.750000953674316
4.566,76.95922088623047,-27.27474594116211,25.5892276763916,265.52984619140625,-122.43950653076172,-68.61408996582031,-21.75,-45.900001525878906,15.750000953674316
4.576,77.57213592529297,-28.807035446166992,25.81907081604004,241.814697265625,-114.3124008178711,-73.27718353271484,-23.55000114440918,-45.60000228881836,15.750000953674316
4.586,78.10843658447266,-30.0711727142334,26.278757095336914,235.4196014404297,-122.03981018066406,-71.67840576171875,-23.700000762939453,-44.55000305175781,16.650001525878906
4.596,76.65276336669922,-30.60747528076172,25.70414924621582,229.5574188232422,-124.70443725585938,-75.14241790771484,-25.500001907348633,-44.400001525878906,17.55000114440918
4.616,75.81000518798828,-29.381643295288086,23.63555908203125,213.70291137695312,-108.71669006347656,-86.0673828125,-25.500001907348633,-44.400001525878906,17.55000114440918
4.619,73.54987335205078,-28.423961639404297,20.685903549194336,210.63858032226562,-116.57733154296875,-87.39968872070312,-25.80000114440918,-44.400001525878906,17.25
4.626,74.43093872070312,-27.389667510986328,18.693927764892578,206.37518310546875,-111.91423797607422,-88.46553802490234,-25.80000114440918,-44.400001525878906,17.25
4.636,73.89463806152344,-26.278757095336914,18.54069709777832,193.7182159423828,-116.17764282226562,-95.26033782958984,-26.700000762939453,-43.80000305175781,17.100000381469727
4.646,72.4006576538086,-25.780763626098633,19.115306854248047,183.85910034179688,-117.9096450805664,-90.33078002929688,-26.55000114440918,-42.45000076293945,19.5
4.656,72.66880798339844,-24.171859741210938,16.510414123535156,166.00611877441406,-110.31546783447266,-99.12403869628906,-26.250001907348633,-43.650001525878906,17.55000114440918
4.675,71.36636352539062,-25.244462966918945,16.35718536376953,156.14700317382812,-113.77947998046875,-90.86370086669922,-26.250001907348633,-43.650001525878906,17.55000114440918
4.678,69.3743896484375,-22.984336853027344,15.054739952087402,140.95864868164062,-119.64165496826172,-95.52679443359375,-28.200000762939453,-40.650001525878906,18.900001525878906
4.686,67.72718048095703,-21.490354537963867,13.48414421081543,130.69984436035156,-116.71056365966797,-104.5865249633789,-28.200000762939453,-40.650001525878906,18.900001525878906
4.696,68.07194519042969,-20.034679412841797,13.905523300170898,130.43338012695312,-120.4410400390625,-86.20060729980469,-28.80000114440918,-41.25,18.30000114440918
4.706,65.9267349243164,-18.464082717895508,12.334927558898926,126.83613586425781,-119.64165496826172,-92.06278228759766,-30.30000114440918,-41.70000076293945,19.5
4.716,65.19889831542969,-17.31486701965332,12.756306648254395,119.90811157226562,-112.04747009277344,-98.32465362548828,-30.30000114440918,-41.70000076293945,19.5
4.736,64.73921203613281,-14.403517723083496,13.10107135772705,126.03675079345703,-117.50994873046875,-93.79479217529297,-30.150001525878906,-39.60000228881836,18.900001525878906
4.739,66.07996368408203,-16.70195198059082,13.943830490112305,119.90811157226562,-111.91423797607422,-94.46094512939453,-31.650001525878906,-39.900001525878906,17.400001525878906
4.746,65.19889831542969,-15.131354331970215,13.254301071166992,113.24655151367188,-104.85298156738281,-97.12557220458984,-31.200000762939453,-38.400001525878906,18.150001525878906
4.756,65.888427734375,-16.395492553710938,11.990161895751953,108.84992218017578,-99.12403869628906,-106.4517593383789,-31.200000762939453,-38.400001525878906,18.150001525878906
4.766,65.54366302490234,-16.510414123535156,10.572794914245605,118.17610931396484,-96.05972290039062,-98.99080657958984,-31.200000762939453,-38.400001525878906,18.150001525878906
4.776,64.89244079589844,-18.54069709777832,10.342951774597168,108.050537109375,-90.99693298339844,-118.17610931396484,-31.05000114440918,-39.0,17.25
4.795,66.69288635253906,-20.30282974243164,11.91354751586914,100.72281646728516,-89.93108367919922,-134.29708862304688,-31.950000762939453,-36.45000076293945,18.900001525878906
4.799,66.61626434326172,-18.962078094482422,9.921571731567383,69.4134750366211,-87.79938507080078,-132.43185424804688,-31.950000762939453,-37.650001525878906,18.450000762939453
4.806,67.88040924072266,-18.732234954833984,8.159439086914062,49.42878723144531,-82.47013854980469,-123.2388916015625,-32.55000305175781,-35.10000228881836,18.0
4.816,69.18285369873047,-16.740259170532227,4.903325080871582,17.986217498779297,-61.41960144042969,-111.38131713867188,-32.55000305175781,-35.10000228881836,18.0
4.826,70.86837005615234,-14.288596153259277,-1.1875240802764893,2.398162364959717,-40.76875686645508,-109.38284301757812,-31.500001907348633,-36.60000228881836,16.80000114440918
4.836,73.24341583251953,-10.381258964538574,-2.911349296569824,-5.728943347930908,-36.10566711425781,-100.05665588378906,-34.5,-34.35000228881836,16.5
4.849,76.537841796875,-8.389283180236816,-3.332728862762451,-4.929555892944336,-27.31240463256836,-102.58805084228516,-33.0,-34.80000305175781,16.5
4.856,81.05809020996094,-6.01423454284668,-4.252102375030518,-11.724349021911621,-9.459418296813965,-101.38896942138672,-34.650001525878906,-34.5,17.100000381469727
4.866,82.0923843383789,-2.873042106628418,-5.439626216888428,-8.260336875915527,-20.650842666625977,-84.06890869140625,-34.650001525878906,-34.5,17.100000381469727
4.876,82.20730590820312,0.2298433631658554,-4.865017890930176,6.9280242919921875,-13.456355094909668,-82.6033706665039,-33.30000305175781,-33.900001525878906,16.5
4.886,82.0540771484375,1.4939818382263184,-6.358999729156494,13.856048583984375,-3.0643184185028076,-78.60643005371094,-34.20000076293945,-34.20000076293945,18.450000762939453
4.896,82.85853576660156,3.600879430770874,-6.780379295349121,14.522205352783203,-1.3323123455047607,-54.4915771484375,-34.95000076293945,-33.75,17.100000381469727
4.912,83.96944427490234,3.9456443786621094,-6.665457725524902,27.31240463256836,-7.06125545501709,-21.316997528076172,-33.900001525878906,-32.25,17.100000381469727
4.916,83.93113708496094,5.171475887298584,-6.512228488922119,23.448698043823242,4.929555892944336,-28.111791610717773,-33.900001525878906,-32.25,17.100000381469727
4.926,82.78192138671875,4.32871675491333,-5.975927352905273,28.911178588867188,12.656967163085938,-15.721285820007324,-35.70000076293945,-32.25,17.400001525878906
4.936,82.4371566772461,3.1028854846954346,-5.056553840637207,32.108726501464844,3.197549819946289,-6.794793128967285,-34.95000076293945,-32.55000305175781,17.100000381469727
4.946,82.36053466796875,2.2218191623687744,-5.822698593139648,20.38437843322754,5.196018218994141,-5.995405673980713,-33.900001525878906,-32.55000305175781,17.700000762939453
4.965,81.67100524902344,-1.1875240802764893,-4.520252704620361,10.392036437988281,10.92496109008789,-0.7993874549865723,-33.75,-31.650001525878906,17.25
4.969,81.36454772949219,-3.179499864578247,-4.8267107009887695,-6.5283308029174805,18.78560447692871,5.728943347930908,-33.30000305175781,-31.650001525878906,18.0
4.976,81.01978302001953,-3.026270866394043,-4.175487995147705,-5.595712184906006,13.722817420959473,21.45022964477539,-33.30000305175781,-31.650001525878906,18.0
4.986,81.4028549194336,-5.1331682205200195,-4.941632270812988,-24.51454734802246,20.784072875976562,15.987748146057129,-33.45000076293945,-32.25,17.100000381469727
4.996,81.90084838867188,-3.9839515686035156,-5.018246650695801,-42.500762939453125,24.914241790771484,16.387441635131836,-34.650001525878906,-31.500001907348633,18.450000762939453
5.006,81.28793334960938,-5.975927352905273,-6.167463779449463,-46.63093185424805,25.980091094970703,28.24502182006836,-33.900001525878906,-31.500001907348633,17.400001525878906
5.025,80.29194641113281,-6.89530086517334,-5.286397457122803,-69.67993927001953,30.776416778564453,23.04900360107422,-33.900001525878906,-32.55000305175781,18.150001525878906
5.029,79.83226013183594,-4.941632270812988,-4.098873138427734,-88.19908142089844,36.5053596496582,23.581928253173828,-33.900001525878906,-32.55000305175781,18.150001525878906
5.036,82.85853576660156,-4.63517427444458,-3.7158010005950928,-85.53445434570312,29.444103240966797,25.7136287689209,-33.75,-31.650001525878906,17.55000114440918
5.046,86.42110443115234,-5.1331682205200195,-3.754108190536499,-105.38591003417969,51.4272575378418,18.119447708129883,-33.45000076293945,-31.05000114440918,18.150001525878906
5.056,92.090576171875,-6.052541732788086,-2.298433542251587,-117.77641296386719,55.29096221923828,26.64624786376953,-33.30000305175781,-32.400001525878906,18.0
5.066,97.6451187133789,-5.20978307723999,-2.2601263523101807,-130.96630859375,58.222049713134766,34.906585693359375,-33.30000305175781,-30.900001525878906,16.5
5.086,100.70970153808594,-5.822698593139648,-1.455674648284912,-133.89739990234375,53.29249572753906,51.027565002441406,-33.30000305175781,-30.900001525878906,16.5
5.089,101.7056884765625,-5.20978307723999,-1.072602391242981,-139.7595672607422,54.89126968383789,56.356815338134766,-33.900001525878906,-31.500001907348633,17.100000381469727
5.096,96.26605987548828,-6.703764915466309,1.6855180263519287,-140.02603149414062,63.81776428222656,72.34455871582031,-31.500001907348633,-32.400001525878906,16.5
5.106,93.39302062988281,-5.286397457122803,2.4899697303771973,-139.89280700683594,67.41500854492188,75.00918579101562,-31.650001525878906,-31.80000114440918,15.90000057220459
5.116,89.40906524658203,-7.163451671600342,6.205770969390869,-119.5084228515625,46.497703552246094,80.20520782470703,-31.05000114440918,-30.450000762939453,16.80000114440918
5.126,86.30618286132812,-9.461885452270508,7.546523571014404,-111.91423797607422,44.36600112915039,73.9433364868164,-29.250001907348633,-31.200000762939453,16.80000114440918
5.145,81.86254119873047,-14.250288963317871,7.1251444816589355,-112.71363067626953,37.97090148925781,70.74578857421875,-29.250001907348633,-31.200000762939453,16.80000114440918
5.15,77.99351501464844,-19.268535614013672,5.5545477867126465,-118.70903015136719,33.97396469116211,86.3338394165039,-31.500001907348633,-32.85000228881836,15.450000762939453
5.156,71.59620666503906,-23.290794372558594,4.481945514678955,-124.17151641845703,36.10566711425781,75.67534637451172,-30.900001525878906,-33.0,16.650001525878906
5.166,70.21714782714844,-24.631547927856445,3.141192674636841,-135.62939453125,47.696781158447266,74.60948944091797,-28.80000114440918,-31.200000762939453,15.750000953674316
5.176,68.95301055908203,-24.516624450683594,3.5242648124694824,-130.03369140625,44.89892578125,76.20826721191406,-26.700000762939453,-31.500001907348633,16.650001525878906
5.186,68.83808898925781,-24.13355255126953,4.175487995147705,-132.9647674560547,48.76263427734375,83.00305938720703,-26.700000762939453,-31.500001907348633,16.650001525878906
5.206,69.10623931884766,-23.3291015625,3.869029998779297,-134.69677734375,56.49004364013672,94.59417724609375,-26.700000762939453,-31.05000114440918,14.100000381469727
5.209,69.60423278808594,-24.05693817138672,5.861005783081055,-117.11026000976562,50.4946403503418,91.66309356689453,-26.700000762939453,-31.05000114440918,14.100000381469727
5.216,69.91069030761719,-25.70414924621582,4.903325080871582,-117.37671661376953,49.96171569824219,83.40275573730469,-25.05000114440918,-31.200000762939453,13.200000762939453
5.226,69.45100402832031,-27.504589080810547,3.907337188720703,-117.37671661376953,46.497703552246094,80.47166442871094,-24.750001907348633,-30.900001525878906,13.200000762939453
5.236,68.87639617919922,-30.224401473999023,4.443638324737549,-118.44257354736328,53.42572784423828,63.684532165527344,-24.750001907348633,-30.900001525878906,13.200000762939453
5.246,69.87238311767578,-31.948226928710938,4.252102375030518,-118.17610931396484,51.160797119140625,62.618682861328125,-24.750001907348633,-30.900001525878906,13.200000762939453
5.265,70.90667724609375,-33.7869758605957,4.903325080871582,-126.16998291015625,53.42572784423828,68.34762573242188,-21.900001525878906,-32.25,10.800000190734863
5.269,74.96724700927734,-32.86759948730469,5.363011837005615,-131.7657012939453,64.88361358642578,54.35834503173828,-20.25,-29.700000762939453,10.950000762939453
5.276,76.19307708740234,-32.9442138671875,3.907337188720703,-145.35528564453125,65.949462890625,53.42572784423828,-19.950000762939453,-32.25,9.75
5.286,77.22737121582031,-31.565155029296875,4.137180328369141,-149.3522186279297,63.018375396728516,47.696781158447266,-18.900001525878906,-32.55000305175781,10.800000190734863
5.296,77.1124496459961,-29.573179244995117,4.060565948486328,-159.3445587158203,68.4808578491211,56.22358322143555,-18.900001525878906,-32.55000305175781,10.800000190734863
5.306,76.99752807617188,-27.811046600341797,3.754108190536499,-171.3353729248047,75.00918579101562,49.16232681274414,-17.55000114440918,-33.60000228881836,7.650000095367432
5.326,79.14273071289062,-24.78477668762207,1.4939818382263184,-172.40121459960938,66.61561584472656,54.4915771484375,-16.80000114440918,-32.85000228881836,6.600000381469727
5.329,77.763671875,-20.76251792907715,-1.1875240802764893,-172.6676788330078,66.61561584472656,69.28024291992188,-14.550000190734863,-33.900001525878906,7.950000286102295
5.336,77.45721435546875,-20.609289169311523,-0.9193734526634216,-173.0673828125,63.28483963012695,69.81317138671875,-14.550000190734863,-33.900001525878906,7.950000286102295
5.346,75.3503189086914,-18.54069709777832,-1.6089035272598267,-164.80703735351562,63.418067932128906,83.00305938720703,-14.550000190734863,-33.900001525878906,7.950000286102295
5.356,74.08617401123047,-17.276559829711914,-2.183511972427368,-153.21592712402344,47.696781158447266,81.13782501220703,-13.050000190734863,-36.30000305175781,6.150000095367432
5.366,74.92893981933594,-14.326903343200684,-3.8307228088378906,-150.2848358154297,57.55589294433594,88.46553802490234,-13.500000953674316,-37.5,6.900000095367432
5.379,75.23539733886719,-13.024456977844238,-1.8387469053268433,-140.29249572753906,49.29555892944336,88.73200225830078,-11.550000190734863,-37.5,6.600000381469727
5.386,75.3503189086914,-13.637372970581055,-1.1492167711257935,-127.76875305175781,43.69984436035156,97.5252685546875,-11.550000190734863,-37.5,6.600000381469727
5.396,76.00154113769531,-14.403517723083496,-0.689530074596405,-122.70597076416016,43.43338394165039,109.64930725097656,-11.550000190734863,-37.5,6.600000381469727
5.406,76.03984832763672,-16.05072784423828,1.3024457693099976,-128.3016815185547,45.298622131347656,94.72740936279297,-11.550000190734863,-37.5,6.600000381469727
5.416,75.58016204833984,-16.203956604003906,0.2298433631658554,-127.63552856445312,34.906585693359375,109.24961853027344,-9.0,-39.75,5.100000381469727
5.434,74.12448120117188,-17.276559829711914,0.1149216815829277,-116.31086730957031,26.912710189819336,106.18529510498047,-8.550000190734863,-41.70000076293945,3.9000000953674316
5.439,72.59219360351562,-17.697938919067383,-3.5625722408294678,-118.97549438476562,31.44257164001465,93.39509582519531,-7.800000190734863,-41.70000076293945,5.100000381469727
5.446,71.09821319580078,-18.34916114807129,-5.592854976654053,-110.848388671875,29.977027893066406,98.99080657958984,-7.800000190734863,-41.70000076293945,5.100000381469727
5.456,68.99131774902344,-17.00840950012207,-6.205770969390869,-103.38744354248047,26.64624786376953,92.59571075439453,-7.800000190734863,-41.70000076293945,5.100000381469727
5.466,70.17884063720703,-18.004396438598633,-5.1331682205200195,-98.05818939208984,19.31852912902832,87.26646423339844,-7.200000286102295,-44.55000305175781,3.450000047683716
5.476,70.94498443603516,-14.480132102966309,-5.477933406829834,-98.59111785888672,23.98162269592285,86.0673828125,-7.050000190734863,-45.900001525878906,4.650000095367432
5.495,70.48529815673828,-15.591041564941406,-3.869029998779297,-85.26799011230469,14.522205352783203,90.86370086669922,-6.150000095367432,-47.70000076293945,3.750000238418579
5.499,71.09821319580078,-13.675680160522461,-2.2218191623687744,-79.0061264038086,9.72588062286377,86.46707153320312,-5.700000286102295,-47.25,4.950000286102295
5.506,70.37037658691406,-16.433799743652344,-3.8307228088378906,-77.94027709960938,14.655436515808105,78.20673370361328,-5.700000286102295,-47.25,4.950000286102295
5.516,70.29376220703125,-15.782577514648438,-4.213795185089111,-69.4134750366211,17.852985382080078,66.74884796142578,-4.650000095367432,-49.95000076293945,5.700000286102295
5.526,69.48931121826172,-16.931795120239258,-5.094861030578613,-57.822357177734375,13.456355094909668,75.5421142578125,-6.900000095367432,-50.400001525878906,4.950000286102295
5.537,67.38241577148438,-18.847156524658203,-6.01423454284668,-69.54670715332031,18.78560447692871,93.79479217529297,-7.500000476837158,-54.900001525878906,5.850000381469727
5.556,67.11426544189453,-18.464082717895508,-3.754108190536499,-60.35375213623047,22.116384506225586,88.59877014160156,-5.700000286102295,-52.650001525878906,6.300000190734863
5.559,65.81181335449219,-19.68991470336914,-5.669469833374023,-69.14701080322266,28.111791610717773,51.29402542114258,-5.700000286102295,-52.650001525878906,6.300000190734863
5.566,68.1485595703125,-20.95405387878418,-5.363011837005615,-66.61561584472656,25.580398559570312,55.55742645263672,-5.700000286102295,-52.650001525878906,6.300000190734863
5.576,68.26348114013672,-21.6818904876709,-4.32871675491333,-72.87748718261719,35.17304611206055,44.49923324584961,-7.800000190734863,-55.35000228881836,6.0
5.586,70.10222625732422,-20.532672882080078,-3.6391866207122803,-78.47319793701172,35.972434997558594,41.83460998535156,-6.900000095367432,-56.250003814697266,8.550000190734863
5.596,72.05589294433594,-19.843143463134766,-2.719813108444214,-80.60489654541016,20.784072875976562,48.362937927246094,-8.25,-57.150001525878906,9.15000057220459
5.616,73.89463806152344,-18.081010818481445,-2.3750481605529785,-74.34303283691406,19.45176124572754,42.76722717285156,-8.25,-57.150001525878906,9.15000057220459
5.62,74.85232543945312,-15.629348754882812,-4.32871675491333,-74.07656860351562,33.30780792236328,33.30780792236328,-10.800000190734863,-57.900001525878906,9.90000057220459
5.626,77.53382873535156,-12.258312225341797,-5.363011837005615,-64.61714935302734,25.980091094970703,37.70444107055664,-10.050000190734863,-58.650001525878906,11.40000057220459
5.636,78.22335815429688,-11.262324333190918,-6.129156112670898,-50.76110076904297,24.51454734802246,36.372127532958984,-12.0,-57.60000228881836,11.40000057220459
5.646,80.63671112060547,-10.074800491333008,-5.018246650695801,-37.03828430175781,22.649311065673828,43.30015182495117,-12.0,-57.900001525878906,13.500000953674316
5.656,81.441162109375,-10.994174003601074,-4.941632270812988,-33.30780792236328,21.316997528076172,31.176109313964844,-12.0,-57.900001525878906,13.500000953674316
5.676,83.77790832519531,-13.943830490112305,-6.129156112670898,-16.65390396118164,19.31852912902832,32.5084228515625,-13.950000762939453,-58.20000076293945,12.300000190734863
5.679,85.5783462524414,-13.407529830932617,-3.754108190536499,-17.986217498779297,25.980091094970703,19.85145378112793,-15.300000190734863,-56.70000076293945,11.700000762939453
5.686,86.84248352050781,-15.85919189453125,-4.252102375030518,-13.58958625793457,18.385910034179688,12.656967163085938,-16.05000114440918,-56.70000076293945,14.250000953674316
5.696,86.7275619506836,-17.00840950012207,-4.865017890930176,0.6661561727523804,12.124042510986328,22.116384506225586,-16.80000114440918,-56.400001525878906,14.700000762939453
5.706,86.38279724121094,-15.284584045410156,-4.8267107009887695,9.859111785888672,16.387441635131836,13.989279747009277,-17.55000114440918,-57.150001525878906,12.0
5.716,85.5783462524414,-14.326903343200684,-5.094861030578613,6.9280242919921875,25.846860885620117,9.592649459838867,-17.55000114440918,-57.150001525878906,12.0
5.735,85.80818939208984,-15.169661521911621,-4.63517427444458,10.658498764038086,22.116384506225586,3.9969370365142822,-18.30000114440918,-55.95000076293945,13.500000953674316
5.739,86.61264038085938,-16.242263793945312,-5.363011837005615,19.052066802978516,11.990811347961426,6.9280242919921875,-17.55000114440918,-54.45000076293945,13.200000762939453
5.746,80.10041046142578,-15.705963134765625,-4.941632270812988,26.779478073120117,16.12097930908203,3.86370587348938,-19.650001525878906,-53.55000305175781,14.850000381469727
5.756,83.20330047607422,-14.518439292907715,-1.1875240802764893,39.16998291015625,21.716691970825195,-1.9984685182571411,-19.950000762939453,-52.35000228881836,13.350000381469727
5.766,89.44737243652344,-16.35718536376953,6.090848922729492,58.754974365234375,7.327718257904053,1.0658499002456665,-19.950000762939453,-52.35000228881836,13.350000381469727
5.776,92.47364807128906,-19.881450653076172,9.959878921508789,63.81776428222656,0.5329249501228333,-11.324655532836914,-21.0,-53.70000076293945,14.250000953674316
5.795,94.00593566894531,-27.58120346069336,7.814674377441406,61.81929397583008,13.056661605834961,-29.7105655670166,-20.400001525878906,-53.55000305175781,12.600000381469727
5.799,92.39703369140625,-38.728607177734375,1.9536685943603516,73.81010437011719,11.857580184936523,-43.16691970825195,-21.150001525878906,-53.10000228881836,12.600000381469727
5.806,90.67321014404297,-39.26490783691406,0.5746083855628967,86.73353576660156,-1.0658499002456665,-49.42878723144531,-18.900001525878906,-51.60000228881836,13.350000381469727
5.816,89.44737243652344,-40.22258758544922,0.8810662031173706,75.8085708618164,11.724349021911621,-56.62327575683594,-18.900001525878906,-51.60000228881836,13.350000381469727
5.826,89.02599334716797,-35.817256927490234,0.8044517636299133,78.60643005371094,7.9938740730285645,-69.4134750366211,-18.900001525878906,-51.60000228881836,13.350000381469727
5.836,86.84248352050781,-32.484527587890625,1.6089035272598267,83.80245208740234,-4.529861927032471,-62.085758209228516,-21.150001525878906,-49.95000076293945,14.100000381469727
5.852,82.70530700683594,-29.917943954467773,1.1492167711257935,99.79019927978516,-7.460949420928955,-74.60948944091797,-20.400001525878906,-51.150001525878906,14.850000381469727
5.856,78.22335815429688,-30.60747528076172,1.3407529592514038,99.12403869628906,1.0658499002456665,-79.9387435913086,-21.900001525878906,-49.650001525878906,14.850000381469727
5.866,78.72135162353516,-31.335311889648438,1.072602391242981,106.58499145507812,0.0,-87.0,-21.900001525878906,-50.85000228881836,14.40000057220459
5.876,79.29595947265625,-30.224401473999023,1.7621324062347412,120.4410400390625,-13.58958625793457,-79.67227935791016,-21.900001525878906,-50.85000228881836,14.40000057220459
5.886,80.94316864013672,-30.760704040527344,3.3710360527038574,133.49769592285156,-24.914241790771484,-90.73047637939453,-22.200000762939453,-50.85000228881836,15.90000057220459
5.896,81.36454772949219,-29.381643295288086,5.937620162963867,128.03521728515625,-29.977027893066406,-97.7917251586914,-23.25,-49.80000305175781,16.5
5.915,82.66699981689453,-26.54690933227539,7.086836814880371,151.084228515625,-52.89280319213867,-86.3338394165039,-23.25,-49.500003814697266,15.750000953674316
5.919,81.4028549194336,-18.502389907836914,5.439626216888428,158.9448699951172,-53.026031494140625,-78.20673370361328,-23.25,-49.500003814697266,15.750000953674316
5.926,80.06210327148438,-17.774553298950195,4.8267107009887695,174.1332244873047,-65.68299865722656,-76.74119567871094,-23.25,-49.500003814697266,15.750000953674316
5.936,78.72135162353516,-14.97812557220459,4.750096321105957,187.98927307128906,-70.3460922241211,-68.4808578491211,-24.450000762939453,-49.20000076293945,17.400001525878906
5.946,75.65677642822266,-13.599065780639648,5.669469833374023,224.22817993164062,-80.8713607788086,-63.151607513427734,-23.55000114440918,-47.55000305175781,16.5
5.964,74.77571105957031,-13.752294540405273,7.661445617675781,240.34915161132812,-93.52832794189453,-51.82695007324219,-25.200000762939453,-48.0,20.400001525878906
5.968,72.89865112304688,-13.79060173034668,9.423578262329102,266.595703125,-97.7917251586914,-47.163856506347656,-25.500001907348633,-48.30000305175781,18.75
5.976,72.82203674316406,-17.31486701965332,12.871228218078613,270.45941162109375,-105.38591003417969,-45.298622131347656,-25.500001907348633,-48.30000305175781,18.75
5.986,74.3160171508789,-20.877439498901367,15.897499084472656,274.056640625,-119.7748794555664,-39.70290756225586,-25.500001907348633,-48.30000305175781,18.75
5.996,73.85633087158203,-26.66183090209961,16.395492553710938,259.4012145996094,-120.57427215576172,-48.76263427734375,-26.400001525878906,-46.95000076293945,19.950000762939453
6.006,73.89463806152344,-31.641769409179688,17.42978858947754,247.8101043701172,-130.56661987304688,-60.88667678833008,-26.700000762939453,-46.95000076293945,21.150001525878906
6.024,72.59219360351562,-32.369606018066406,17.31486701965332,237.2848358154297,-140.5589599609375,-65.81623077392578,-27.000001907348633,-46.35000228881836,19.80000114440918
6.029,74.6607894897461,-32.982521057128906,17.544710159301758,227.82540893554688,-142.69065856933594,-73.81010437011719,-25.950000762939453,-45.30000305175781,19.650001525878906
6.036,74.3160171508789,-31.948226928710938,14.97812557220459,206.24195861816406,-135.62939453125,-72.61102294921875,-25.950000762939453,-45.30000305175781,19.650001525878906
6.046,73.0135726928711,-31.83330535888672,14.786589622497559,196.51608276367188,-134.29708862304688,-83.80245208740234,-27.000001907348633,-43.95000076293945,22.350000381469727
6.056,73.39664459228516,-31.986534118652344,14.67166805267334,191.32005310058594,-137.62786865234375,-86.3338394165039,-27.000001907348633,-44.400001525878906,21.30000114440918
6.066,73.35833740234375,-29.419950485229492,12.181697845458984,167.6049041748047,-124.57120513916016,-95.39356231689453,-27.750001907348633,-43.95000076293945,21.30000114440918
6.085,73.24341583251953,-31.067161560058594,12.48815631866455,164.4073486328125,-135.76263427734375,-99.3905029296875,-27.150001525878906,-43.80000305175781,21.450000762939453
6.089,72.13250732421875,-30.032865524291992,12.717999458312988,143.3568115234375,-129.36753845214844,-101.65543365478516,-27.150001525878906,-43.80000305175781,21.450000762939453
6.096,70.52360534667969,-29.95625114440918,10.41956615447998,128.16845703125,-123.9050521850586,-110.44869232177734,-27.750001907348633,-42.45000076293945,21.30000114440918
6.106,67.99533081054688,-29.726408004760742,9.883264541625977,125.37059783935547,-120.4410400390625,-114.97856140136719,-28.500001907348633,-41.70000076293945,22.05000114440918
6.116,65.81181335449219,-30.415939331054688,7.4316020011901855,117.64318084716797,-126.83613586425781,-118.8422622680664,-29.400001525878906,-41.10000228881836,21.150001525878906
6.126,64.66259765625,-29.266721725463867,6.780379295349121,112.4471664428711,-126.96936798095703,-129.90045166015625,-29.400001525878906,-41.10000228881836,19.950000762939453
6.146,64.47106170654297,-29.266721725463867,8.389283180236816,91.79632568359375,-107.51760864257812,-138.56048583984375,-29.250001907348633,-40.5,22.05000114440918
6.15,61.52140808105469,-28.002582550048828,7.891288757324219,80.20520782470703,-109.24961853027344,-145.88819885253906,-30.900001525878906,-38.400001525878906,21.150001525878906
6.156,63.51338195800781,-26.048913955688477,7.661445617675781,76.74119567871094,-105.5191421508789,-139.2266387939453,-30.900001525878906,-38.400001525878906,21.150001525878906
6.166,63.55168914794922,-24.018630981445312,6.818686485290527,58.222049713134766,-92.72894287109375,-133.09800720214844,-31.500001907348633,-38.25,20.100000381469727
6.176,64.81582641601562,-22.677879333496094,6.550535678863525,46.764163970947266,-86.60030364990234,-138.56048583984375,-30.750001907348633,-38.25,20.55000114440918
6.186,64.31783294677734,-22.524648666381836,4.558559894561768,41.83460998535156,-81.40428924560547,-140.1592559814453,-33.150001525878906,-37.20000076293945,18.900001525878906
6.205,64.81582641601562,-23.13756561279297,3.179499864578247,33.57427215576172,-79.9387435913086,-133.23123168945312,-33.150001525878906,-37.20000076293945,18.900001525878906
6.209,64.81582641601562,-21.107282638549805,4.290409564971924,18.119447708129883,-83.40275573730469,-142.29095458984375,-33.30000305175781,-35.85000228881836,20.55000114440918
6.216,65.16059112548828,-19.49837875366211,3.869029998779297,4.796324729919434,-74.20980072021484,-144.95558166503906,-33.30000305175781,-35.85000228881836,20.55000114440918
6.226,64.85413360595703,-18.310853958129883,4.060565948486328,-7.194486618041992,-75.5421142578125,-144.82235717773438,-32.70000076293945,-37.95000076293945,19.950000762939453
6.236,65.16059112548828,-15.591041564941406,3.8307228088378906,-29.444103240966797,-60.62021255493164,-133.09800720214844,-33.150001525878906,-34.5,18.150001525878906
6.246,65.2372055053711,-8.542511940002441,1.1875240802764893,-38.63705825805664,-66.74884796142578,-136.16232299804688,-33.150001525878906,-34.5,18.150001525878906
6.265,67.30580139160156,-5.363011837005615,-2.451662540435791,-45.298622131347656,-57.289432525634766,-112.71363067626953,-35.25,-34.80000305175781,17.25
6.269,70.52360534667969,-0.6512228846549988,-6.205770969390869,-39.9693717956543,-49.96171569824219,-107.25114440917969,-34.650001525878906,-33.45000076293945,20.400001525878906
6.276,70.67683410644531,-1.9919757843017578,-6.129156112670898,-43.69984436035156,-41.83460998535156,-108.050537109375,-34.650001525878906,-33.45000076293945,20.400001525878906
6.286,71.8260498046875,0.6129156351089478,-4.32871675491333,-23.848390579223633,-46.497703552246094,-93.92802429199219,-35.25,-34.35000228881836,18.75
6.296,73.7031021118164,2.911349296569824,-5.631162166595459,-19.584991455078125,-51.560489654541016,-89.39816284179688,-35.55000305175781,-31.950000762939453,18.30000114440918
6.306,75.2737045288086,4.175487995147705,-6.3973069190979,-17.586523056030273,-38.77029037475586,-79.13935852050781,-35.55000305175781,-31.950000762939453,18.30000114440918
6.326,76.19307708740234,4.290409564971924,-6.512228488922119,-11.457886695861816,-39.43644714355469,-76.87442779541016,-36.150001525878906,-32.55000305175781,16.650001525878906
6.33,79.44918823242188,6.780379295349121,-7.5848307609558105,-7.9938740730285645,-37.03828430175781,-51.560489654541016,-36.150001525878906,-33.45000076293945,17.400001525878906
6.336,79.18103790283203,5.822698593139648,-7.4316020011901855,-13.323123931884766,-28.77794647216797,-48.49617004394531,-36.150001525878906,-33.45000076293945,17.400001525878906
6.346,80.59840393066406,6.971915245056152,-8.312667846679688,-13.056661605834961,-22.649311065673828,-45.831546783447266,-37.5,-31.950000762939453,17.25
6.356,82.70530700683594,7.8529815673828125,-10.764330863952637,-8.526799201965332,-27.71209716796875,-36.372127532958984,-37.5,-31.950000762939453,17.25
6.366,84.8888168334961,8.887276649475098,-11.798625946044922,-6.794793128967285,-16.387441635131836,-29.7105655670166,-34.5,-32.85000228881836,16.5
6.378,85.38681030273438,8.887276649475098,-11.41555404663086,-10.258805274963379,-3.597243309020996,-13.722817420959473,-37.650001525878906,-31.500001907348633,17.100000381469727
6.386,86.7275619506836,10.074800491333008,-13.867216110229492,0.1332312375307083,2.9310872554779053,-10.658498764038086,-36.30000305175781,-32.400001525878906,17.25
6.396,87.72354888916016,10.5344877243042,-13.943830490112305,13.056661605834961,8.39356803894043,4.929555892944336,-36.30000305175781,-32.400001525878906,17.25
6.406,90.40505981445312,9.385271072387695,-13.177685737609863,13.856048583984375,17.32006072998047,-5.462480545043945,-36.30000305175781,-32.400001525878906,17.25
6.416,91.36273956298828,9.53849983215332,-13.21599292755127,23.448698043823242,19.85145378112793,14.12251091003418,-36.150001525878906,-32.25,17.400001525878906
6.426,93.8910140991211,6.665457725524902,-11.951854705810547,27.31240463256836,9.992342948913574,33.70750427246094,-36.0,-33.150001525878906,16.05000114440918
6.442,93.20148468017578,3.3710360527038574,-11.109095573425293,21.45022964477539,11.324655532836914,27.978559494018555,-37.650001525878906,-33.0,17.700000762939453
6.446,94.08255004882812,-2.2218191623687744,-9.883264541625977,20.91730499267578,9.459418296813965,17.453292846679688,-36.150001525878906,-31.80000114440918,17.100000381469727
6.456,95.1168441772461,-4.558559894561768,-11.41555404663086,9.72588062286377,13.989279747009277,16.387441635131836,-36.150001525878906,-31.80000114440918,17.100000381469727
6.466,101.01615905761719,-6.550535678863525,-11.645397186279297,-9.192955017089844,10.92496109008789,25.980091094970703,-36.0,-32.400001525878906,18.30000114440918
6.476,104.84687805175781,-7.086836814880371,-9.385271072387695,-48.362937927246094,16.920366287231445,16.920366287231445,-37.20000076293945,-33.0,18.450000762939453
6.495,107.83484649658203,-3.5242648124694824,-11.60708999633789,-62.75191116333008,30.24349021911621,36.10566711425781,-36.75,-31.950000762939453,19.05000114440918
6.499,105.95779418945312,2.5665841102600098,-17.42978858947754,-62.618682861328125,45.96477508544922,66.74884796142578,-37.95000076293945,-33.45000076293945,18.450000762939453
6.506,100.86293029785156,9.193734169006348,-20.379444122314453,-66.61561584472656,57.422664642333984,69.67993927001953,-37.95000076293945,-33.45000076293945,18.450000762939453
6.516,98.79434204101562,13.943830490112305,-17.544710159301758,-45.43185043334961,61.81929397583008,87.53292083740234,-35.25,-33.60000228881836,18.30000114440918
6.526,93.46963500976562,12.947842597961426,-12.48815631866455,-21.050535202026367,51.960182189941406,82.20367431640625,-36.900001525878906,-33.0,18.900001525878906
6.536,87.99169921875,7.7763671875,-7.469909191131592,14.522205352783203,23.315465927124023,92.06278228759766,-36.45000076293945,-34.95000076293945,18.150001525878906
6.556,82.13069152832031,-0.038307227194309235,-5.631162166595459,9.859111785888672,29.577335357666016,95.12710571289062,-35.25,-35.10000228881836,18.30000114440918
6.559,75.9249267578125,-9.040505409240723,-5.363011837005615,2.6646246910095215,21.45022964477539,93.39509582519531,-35.25,-35.10000228881836,18.30000114440918
6.566,67.84210205078125,-17.12333106994629,-0.689530074596405,3.86370587348938,16.25421142578125,101.9218978881836,-35.25,-35.10000228881836,18.30000114440918
6.576,63.62830352783203,-19.651607513427734,1.2641384601593018,-21.050535202026367,13.58958625793457,98.99080657958984,-34.20000076293945,-34.95000076293945,18.150001525878906
6.586,60.563724517822266,-20.724210739135742,2.5282769203186035,-45.831546783447266,17.32006072998047,105.78560638427734,-33.30000305175781,-35.85000228881836,19.05000114440918
6.596,55.660400390625,-18.962078094482422,-0.3447650372982025,-49.42878723144531,16.65390396118164,109.38284301757812,-34.650001525878906,-36.150001525878906,18.900001525878906
6.616,53.208740234375,-16.510414123535156,-2.298433542251587,-53.558956146240234,19.45176124572754,111.5145492553711,-33.900001525878906,-36.900001525878906,20.400001525878906
6.619,54.35795593261719,-15.476119995117188,-3.6774938106536865,-51.960182189941406,29.044410705566406,96.59264373779297,-33.900001525878906,-36.900001525878906,20.400001525878906
6.626,55.928550720214844,-14.633360862731934,-3.9839515686035156,-49.02909469604492,36.238895416259766,125.23736572265625,-34.20000076293945,-38.85000228881836,19.650001525878906
6.636,58.49513626098633,-16.81687355041504,-3.485957622528076,-28.111791610717773,25.447166442871094,124.17151641845703,-34.20000076293945,-36.900001525878906,18.900001525878906
6.646,61.942787170410156,-19.038692474365234,-2.75812029838562,-23.581928253173828,28.24502182006836,116.9770278930664,-33.150001525878906,-37.20000076293945,18.900001525878906
6.656,65.65858459472656,-22.677879333496094,-4.137180328369141,-26.64624786376953,39.70290756225586,117.77641296386719,-32.400001525878906,-39.150001525878906,19.650001525878906
6.675,69.45100402832031,-25.627534866333008,-3.332728862762451,-21.716691970825195,34.373661041259766,117.9096450805664,-32.400001525878906,-39.150001525878906,19.650001525878906
6.679,72.66880798339844,-29.53487205505371,-4.098873138427734,-32.77488327026367,42.36753463745117,103.12097930908203,-31.500001907348633,-39.75,19.5
6.686,76.23138427734375,-32.10145568847656,-6.550535678863525,-32.5084228515625,46.63093185424805,102.18836212158203,-32.70000076293945,-39.150001525878906,19.650001525878906
6.696,77.1507568359375,-33.82528305053711,-6.933608055114746,-47.0306282043457,51.4272575378418,86.60030364990234,-31.05000114440918,-40.20000076293945,21.30000114440918
6.706,77.91690063476562,-33.978511810302734,-6.512228488922119,-45.831546783447266,50.62786865234375,85.66768646240234,-31.950000762939453,-41.10000228881836,19.200000762939453
6.716,79.52580261230469,-31.948226928710938,-6.282385349273682,-58.222049713134766,58.754974365234375,84.60183715820312,-32.55000305175781,-40.5,20.55000114440918
6.736,79.0278091430664,-28.53888511657715,-4.788403511047363,-71.54517364501953,67.5482406616211,75.27565002441406,-32.55000305175781,-40.5,20.55000114440918
6.739,79.41088104248047,-25.359384536743164,-3.7158010005950928,-76.74119567871094,55.82388687133789,87.13323211669922,-31.500001907348633,-40.20000076293945,19.5
6.746,79.6407241821289,-20.41775131225586,-3.2178070545196533,-82.7365951538086,54.75803756713867,87.0,-31.200000762939453,-41.85000228881836,19.200000762939453
6.756,78.75965881347656,-17.659631729125977,-2.9496564865112305,-76.4747314453125,59.287899017333984,94.32771301269531,-32.400001525878906,-41.10000228881836,20.700000762939453
6.766,79.71733856201172,-14.595053672790527,-3.9456443786621094,-77.4073486328125,50.09494400024414,96.99234008789062,-31.650001525878906,-41.55000305175781,20.700000762939453
6.776,79.06611633300781,-12.373234748840332,-3.179499864578247,-63.018375396728516,39.43644714355469,107.51760864257812,-31.650001525878906,-41.55000305175781,20.700000762939453
6.795,78.49150848388672,-9.768342971801758,-2.911349296569824,-56.356815338134766,28.77794647216797,120.70750427246094,-30.000001907348633,-43.95000076293945,19.5
6.799,74.20109558105469,-8.159439086914062,-5.1331682205200195,-32.90811538696289,24.248085021972656,118.44257354736328,-30.450000762939453,-41.85000228881836,21.150001525878906
6.806,74.35432434082031,-9.346963882446289,-5.669469833374023,-21.45022964477539,10.392036437988281,130.03369140625,-29.250001907348633,-43.20000076293945,19.05000114440918
6.816,73.32003021240234,-10.611102104187012,-6.818686485290527,-7.460949420928955,6.395099639892578,132.83154296875,-30.000001907348633,-43.650001525878906,20.55000114440918
6.826,71.63451385498047,-11.224017143249512,-7.010222434997559,-0.6661561727523804,13.056661605834961,124.17151641845703,-30.000001907348633,-43.650001525878906,20.55000114440918
6.836,70.83006286621094,-12.334927558898926,-6.818686485290527,9.326186180114746,9.059723854064941,115.64471435546875,-28.05000114440918,-45.150001525878906,20.100000381469727
6.854,71.71112823486328,-10.879252433776855,-6.205770969390869,34.50688934326172,-0.1332312375307083,122.70597076416016,-28.05000114440918,-47.10000228881836,20.55000114440918
6.858,72.20912170410156,-13.943830490112305,-3.179499864578247,43.96630859375,-12.124042510986328,125.50382232666016,-28.05000114440918,-47.10000228881836,20.55000114440918
6.866,73.35833740234375,-19.38345718383789,-2.1068975925445557,45.96477508544922,-16.387441635131836,124.43797302246094,-28.80000114440918,-46.35000228881836,20.850000381469727
6.876,73.7031021118164,-20.609289169311523,-1.723825216293335,43.03369140625,-19.31852912902832,121.50688934326172,-27.450000762939453,-46.5,21.75
6.886,76.11646270751953,-22.409727096557617,-0.8810662031173706,42.90045928955078,-17.186830520629883,112.31393432617188,-27.450000762939453,-46.5,21.75
6.896,76.5761489868164,-24.746469497680664,-0.1149216815829277,30.776416778564453,-19.98468589782715,99.65696716308594,-27.900001525878906,-46.95000076293945,21.450000762939453
6.915,76.23138427734375,-27.542896270751953,-2.3367409706115723,24.64777946472168,-6.661561965942383,70.3460922241211,-25.500001907348633,-48.30000305175781,20.55000114440918
6.919,75.58016204833984,-24.746469497680664,-2.6815059185028076,24.11485481262207,-7.9938740730285645,69.81317138671875,-25.500001907348633,-48.30000305175781,20.55000114440918
6.926,76.84429931640625,-22.562957763671875,-1.9536685943603516,31.176109313964844,-4.929555892944336,74.34303283691406,-26.250001907348633,-49.05000305175781,21.600000381469727
6.936,77.34229278564453,-21.950040817260742,-1.37906014919281,31.176109313964844,-10.525267601013184,64.61714935302734,-26.250001907348633,-49.05000305175781,21.600000381469727
6.946,79.0278091430664,-20.494365692138672,2.1068975925445557,39.83613967895508,-23.715160369873047,68.61408996582031,-24.450000762939453,-50.400001525878906,21.75
6.965,78.3765869140625,-20.64759635925293,4.252102375030518,44.23276901245117,-38.23736572265625,67.01531219482422,-25.500001907348633,-49.500003814697266,23.55000114440918
6.969,75.65677642822266,-21.87342643737793,1.6089035272598267,48.8958625793457,-37.304744720458984,61.15313720703125,-26.400001525878906,-49.95000076293945,21.150001525878906
6.976,71.13652038574219,-23.980323791503906,-3.907337188720703,53.95865249633789,-40.102603912353516,49.82848358154297,-25.200000762939453,-49.20000076293945,22.5
6.986,70.29376220703125,-25.052927017211914,-5.784391403198242,68.74732208251953,-40.36906433105469,47.56355285644531,-25.200000762939453,-49.20000076293945,22.5
6.996,69.52761840820312,-25.167848587036133,-3.754108190536499,56.09035110473633,-33.84073257446289,46.497703552246094,-24.30000114440918,-48.30000305175781,21.30000114440918
7.006,69.83407592773438,-25.39769172668457,-3.4093432426452637,57.689125061035156,-26.113323211669922,39.16998291015625,-23.25,-48.30000305175781,19.80000114440918
7.025,70.94498443603516,-25.052927017211914,-1.37906014919281,54.62480926513672,-43.69984436035156,48.8958625793457,-23.55000114440918,-50.250003814697266,20.55000114440918
7.029,74.50755310058594,-27.657817840576172,1.1109095811843872,45.831546783447266,-41.967838287353516,42.36753463745117,-25.05000114440918,-49.500003814697266,22.80000114440918
7.036,77.61044311523438,-28.002582550048828,-2.183511972427368,44.36600112915039,-35.306278228759766,40.102603912353516,-25.05000114440918,-49.500003814697266,22.80000114440918
7.046,78.52981567382812,-29.075185775756836,-4.9799394607543945,40.76875686645508,-45.831546783447266,28.511484146118164,-25.05000114440918,-49.500003814697266,22.80000114440918
7.056,79.67903137207031,-28.960264205932617,-5.1331682205200195,51.027565002441406,-44.76569747924805,22.915773391723633,-24.0,-50.55000305175781,21.600000381469727
7.066,82.24561309814453,-27.88766098022461,-7.163451671600342,47.163856506347656,-37.17151641845703,9.992342948913574,-25.200000762939453,-51.150001525878906,22.200000762939453
7.086,82.24561309814453,-25.972299575805664,-6.205770969390869,46.897396087646484,-36.771820068359375,1.0658499002456665,-23.400001525878906,-49.20000076293945,22.200000762939453
7.089,82.85853576660156,-26.087221145629883,-5.5545477867126465,64.21745300292969,-52.093414306640625,11.857580184936523,-24.450000762939453,-51.150001525878906,22.200000762939453
7.096,83.31822204589844,-23.44402313232422,-9.346963882446289,64.48391723632812,-51.693721771240234,-2.9310872554779053,-24.450000762939453,-51.150001525878906,22.200000762939453
7.106,84.23759460449219,-23.63555908203125,-11.185709953308105,62.21898651123047,-49.96171569824219,-9.859111785888672,-23.700000762939453,-49.95000076293945,22.950000762939453
7.116,84.62066650390625,-20.992361068725586,-10.036493301391602,69.67993927001953,-49.69525146484375,-16.25421142578125,-24.450000762939453,-49.95000076293945,21.75
7.126,83.7396011352539,-18.617311477661133,-12.373234748840332,76.07503509521484,-54.22511291503906,-5.995405673980713,-25.05000114440918,-48.60000228881836,22.05000114440918
7.146,84.08436584472656,-14.480132102966309,-10.381258964538574,79.9387435913086,-54.89126968383789,-4.929555892944336,-24.450000762939453,-48.45000076293945,21.75
7.151,83.35652923583984,-11.91354751586914,-10.687716484069824,112.4471664428711,-67.28177642822266,-15.588054656982422,-24.900001525878906,-48.900001525878906,23.25
7.156,83.81621551513672,-6.205770969390869,-7.6997528076171875,129.90045166015625,-66.882080078125,-24.914241790771484,-24.900001525878906,-48.900001525878906,23.25
7.166,86.1529541015625,-6.665457725524902,-4.865017890930176,153.21592712402344,-73.14395141601562,-19.185298919677734,-24.0,-49.05000305175781,23.850000381469727
7.176,85.96141815185547,-6.665457725524902,-2.2218191623687744,179.72894287109375,-78.87289428710938,-18.119447708129883,-23.55000114440918,-49.500003814697266,24.150001525878906
7.186,88.25984954833984,-12.7946138381958,2.75812029838562,199.5803985595703,-81.53751373291016,-22.382848739624023,-23.400001525878906,-47.70000076293945,23.700000762939453
7.205,88.41307830810547,-20.264522552490234,5.631162166595459,207.0413360595703,-94.46094512939453,-36.372127532958984,-22.650001525878906,-48.0,24.750001907348633
7.209,87.80016326904297,-27.77273941040039,3.6774938106536865,206.90811157226562,-88.19908142089844,-62.485450744628906,-25.05000114440918,-49.05000305175781,25.350000381469727
7.216,82.89684295654297,-31.7183837890625,-2.145204782485962,204.7764129638672,-85.93415069580078,-76.60796356201172,-25.05000114440918,-49.05000305175781,25.350000381469727
7.226,80.67501831054688,-31.258697509765625,-5.171475887298584,209.4394989013672,-83.13629150390625,-82.47013854980469,-25.200000762939453,-46.5,25.80000114440918
7.236,79.75564575195312,-29.84132957458496,-5.094861030578613,228.75804138183594,-85.66768646240234,-88.59877014160156,-26.55000114440918,-46.650001525878906,27.150001525878906
7.246,82.5137710571289,-26.240449905395508,-3.869029998779297,233.28790283203125,-76.34149932861328,-99.92343139648438,-26.55000114440918,-46.650001525878906,27.150001525878906
7.265,81.67100524902344,-22.06496238708496,-0.49799394607543945,259.2679748535156,-74.34303283691406,-100.85604858398438,-25.500001907348633,-44.85000228881836,28.200000762939453
