time,accel_x,accel_y,accel_z,gyro_x,gyro_y,gyro_z,mag_x,mag_y,mag_z
0.0,-0.7322037220001221,-9.639486312866211,1.978864312171936,0.019547687843441963,-0.06352998316287994,0.005955935921519995,-19.27798843383789,49.473838806152344,-29.46506690979004
0.01,-0.8111668825149536,-9.637092590332031,1.8771692514419556,0.012522736564278603,-0.046731188893318176,0.013439035043120384,-19.27798843383789,50.24846649169922,-29.37737464904785
0.02,-0.7214360237121582,-9.639486312866211,1.856830358505249,0.01572977937757969,-0.02626720443367958,0.023976460099220276,-18.985675811767578,49.649227142333984,-29.45045280456543
0.03,-0.6831508874893188,-9.678967475891113,1.817348837852478,0.01572977937757969,-0.0064140851609408855,0.030543262138962746,-18.89798355102539,49.38614273071289,-29.494300842285156
0.049,-0.9008976817131042,-9.656235694885254,1.7563318014144897,0.023365594446659088,-0.0010690141934901476,0.036651913076639175,-19.044137954711914,49.31306457519531,-30.42970085144043
0.052,-0.8985048532485962,-9.65384292602539,1.7216358184814453,0.023060161620378494,0.0064140851609408855,0.03649919852614403,-19.46799087524414,49.780765533447266,-29.90353775024414
0.06,-0.7740780711174011,-9.605986595153809,1.6893328428268433,0.03039054572582245,0.00855211354792118,0.040164388716220856,-18.795673370361328,49.88307571411133,-30.093538284301758
0.07,-0.638883650302887,-9.603592872619629,1.683350682258606,0.03741549327969551,-0.005192354787141085,0.046731188893318176,-18.839519500732422,49.75153350830078,-30.181232452392578
0.08,-0.6173481941223145,-9.671788215637207,1.6845470666885376,0.04092797264456749,-0.02733621932566166,0.04841107130050659,-18.868751525878906,49.225372314453125,-29.625839233398438
0.09,-0.7525426745414734,-9.674181938171387,1.7371891736984253,0.04795292019844055,-0.053297992795705795,0.054367005825042725,-19.014907836914062,49.88307571411133,-29.97661590576172
0.3,-0.9978070259094238,-9.658628463745117,1.7599210739135742,0.052381694316864014,0.028710665181279182,0.0555887334048748,-18.06489372253418,49.35691452026367,-30.415081024169922
0.31,-0.8506484627723694,-9.635896682739258,1.8484554290771484,0.058184914290905,0.003359758760780096,0.05268712714314461,-18.5325927734375,49.093833923339844,-30.225080490112305
0.32,-0.8973084688186646,-9.57368278503418,1.8831512928009033,0.0607810914516449,-0.016340645030140877,0.055436018854379654,-18.737211227416992,48.9184455871582,-30.195850372314453
0.33,-0.9906285405158997,-9.595218658447266,2.0338993072509766,0.06017022579908371,-0.02519819140434265,0.053908854722976685,-18.605670928955078,49.31306457519531,-30.327388763427734
0.349,-0.9355936050415039,-9.633503913879395,2.115255117416382,0.048258356750011444,-0.08720101416110992,0.03298672288656235,-18.649517059326172,49.50307083129883,-30.34200668334961
0.353,-0.9451649785041809,-9.600004196166992,2.1092729568481445,0.04703662171959877,-0.09437867254018784,0.03130684420466423,-18.401052474975586,48.77228546142578,-30.502779006958008
0.36,-0.9056833982467651,-9.533004760742188,2.1786649227142334,0.04108068719506264,-0.11209376901388168,0.03252857178449631,-18.5325927734375,49.53229904174805,-30.28354263305664
0.37,-0.8051848411560059,-9.693324089050293,2.172683000564575,0.032070424407720566,-0.13347405195236206,0.025656340643763542,-18.123355865478516,49.166908264160156,-30.37123680114746
0.38,-0.7704888582229614,-9.627521514892578,2.0961124897003174,0.029932396486401558,-0.14477506279945374,0.032070424407720566,-18.108739852905273,49.166908264160156,-30.45893096923828
0.39,-0.8458627462387085,-9.512666702270508,2.117647886276245,0.026572639122605324,-0.1362229436635971,0.04902193322777748,-17.831043243408203,48.9184455871582,-30.6489315032959
0.403,-0.9104689955711365,-9.663414001464844,1.92741858959198,0.024129178375005722,-0.14752395451068878,0.054825153201818466,-17.59719467163086,49.31306457519531,-31.145864486694336
0.41,-0.891326367855072,-9.634699821472168,1.97407865524292,0.023976460099220276,-0.18555031716823578,0.04841107130050659,-18.050277709960938,49.7223014831543,-30.751243591308594
0.42,-0.8937192559242249,-9.735198020935059,1.9334007501602173,0.010537425056099892,-0.2382374405860901,0.026114489883184433,-17.90412139892578,49.049983978271484,-30.692779541015625
0.43,-0.9882357120513916,-9.657431602478027,1.8580267429351807,0.0039706239476799965,-0.28008171916007996,0.02382374368607998,-17.71411895751953,49.13768005371094,-30.985092163085938
0.44,-1.0636096000671387,-9.598808288574219,1.9621144533157349,-0.004123340360820293,-0.2863430678844452,0.036651913076639175,-17.641040802001953,48.9184455871582,-30.517393112182617
0.45,-1.0372885465621948,-9.540183067321777,2.059023857116699,-0.02122756652534008,-0.2541199326515198,0.062460970133543015,-18.09412384033203,49.18152618408203,-30.882781982421875
0.469,-1.1186444759368896,-9.681360244750977,2.196611166000366,-0.052381694316864014,-0.15790866315364838,0.14996741712093353,-17.670272827148438,48.9184455871582,-30.400466918945312
0.473,-0.9930213689804077,-9.704092025756836,2.1678972244262695,-0.055283304303884506,-0.13011428713798523,0.16096298396587372,-17.87489128112793,49.020755767822266,-30.83893585205078
0.48,-0.7597211599349976,-9.69093132019043,2.0817556381225586,-0.054367005825042725,-0.10125090926885605,0.1823432743549347,-17.290266036987305,49.020755767822266,-30.9266300201416
0.49,-0.6867400407791138,-9.633503913879395,2.073380708694458,-0.05513058975338936,-0.09896016865968704,0.21624629199504852,-17.114879608154297,49.25460433959961,-31.04355239868164
0.5,-0.6843472719192505,-9.604789733886719,2.1332013607025146,-0.05925392732024193,-0.11270463466644287,0.24724771082401276,-17.202571868896484,48.9184455871582,-30.955860137939453
0.51,-0.6185446381568909,-9.541379928588867,2.1415762901306152,-0.05726861581206322,-0.11881328374147415,0.2701551616191864,-17.363344192504883,48.88921356201172,-31.13124656677246
0.522,-0.873380184173584,-9.510272979736328,1.7862420082092285,-0.05146539583802223,-0.15042555332183838,0.2848159074783325,-17.24641990661621,49.51768493652344,-30.692779541015625
0.53,-1.3962119817733765,-9.607182502746582,1.576870083808899,-0.04993823170661926,-0.15851953625679016,0.285121351480484,-17.114879608154297,48.87459945678711,-30.853551864624023
0.54,-1.8747763633728027,-9.65982437133789,1.1856435537338257,-0.040164388716220856,-0.1449277698993683,0.2669481039047241,-16.88102912902832,49.00613784790039,-30.91201400756836
0.55,-1.9956140518188477,-9.597611427307129,1.2370892763137817,-0.014660765416920185,-0.12247847765684128,0.2554943859577179,-16.851797103881836,48.88921356201172,-29.81584358215332
0.56,-1.6139588356018066,-9.476773262023926,1.5780664682388306,0.007635815534740686,-0.10002917796373367,0.2350304126739502,-16.296403884887695,48.611515045166016,-31.540485382080078
0.57,-1.1665010452270508,-9.44207763671875,1.746760368347168,0.03222314268350601,-0.0933096632361412,0.23136521875858307,-16.661794662475586,49.25460433959961,-31.04355239868164
0.589,-0.9152546525001526,-9.33320426940918,2.066202163696289,0.05696318298578262,-0.12293662130832672,0.23671028017997742,-16.04793930053711,49.166908264160156,-30.970474243164062
0.592,-1.0085747241973877,-9.340383529663086,2.076970100402832,0.062460970133543015,-0.13057243824005127,0.23900103569030762,-15.85793685913086,48.55305480957031,-31.67202377319336
0.6,-1.1198409795761108,-9.384650230407715,2.0027923583984375,0.0679587572813034,-0.13011428713798523,0.24098633229732513,-15.594855308532715,48.596900939941406,-31.55510139465332
0.61,-1.2430713176727295,-9.425328254699707,1.951346755027771,0.08155050873756409,-0.1371392458677292,0.242513507604599,-15.624086380004883,48.80152130126953,-31.438175201416016
0.62,-1.3016955852508545,-9.504291534423828,1.8305093050003052,0.0988074541091919,-0.13271047174930573,0.23716843128204346,-15.667933464050293,49.06460189819336,-30.955860137939453
0.638,-1.3782658576965332,-9.379863739013672,1.935793399810791,0.12140946835279465,-0.1264491081237793,0.24190261960029602,-15.726396560668945,48.43613052368164,-31.394329071044922
0.642,-1.3495519161224365,-9.595218658447266,1.9381862878799438,0.12660181522369385,-0.08078692108392715,0.237321138381958,-15.52177619934082,49.020755767822266,-31.482023239135742
0.65,-1.325623631477356,-9.671788215637207,2.029113531112671,0.1267545372247696,-0.06688974052667618,0.24037547409534454,-15.594855308532715,48.81613540649414,-31.014324188232422
0.66,-1.4895319938659668,-9.623931884765625,2.3389840126037598,0.12293662130832672,-0.06108652427792549,0.24342979490756989,-15.054078102111816,49.049983978271484,-31.6281795501709
0.67,-1.4632110595703125,-9.640682220458984,2.662015199661255,0.09972374886274338,-0.036651913076639175,0.222965806722641,-15.653318405151367,49.210758209228516,-31.45279312133789
0.68,-1.3830513954162598,-9.564111709594727,2.657229423522949,0.08139779418706894,-0.018325956538319588,0.19807305932044983,-15.448699951171875,48.655364990234375,-31.75971794128418
0.69,-1.6450655460357666,-9.58325481414795,2.6847469806671143,0.06230825185775757,-0.0024434609804302454,0.17516560852527618,-15.361004829406738,49.210758209228516,-31.847414016723633
0.703,-2.2671992778778076,-9.704092025756836,2.342573404312134,0.024892758578062057,-0.02275473065674305,0.118660569190979,-14.615609169006348,48.43613052368164,-32.25665283203125
0.71,-2.410768747329712,-9.730413436889648,1.8640087842941284,0.014049900695681572,-0.02168571576476097,0.08888089656829834,-15.01023006439209,48.6407470703125,-31.949722290039062
0.72,-1.9058831930160522,-9.596414566040039,1.8544374704360962,0.024434609338641167,0.012828170321881771,0.05955936014652252,-14.95176887512207,48.5384407043457,-31.18971061706543
0.73,-0.9116654396057129,-9.732806205749512,2.227717876434326,0.014202617108821869,0.0010690141934901476,0.06780604273080826,-14.615609169006348,48.5384407043457,-31.64279556274414
0.74,-1.1617152690887451,-9.803394317626953,2.0542380809783936,-0.004581489134579897,-0.05161811038851738,0.07406741380691528,-14.703303337097168,48.36305236816406,-31.584331512451172
0.758,-1.7072789669036865,-9.631111145019531,2.462214469909668,-0.009621127508580685,-0.02977968007326126,0.0731511116027832,-14.527915000915527,48.94767761230469,-32.052032470703125
0.763,-2.6189444065093994,-9.638289451599121,2.2947168350219727,-0.050243668258190155,0.0429132841527462,0.05054909735918045,-15.302543640136719,48.684593200683594,-31.10201644897461
0.77,-2.5938196182250977,-9.559326171875,2.337787628173828,-0.0633772686123848,0.146913081407547,0.027030786499381065,-14.644840240478516,48.93306350708008,-31.45279312133789
0.78,-1.7491532564163208,-9.439684867858887,2.4059829711914062,-0.07254024595022202,0.2405281811952591,0.0074830991216003895,-14.878690719604492,48.55305480957031,-31.832796096801758
0.79,-1.3782658576965332,-9.4660062789917,2.2648065090179443,-0.07757988572120667,0.26511549949645996,0.009621127508580685,-14.63022518157959,49.00613784790039,-31.613563537597656
0.8,-1.4380862712860107,-9.403792381286621,2.0506489276885986,-0.07376197725534439,0.2408336102962494,0.0009162978385575116,-14.878690719604492,48.62613296508789,-31.774335861206055
0.819,-1.6630116701126099,-9.475577354431152,1.691725492477417,-0.06582073122262955,0.19807305932044983,0.003359758760780096,-14.995615005493164,48.479976654052734,-31.04355239868164
0.823,-1.3471590280532837,-9.446863174438477,1.6319050788879395,-0.042302414774894714,0.13301590085029602,0.003054326167330146,-14.35252857208252,48.465362548828125,-30.882781982421875
0.83,-1.1676974296569824,-9.4660062789917,1.439282774925232,-0.02886338159441948,0.09453140199184418,0.019853120669722557,-14.264835357666016,48.50920867919922,-30.327388763427734
0.84,-0.8745766282081604,-9.534201622009277,1.4225330352783203,0.0004581489192787558,0.032070424407720566,0.04352414980530739,-14.586379051208496,48.669979095458984,-30.34200668334961
0.85,-0.8602197170257568,-9.559326171875,1.998006820678711,0.010842857882380486,0.001527163083665073,0.06551529467105865,-14.747150421142578,48.80152130126953,-31.02893829345703
0.86,-1.1473584175109863,-9.461220741271973,1.782652735710144,0.021838432177901268,-0.050854530185461044,0.08735372871160507,-14.410990715026855,48.77228546142578,-31.964338302612305
0.879,-1.4871392250061035,-9.475577354431152,1.8795621395111084,0.025961771607398987,-0.058184914290905,0.11056660860776901,-14.790996551513672,49.10844802856445,-31.11663246154785
0.882,-1.5972089767456055,-9.55095100402832,2.1475582122802734,0.027030786499381065,-0.00427605677396059,0.13698652386665344,-14.191757202148438,48.684593200683594,-31.65740966796875
0.89,-1.643869161605835,-9.592824935913086,1.868794322013855,0.02535090781748295,0.013286319561302662,0.15241087973117828,-14.776381492614746,48.33382034301758,-31.45279312133789
0.9,-1.1102696657180786,-9.671788215637207,2.359323024749756,0.01313360221683979,0.034666601568460464,0.18020524084568024,-14.381760597229004,48.611515045166016,-31.233558654785156
0.91,-0.556331217288971,-9.45045280456543,2.531606435775757,-0.014508049935102463,-0.020005837082862854,0.1976149082183838,-14.586379051208496,48.406898498535156,-31.10201644897461
0.92,-0.7764708995819092,-9.456435203552246,2.163111686706543,-0.016798794269561768,-0.1443169116973877,0.22510384023189545,-13.987138748168945,48.36305236816406,-31.81818199157715
0.94,-1.6642080545425415,-9.614360809326172,2.0338993072509766,-0.024129178375005722,-0.21059578657150269,0.2587014436721802,-14.63022518157959,48.18766403198242,-31.13124656677246
0.943,-2.0578272342681885,-9.663414001464844,1.8951154947280884,-0.030543262138962746,-0.14217887818813324,0.2814561426639557,-13.928675651550293,48.23151397705078,-31.365097045898438
0.95,-1.5122638940811157,-9.729216575622559,2.073380708694458,-0.03436116874217987,-0.08903361111879349,0.3016147017478943,-14.235603332519531,48.845367431640625,-31.08740234375
0.96,-1.1306086778640747,-9.556933403015137,2.358126640319824,-0.057879481464624405,-0.07559457421302795,0.32620203495025635,-14.11867904663086,48.69921112060547,-30.83893585205078
0.97,-1.0743772983551025,-9.354740142822266,2.2408783435821533,-0.057879481464624405,-0.0936150997877121,0.3692680299282074,-13.592517852783203,48.45074462890625,-31.394329071044922
0.98,-1.399801254272461,-9.605986595153809,2.2336997985839844,-0.08659014105796814,-0.14294245839118958,0.42241328954696655,-13.767904281616211,48.30459213256836,-32.052032470703125
0.999,-2.282752752304077,-10.073782920837402,2.183450698852539,-0.13316862285137177,-0.13530665636062622,0.4579961895942688,-13.548670768737793,48.494590759277344,-31.55510139465332
1.004,-2.2648065090179443,-9.67537784576416,1.9537396430969238,-0.1618792861700058,0.00809396430850029,0.4925100803375244,-13.022507667541504,48.494590759277344,-31.262788772583008
1.01,-1.7730815410614014,-9.556933403015137,2.183450698852539,-0.16661350429058075,0.040164388716220856,0.5022839307785034,-13.051739692687988,48.085357666015625,-31.613563537597656
1.02,-1.6905291080474854,-9.528219223022461,2.115255117416382,-0.17073683440685272,0.0507018156349659,0.5233587622642517,-13.095585823059082,48.07073974609375,-31.277402877807617
1.03,-2.194218397140503,-9.541379928588867,2.0650060176849365,-0.17760907113552094,0.07696902006864548,0.5436700582504272,-12.42326831817627,48.114585876464844,-30.678165435791016
1.04,-2.4251255989074707,-9.468399047851562,1.8508483171463013,-0.1739438772201538,0.12247847765684128,0.5564982295036316,-12.072493553161621,48.18766403198242,-30.34200668334961
1.059,-2.2540388107299805,-9.425328254699707,1.9286149740219116,-0.1748601794242859,0.15851953625679016,0.5720753073692322,-12.627885818481445,47.471500396728516,-31.321250915527344
1.063,-2.108076810836792,-9.410971641540527,2.0614166259765625,-0.18555031716823578,0.17760907113552094,0.6013968586921692,-11.882491111755371,47.25226593017578,-31.262788772583008
1.07,-2.073380708694458,-9.451648712158203,2.080559253692627,-0.1950187236070633,0.18829920887947083,0.6287330389022827,-11.838644027709961,47.14995574951172,-30.45893096923828
1.08,-2.3820548057556152,-9.510272979736328,2.0757734775543213,-0.20723602175712585,0.2353358417749405,0.6849326491355896,-11.400175094604492,47.1791877746582,-29.859689712524414
1.09,-2.2815563678741455,-9.603592872619629,2.3880369663238525,-0.23777928948402405,0.33918291330337524,0.7324274182319641,-11.356328010559082,47.44226837158203,-30.225080490112305
1.1,-1.0133603811264038,-9.505488395690918,3.2207393646240234,-0.30482175946235657,0.39584067463874817,0.789237916469574,-11.04940128326416,46.726104736328125,-30.181232452392578
1.119,-0.9176474213600159,-9.617950439453125,2.589033842086792,-0.34956762194633484,0.27152958512306213,0.8539896011352539,-10.420929908752441,46.4191780090332,-29.1873722076416
1.123,-2.9036900997161865,-9.7124662399292,1.628315806388855,-0.38896840810775757,0.1915062516927719,0.9259189963340759,-10.333235740661621,46.46302032470703,-29.87430763244629
1.13,-3.2997024059295654,-9.553343772888184,1.6091731786727905,-0.3952298164367676,0.2845104932785034,0.9472992420196533,-10.377082824707031,46.550716400146484,-29.523530960083008
1.14,-2.84386944770813,-9.500701904296875,1.6785650253295898,-0.40454548597335815,0.35674530267715454,0.9691376686096191,-10.347851753234863,45.922245025634766,-29.45045280456543
1.15,-2.748156785964966,-9.918249130249023,1.4333007335662842,-0.43020185828208923,0.35705074667930603,0.9871582388877869,-10.099386215209961,46.03916931152344,-29.655071258544922
1.16,-3.1692936420440674,-10.368099212646484,1.3531410694122314,-0.46105054020881653,0.36682456731796265,0.9850201606750488,-9.631686210632324,45.58608627319336,-28.982751846313477
1.179,-3.5988051891326904,-11.186446189880371,1.3184452056884766,-0.5206099152565002,0.36163219809532166,0.978606104850769,-9.456298828125,45.4399299621582,-28.471206665039062
1.183,-3.9601213932037354,-10.993823051452637,0.8147560954093933,-0.5564982295036316,0.35445454716682434,0.9848674535751343,-8.79859733581543,45.191463470458984,-28.763521194458008
1.19,-3.8871400356292725,-10.794022560119629,0.4402793347835541,-0.5711589455604553,0.36942076683044434,1.0080803632736206,-9.26629638671875,45.191463470458984,-27.828121185302734
1.2,-4.610969066619873,-11.871988296508789,-0.92482590675354,-0.6301075220108032,0.30344730615615845,1.1412489414215088,-8.462437629699707,44.28529739379883,-28.105815887451172
1.21,-2.1547367572784424,-10.553544044494629,0.15912269055843353,-0.6692028641700745,0.2687807083129883,1.1403326988220215,-7.673194885253906,43.876060485839844,-27.57965660095215
1.22,1.3435698747634888,-10.226922988891602,2.042273998260498,-0.6362161040306091,0.2964223325252533,1.0800096988677979,-7.687810897827148,43.686058044433594,-27.316574096679688
1.239,-2.8414766788482666,-11.399406433105469,2.0506489276885986,-0.5900958180427551,0.03634648025035858,1.1879801750183105,-7.410114288330078,42.77988815307617,-26.644256591796875
1.243,-6.022734642028809,-12.988241195678711,1.9298113584518433,-0.6685919761657715,0.517250120639801,1.1653780937194824,-6.781642913818359,43.072200775146484,-26.42502212524414
1.25,-4.466203212738037,-12.606585502624512,2.441875457763672,-0.6892086863517761,0.7467827200889587,1.1818714141845703,-6.737796306610107,42.38526916503906,-26.4104061126709
1.26,-2.4562323093414307,-12.795619010925293,2.5531415939331055,-0.7180721163749695,0.8491026759147644,1.2220358848571777,-6.635486125946045,41.80064392089844,-26.045015335083008
1.27,-2.0997018814086914,-13.481163024902344,2.465803623199463,-0.7472409009933472,0.8576547503471375,1.2936598062515259,-5.9923996925354,41.81526184082031,-25.32884979248047
1.28,-2.6691935062408447,-13.867603302001953,2.0650060176849365,-0.7918340563774109,0.8836165070533752,1.3953689336776733,-6.0800933837890625,41.318328857421875,-24.904998779296875
1.3,-2.713460922241211,-14.307883262634277,1.714457392692566,-0.8645269870758057,1.008844017982483,1.508837103843689,-6.270096302032471,40.90909194946289,-24.378835678100586
1.304,-1.0947163105010986,-15.570096015930176,1.5792629718780518,-0.9604328870773315,1.0945178270339966,1.6893478631973267,-5.787781238555908,40.309852600097656,-24.261911392211914
1.31,-0.38285163044929504,-16.060625076293945,1.621137261390686,-1.0047205686569214,1.094212293624878,1.7502816915512085,-5.583162784576416,39.91522979736328,-23.22420310974121
1.32,0.12203395366668701,-16.398012161254883,1.5086746215820312,-1.051146388053894,1.0775662660598755,1.8577938079833984,-5.510084629058838,38.468284606933594,-22.522653579711914
1.33,0.5814558863639832,-16.15873146057129,1.153340458869934,-1.10139000415802,1.1388055086135864,1.9761489629745483,-5.042385101318359,38.585208892822266,-22.902660369873047
1.34,1.734796404838562,-16.00200080871582,0.9774680137634277,-1.160185694694519,1.2348641157150269,2.157423257827759,-5.027769565582275,38.17597198486328,-22.917274475097656
1.36,3.830909013748169,-16.319049835205078,0.9750751852989197,-1.1936306953430176,1.1482739448547363,2.2769999504089355,-4.530838966369629,36.655948638916016,-21.528793334960938
1.364,4.335794448852539,-16.183855056762695,1.325623631477356,-1.2762501239776611,1.1395691633224487,2.40635085105896,-4.486992359161377,36.23209762573242,-21.864952087402344
1.37,3.644268751144409,-15.74716567993164,1.4177473783493042,-1.345278024673462,1.23394775390625,2.3945915699005127,-4.311604976654053,36.0274772644043,-20.91493797302246
1.38,4.724628448486328,-13.704891204833984,2.4849462509155273,-1.3862059116363525,1.2986994981765747,2.378403902053833,-4.399298667907715,35.12131118774414,-20.681087493896484
1.39,6.835097789764404,-11.423334121704102,3.456432342529297,-1.2615894079208374,0.6948592066764832,2.3078486919403076,-4.267758369445801,34.39052963256836,-20.30108070373535
1.4,6.246463775634766,-8.723034858703613,1.6271193027496338,-1.1133018732070923,-0.7296785116195679,2.361452341079712,-3.4200527667999268,33.49897384643555,-19.54106903076172
1.419,-0.6173481941223145,-7.633103847503662,2.6117656230926514,-0.7712173461914062,-2.8994717597961426,2.930626153945923,-1.4761765003204346,32.242034912109375,-21.704179763793945
1.423,-10.351350784301758,-8.451449394226074,3.933800458908081,-0.7137960195541382,-2.811202049255371,2.8047876358032227,-0.5992400050163269,31.847414016723633,-21.36802101135254
1.43,-9.89432144165039,-8.452645301818848,3.129812002182007,-0.6916521787643433,-2.0777053833007812,2.1085541248321533,-0.07307805120944977,31.75971794128418,-21.748027801513672
1.44,-2.779263496398926,-5.38624382019043,3.2721848487854004,-0.503047525882721,-1.1595749855041504,1.0407615900039673,0.9646301865577698,31.423559188842773,-22.288803100585938
1.45,2.5399811267852783,-3.9768712520599365,3.0209386348724365,-0.27641651034355164,-1.1930198669433594,0.6881397366523743,1.4761765003204346,31.262788772583008,-23.38497543334961
1.46,4.84187650680542,-3.7292141914367676,3.671786069869995,-0.06780604273080826,-1.5218180418014526,0.34147366881370544,1.6661795377731323,31.233558654785156,-23.136510848999023
1.479,3.9326038360595703,-3.7782669067382812,4.436293125152588,0.1241583600640297,-1.7414240837097168,-0.08735372871160507,2.1484947204589844,31.45279312133789,-24.904998779296875
1.483,1.1066803932189941,-3.521038293838501,3.785445213317871,0.2945897579193115,-1.7230981588363647,-0.7023422718048096,2.5577316284179688,31.45279312133789,-24.159603118896484
1.49,-0.332602322101593,-3.266202688217163,3.239881753921509,0.3865249752998352,-1.5887078046798706,-1.038623571395874,2.3238818645477295,32.15433883666992,-25.168079376220703
1.5,-1.2825528383255005,-3.379861831665039,2.768495798110962,0.47708573937416077,-1.297019600868225,-1.539685845375061,2.4700381755828857,32.70973205566406,-26.249635696411133
1.51,-0.9559326767921448,-3.7124643325805664,2.342573404312134,0.517861008644104,-0.9558513760566711,-2.012495517730713,2.1631100177764893,33.41128158569336,-26.264249801635742
1.52,-0.21296119689941406,-3.7627134323120117,1.817348837852478,0.5560400485992432,-0.7055493593215942,-2.42055344581604,1.6369482278823853,34.63899612426758,-26.32271385192871
1.539,0.25244277715682983,-3.9038898944854736,1.4225330352783203,0.6721044778823853,-0.7469354271888733,-3.0972394943237305,-0.13154049217700958,36.64133071899414,-27.1704158782959
1.543,-0.3242274522781372,-4.671986103057861,1.3112667798995972,0.6945537328720093,-0.7854200005531311,-3.252246379852295,-0.7015492916107178,36.86056900024414,-27.214263916015625
1.55,-0.8374878764152527,-5.048855781555176,1.4799607992172241,0.7139487266540527,-0.8063421249389648,-3.478113889694214,-1.1400175094604492,37.16749572753906,-26.746564865112305
1.56,-2.504088878631592,-6.1016974449157715,1.9178473949432373,0.6976081132888794,-0.6507241725921631,-3.774230718612671,-3.1131248474121094,38.190589904785156,-27.740427017211914
1.57,-3.249452829360962,-6.696313858032227,1.7706886529922485,0.6789767146110535,-0.35934150218963623,-4.061490058898926,-3.610055446624756,39.49137496948242,-28.018123626708984
1.58,-3.2231318950653076,-7.11146879196167,1.6378871202468872,0.702189564704895,-0.1339322030544281,-4.327369213104248,-5.466238021850586,40.777549743652344,-28.73428726196289
1.599,-3.102294445037842,-7.867600917816162,1.7994025945663452,0.7484626173973083,-0.01863138936460018,-4.540714263916016,-9.470914840698242,42.253726959228516,-29.172758102416992
1.604,-3.269791841506958,-9.089136123657227,1.9058831930160522,0.8260425329208374,-0.09239336103200912,-4.798040866851807,-9.58784008026123,42.999122619628906,-29.81584358215332
1.61,-3.5712878704071045,-9.865607261657715,1.975274920463562,0.8717046976089478,-0.14324790239334106,-4.887532711029053,-11.034785270690918,43.48143768310547,-30.298158645629883
1.62,-3.538984537124634,-11.10628604888916,1.94297194480896,0.9361509680747986,-0.1768454760313034,-4.972137928009033,-12.949429512023926,44.24144744873047,-30.765857696533203
1.63,-3.348755121231079,-12.321840286254883,1.7898313999176025,0.9705121517181396,-0.2246456891298294,-4.983285903930664,-15.52177619934082,45.03069305419922,-30.605087280273438
1.64,-3.6430721282958984,-13.077971458435059,1.3603196144104004,0.9946413040161133,-0.33719760179519653,-4.936860084533691,-17.53873062133789,45.83454895019531,-30.780473709106445
1.659,-6.1088762283325195,-14.438291549682617,1.0049854516983032,1.0415252447128296,-0.5041165351867676,-4.712672233581543,-21.075708389282227,46.81379699707031,-32.490501403808594
1.663,-6.539583683013916,-14.740983009338379,0.9595218300819397,1.0387763977050781,-0.4922046661376953,-4.640285015106201,-22.274188995361328,47.310726165771484,-32.38819122314453
1.67,-7.097111225128174,-14.975480079650879,0.94037926197052,1.0236574411392212,-0.4381431043148041,-4.5185699462890625,-23.28266716003418,47.14995574951172,-32.1251106262207
1.68,-7.635496616363525,-14.816357612609863,0.6699903011322021,0.9837984442710876,-0.3036000430583954,-4.3453898429870605,-25.109615325927734,47.486114501953125,-32.76819610595703
1.69,-8.45743179321289,-14.201401710510254,0.33379876613616943,0.9552405476570129,-0.16539175808429718,-4.178776264190674,-26.468870162963867,48.12919998168945,-33.49897384643555
1.7,-8.956335067749023,-14.000405311584473,0.41515469551086426,0.874453604221344,0.10231993347406387,-4.023616790771484,-28.398128509521484,48.099971771240234,-33.48435974121094
1.719,-7.805387020111084,-13.822139739990234,-0.4127618968486786,0.7802276015281677,0.3630066514015198,-3.5275940895080566,-32.373573303222656,47.456886291503906,-34.88745880126953
1.723,-8.014759063720703,-13.587642669677734,-0.6245266795158386,0.769079327583313,0.35414913296699524,-3.344334602355957,-32.87050247192383,47.58842468261719,-34.9459228515625
1.73,-8.59621524810791,-13.215559959411621,-0.6759723424911499,0.7487680315971375,0.3474296033382416,-3.0552425384521484,-33.95206069946289,46.755332946777344,-35.07746124267578
1.74,-9.366703987121582,-12.750155448913574,-0.794417142868042,0.6973026394844055,0.3712533414363861,-2.654973030090332,-35.45746612548828,46.98918533325195,-35.3843879699707
1.75,-9.369096755981445,-12.378071784973145,-1.0444670915603638,0.6198754906654358,0.42562034726142883,-2.1232149600982666,-36.78749084472656,47.296112060546875,-36.290557861328125
1.76,-9.034101486206055,-12.064611434936523,-1.4057832956314087,0.5584835410118103,0.4156937897205353,-1.648725152015686,-37.98596954345703,47.20841979980469,-36.480560302734375
1.779,-8.46461009979248,-12.020343780517578,-1.7156537771224976,0.3576616048812866,0.46181410551071167,-0.7600690722465515,-39.08213806152344,46.316864013671875,-36.77287292480469
1.783,-8.091329574584961,-12.126825332641602,-1.730010747909546,0.3246748745441437,0.47112980484962463,-0.6559165120124817,-39.374454498291016,46.25840377807617,-36.71440887451172
1.79,-7.245467185974121,-12.245269775390625,-1.6809579133987427,0.22052235901355743,0.4763221740722656,-0.34956762194633484,-39.63753128051758,46.40456008911133,-36.86056900024414
1.8,-6.026323318481445,-12.1866455078125,-1.415354609489441,0.052228979766368866,0.3620903789997101,0.12599095702171326,-39.66676330566406,46.360713958740234,-37.1236457824707
1.81,-5.117051124572754,-11.883954048156738,-1.3244272470474243,-0.04841107130050659,0.1160643994808197,0.4879285991191864,-39.25752639770508,46.945335388183594,-37.32826614379883
1.82,-5.326422691345215,-11.221141815185547,-1.231107234954834,-0.09269880503416061,-0.1540907472372055,0.817337691783905,-39.75445556640625,46.682254791259766,-37.22595977783203
1.838,-4.341776371002197,-11.005786895751953,-1.4560325145721436,-0.20631973445415497,-0.32100966572761536,1.2176071405410767,-38.833675384521484,46.60917663574219,-36.75825881958008
1.841,-3.7363924980163574,-10.966304779052734,-1.7084753513336182,-0.24755313992500305,-0.3744603991508484,1.3118330240249634,-38.61444091796875,46.43379211425781,-37.050567626953125
1.85,-3.016152858734131,-10.912467002868652,-2.1954145431518555,-0.3152064383029938,-0.49907687306404114,1.4414892196655273,-38.67290496826172,46.95995330810547,-36.05670928955078
1.86,-2.528017044067383,-10.66720199584961,-2.200200319290161,-0.41294488310813904,-0.736245334148407,1.5806137323379517,-38.11751174926758,46.945335388183594,-36.05670928955078
1.87,-0.06819543987512589,-10.760523796081543,0.34217363595962524,-0.4470006227493286,-0.7331910133361816,1.4593570232391357,-36.81671905517578,47.38380432128906,-35.296695709228516
1.88,4.475774765014648,-12.358928680419922,4.101297855377197,-0.4534147381782532,-0.5262603759765625,1.1174252033233643,-36.919029235839844,47.1791877746582,-34.85823059082031
1.9,8.925228118896484,-11.09192943572998,0.25004997849464417,-0.2945897579193115,-0.6401867866516113,1.2334896326065063,-35.355159759521484,47.04764938354492,-34.785152435302734
1.904,4.972285270690918,-9.31765079498291,-0.519242525100708,-0.18891006708145142,-1.018923282623291,1.4514158964157104,-35.39900588989258,47.296112060546875,-34.44898986816406
1.91,0.7310072779655457,-8.662017822265625,-0.1782652735710144,-0.09239336103200912,-1.3417655229568481,1.5864169597625732,-34.59514617919922,47.57380676269531,-34.142066955566406
1.92,-7.971688270568848,-8.931209564208984,2.124826431274414,0.03695734962821007,-1.2719742059707642,1.6803375482559204,-34.21514129638672,47.06226348876953,-34.25898742675781
1.93,-12.902099609375,-9.811769485473633,4.552344799041748,0.13500121235847473,-0.7686211466789246,1.7163785696029663,-33.64513397216797,47.33995819091797,-34.06898498535156
1.94,-11.456833839416504,-11.481958389282227,5.361118793487549,-0.029626963660120964,0.12431107461452484,1.3550517559051514,-33.002044677734375,47.57380676269531,-34.6682243347168
1.955,-0.35533416271209717,-9.220742225646973,3.022134780883789,-0.2177734524011612,0.9007207751274109,0.9552405476570129,-31.891260147094727,47.544578552246094,-35.325927734375
1.96,2.884547472000122,-8.468198776245117,2.8941190242767334,-0.19624045491218567,0.7464773058891296,0.9695958495140076,-32.13972473144531,47.64688491821289,-33.87898254394531
1.97,3.696910858154297,-9.090332984924316,2.6273193359375,-0.2541199326515198,0.25641068816185,1.017396092414856,-31.408945083618164,48.36305236816406,-34.50745391845703
1.98,2.1308083534240723,-9.491130828857422,1.9082759618759155,-0.2716823220252991,-0.204487144947052,1.0557278394699097,-31.292020797729492,48.14381790161133,-33.64513397216797
1.99,0.26440688967704773,-9.494720458984375,2.1332013607025146,-0.2142609804868698,-0.38011088967323303,1.042441487312317,-31.408945083618164,47.909969329833984,-33.820518493652344
2.009,-1.730010747909546,-9.704092025756836,2.3772692680358887,-0.2171625941991806,-0.3439171314239502,1.0076221227645874,-30.678165435791016,47.51534652709961,-33.440513610839844
2.013,-2.4502503871917725,-9.664609909057617,0.0011964113218709826,-0.18448129296302795,-0.08139779418706894,0.9454666376113892,-30.122772216796875,48.45074462890625,-33.162818908691406
2.02,-1.6809579133987427,-9.516255378723145,0.05024927482008934,-0.12767083942890167,0.0007635815418325365,0.9382889866828918,-29.406606674194336,48.085357666015625,-34.37591552734375
2.03,-0.09212366491556168,-9.399006843566895,0.29790639877319336,-0.07131851464509964,-0.053297992795705795,0.9045386910438538,-28.938907623291016,47.61765670776367,-33.11897277832031
2.04,0.5240281224250793,-9.515058517456055,0.4618147313594818,-0.04795292019844055,-0.23900103569030762,0.9074403047561646,-28.471206665039062,48.07073974609375,-34.200523376464844
2.05,-1.098305583000183,-9.919445991516113,0.3170489966869354,-0.01863138936460018,-0.49067750573158264,0.959669291973114,-28.73428726196289,47.99766159057617,-33.5282096862793
2.06,-2.8115665912628174,-10.076175689697266,1.5864413976669312,0.01878410577774048,-0.5375614166259766,0.8892670273780823,-28.17889404296875,48.056121826171875,-33.95206069946289
2.072,-2.0853447914123535,-9.730413436889648,1.727617859840393,0.02535090781748295,-0.3367394804954529,0.8122979998588562,-27.404266357421875,48.18766403198242,-33.791290283203125
2.08,-0.5754737854003906,-9.742377281188965,2.9802606105804443,0.0044287727214396,-0.31352660059928894,0.793666660785675,-27.05349349975586,48.14381790161133,-33.27974319458008
2.09,0.3194418251514435,-9.546165466308594,2.9240291118621826,-0.04505131021142006,-0.44058653712272644,0.7539604306221008,-26.454252243041992,47.67612075805664,-33.71821212768555
2.1,-0.7489534616470337,-9.523433685302734,2.964707136154175,-0.09239336103200912,-0.6843218207359314,0.7055493593215942,-26.366558074951172,47.39842224121094,-32.85588836669922
2.11,-2.7876384258270264,-9.445667266845703,2.15234375,-0.12110403180122375,-0.8184067010879517,0.6611089110374451,-25.92809295654297,47.33995819091797,-33.630516052246094
2.128,-3.7806599140167236,-9.628718376159668,1.3818550109863281,-0.13057243824005127,-0.5994114875793457,0.564592182636261,-25.387313842773438,47.471500396728516,-33.41128158569336
2.132,-2.410768747329712,-9.601200103759766,0.7980062961578369,-0.09957103431224823,-0.375071257352829,0.4763221740722656,-24.934228897094727,47.89535140991211,-33.367435455322266
2.14,-1.561316728591919,-9.55095100402832,0.6436693072319031,-0.07131851464509964,-0.3617849349975586,0.4570798873901367,-24.802688598632812,47.851505279541016,-33.572052001953125
2.15,-1.3722838163375854,-9.693324089050293,0.9008976817131042,-0.050854530185461044,-0.4260784983634949,0.43157631158828735,-25.007307052612305,47.80765914916992,-33.162818908691406
2.16,-1.683350682258606,-9.681360244750977,1.1365907192230225,-0.01970040239393711,-0.446389764547348,0.4004221558570862,-24.510377883911133,47.82227325439453,-33.19205093383789
2.17,-2.0099709033966064,-9.680163383483887,1.1940184831619263,-0.004581489134579897,-0.422871470451355,0.37079522013664246,-24.451913833618164,47.836891174316406,-32.797428131103516
2.18,-2.3078773021698,-9.664609909057617,1.3830513954162598,-0.012522736564278603,-0.36224305629730225,0.33796119689941406,-23.9695987701416,47.851505279541016,-33.002044677734375
2.192,-1.9812570810317993,-9.538987159729004,1.6426726579666138,-0.011759155429899693,-0.27152958512306213,0.299476683139801,-24.261911392211914,47.82227325439453,-33.235897064208984
2.2,-1.7910276651382446,-9.591629981994629,1.4620145559310913,-0.015577062964439392,-0.24434609711170197,0.28878653049468994,-23.706518173217773,47.237648010253906,-33.39666748046875
2.21,-1.550549030303955,-9.836893081665039,1.444068431854248,-0.009468411095440388,-0.21731530129909515,0.293826162815094,-23.180356979370117,47.79304122924805,-32.59280776977539
2.22,-1.5014961957931519,-10.085746765136719,1.4404791593551636,-0.02886338159441948,-0.19013181328773499,0.299018532037735,-23.2095890045166,47.77842712402344,-33.64513397216797
2.23,-1.7419748306274414,-10.066604614257812,1.5780664682388306,-0.04764748737215996,-0.1537853181362152,0.31352660059928894,-23.881906509399414,48.20227813720703,-32.85588836669922
2.249,-1.4380862712860107,-9.647860527038574,1.8065810203552246,-0.05513058975338936,-0.09834930300712585,0.31642818450927734,-23.29728126525879,47.51534652709961,-32.35895919799805
2.253,-1.2179466485977173,-9.492326736450195,2.15234375,-0.055436018854379654,-0.11820242553949356,0.3194825351238251,-23.31189727783203,47.36919021606445,-32.47588348388672
2.26,-1.7527425289154053,-9.488738059997559,1.4931212663650513,-0.05925392732024193,-0.1563815027475357,0.32788190245628357,-23.268049240112305,46.76995086669922,-32.622039794921875
2.27,-2.1367905139923096,-9.786643981933594,1.5493526458740234,-0.0731511116027832,-0.11087203770875931,0.32192596793174744,-22.683425903320312,47.19380569458008,-32.34434509277344
2.28,-1.5780664682388306,-9.804591178894043,1.148554801940918,-0.06475171446800232,-0.05650503188371658,0.3428480923175812,-22.84419822692871,48.041507720947266,-32.373573303222656
2.29,-0.794417142868042,-9.875179290771484,1.2681959867477417,-0.0630718320608139,-0.035582900047302246,0.3859141170978546,-22.624963760375977,47.471500396728516,-32.35895919799805
2.309,-0.4570291042327881,-9.78425121307373,1.7132608890533447,-0.05604688450694084,-0.08048149198293686,0.45066583156585693,-22.361881256103516,47.67612075805664,-33.002044677734375
2.313,-1.1258230209350586,-9.717252731323242,1.4644074440002441,-0.0529925599694252,-0.1264491081237793,0.5674937963485718,-22.274188995361328,47.64688491821289,-33.29435729980469
2.32,-1.432104229927063,-9.978070259094238,1.574477195739746,-0.07925976812839508,-0.09865473955869675,0.6114761233329773,-22.157264709472656,47.14995574951172,-32.25665283203125
2.33,-1.1353943347930908,-9.857233047485352,2.1918253898620605,-0.10216721147298813,-0.04214970022439957,0.6954700946807861,-21.324174880981445,47.544578552246094,-32.47588348388672
2.34,-1.0899306535720825,-9.615557670593262,2.2097716331481934,-0.1137736514210701,-0.014355332590639591,0.7692320346832275,-21.411867141723633,47.529964447021484,-32.87050247192383
2.35,-1.4608181715011597,-9.592824935913086,2.1056838035583496,-0.12247847765684128,0.010079275816679,0.8526151180267334,-21.10494041442871,47.427650451660156,-32.53434753417969
2.369,-2.0338993072509766,-9.345169067382812,2.0003998279571533,-0.10186177492141724,0.09575312584638596,0.9080511927604675,-20.418006896972656,47.51534652709961,-32.59280776977539
2.373,-2.438286066055298,-9.125028610229492,1.5840485095977783,-0.0734565407037735,0.20005835592746735,0.945772111415863,-19.950305938720703,47.74919891357422,-32.32973098754883
2.38,-2.262413740158081,-9.265008926391602,1.3316056728363037,-0.09086620807647705,0.21594086289405823,0.9477574229240417,-20.169540405273438,47.296112060546875,-32.85588836669922
2.39,-2.328216314315796,-9.148957252502441,1.4009976387023926,-0.09758572280406952,0.20204368233680725,0.9544769525527954,-19.43876075744629,46.916107177734375,-32.72434997558594
2.4,-2.7601208686828613,-9.026923179626465,1.117448091506958,-0.0884227380156517,0.19074267148971558,0.9529497623443604,-19.307220458984375,47.26688003540039,-32.35895919799805
2.41,-3.019742250442505,-9.443273544311523,0.7322037220001221,-0.11652254313230515,0.20326539874076843,0.9240863919258118,-18.576440811157227,47.354576110839844,-32.373573303222656
2.429,-2.8211376667022705,-9.986444473266602,0.8291130065917969,-0.1287398487329483,0.19685132801532745,0.8959865570068359,-18.25489616394043,46.63841247558594,-31.56971549987793
2.433,-2.6021945476531982,-10.254441261291504,1.1473584175109863,-0.17119498550891876,0.13148874044418335,0.8637634515762329,-17.918737411499023,47.03303146362305,-31.905874252319336
2.44,-2.9036900997161865,-10.649256706237793,1.330409288406372,-0.18891006708145142,0.09437867254018784,0.8469646573066711,-17.71411895751953,46.78456497192383,-32.28588104248047
2.45,-3.4396824836730957,-11.270194053649902,1.32921302318573,-0.20983220636844635,0.10659598559141159,0.8342891931533813,-17.480268478393555,46.46302032470703,-31.306636810302734
2.46,-3.620340585708618,-11.656635284423828,1.3507484197616577,-0.222965806722641,0.21731530129909515,0.8145887851715088,-17.290266036987305,46.21455764770508,-31.6281795501709
2.47,-3.693321704864502,-11.749955177307129,1.9070795774459839,-0.22418753802776337,0.3347541391849518,0.7956519722938538,-17.451038360595703,46.316864013671875,-31.072786331176758
2.49,-3.473181962966919,-12.291929244995117,1.210768222808838,-0.23747386038303375,0.4462370276451111,0.7609853744506836,-16.471790313720703,45.805320739746094,-31.64279556274414
2.493,-3.442075490951538,-12.908082008361816,0.7992027401924133,-0.25641068816185,0.4879285991191864,0.7507533431053162,-15.931015014648438,46.477638244628906,-31.04355239868164
2.5,-3.4779675006866455,-13.00259780883789,0.7034898400306702,-0.27320948243141174,0.5287038683891296,0.7298312187194824,-16.530254364013672,46.00994110107422,-31.08740234375
2.51,-3.3619158267974854,-13.302897453308105,0.7429714202880859,-0.31123584508895874,0.5716171860694885,0.6979135274887085,-16.384098052978516,45.922245025634766,-31.55510139465332
2.52,-2.9515466690063477,-13.392627716064453,0.9200402498245239,-0.3451388478279114,0.6091853976249695,0.6748533248901367,-15.887167930603027,45.58608627319336,-30.415081024169922
2.53,-2.6356940269470215,-13.488340377807617,1.3555339574813843,-0.38316524028778076,0.6250678896903992,0.6563746333122253,-15.244080543518066,45.67377853393555,-31.04355239868164
2.55,-2.9312076568603516,-13.872387886047363,1.3854442834854126,-0.40133848786354065,0.6901249885559082,0.6447682976722717,-15.594855308532715,45.51300811767578,-30.692779541015625
2.553,-2.779263496398926,-14.437095642089844,1.6378871202468872,-0.4340197443962097,0.8446739315986633,0.6198754906654358,-15.404851913452148,45.03069305419922,-30.166616439819336
2.56,-2.148754596710205,-14.788839340209961,1.5409777164459229,-0.4518875777721405,0.9521862268447876,0.6142250299453735,-15.609471321105957,45.001461029052734,-29.947385787963867
2.57,-1.0360921621322632,-15.305688858032227,1.4237295389175415,-0.4648684561252594,1.0806206464767456,0.6143776774406433,-15.551008224487305,45.30839157104492,-29.655071258544922
2.58,-0.25244277715682983,-15.639488220214844,1.1186444759368896,-0.4476114809513092,1.3072515726089478,0.6632469296455383,-15.346389770507812,44.95761489868164,-29.523530960083008
2.59,0.15314064919948578,-16.3106746673584,0.873380184173584,-0.4222606122493744,1.5013539791107178,0.6798930168151855,-15.755626678466797,44.72376251220703,-28.89505958557129
2.609,0.8147560954093933,-15.932609558105469,0.7058826684951782,-0.32421672344207764,1.9249889850616455,0.6339254379272461,-15.448699951171875,44.24144744873047,-28.79275131225586
2.612,2.623729705810547,-14.13440227508545,0.9559326767921448,-0.312304824590683,1.9588921070098877,0.6116288304328918,-15.667933464050293,43.817596435546875,-27.535808563232422
2.62,4.0211381912231445,-13.325629234313965,1.6319050788879395,-0.3104722499847412,1.983479380607605,0.5482515692710876,-16.07716941833496,43.94913864135742,-28.441978454589844
2.63,5.3455657958984375,-12.741780281066895,1.521835207939148,-0.3058907687664032,1.734704613685608,0.6075054407119751,-15.989476203918457,43.7445182800293,-26.834259033203125
2.64,3.6263227462768555,-14.500504493713379,1.6929219961166382,-0.3286454975605011,1.083369493484497,0.7947356700897217,-16.267173767089844,44.27068328857422,-26.673486709594727
2.65,-0.672383189201355,-17.654245376586914,2.871387243270874,-0.4421136975288391,-0.09010262042284012,1.3788756132125854,-15.960245132446289,43.77375030517578,-27.41888427734375
2.67,-4.934000015258789,-18.9379940032959,4.059423446655273,-0.611323356628418,-0.9569203853607178,1.8657351732254028,-14.35252857208252,43.15989685058594,-26.89272117614746
2.674,-9.080760955810547,-17.898311614990234,1.5672988891601562,-0.7933611869812012,-1.889711618423462,2.800358772277832,-14.030985832214355,42.838348388671875,-27.126571655273438
2.68,-13.843674659729004,-18.071792602539062,1.8544374704360962,-0.8090909719467163,-2.3437373638153076,3.5159876346588135,-12.525577545166016,41.81526184082031,-27.06810760498047
2.69,-22.737796783447266,-17.37787437438965,3.012563705444336,-0.451582133769989,-2.5555546283721924,4.025296688079834,-11.385560035705566,41.39140701293945,-26.483484268188477
2.7,-23.24627113342285,-16.03669548034668,5.856433391571045,-0.11484266072511673,-1.8887953758239746,4.123798370361328,-9.003214836120605,40.572933197021484,-27.462730407714844
2.71,-21.939790725708008,-15.98764419555664,4.621737003326416,-0.12186761200428009,-0.6821837425231934,4.145789623260498,-7.234726905822754,39.98830795288086,-27.272727966308594
2.73,-19.667804718017578,-15.458830833435059,2.1846470832824707,0.10064005106687546,1.4098769426345825,4.089590072631836,-4.1800642013549805,38.45366668701172,-27.331188201904297
2.733,-14.307883262634277,-15.845271110534668,3.049652338027954,0.07223481684923172,1.7264578342437744,4.026365756988525,-4.1946797370910645,38.234432220458984,-27.301958084106445
2.74,-12.263215065002441,-15.670595169067383,2.9970104694366455,-0.018936822190880775,1.9964603185653687,3.9460365772247314,-3.3615901470184326,37.62057876586914,-26.79041290283203
2.75,-8.029115676879883,-14.22772216796875,1.9573287963867188,-0.11789698898792267,1.9908097982406616,3.8449385166168213,-2.2654194831848145,36.64133071899414,-26.161941528320312
2.76,-5.8372907638549805,-12.081361770629883,1.026520848274231,-0.12919799983501434,1.7776178121566772,3.7340662479400635,-1.5638701915740967,35.895938873291016,-26.264249801635742
2.77,-4.176671981811523,-10.122836112976074,0.7130610942840576,-0.06918048858642578,1.436144232749939,3.5220963954925537,-0.33615902066230774,35.720550537109375,-25.986553192138672
2.79,-2.014756679534912,-8.62492847442627,0.9343971610069275,0.02321287989616394,1.1360565423965454,3.1613802909851074,1.1546331644058228,34.127445220947266,-25.533470153808594
2.793,1.7228323221206665,-6.948756694793701,0.9092725515365601,0.15347988903522491,0.8956811428070068,2.529287338256836,0.950014591217041,33.981292724609375,-24.086524963378906
2.8,3.7256245613098145,-5.856433391571045,0.45583271980285645,0.22907446324825287,0.8701775074005127,2.2117903232574463,1.3738672733306885,33.22127914428711,-24.422683715820312
2.81,5.944967746734619,-3.548555612564087,-0.19980068504810333,0.35506540536880493,0.6684393286705017,1.8938349485397339,1.900029182434082,33.07512283325195,-24.583454132080078
2.82,6.433103561401367,-0.8949156999588013,-0.3206382095813751,0.503047525882721,0.22143864631652832,1.5920674800872803,1.8123356103897095,33.29435729980469,-24.203449249267578
2.83,6.384050369262695,0.7357929348945618,-0.2787638306617737,0.6093380451202393,-0.14645493030548096,1.1207849979400635,2.630809783935547,33.19205093383789,-24.75884246826172
2.849,10.377671241760254,-0.7992027401924133,-0.7657032608985901,0.6453791260719299,-0.5204571485519409,0.0607810914516449,3.1277403831481934,34.142066955566406,-23.808828353881836
2.852,10.63968563079834,-1.2610174417495728,-0.9332008361816406,0.6653849482536316,-0.7092145085334778,-0.12782354652881622,3.4492838382720947,33.77667236328125,-23.618824005126953
2.86,9.415757179260254,-0.8410770893096924,-1.325623631477356,0.7160868048667908,-1.087492823600769,-0.3634648323059082,3.1131248474121094,34.112831115722656,-24.583454132080078
2.87,6.51326322555542,1.1330015659332275,-1.5589239597320557,0.8309293985366821,-1.5624405145645142,-0.7544185519218445,3.4200527667999268,34.536685943603516,-24.378835678100586
2.88,5.583651542663574,1.6462620496749878,-0.8099704384803772,0.8513934016227722,-1.804801344871521,-1.2863293886184692,3.595440149307251,35.13592529296875,-25.548086166381836
2.89,6.75374174118042,1.0851449966430664,-1.0839486122131348,0.8217664957046509,-2.024254560470581,-1.8978055715560913,3.843905448913574,35.9836311340332,-26.42502212524414
2.909,6.094519138336182,0.47018963098526,-0.4977070689201355,0.8526151180267334,-2.7484354972839355,-2.6451990604400635,3.1715874671936035,37.62057876586914,-27.696578979492188
2.913,6.124429225921631,0.5096712112426758,-0.22851455211639404,0.8556694388389587,-2.8605291843414307,-2.7346909046173096,3.1715874671936035,37.54750061035156,-28.003507614135742
2.92,4.127618789672852,0.06939185410737991,1.0289136171340942,0.8448265790939331,-3.199559211730957,-2.9382619857788086,3.3615901470184326,38.263668060302734,-29.15814208984375
2.93,-0.7860422134399414,-1.8149559497833252,1.6522438526153564,0.746019184589386,-3.081815004348755,-3.1224374771118164,3.0400466918945312,39.564453125,-29.698917388916016
2.94,-3.9637105464935303,-1.8939191102981567,2.6021945476531982,0.7050911784172058,-2.4992024898529053,-3.352733850479126,2.806197166442871,40.514469146728516,-30.34200668334961
2.95,-5.174479007720947,-0.8099704384803772,3.290131092071533,0.6722572445869446,-2.051438093185425,-3.5880696773529053,2.002338409423828,41.3037109375,-30.795087814331055
2.969,-7.952546119689941,-2.097308874130249,3.9661033153533936,0.6233879327774048,-1.0598511695861816,-3.757890224456787,0.49693071842193604,43.20374298095703,-31.803565979003906
2.973,-9.239884376525879,-1.998006820678711,3.5186455249786377,0.6126978397369385,-0.9112582206726074,-3.7672059535980225,0.23384974896907806,43.40835952758789,-31.56971549987793
2.98,-10.381260871887207,-1.4500504732131958,2.8725833892822266,0.6050620079040527,-0.4917464852333069,-3.7843101024627686,-0.6869336366653442,44.12452697753906,-32.1251106262207
2.99,-9.70528793334961,-1.317248821258545,2.1236300468444824,0.6039929986000061,-0.07452555745840073,-3.720627546310425,-2.5285003185272217,44.94300079345703,-32.21280288696289
3.0,-10.023533821105957,-2.7146570682525635,1.345962643623352,0.5839871764183044,0.03787364438176155,-3.5164456367492676,-3.4638993740081787,45.556854248046875,-32.87050247192383
3.01,-11.365906715393066,-2.8725833892822266,0.891326367855072,0.5778785347938538,0.03588833287358284,-3.2459850311279297,-4.896229267120361,46.185325622558594,-32.82666015625
3.029,-13.237093925476074,-2.5471596717834473,0.3529413342475891,0.5913175940513611,-0.019853120669722557,-2.660623550415039,-7.190880298614502,47.60304260253906,-32.78281021118164
3.032,-13.823335647583008,-2.654836893081665,0.5850450992584229,0.5934555530548096,-0.019394971430301666,-2.579989194869995,-7.497807502746582,47.76381301879883,-32.32973098754883
3.04,-14.879766464233398,-2.8462624549865723,1.1617152690887451,0.6189591884613037,-0.020922133699059486,-2.178040027618408,-8.374743461608887,47.82227325439453,-33.542823791503906
3.05,-18.710676193237305,-2.717050075531006,2.6739792823791504,0.782365620136261,-0.14874568581581116,-1.5109752416610718,-9.047061920166016,48.406898498535156,-33.95206069946289
3.061,-28.46262550354004,-8.315058708190918,5.422135829925537,0.7774786949157715,0.10613783448934555,-0.7527386546134949,-9.631686210632324,48.20227813720703,-34.755916595458984
3.07,-31.440492630004883,-10.66122055053711,4.064208984375,0.7028005123138428,0.8765915632247925,-0.05574145168066025,-9.35399055480957,48.88921356201172,-34.47822189331055
3.09,-16.7318115234375,-8.95992374420166,-1.97407865524292,0.369878888130188,1.4701999425888062,0.7935139536857605,-10.05553913116455,48.72844314575195,-35.106693267822266
3.093,-9.999605178833008,-7.81854772567749,-2.359323024749756,0.3446807265281677,1.3590223789215088,0.9749408960342407,-9.54399299621582,48.78690719604492,-35.06284713745117
3.1,-5.265406131744385,-7.546962261199951,-2.366501569747925,0.33628129959106445,0.9162978529930115,1.1630873680114746,-9.73399543762207,48.14381790161133,-34.975154876708984
3.11,0.873380184173584,-10.689935684204102,-0.9858428835868835,0.16019940376281738,0.7874053120613098,1.0677924156188965,-9.26629638671875,48.17304992675781,-35.0043830871582
3.12,8.682356834411621,-9.766304969787598,-2.5471596717834473,-0.0036651913542300463,1.1230758428573608,0.5757404565811157,-8.681672096252441,48.289974212646484,-35.15053939819336
3.13,16.66242027282715,-5.800201892852783,0.09092725813388824,-0.01710422709584236,1.050840973854065,0.08643742650747299,-9.134756088256836,48.114585876464844,-34.30283737182617
3.149,-10.713863372802734,-5.5034918785095215,4.850251197814941,0.08200865983963013,-1.0855075120925903,0.1641700267791748,-8.637825012207031,48.30459213256836,-35.6036262512207
3.152,-14.038689613342285,-5.223531246185303,5.2701921463012695,0.1716531366109848,-1.0392345190048218,0.29306259751319885,-8.725519180297852,48.085357666015625,-34.77053451538086
3.16,-25.797019958496094,-7.112664699554443,7.8795647621154785,0.14584407210350037,-0.42149701714515686,0.35582900047302246,-8.374743461608887,47.471500396728516,-34.60976028442383
3.17,-24.814767837524414,-8.324629783630371,1.6510475873947144,-0.022602012380957603,0.9040805101394653,0.21792617440223694,-8.199357032775879,47.74919891357422,-35.12131118774414
3.18,-3.449253797531128,-6.5551371574401855,-1.015753149986267,-0.04963279888033867,1.768607497215271,-0.3341432809829712,-8.6670560836792,47.836891174316406,-35.355159759521484
3.19,6.203392505645752,-8.858229637145996,-3.314059257507324,-0.21991148591041565,1.4871513843536377,-0.2304489016532898,-8.973984718322754,47.5591926574707,-34.56591796875
3.203,-4.814359188079834,-14.172688484191895,-2.528017044067383,-0.3400992155075073,-0.41141775250434875,0.08918632566928864,-8.491668701171875,47.8807373046875,-34.43437576293945
3.21,-9.896714210510254,-15.474383354187012,0.4139583110809326,-0.42592576146125793,-0.42806383967399597,0.1287398487329483,-9.163987159729004,47.44226837158203,-34.85823059082031
3.22,-5.351547718048096,-12.336196899414062,4.967499732971191,-0.46471571922302246,-0.006261368282139301,-0.03894266113638878,-9.17860221862793,47.427650451660156,-34.142066955566406
3.23,-1.5409777164459229,-6.3529438972473145,4.949553489685059,-0.3145955801010132,0.04520402476191521,-0.004581489134579897,-8.79859733581543,47.866119384765625,-34.551300048828125
3.24,-7.521838188171387,-4.776073932647705,3.0352954864501953,-0.22021691501140594,-0.04917465150356293,-0.01817324012517929,-8.973984718322754,47.69073486328125,-35.179771423339844
3.25,-11.144571304321289,-5.949753284454346,1.7934205532073975,-0.2535090744495392,0.3949243724346161,-0.24526238441467285,-9.0762939453125,47.661502838134766,-34.06898498535156
3.269,-3.019742250442505,-10.297511100769043,2.1822540760040283,-0.2814561426639557,0.3732386529445648,-0.3426953852176666,-9.134756088256836,47.44226837158203,-33.8643684387207
3.272,-3.421736478805542,-11.22233772277832,1.5254243612289429,-0.2817615866661072,0.20143280923366547,-0.337503045797348,-9.617071151733398,47.60304260253906,-33.89359664916992
3.28,-4.60857629776001,-10.88016414642334,0.014356935396790504,-0.27718010544776917,0.024587325751781464,-0.3576616048812866,-9.938613891601562,47.924583435058594,-33.031280517578125
3.29,-4.886143684387207,-8.687142372131348,0.17347964644432068,-0.25076019763946533,-0.08185594528913498,-0.39843684434890747,-9.748611450195312,47.9391975402832,-33.235897064208984
3.3,-5.3036909103393555,-8.443074226379395,1.998006820678711,-0.26801711320877075,-0.21135936677455902,-0.4366159439086914,-10.245542526245117,47.51534652709961,-33.11897277832031
3.318,-6.254837989807129,-8.3629150390625,2.994617462158203,-0.2724458873271942,-0.1814269870519638,-0.5097670555114746,-10.347851753234863,48.07073974609375,-33.38205337524414
3.323,-6.246463775634766,-8.95394229888916,1.746760368347168,-0.30054569244384766,-0.1059851199388504,-0.6339254379272461,-10.114001274108887,47.19380569458008,-32.53434753417969
3.33,-5.8779683113098145,-8.763712882995605,1.3519446849822998,-0.29764407873153687,-0.07437284290790558,-0.7055493593215942,-10.800935745239258,47.57380676269531,-33.367435455322266
3.34,-5.614758491516113,-8.465806007385254,1.4261221885681152,-0.293826162815094,-0.11438451707363129,-0.8029823303222656,-10.669394493103027,47.237648010253906,-32.70973205566406
3.35,-5.520241737365723,-8.37009334564209,1.1006983518600464,-0.2603813111782074,-0.10781770944595337,-0.8886561393737793,-11.224788665771484,48.041507720947266,-32.09587860107422
3.36,-5.428117752075195,-8.684749603271484,1.117448091506958,-0.22540926933288574,-0.10476338863372803,-0.9366090893745422,-11.56094741821289,47.63227081298828,-32.56357955932617
3.37,-4.876572132110596,-8.926424980163574,0.7704888582229614,-0.17577646672725677,-0.05772676318883896,-0.9708175659179688,-12.247880935668945,48.18766403198242,-31.10201644897461
3.383,-4.961517333984375,-8.577072143554688,0.6843472719192505,-0.11911872029304504,-0.10277807712554932,-1.0147998332977295,-12.934814453125,48.14381790161133,-31.56971549987793
3.39,-5.111069202423096,-8.366503715515137,0.8506484627723694,-0.0754418596625328,-0.08384125679731369,-1.0406090021133423,-13.110200881958008,48.36305236816406,-32.446651458740234
3.4,-5.401796817779541,-8.402396202087402,1.2921241521835327,-0.01618792861700058,-0.010995574295520782,-1.080315113067627,-13.49020767211914,48.52382278442383,-32.25665283203125
3.41,-5.163711071014404,-8.651249885559082,1.5852450132369995,-0.004123340360820293,0.12797626852989197,-1.1378892660140991,-14.11867904663086,48.31920623779297,-32.00818634033203
3.42,-4.418346881866455,-9.028119087219238,1.592423439025879,0.02382374368607998,0.19654588401317596,-1.1578950881958008,-14.527915000915527,48.74305725097656,-31.964338302612305
3.439,-3.9529428482055664,-9.371489524841309,2.032702684402466,-0.031154125928878784,0.22250765562057495,-1.1943942308425903,-14.995615005493164,48.80152130126953,-31.803565979003906
3.443,-2.801995277404785,-8.803194046020508,2.555534601211548,-0.0354301817715168,0.19120082259178162,-1.1856893301010132,-15.580240249633789,48.83074951171875,-31.75971794128418
3.45,-2.9072792530059814,-8.678768157958984,2.5627129077911377,-0.04199698567390442,0.146913081407547,-1.1867583990097046,-15.901782989501953,49.42999267578125,-31.408945083618164
3.46,-3.596412181854248,-8.816354751586914,2.7314069271087646,-0.06994406878948212,0.07819075137376785,-1.2026408910751343,-16.734872817993164,48.88921356201172,-31.04355239868164
3.47,-4.108476161956787,-8.890532493591309,2.761317014694214,-0.09697485715150833,0.10522153228521347,-1.2321151494979858,-17.100261688232422,49.70768737792969,-32.09587860107422
3.48,-3.7914273738861084,-8.992227554321289,2.8139593601226807,-0.12690724432468414,0.14767667651176453,-1.2664763927459717,-17.772581100463867,49.80999755859375,-31.803565979003906
3.498,-2.8139593601226807,-9.105886459350586,2.4610180854797363,-0.14706581830978394,0.18448129296302795,-1.2528846263885498,-18.91259765625,49.73691940307617,-30.795087814331055
3.503,-1.8580267429351807,-8.73499870300293,2.2336997985839844,-0.13209959864616394,0.1137736514210701,-1.2159273624420166,-19.409530639648438,50.0584602355957,-32.02280044555664
3.51,-1.932204246520996,-8.694320678710938,1.8269200325012207,-0.11026117950677872,0.00855211354792118,-1.1727086305618286,-19.497222900390625,50.24846649169922,-32.30049514770508
3.52,-2.5351955890655518,-8.801998138427734,1.2418749332427979,-0.09957103431224823,-0.021838432177901268,-1.0897835493087769,-19.92107582092285,50.29231262207031,-31.730487823486328
3.53,-2.6943180561065674,-8.700303077697754,1.219143033027649,-0.06398813426494598,0.03833179175853729,-1.0531316995620728,-20.067232131958008,50.07307434082031,-31.920490264892578
3.54,-2.2683956623077393,-9.004191398620605,0.672383189201355,-0.027947084978222847,0.05619960278272629,-0.9984592199325562,-21.29494285583496,50.160770416259766,-32.72434997558594
3.559,-1.4955140352249146,-8.963513374328613,0.8841480016708374,0.003512475173920393,0.11010845750570297,-0.9204212427139282,-21.54340934753418,50.2776985168457,-31.935108184814453
3.563,-1.3339985609054565,-9.008976936340332,1.4967105388641357,0.031612277030944824,-0.016493361443281174,-0.8029823303222656,-22.011106491088867,50.11692810058594,-31.964338302612305
3.57,-1.4237295389175415,-9.400203704833984,1.2825528383255005,0.03039054572582245,-0.046731188893318176,-0.7038694620132446,-22.318035125732422,49.98538589477539,-31.438175201416016
3.58,-0.9966105818748474,-9.56770133972168,1.8077774047851562,0.031612277030944824,0.0377209298312664,-0.5911648273468018,-22.39111328125,49.6199951171875,-31.408945083618164
3.59,-0.2105683833360672,-9.503094673156738,2.1188442707061768,0.039248090237379074,0.03145955875515938,-0.49357911944389343,-22.47880744934082,49.590763092041016,-31.920490264892578
3.6,-0.035892337560653687,-9.663414001464844,2.038684844970703,0.021991148591041565,-0.055894169956445694,-0.33567044138908386,-23.180356979370117,50.043846130371094,-31.993568420410156
3.62,-0.20338991284370422,-9.4121675491333,2.3401803970336914,0.04459316283464432,-0.11835514008998871,-0.21303924918174744,-23.165740966796875,49.91230773925781,-31.978952407836914
3.623,-1.1868400573730469,-9.735198020935059,1.466800332069397,0.02367102913558483,-0.29993483424186707,-0.11209376901388168,-23.194971084594727,49.663841247558594,-31.408945083618164
3.63,-1.5337992906570435,-9.663414001464844,1.5960125923156738,0.001527163083665073,-0.28130343556404114,-0.010690141469240189,-23.38497543334961,50.336158752441406,-31.525867462158203
3.64,-1.306481122970581,-9.517451286315918,1.7778671979904175,-0.0073303827084600925,-0.2292271852493286,0.11621711403131485,-23.10727882385254,49.88307571411133,-31.08740234375
3.65,-0.8147560954093933,-10.25324535369873,2.196611166000366,-0.016798794269561768,-0.24846942722797394,0.20204368233680725,-23.03420066833496,49.88307571411133,-30.9266300201416
3.66,-0.2991028130054474,-10.359725952148438,2.1643080711364746,-0.01924225501716137,-0.2606867253780365,0.30894508957862854,-22.75650405883789,49.795379638671875,-31.65740966796875
3.68,-0.8338987231254578,-9.388238906860352,2.9072792530059814,-0.024892758578062057,-0.18127425014972687,0.5195409059524536,-22.347267150878906,50.0,-31.701257705688477
3.683,-2.4610180854797363,-9.050850868225098,2.2133607864379883,-0.06979135423898697,-0.11224649101495743,0.5480988025665283,-21.616485595703125,49.70768737792969,-30.955860137939453
3.69,-3.104687213897705,-9.600004196166992,1.9345970153808594,-0.12140946835279465,-0.07177666574716568,0.6013968586921692,-21.864952087402344,49.44460678100586,-31.540485382080078
3.7,-3.483949661254883,-10.109675407409668,1.4560325145721436,-0.1690569519996643,-0.006566801108419895,0.6352998614311218,-21.674949645996094,49.35691452026367,-31.408945083618164
3.71,-2.5770697593688965,-10.15633487701416,1.8077774047851562,-0.18860463798046112,0.1388191282749176,0.6618725061416626,-21.55802345275879,49.853843688964844,-30.722009658813477
3.72,-1.1545369625091553,-9.991230964660645,2.699103832244873,-0.23518311977386475,0.21700987219810486,0.688903272151947,-20.8126277923584,49.45922088623047,-30.415081024169922
3.739,-1.0301101207733154,-9.291330337524414,1.6091731786727905,-0.3237585723400116,-0.010842857882380486,0.721737265586853,-20.154926300048828,49.06460189819336,-30.765857696533203
3.743,-3.641875982284546,-9.282955169677734,0.98703932762146,-0.32498031854629517,-0.23976460099220276,0.7307475805282593,-20.125694274902344,48.845367431640625,-30.44431495666504
3.75,-5.045266151428223,-10.183852195739746,0.607776939868927,-0.39217546582221985,-0.20051652193069458,0.6969972848892212,-19.847997665405273,49.31306457519531,-30.488161087036133
3.76,-4.652843475341797,-11.069197654724121,0.98703932762146,-0.4086688458919525,0.10567968338727951,0.6821837425231934,-19.54106903076172,48.713829040527344,-30.122772216796875
3.77,-3.0664021968841553,-11.550153732299805,1.3232309818267822,-0.4662429094314575,0.36819902062416077,0.6890559792518616,-19.687227249145508,49.18152618408203,-29.625839233398438
3.78,-2.2815563678741455,-11.663813591003418,1.0145567655563354,-0.5396994352340698,0.3352122902870178,0.7078401446342468,-19.27798843383789,48.713829040527344,-30.780473709106445
3.799,-2.891726016998291,-11.483156204223633,1.32921302318573,-0.6114761233329773,0.17898350954055786,0.6550002694129944,-19.36568260192871,48.596900939941406,-29.991230010986328
3.804,-4.722235202789307,-11.312068939208984,0.8757730722427368,-0.625220537185669,0.01313360221683979,0.5490151047706604,-18.63490104675293,48.72844314575195,-29.304296493530273
3.81,-5.374279499053955,-11.745170593261719,0.7573283314704895,-0.6378960609436035,0.02977968007326126,0.5004513263702393,-18.28412628173828,48.465362548828125,-29.026599884033203
3.82,-5.893521785736084,-13.259825706481934,0.23808583617210388,-0.6831000447273254,0.2649627923965454,0.3897320032119751,-18.488744735717773,47.89535140991211,-28.70505714416504
3.83,-4.18145751953125,-13.330413818359375,1.2059825658798218,-0.5969680547714233,0.49037206172943115,0.2762638032436371,-18.25489616394043,48.20227813720703,-28.091201782226562
3.84,-2.7326035499572754,-14.158331871032715,3.2889344692230225,-0.5097670555114746,0.7157813310623169,0.21212296187877655,-18.459514617919922,48.12919998168945,-27.535808563232422
3.86,-3.3164520263671875,-15.722041130065918,2.0123636722564697,-0.5119050741195679,0.7221954464912415,0.19089537858963013,-18.72259521484375,47.82227325439453,-27.930429458618164
3.863,-4.321437358856201,-16.356138229370117,1.95852530002594,-0.39645153284072876,1.1310169696807861,0.11316278576850891,-18.44489860534668,47.851505279541016,-27.784273147583008
3.87,-3.8261232376098633,-16.235301971435547,1.3268201351165771,-0.3576616048812866,1.3938417434692383,0.08155050873756409,-18.81028938293457,48.24612808227539,-26.629642486572266
3.88,-2.475374937057495,-16.474584579467773,0.45942193269729614,-0.3087923526763916,1.7148514986038208,0.08277223259210587,-18.985675811767578,47.71996307373047,-26.483484268188477
3.89,-0.7968099117279053,-16.307085037231445,0.0406779870390892,-0.24908030033111572,1.9659169912338257,0.07498370856046677,-19.27798843383789,47.9391975402832,-26.96579933166504
3.9,1.5074782371520996,-15.219548225402832,-0.12681959569454193,-0.22372940182685852,2.1116085052490234,0.09941831976175308,-19.701841354370117,48.1584358215332,-26.264249801635742
3.919,3.4576287269592285,-14.062618255615234,0.6017948985099792,-0.22449298202991486,1.9646953344345093,0.22281308472156525,-20.447237014770508,47.79304122924805,-25.942707061767578
3.923,5.175675392150879,-14.032707214355469,1.3950154781341553,-0.22082778811454773,1.8252654075622559,0.23915374279022217,-20.520315170288086,48.24612808227539,-26.015785217285156
3.93,6.003591537475586,-14.621342658996582,1.8951154947280884,-0.22098049521446228,1.5117387771606445,0.27122417092323303,-21.061092376708984,48.465362548828125,-26.32271385192871
3.94,5.808576583862305,-15.211173057556152,3.291327476501465,-0.2877175211906433,0.7536550164222717,0.48716503381729126,-20.695703506469727,47.836891174316406,-25.036537170410156
3.95,2.6835503578186035,-16.232908248901367,4.329812526702881,-0.44318273663520813,-0.3222314119338989,1.0045678615570068,-20.549545288085938,48.45074462890625,-24.583454132080078
3.96,-4.794020175933838,-18.641284942626953,2.633301258087158,-0.6527094841003418,-1.5004377365112305,1.907121181488037,-19.74568748474121,47.836891174316406,-24.656532287597656
3.98,-14.964713096618652,-20.220548629760742,3.4636106491088867,-0.7548767328262329,-2.144442319869995,3.0271427631378174,-16.778718948364258,47.03303146362305,-24.159603118896484
3.983,-20.178672790527344,-18.37209129333496,3.860819101333618,-0.607810914516449,-1.9339993000030518,3.49521803855896,-15.317158699035645,46.740718841552734,-24.84653663635254
3.99,-17.259429931640625,-18.379270553588867,4.82751989364624,-0.48288896679878235,-1.582751750946045,3.8479928970336914,-14.07483196258545,46.667640686035156,-23.998830795288086
4.0,-14.384452819824219,-19.268203735351562,3.6741790771484375,-0.4021020233631134,-1.126282811164856,4.192673683166504,-12.204033851623535,45.68839645385742,-22.94650650024414
4.01,-13.146166801452637,-19.849658966064453,3.1692936420440674,-0.30695977807044983,-0.6801984310150146,4.44816780090332,-10.435544967651367,44.70914840698242,-22.975738525390625
4.02,-14.807982444763184,-19.478771209716797,2.695514678955078,-0.2716823220252991,-0.26832255721092224,4.551403999328613,-8.31628131866455,44.22683334350586,-22.624963760375977
4.04,-16.108482360839844,-18.238094329833984,2.7840490341186523,-0.37079522013664246,1.11085844039917,4.361119747161865,-5.700087547302246,41.74217987060547,-21.938030242919922
4.043,-11.758330345153809,-16.79522132873535,2.7625136375427246,-0.4040873646736145,1.4037683010101318,4.217260837554932,-5.334697246551514,41.74217987060547,-21.514177322387695
4.05,-7.940581321716309,-15.899109840393066,2.4227328300476074,-0.437226802110672,1.65834641456604,4.008650302886963,-4.1216020584106445,41.55217742919922,-21.55802345275879
4.06,-3.040081262588501,-14.12004566192627,1.6905291080474854,-0.4311181306838989,1.6516268253326416,3.766136884689331,-3.2885122299194336,40.149078369140625,-20.447237014770508
4.07,1.0061818361282349,-12.41396427154541,1.1306086778640747,-0.3300199508666992,1.3246612548828125,3.478419303894043,-2.981584310531616,38.96521759033203,-20.198772430419922
4.08,4.376472473144531,-11.267801284790039,1.2454640865325928,-0.20631973445415497,0.7072292566299438,3.049286365509033,-2.2069568634033203,38.234432220458984,-20.388774871826172
4.099,7.022934436798096,-9.024530410766602,0.5371886491775513,0.01664607785642147,-0.16951508820056915,2.621222734451294,-0.07307805120944977,36.31978988647461,-19.24875831604004
4.103,6.0155558586120605,-5.343172550201416,0.5491527915000916,0.06734789162874222,-0.3660609722137451,2.4726297855377197,-0.1900029182434082,36.62671661376953,-19.292604446411133
4.111,5.149354457855225,-3.080759048461914,0.3278166949748993,0.1345430612564087,-0.5342016220092773,2.1401662826538086,0.8477053642272949,36.31978988647461,-18.985675811767578
4.12,5.064409255981445,-0.8781659007072449,0.23569302260875702,0.19165895879268646,-0.5395467281341553,1.6122260093688965,1.0230926275253296,35.179771423339844,-19.45337677001953
4.13,6.897311210632324,0.5635097026824951,-0.11964112520217896,0.2480112910270691,-0.5619960427284241,0.9144652485847473,1.8415666818618774,34.69745635986328,-20.08184814453125
4.14,8.752944946289062,1.1892328262329102,0.10408778488636017,0.3162754774093628,-0.8781187534332275,0.4651738703250885,2.3238818645477295,34.536685943603516,-20.608009338378906
4.159,9.164510726928711,1.1437692642211914,-0.18783655762672424,0.5543602108955383,-1.7382169961929321,-0.38347065448760986,2.4115755558013916,34.682838439941406,-21.514177322387695
4.163,7.777869701385498,1.1294121742248535,0.19980068504810333,0.5748242139816284,-1.8208365440368652,-0.4876231551170349,2.923121929168701,34.85823059082031,-21.83572006225586
4.17,6.674778461456299,1.368694543838501,0.15314064919948578,0.6249151229858398,-2.0037906169891357,-0.8124507665634155,3.493130683898926,34.49283981323242,-21.894182205200195
4.18,5.497509956359863,1.875972867012024,-0.2667997181415558,0.6774495244026184,-2.186286687850952,-1.3518447875976562,3.653902292251587,34.6682243347168,-22.785736083984375
4.19,5.096712112426758,1.9645073413848877,-0.09690931439399719,0.7247915863990784,-2.3547327518463135,-1.7928894758224487,3.493130683898926,35.106693267822266,-24.305757522583008
4.2,5.893521785736084,1.4117653369903564,-0.14715859293937683,0.6908885836601257,-2.5337162017822266,-2.197434902191162,4.004676818847656,35.57439422607422,-25.577316284179688
4.219,1.026520848274231,0.2512463629245758,1.750349760055542,0.7012733221054077,-3.0505082607269287,-2.774855375289917,4.1800642013549805,36.919029235839844,-27.24349594116211
4.223,-0.0131605239585042,-0.26560330390930176,1.7443677186965942,0.6441574096679688,-2.8626673221588135,-2.8712191581726074,3.9315991401672363,37.035953521728516,-28.003507614135742
4.23,-2.1990039348602295,-0.9272187352180481,1.5792629718780518,0.6275113224983215,-2.472935199737549,-3.028517246246338,3.3615901470184326,37.54750061035156,-29.771995544433594
4.24,-3.9553356170654297,0.12801600992679596,2.324627161026001,0.5983425378799438,-2.0415115356445312,-3.2511775493621826,3.1715874671936035,38.190589904785156,-30.73662757873535
4.25,-4.748556613922119,0.7896314859390259,2.310270071029663,0.6171265840530396,-1.7143932580947876,-3.417180061340332,2.616194009780884,39.1259880065918,-31.71587371826172
4.26,-6.751348495483398,-0.31345975399017334,2.740978240966797,0.6189591884613037,-1.3287845849990845,-3.5109479427337646,1.0961706638336182,39.72522735595703,-32.87050247192383
4.279,-10.436296463012695,-1.8340984582901,2.3150558471679688,0.5540547966957092,-0.3839287757873535,-3.5277466773986816,-1.0961706638336182,40.85062789916992,-33.10435485839844
4.283,-10.721041679382324,-1.8855441808700562,2.2061824798583984,0.5400048494338989,-0.19853119552135468,-3.4749069213867188,-1.490792155265808,41.39140701293945,-33.67436599731445
4.29,-11.349157333374023,-2.210968017578125,1.7706886529922485,0.5061018466949463,0.007177666295319796,-3.3644931316375732,-2.4408068656921387,42.10757064819336,-34.712074279785156
4.3,-12.050254821777344,-2.6261227130889893,1.0767701864242554,0.4821254014968872,0.1514945775270462,-3.126102924346924,-3.800058364868164,42.56065368652344,-34.127445220947266
4.31,-13.5302152633667,-2.7182462215423584,0.8614161610603333,0.4824308156967163,0.18219056725502014,-2.8235716819763184,-4.881613731384277,43.04296875,-34.551300048828125
4.32,-13.970494270324707,-3.0448665618896484,0.7034898400306702,0.4859433174133301,0.21471913158893585,-2.4752261638641357,-6.226249694824219,43.52528381347656,-34.93130874633789
4.339,-14.511272430419922,-3.6885359287261963,0.48454657196998596,0.4642575979232788,0.01313360221683979,-1.652695894241333,-7.541654109954834,44.38760757446289,-34.975154876708984
4.343,-14.553147315979004,-3.961317777633667,0.656829833984375,0.4317289888858795,-0.044745877385139465,-1.4303408861160278,-7.556270122528076,44.27068328857422,-35.74978256225586
4.35,-14.962320327758789,-3.844069242477417,0.6604190468788147,0.3752239942550659,-0.08002334833145142,-1.0783298015594482,-7.863198280334473,44.41683578491211,-35.559776306152344
4.36,-15.518651008605957,-2.9168508052825928,0.7980062961578369,0.31810805201530457,-0.06276640295982361,-0.6481279730796814,-8.330897331237793,44.72376251220703,-36.275943756103516
4.37,-15.580863952636719,-1.3758729696273804,0.6771687865257263,0.2997821271419525,-0.008399397134780884,-0.3321579694747925,-8.959368705749512,44.97222900390625,-36.77287292480469
4.38,-16.015161514282227,-0.28953152894973755,2.8893332481384277,0.5019785165786743,-0.06780604273080826,0.10812314599752426,-8.915521621704102,44.88453674316406,-36.93364715576172
4.4,-19.13540267944336,-11.420942306518555,3.018545627593994,0.26710081100463867,0.9576839804649353,0.6417139768600464,-8.199357032775879,44.65068435668945,-36.71440887451172
4.404,-13.372288703918457,-10.99741268157959,1.95852530002594,0.23487769067287445,1.0543533563613892,0.6362161040306091,-8.47705364227295,44.75299835205078,-37.050567626953125
4.41,-3.480360507965088,-10.110871315002441,0.7884350419044495,0.15974126756191254,0.9436340928077698,0.5288565754890442,-8.623209953308105,45.1037712097168,-37.299034118652344
4.42,7.810173034667969,-11.255837440490723,2.5734806060791016,0.17150041460990906,0.46043968200683594,0.2541199326515198,-8.871675491333008,44.85530471801758,-36.99210739135742
4.43,9.058029174804688,-14.177474021911621,3.1788647174835205,0.11575896292924881,0.34116825461387634,0.27290403842926025,-8.930137634277344,44.811458587646484,-36.77287292480469
4.44,-0.09810572117567062,-14.246865272521973,3.427718162536621,0.07666358351707458,-0.01542434748262167,0.28038716316223145,-8.623209953308105,44.636070251464844,-36.3636360168457
4.453,-11.667403221130371,-13.87956714630127,2.8737800121307373,0.025045473128557205,-0.28038716316223145,0.3478877544403076,-8.330897331237793,45.1037712097168,-36.524410247802734
4.46,-15.875181198120117,-14.086545944213867,0.5228317379951477,-0.1359175145626068,0.09911288321018219,0.46181410551071167,-8.345513343811035,44.986846923828125,-36.88979721069336
4.47,-11.405388832092285,-11.572885513305664,-3.617947816848755,-0.3142901659011841,0.6392704248428345,0.2370157092809677,-8.184741020202637,44.70914840698242,-36.34901809692383
4.48,-3.6358938217163086,-9.410971641540527,-2.726621150970459,-0.40256020426750183,0.6247624158859253,0.16050483286380768,-8.491668701171875,45.27915573120117,-36.20286560058594
4.49,-2.431107759475708,-6.7680983543396,1.0444670915603638,-0.4332561492919922,0.056810468435287476,0.22861631214618683,-8.535516738891602,45.39608383178711,-36.05670928955078
4.509,-6.987041473388672,-4.652843475341797,4.6157546043396,-0.38957932591438293,-0.1463022232055664,0.23090705275535583,-8.418591499328613,44.75299835205078,-35.969017028808594
4.513,-9.363115310668945,-6.923632621765137,4.703092575073242,-0.33796119689941406,0.17867808043956757,0.04520402476191521,-8.550130844116211,44.986846923828125,-35.6036262512207
4.52,-6.784848213195801,-9.505488395690918,2.8319056034088135,-0.3286454975605011,0.46211957931518555,-0.0809396430850029,-8.213972091674805,45.01607894897461,-35.369773864746094
4.53,-3.194417953491211,-11.44965648651123,0.891326367855072,-0.32910364866256714,0.4294382631778717,-0.16065755486488342,-7.600116729736328,44.86991882324219,-35.03361511230469
4.54,-2.9515466690063477,-10.013962745666504,0.22851455211639404,-0.32039880752563477,-0.080634206533432,-0.1898263692855835,-8.009353637695312,44.84069061279297,-34.726688385009766
4.55,-5.953342914581299,-7.383053779602051,1.7443677186965942,-0.33399054408073425,-0.27382034063339233,-0.23426681756973267,-8.535516738891602,44.38760757446289,-34.682838439941406
4.568,-6.918846607208252,-7.861618518829346,2.610569477081299,-0.2843577563762665,-0.2102903574705124,-0.32620203495025635,-8.287050247192383,44.446067810058594,-34.30283737182617
4.572,-5.5274200439453125,-8.665606498718262,2.5160529613494873,-0.2565633952617645,-0.04932736977934837,-0.4415028393268585,-8.360128402709961,44.38760757446289,-35.2674674987793
4.58,-4.594219207763672,-8.394021987915039,2.0673987865448,-0.2370157092809677,-0.002138028386980295,-0.45204025506973267,-8.75475025177002,44.84069061279297,-35.092079162597656
4.59,-4.687539577484131,-8.926424980163574,1.9310078620910645,-0.20723602175712585,-0.04046982154250145,-0.48747044801712036,-9.134756088256836,44.50453186035156,-35.07746124267578
4.6,-5.809772968292236,-9.031708717346191,1.4225330352783203,-0.18585574626922607,-0.08506298810243607,-0.5584835410118103,-9.280911445617676,44.75299835205078,-34.185909271240234
4.61,-5.458028316497803,-8.251648902893066,1.4871392250061035,-0.14233160018920898,-0.06811147183179855,-0.6372851133346558,-9.193218231201172,44.636070251464844,-34.09821701049805
4.63,-5.37786865234375,-8.525627136230469,1.270588755607605,-0.12278390675783157,-0.09056076407432556,-0.6733261942863464,-9.456298828125,44.85530471801758,-34.171295166015625
4.633,-5.49392032623291,-8.6033935546875,1.502692461013794,-0.08979719132184982,-0.08445211499929428,-0.759305477142334,-9.923998832702637,45.01607894897461,-33.71821212768555
4.64,-5.184049606323242,-8.250452041625977,1.9465612173080444,-0.08414668589830399,-0.05574145168066025,-0.7867944240570068,-10.070155143737793,44.82607650756836,-34.156681060791016
4.65,-4.728217601776123,-8.492127418518066,2.331805467605591,-0.08078692108392715,-0.09896016865968704,-0.8541423082351685,-10.698626518249512,46.02455520629883,-33.84975051879883
4.66,-5.547759056091309,-8.772088050842285,1.8317056894302368,-0.08536841720342636,-0.11850785464048386,-0.9111055135726929,-10.713241577148438,45.22069549560547,-34.156681060791016
4.67,-5.577669143676758,-8.434700012207031,1.8233308792114258,-0.09315694868564606,-0.058490343391895294,-0.9633344411849976,-11.297865867614746,45.805320739746094,-34.46360778808594
4.688,-4.808376789093018,-8.96112060546875,2.121237277984619,-0.11301006376743317,-0.028405234217643738,-1.0198395252227783,-11.853259086608887,45.717628479003906,-34.127445220947266
4.693,-4.3752760887146,-9.125028610229492,2.1511476039886475,-0.14019358158111572,-0.009926560334861279,-1.0731375217437744,-12.028646469116211,45.790706634521484,-34.06898498535156
4.7,-4.289134502410889,-8.94556713104248,2.1810576915740967,-0.15332716703414917,-0.0022907445672899485,-1.0960450172424316,-12.335575103759766,45.96609115600586,-34.82899475097656
4.71,-4.31306266784668,-9.037691116333008,2.142772674560547,-0.18035796284675598,0.01924225501716137,-1.1253665685653687,-12.70096492767334,46.112247467041016,-33.64513397216797
4.72,-3.896711587905884,-9.04845905303955,2.337787628173828,-0.18096882104873657,0.07162395119667053,-1.162629246711731,-13.665594100952148,46.477638244628906,-33.33820343017578
4.73,-3.671786069869995,-9.256633758544922,2.465803623199463,-0.20555615425109863,0.11224649101495743,-1.1997393369674683,-13.840982437133789,46.49225616455078,-33.87898254394531
4.75,-3.6059837341308594,-9.11426067352295,2.445464611053467,-0.19868391752243042,0.15622878074645996,-1.239598274230957,-14.688687324523926,46.02455520629883,-34.200523376464844
4.754,-4.2245283126831055,-8.921639442443848,1.9633108377456665,-0.21319197118282318,0.15790866315364838,-1.29549241065979,-14.980999946594238,46.00994110107422,-34.31745147705078
4.76,-4.084547996520996,-8.810372352600098,1.4297115802764893,-0.19288070499897003,0.19394971430301666,-1.3235923051834106,-15.56562328338623,46.46302032470703,-33.820518493652344
4.77,-3.4947173595428467,-8.947959899902344,1.695314884185791,-0.16584990918636322,0.1950187236070633,-1.3315335512161255,-15.960245132446289,47.09149169921875,-33.002044677734375
4.78,-2.548356056213379,-8.569893836975098,1.6019947528839111,-0.11636982858181,0.19578230381011963,-1.3292428255081177,-16.851797103881836,46.872257232666016,-33.27974319458008
4.79,-2.2097716331481934,-8.36411190032959,1.4931212663650513,-0.06322455406188965,0.20815233886241913,-1.2710578441619873,-17.407190322875977,46.945335388183594,-32.5489616394043
4.81,-2.0721843242645264,-8.799604415893555,1.3483555316925049,0.0022907445672899485,0.28787022829055786,-1.2133311033248901,-18.06489372253418,47.33995819091797,-33.162818908691406
4.814,-0.9367900490760803,-9.297311782836914,1.8089739084243774,0.05161811038851738,0.3816380500793457,-1.1388055086135864,-18.35720443725586,47.500728607177734,-32.89973831176758
4.82,-0.468993216753006,-9.233901977539062,2.210968017578125,0.0910189226269722,0.3901901841163635,-1.0671815872192383,-17.933351516723633,47.44226837158203,-32.607425689697266
4.83,-0.8410770893096924,-9.11426067352295,2.2396819591522217,0.12064588069915771,0.36651915311813354,-0.9364563822746277,-19.36568260192871,48.1584358215332,-33.30897521972656
4.84,-1.4464612007141113,-9.227920532226562,2.3162522315979004,0.12278390675783157,0.37400221824645996,-0.8292495608329773,-19.760305404663086,47.89535140991211,-32.91435241699219
4.85,-1.3160523176193237,-9.528219223022461,2.431107759475708,0.1111774668097496,0.43905937671661377,-0.6998988389968872,-20.052616119384766,48.36305236816406,-33.30897521972656
4.87,-0.363709032535553,-9.182456970214844,2.744567632675171,0.12919799983501434,0.46761733293533325,-0.602465808391571,-20.447237014770508,47.69073486328125,-33.27974319458008
4.873,-0.9152546525001526,-9.316454887390137,1.5589239597320557,0.09376781433820724,0.3251330256462097,-0.4700608253479004,-20.608009338378906,47.89535140991211,-33.2066650390625
4.88,-1.0133603811264038,-9.163313865661621,1.734796404838562,0.11285734921693802,0.3197879493236542,-0.40485095977783203,-20.564163208007812,47.63227081298828,-32.622039794921875
4.89,-1.026520848274231,-9.339186668395996,2.493321180343628,0.09514226019382477,0.3266601860523224,-0.3032945990562439,-20.65185546875,47.74919891357422,-32.91435241699219
4.9,-0.6113661527633667,-9.780662536621094,2.111665964126587,0.038026362657547,0.1641700267791748,-0.18371771275997162,-20.8126277923584,47.63227081298828,-33.49897384643555
4.91,0.7357929348945618,-10.084550857543945,2.720639228820801,0.016035212203860283,-0.018936822190880775,-0.11178833991289139,-21.10494041442871,48.17304992675781,-33.250511169433594
4.929,1.454836130142212,-9.482755661010742,3.0352954864501953,-0.009468411095440388,-0.18891006708145142,0.050243668258190155,-20.768781661987305,48.099971771240234,-33.87898254394531
4.933,0.9834501147270203,-9.46480941772461,3.9421751499176025,-0.06185010448098183,-0.36361753940582275,0.260992169380188,-20.73954963684082,47.60304260253906,-33.74744415283203
4.94,-0.1663011610507965,-9.852446556091309,3.5676984786987305,-0.11010845750570297,-0.4509712755680084,0.3854559361934662,-20.754165649414062,47.500728607177734,-33.07512283325195
4.95,-1.621137261390686,-9.811769485473633,3.0269205570220947,-0.1661553531885147,-0.3848450779914856,0.5334380269050598,-20.37415885925293,47.529964447021484,-33.48435974121094
4.96,-1.2885348796844482,-9.30209732055664,2.803191661834717,-0.19898934662342072,-0.128434419631958,0.6577491164207458,-20.62262535095215,47.20841979980469,-33.27974319458008
4.97,-0.30987051129341125,-9.33440113067627,2.7696919441223145,-0.22892174124717712,-0.06536258012056351,0.7956519722938538,-20.169540405273438,47.851505279541016,-33.41128158569336
4.99,-1.3088740110397339,-9.56650447845459,2.5902304649353027,-0.2629774808883667,-0.15546520054340363,0.9059131145477295,-19.774919509887695,47.544578552246094,-33.367435455322266
4.993,-3.8500516414642334,-9.745965957641602,1.3471590280532837,-0.2742784917354584,-0.03588833287358284,0.960280179977417,-19.614147186279297,47.237648010253906,-33.045894622802734
5.0,-3.9254255294799805,-9.790233612060547,1.3411771059036255,-0.29428431391716003,0.06719517707824707,0.9604328870773315,-19.321834564208984,47.00379943847656,-33.07512283325195
5.01,-3.521038293838501,-9.920642852783203,1.672582983970642,-0.3579670190811157,0.2736676335334778,0.9543241858482361,-18.415668487548828,47.38380432128906,-32.95820236206055
5.02,-2.7601208686828613,-9.45763111114502,1.6941183805465698,-0.35613444447517395,0.3016147017478943,0.8819366693496704,-18.35720443725586,46.88687515258789,-31.964338302612305
5.03,-3.8392839431762695,-9.638289451599121,0.6891329288482666,-0.3384193181991577,0.11530081182718277,0.8266533613204956,-17.78719711303711,46.88687515258789,-32.607425689697266
5.05,-5.50229549407959,-10.204191207885742,0.24167509377002716,-0.36163219809532166,0.06872233748435974,0.7452555894851685,-17.670272827148438,46.901493072509766,-32.46126937866211
5.054,-5.487938404083252,-11.36231803894043,0.17108681797981262,-0.39706239104270935,0.42271873354911804,0.5911648273468018,-17.085647583007812,46.60917663574219,-31.59894561767578
5.06,-4.559523582458496,-11.893524169921875,0.8578268885612488,-0.408974289894104,0.6090326309204102,0.5511531829833984,-17.480268478393555,46.98918533325195,-32.2274169921875
5.07,-1.7874385118484497,-12.259626388549805,1.3184452056884766,-0.45036038756370544,0.6183483004570007,0.5019785165786743,-16.96872329711914,46.19994354248047,-31.218942642211914
5.08,-1.2514461278915405,-11.941380500793457,1.7288143634796143,-0.44974952936172485,0.4187481105327606,0.4879285991191864,-16.910259246826172,46.05378341674805,-31.248172760009766
5.09,-3.293720245361328,-12.124431610107422,1.9645073413848877,-0.4447098672389984,0.1768454760313034,0.4608978033065796,-16.501022338867188,46.22917175292969,-30.795087814331055
5.109,-5.912664413452148,-12.494123458862305,1.765903115272522,-0.45646902918815613,0.31642818450927734,0.35613444447517395,-16.530254364013672,45.62993240356445,-30.122772216796875
5.113,-6.399603843688965,-13.15932846069336,1.9932211637496948,-0.3761402666568756,0.9248499870300293,0.12263119220733643,-15.945630073547363,45.83454895019531,-30.707395553588867
5.12,-5.894718170166016,-14.367703437805176,1.0899306535720825,-0.408974289894104,1.105513334274292,0.0786488950252533,-16.42794418334961,45.60070037841797,-30.254310607910156
5.13,-4.054637908935547,-15.311671257019043,1.3471590280532837,-0.3871358335018158,1.3953689336776733,-0.024892758578062057,-17.056415557861328,45.98070526123047,-30.780473709106445
5.14,-2.121237277984619,-15.780665397644043,1.2251251935958862,-0.36651915311813354,1.4610369205474854,-0.0887281745672226,-16.98333740234375,45.8199348449707,-29.406606674194336
5.15,-1.1940184831619263,-16.268800735473633,0.9008976817131042,-0.34666600823402405,1.4650075435638428,-0.06032294034957886,-17.42180633544922,45.64455032348633,-29.71353530883789
5.17,-1.3603196144104004,-16.673187255859375,0.4977070689201355,-0.3251330256462097,1.5367841720581055,-0.04688390716910362,-17.80181312561035,45.93686294555664,-29.479684829711914
5.173,-0.7441678643226624,-16.0701961517334,0.13878370821475983,-0.2802344262599945,1.743256688117981,-0.0962112694978714,-18.00642967224121,45.64455032348633,-28.938907623291016
5.18,0.5503491759300232,-15.180066108703613,-0.04307080805301666,-0.28069257736206055,1.8779523372650146,-0.10323622077703476,-17.845659255981445,45.24992752075195,-29.055830001831055
5.19,2.4562323093414307,-13.950155258178711,0.061016976833343506,-0.3039054572582245,2.0566306114196777,-0.055894169956445694,-19.0733699798584,45.70301055908203,-28.588130950927734
5.2,4.789234161376953,-13.022936820983887,0.7262216210365295,-0.32498031854629517,1.9871447086334229,0.0073303827084600925,-19.131834030151367,45.51300811767578,-28.412744522094727
5.21,6.4833526611328125,-13.278968811035156,1.223928689956665,-0.3617849349975586,1.501812219619751,0.1007927656173706,-19.614147186279297,45.366851806640625,-28.82198143005371
5.229,6.702296257019043,-14.422737121582031,2.9766714572906494,-0.5803219676017761,-0.2278527319431305,0.5641340017318726,-19.409530639648438,45.366851806640625,-28.208127975463867
5.232,3.5258240699768066,-17.726030349731445,4.845465660095215,-0.7696901559829712,-0.8788823485374451,0.9153815507888794,-18.824905395507812,44.95761489868164,-28.52967071533203
5.24,-1.172482967376709,-18.01675796508789,3.7088749408721924,-0.9191994071006775,-1.7823519706726074,1.5656476020812988,-18.313358306884766,44.562992095947266,-28.032737731933594
5.25,-9.736394882202148,-17.333606719970703,3.576073169708252,-0.9143125414848328,-2.5057692527770996,2.347555160522461,-16.720256805419922,44.32914352416992,-28.73428726196289
5.26,-14.793625831604004,-16.64327621459961,4.4027934074401855,-0.7623597979545593,-2.6374106407165527,2.7867672443389893,-16.164865493774414,43.072200775146484,-28.456592559814453
5.27,-16.9005069732666,-15.767504692077637,4.2209391593933105,-0.693637490272522,-2.2649357318878174,3.4773504734039307,-13.241742134094238,42.502193450927734,-28.83659553527832
5.29,-17.38983726501465,-18.155540466308594,3.860819101333618,-0.5429064631462097,-1.9014707803726196,4.067598819732666,-9.54399299621582,41.698333740234375,-28.73428726196289
5.293,-16.406387329101562,-19.80898094177246,4.060619831085205,-0.39278632402420044,-1.247844934463501,4.385554313659668,-9.061677932739258,41.2452507019043,-28.70505714416504
5.3,-15.355938911437988,-19.581663131713867,3.511467218399048,-0.3723223805427551,-0.7246388792991638,4.466341018676758,-7.395498275756836,40.79216766357422,-29.37737464904785
5.31,-14.55673599243164,-18.605392456054688,3.0340988636016846,-0.3735440969467163,-0.15943582355976105,4.5100178718566895,-5.904706001281738,40.23677444458008,-29.24583625793457
5.32,-14.017154693603516,-17.560924530029297,2.6177480220794678,-0.42699480056762695,0.5697845816612244,4.457178115844727,-3.712364673614502,38.71674728393555,-28.661209106445312
5.33,-11.203194618225098,-16.582260131835938,2.5076780319213867,-0.4637994170188904,1.006095051765442,4.364021301269531,-2.2946505546569824,38.08827590942383,-28.383514404296875
5.349,-8.204988479614258,-15.527026176452637,2.359323024749756,-0.48869219422340393,1.0445795059204102,3.966806173324585,-0.2192341536283493,36.422096252441406,-28.73428726196289
5.352,-3.8703906536102295,-12.927223205566406,2.038684844970703,-0.4755585789680481,0.988379955291748,3.8967092037200928,0.5700087547302246,35.720550537109375,-27.813507080078125
5.36,-1.4919248819351196,-11.298907279968262,1.7635102272033691,-0.4095851480960846,0.8335255980491638,3.6529741287231445,1.388482928276062,35.58900833129883,-27.740427017211914
5.37,1.4380862712860107,-9.579665184020996,1.6115659475326538,-0.2658790946006775,0.5958990454673767,3.216205358505249,2.893890619277954,33.77667236328125,-27.55042266845703
5.38,4.192224979400635,-8.01236629486084,1.3758729696273804,-0.16814064979553223,0.39797869324684143,2.9277243614196777,3.507746458053589,33.07512283325195,-27.15580177307129
5.39,4.8191447257995605,-6.135197162628174,0.9451649785041809,-0.05711590126156807,0.18051066994667053,2.7033841609954834,3.887752056121826,32.53434753417969,-27.667348861694336
5.409,4.750949382781982,-1.9728822708129883,0.7561319470405579,0.08949175477027893,0.08903361111879349,1.8930712938308716,5.685472011566162,31.08740234375,-26.702720642089844
5.412,5.2701921463012695,-1.5684951543807983,0.4833501875400543,0.09941831976175308,0.12308934330940247,1.7429511547088623,5.714703559875488,31.511253356933594,-26.819643020629883
5.42,6.985845565795898,-0.3924228847026825,0.007178467698395252,0.1635591685771942,0.12171489745378494,1.240820050239563,5.8900909423828125,31.18971061706543,-27.696578979492188
5.43,8.333003997802734,1.0959126949310303,0.10289137810468674,0.24037547409534454,-0.16722436249256134,0.8101600408554077,6.986261367797852,30.985092163085938,-27.755043029785156
5.44,9.104689598083496,1.2131609916687012,0.0813559740781784,0.3298672139644623,-0.5357288122177124,0.2741257846355438,7.190880298614502,30.488161087036133,-27.798887252807617
5.45,9.31765079498291,0.9547362327575684,-0.348155677318573,0.4326452910900116,-0.9217956066131592,-0.18707747757434845,7.220110893249512,30.54662322998047,-28.26658821105957
5.469,8.303093910217285,0.9918249249458313,-0.41156551241874695,0.6441574096679688,-1.6365079879760742,-1.0435105562210083,7.907044887542725,31.292020797729492,-29.625839233398438
5.473,7.099504470825195,0.8195416927337646,-0.19621144235134125,0.660803496837616,-1.7580702304840088,-1.2736539840698242,7.7901201248168945,30.985092163085938,-30.6489315032959
5.48,6.833901405334473,1.246660590171814,-0.5264209508895874,0.6824891567230225,-1.9462167024612427,-1.5729780197143555,7.877813339233398,31.350481033325195,-31.248172760009766
5.49,5.821736812591553,1.6737794876098633,-0.332602322101593,0.7250970005989075,-2.3151791095733643,-1.9442312717437744,8.053200721740723,31.803565979003906,-31.993568420410156
5.5,6.134000778198242,1.5672988891601562,-0.24526430666446686,0.7168503403663635,-2.601217031478882,-2.3904683589935303,8.199357032775879,32.5489616394043,-32.680503845214844
5.51,5.758327960968018,1.0109676122665405,0.7716853022575378,0.722959041595459,-3.0497448444366455,-2.7235426902770996,8.345513343811035,32.943580627441406,-33.250511169433594
5.53,-3.3068807125091553,-1.3950154781341553,2.825923442840576,0.625220537185669,-2.7368288040161133,-3.0224084854125977,6.986261367797852,34.551300048828125,-37.708274841308594
5.533,-5.5166521072387695,-0.468993216753006,3.159722089767456,0.6255260109901428,-2.5059218406677246,-3.121368646621704,7.015492916107178,34.59514617919922,-38.32212829589844
5.54,-6.689135551452637,0.5048855543136597,3.7088749408721924,0.6201809048652649,-2.094351291656494,-3.3684635162353516,6.430868148803711,34.96053695678711,-38.599822998046875
5.55,-5.5166521072387695,-0.7417749762535095,4.00917387008667,0.5998696684837341,-1.5418237447738647,-3.581197500228882,5.188541412353516,36.34901809692383,-39.69599533081055
5.56,-6.75374174118042,-2.4335005283355713,4.663610935211182,0.5894849896430969,-1.1494957208633423,-3.5868477821350098,4.852382659912109,37.24057388305664,-39.73984146118164
5.57,-10.78564739227295,-2.117647886276245,4.504488468170166,0.594524621963501,-0.8126034736633301,-3.5376734733581543,3.2300498485565186,37.62057876586914,-41.186790466308594
5.59,-12.275178909301758,-2.54117751121521,2.9144580364227295,0.5395467281341553,0.3576616048812866,-3.38602614402771,0.7161648273468018,39.4621467590332,-42.20988082885742
5.593,-11.371889114379883,-2.376072883605957,2.4119651317596436,0.5438227653503418,0.38667771220207214,-3.318830728530884,-0.42385268211364746,40.61677932739258,-41.80064392089844
5.6,-11.320443153381348,-2.1092729568481445,1.6462620496749878,0.5647448897361755,0.31413745880126953,-3.0673069953918457,-1.3300204277038574,40.73370361328125,-42.078338623046875
5.61,-13.177273750305176,-2.2911276817321777,1.113858938217163,0.6177374720573425,0.02932153083384037,-2.6813931465148926,-2.4554224014282227,41.77141189575195,-43.34989929199219
5.62,-16.15275001525879,-3.7531421184539795,1.3651052713394165,0.6285803318023682,-0.14676035940647125,-2.258063316345215,-3.712364673614502,41.28909683227539,-43.58374786376953
5.63,-17.481962203979492,-4.0079779624938965,1.4871392250061035,0.6039929986000061,-0.021532999351620674,-1.7597500085830688,-4.048523902893066,41.81526184082031,-43.876060485839844
5.649,-15.109477996826172,-2.0171494483947754,1.0229315757751465,0.6044511198997498,0.26145032048225403,-0.9702066779136658,-5.159310340881348,41.9614143371582,-43.61297607421875
5.652,-14.56511116027832,-1.7180465459823608,1.215553879737854,0.6243042945861816,0.25106561183929443,-0.8558222055435181,-5.1446943283081055,41.946800231933594,-42.85296630859375
5.66,-16.541582107543945,-1.7958134412765503,2.6117656230926514,0.7596108913421631,0.076052725315094,-0.3770565688610077,-5.52470064163208,42.268341064453125,-43.817596435546875
5.67,-26.18824577331543,-6.358925819396973,5.018945217132568,0.8521569967269897,0.08139779418706894,0.3686571717262268,-6.007015228271484,41.712947845458984,-44.22683334350586
5.68,-30.362524032592773,-11.272586822509766,2.0554347038269043,0.469449907541275,1.2890783548355103,0.7402159571647644,-5.495469093322754,41.46448516845703,-44.022212982177734
5.69,-12.485748291015625,-8.137989044189453,-2.275574207305908,0.2874121069908142,1.8536704778671265,0.6180429458618164,-5.773165702819824,41.873722076416016,-43.379127502441406
5.703,3.69930362701416,-6.836294174194336,-2.0231313705444336,0.16951508820056915,1.1841623783111572,0.6244570016860962,-5.437006950378418,41.9029541015625,-43.072200775146484
5.71,7.8137617111206055,-8.61775016784668,-2.2564315795898438,0.0630718320608139,0.7770205736160278,0.4593706429004669,-5.173925876617432,42.136802673339844,-43.56913375854492
5.72,11.649456977844238,-10.177870750427246,-2.636890411376953,-0.11881328374147415,0.6620252132415771,0.0884227380156517,-5.2031569480896,41.74217987060547,-42.809120178222656
5.73,8.175078392028809,-10.094121932983398,3.159722089767456,-0.11178833991289139,-0.4167627990245819,0.22831088304519653,-5.217772483825684,41.522945404052734,-42.85296630859375
5.74,-8.219346046447754,-10.77248764038086,6.145964622497559,-0.11316278576850891,-1.054964303970337,0.2496911585330963,-5.2031569480896,41.21601867675781,-43.7006721496582
5.75,-16.852649688720703,-10.459028244018555,8.865407943725586,-0.018478674814105034,-0.65958172082901,0.37950003147125244,-5.305466175079346,41.727561950683594,-43.057586669921875
5.766,-17.698511123657227,-15.29372501373291,1.3112667798995972,-0.34437528252601624,1.1354458332061768,0.07422012835741043,-5.057000637054443,41.93218231201172,-43.02835464477539
5.77,-11.46281623840332,-15.523436546325684,-0.24406790733337402,-0.3897320032119751,1.317789077758789,0.027030786499381065,-5.1300787925720215,41.698333740234375,-42.98450469970703
5.78,-0.35533416271209717,-12.887742042541504,-4.089333534240723,-0.5597052574157715,1.2472341060638428,-0.06108652427792549,-5.261619567871094,41.56679153442383,-42.312191009521484
5.79,1.95852530002594,-8.514859199523926,-1.6402798891067505,-0.5186246037483215,0.33505958318710327,0.10491610318422318,-5.232388019561768,41.23063278198242,-41.6252555847168
5.8,-6.055037498474121,-6.808776378631592,1.5481561422348022,-0.5296201705932617,-0.33628129959106445,0.2125811129808426,-5.232388019561768,41.42063903808594,-41.91756820678711
5.819,-10.262815475463867,-5.219942569732666,3.2709884643554688,-0.4625777006149292,-0.26404649019241333,0.0936150997877121,-5.027769565582275,41.17217254638672,-41.698333740234375
5.823,-6.599404811859131,-7.1401824951171875,3.617947816848755,-0.41004326939582825,0.0861319974064827,-0.12996158003807068,-5.0862321853637695,41.40602111816406,-41.47909927368164
5.83,-5.458028316497803,-8.160720825195312,2.7601208686828613,-0.4115704298019409,0.046731188893318176,-0.17409659922122955,-5.349313259124756,41.39140701293945,-42.53142547607422
5.84,-6.3182477951049805,-9.293722152709961,1.1617152690887451,-0.3992004096508026,0.04245513305068016,-0.23625212907791138,-4.983922958374023,40.98217010498047,-42.239112854003906
5.85,-5.893521785736084,-9.21595573425293,0.6005984544754028,-0.36621370911598206,0.07742717117071152,-0.308181494474411,-5.393159866333008,41.34756088256836,-41.91756820678711
5.86,-5.042873382568359,-8.316254615783691,0.7525426745414734,-0.3152064383029938,0.05054909735918045,-0.3591887652873993,-5.743934631347656,41.36217498779297,-41.53756332397461
5.878,-5.621936798095703,-8.395217895507812,1.0612168312072754,-0.2695443034172058,-0.042760565876960754,-0.3790418803691864,-6.007015228271484,41.82987594604492,-37.79596710205078
5.883,-6.089733123779297,-8.736194610595703,1.0791629552841187,-0.18707747757434845,-0.051312681287527084,-0.4934263825416565,-5.583162784576416,41.56679153442383,-41.49371337890625
5.89,-5.2283172607421875,-8.458627700805664,1.8125630617141724,-0.13408491015434265,-0.010690141469240189,-0.535881519317627,-6.357789993286133,41.65448760986328,-41.11370849609375
5.9,-5.375475883483887,-8.560322761535645,1.624726414680481,-0.07696902006864548,-0.027030786499381065,-0.5697845816612244,-6.562408924102783,41.39140701293945,-40.83601379394531
5.91,-5.4556355476379395,-8.908477783203125,0.778863787651062,-0.03955352306365967,-0.035582900047302246,-0.6427829265594482,-6.328558921813965,41.683719635009766,-40.499855041503906
5.92,-5.148157596588135,-8.26121997833252,1.2526426315307617,-0.012522736564278603,-0.06658431142568588,-0.6821837425231934,-7.132417678833008,41.59602355957031,-41.084476470947266
5.939,-5.227120876312256,-8.237292289733887,1.8089739084243774,0.016951510682702065,-0.09254607558250427,-0.7255551815032959,-7.307804584503174,42.12218475341797,-40.777549743652344
5.943,-5.755934715270996,-8.831908226013184,2.283949136734009,0.022449297830462456,0.007635815534740686,-0.8216137290000916,-7.17626428604126,42.326805114746094,-41.05524826049805
5.95,-5.50229549407959,-8.616554260253906,2.376072883605957,0.020311269909143448,0.058337628841400146,-0.8772024512290955,-7.7901201248168945,42.39988327026367,-40.952938079833984
5.96,-4.845465660095215,-8.428717613220215,1.8005989789962769,0.006719517521560192,0.020158551633358,-0.9433286786079407,-8.403975486755371,42.58988571166992,-41.142940521240234
5.97,-4.675575256347656,-8.548358917236328,1.7479568719863892,-0.01114829070866108,-0.04108068719506264,-0.9818131327629089,-8.491668701171875,42.57527160644531,-40.952938079833984
5.98,-4.693521499633789,-9.160921096801758,2.183450698852539,-0.046273037791252136,-0.07742717117071152,-1.010523796081543,-8.725519180297852,42.619117736816406,-41.17217254638672
5.999,-4.403989791870117,-9.165706634521484,2.5914268493652344,-0.08750644326210022,-0.03527746722102165,-1.065043568611145,-9.17860221862793,43.14527893066406,-41.28909683227539
6.004,-4.682753562927246,-9.104689598083496,2.6739792823791504,-0.1267545372247696,-0.03375030308961868,-1.1006264686584473,-9.485530853271484,43.13066482543945,-39.62291717529297
6.01,-4.759324073791504,-9.087940216064453,2.482553482055664,-0.16279558837413788,0.011301006190478802,-1.1459832191467285,-10.01169204711914,43.17451095581055,-39.783687591552734
6.02,-4.438685894012451,-8.892925262451172,2.275574207305908,-0.21838431060314178,0.04917465150356293,-1.1844676733016968,-10.362466812133789,43.55451583862305,-39.52061080932617
6.03,-3.9696924686431885,-8.957530975341797,2.155933141708374,-0.2393064647912979,0.08307767659425735,-1.196379542350769,-10.874013900756836,43.78836441040039,-40.17831039428711
6.04,-3.572484016418457,-8.995816230773926,2.44785737991333,-0.2554943859577179,0.080634206533432,-1.2279918193817139,-11.137094497680664,44.19760513305664,-40.499855041503906
6.06,-3.1058835983276367,-9.19442081451416,2.6141586303710938,-0.2802344262599945,0.08185594528913498,-1.2205086946487427,-11.414791107177734,44.3437614440918,-40.2660026550293
6.063,-2.816352128982544,-9.260223388671875,2.4705893993377686,-0.2814561426639557,0.08368853479623795,-1.2203559875488281,-12.277112007141113,44.53376388549805,-40.07600402832031
6.07,-2.675175428390503,-9.150154113769531,2.090130567550659,-0.29596421122550964,0.03756821155548096,-1.2186760902404785,-12.496346473693848,44.66530227661133,-39.85676574707031
6.08,-2.5806589126586914,-8.715856552124023,2.0506489276885986,-0.29474249482154846,0.038179077208042145,-1.204626202583313,-13.358667373657227,44.91376876831055,-39.8859977722168
6.09,-2.6727828979492188,-8.368897438049316,2.0159530639648438,-0.23273965716362,-0.0050396379083395,-1.1530081033706665,-13.665594100952148,44.928382873535156,-39.65214920043945
6.1,-3.126222848892212,-8.298308372497559,1.6199408769607544,-0.2021963894367218,-0.04749477282166481,-1.1308642625808716,-14.206372261047363,45.118385314941406,-39.49137496948242
6.12,-3.3786656856536865,-8.468198776245117,1.573280930519104,-0.14844025671482086,-0.03145955875515938,-1.1296424865722656,-14.747150421142578,45.64455032348633,-39.63753128051758
6.124,-2.829512596130371,-9.041280746459961,0.9690931439399719,-0.08765916526317596,-0.10094548016786575,-1.1116219758987427,-15.14177131652832,45.191463470458984,-38.804443359375
6.13,-2.149951219558716,-9.285347938537598,0.6412764191627502,-0.078343465924263,-0.07254024595022202,-1.0627528429031372,-15.214850425720215,45.42531204223633,-39.66676330566406
6.14,-1.054038405418396,-9.254240989685059,1.1545369625091553,-0.03375030308961868,0.03833179175853729,-0.9056077003479004,-15.580240249633789,45.93686294555664,-39.447532653808594
6.15,0.16031910479068756,-9.304490089416504,1.6558332443237305,-0.03130684420466423,0.020311269909143448,-0.780380368232727,-16.544870376586914,45.68839645385742,-38.99444580078125
6.16,0.5383850932121277,-9.438488960266113,1.9070795774459839,-0.019394971430301666,-0.02626720443367958,-0.6110179424285889,-16.676410675048828,45.77608871459961,-39.5059928894043
6.18,-0.07537391036748886,-9.385847091674805,2.4646072387695312,-0.025656340643763542,-0.09682214260101318,-0.46303585171699524,-16.60333251953125,46.185325622558594,-39.213680267333984
6.183,-1.3387842178344727,-9.259027481079102,2.2851455211639404,-0.05115996673703194,-0.2370157092809677,-0.24938572943210602,-16.42794418334961,46.097633361816406,-39.769073486328125
6.19,-1.8699908256530762,-9.220742225646973,2.403590202331543,-0.080634206533432,-0.1644754558801651,-0.1713476926088333,-16.501022338867188,45.995323181152344,-39.769073486328125
6.2,-1.94297194480896,-9.382257461547852,2.68953275680542,-0.0988074541091919,-0.05375614017248154,-0.10033462196588516,-16.895645141601562,46.59456253051758,-39.08213806152344
6.21,-1.3124631643295288,-9.406185150146484,2.6273193359375,-0.10262536257505417,0.060933806002140045,-0.02672535367310047,-16.76410484313965,46.185325622558594,-39.68138122558594
6.22,-1.1676974296569824,-9.28893756866455,1.4117653369903564,-0.12095130980014801,0.01710422709584236,0.07177666574716568,-16.851797103881836,45.732242584228516,-39.60830307006836
6.24,-1.0887342691421509,-9.370293617248535,1.317248821258545,-0.12660181522369385,-0.052839841693639755,0.17012597620487213,-16.164865493774414,45.732242584228516,-39.5059928894043
6.244,0.05383851006627083,-10.119246482849121,1.8245272636413574,-0.1794416606426239,-0.19517144560813904,0.38377609848976135,-16.018707275390625,45.95147705078125,-40.002925872802734
6.25,0.33379876613616943,-10.439885139465332,2.3808584213256836,-0.21930061280727386,-0.2565633952617645,0.508698046207428,-16.296403884887695,46.43379211425781,-39.19906234741211
6.26,0.0263210479170084,-10.470992088317871,3.0723841190338135,-0.23335051536560059,-0.3149010241031647,0.6675229668617249,-16.194095611572266,46.170711517333984,-39.228294372558594
6.27,-0.9140582084655762,-9.919445991516113,3.328416109085083,-0.2522873282432556,-0.2997821271419525,0.7835873961448669,-16.194095611572266,45.77608871459961,-39.389068603515625
6.28,-2.2396819591522217,-8.987441062927246,3.239881753921509,-0.2620611786842346,-0.18219056725502014,0.835358202457428,-15.331774711608887,45.732242584228516,-39.43291473388672
6.3,-3.937389612197876,-8.47896671295166,2.0685951709747314,-0.2727513313293457,-0.14187344908714294,0.8051204085350037,-15.22946548461914,45.8199348449707,-39.783687591552734
6.304,-5.422135829925537,-9.322437286376953,0.40677982568740845,-0.3274237811565399,-0.026114489883184433,0.7487680315971375,-14.557147026062012,45.51300811767578,-38.68751907348633
6.31,-4.817948341369629,-9.869196891784668,0.12323036044836044,-0.32910364866256714,0.12079859524965286,0.7144068479537964,-14.527915000915527,45.746856689453125,-39.023677825927734
6.32,-3.1716861724853516,-10.466205596923828,0.3074776828289032,-0.2929098606109619,0.312304824590683,0.7035639882087708,-14.337912559509277,45.132999420166016,-38.49751663208008
6.33,-1.7515461444854736,-10.315458297729492,0.8566304445266724,-0.24190261960029602,0.3848450779914856,0.6904304623603821,-14.45483684539795,44.76761245727539,-38.68751907348633
6.34,-2.166700839996338,-9.93260669708252,0.8578268885612488,-0.23167064785957336,0.24953843653202057,0.665232241153717,-14.030985832214355,44.986846923828125,-38.395206451416016
6.359,-4.146761417388916,-9.787840843200684,0.9643074870109558,-0.2382374405860901,0.12492194026708603,0.5653557777404785,-14.001753807067871,45.30839157104492,-39.00905990600586
6.363,-6.381657600402832,-11.09910774230957,0.380458801984787,-0.29657506942749023,0.21135936677455902,0.445931613445282,-13.344051361083984,44.70914840698242,-38.190589904785156
6.37,-5.887539863586426,-11.570493698120117,-0.21296119689941406,-0.32620203495025635,0.37919458746910095,0.3630066514015198,-13.314821243286133,44.928382873535156,-37.708274841308594
6.38,-3.8045878410339355,-11.930612564086914,0.5910272002220154,-0.3428480923175812,0.5755877494812012,0.29367345571517944,-12.993276596069336,44.577606201171875,-37.854427337646484
6.39,-2.0817556381225586,-11.856435775756836,1.2502497434616089,-0.35735616087913513,0.4986187517642975,0.2541199326515198,-12.817889213562012,44.562992095947266,-38.1467399597168
6.4,-2.482553482055664,-12.075379371643066,1.6929219961166382,-0.35964691638946533,0.23105978965759277,0.22892174124717712,-12.584039688110352,44.256065368652344,-37.474422454833984
6.419,-4.567898273468018,-12.856635093688965,2.1930220127105713,-0.3917173445224762,0.21441368758678436,0.1966986060142517,-12.847121238708496,43.876060485839844,-37.8251953125
6.423,-5.222335338592529,-13.923834800720215,2.400001049041748,-0.4101960062980652,0.5070181488990784,0.13439035415649414,-13.16866397857666,43.96375274658203,-37.16749572753906
6.43,-4.705485820770264,-14.431112289428711,2.228914260864258,-0.39996400475502014,0.7617489695549011,0.0910189226269722,-12.803274154663086,44.431453704833984,-37.474422454833984
6.44,-3.7052857875823975,-15.353545188903809,2.225324869155884,-0.38209620118141174,1.0270171165466309,0.07192938029766083,-13.080970764160156,44.3437614440918,-36.159019470214844
6.45,-2.4059829711914062,-15.627523422241211,1.7001004219055176,-0.34086281061172485,1.2469285726547241,0.06872233748435974,-13.227126121520996,44.27068328857422,-35.51593017578125
6.46,-1.4967105388641357,-15.852449417114258,0.6065804958343506,-0.313373863697052,1.2764029502868652,0.07666358351707458,-12.70096492767334,44.256065368652344,-36.30517578125
6.48,-1.3196415901184082,-15.812967300415039,0.34217363595962524,-0.24236077070236206,1.401172161102295,0.1215621829032898,-13.7240571975708,43.072200775146484,-36.524410247802734
6.483,-1.444068431854248,-16.15633773803711,-0.04785645380616188,-0.15943582355976105,1.556179165840149,0.15821409225463867,-13.914060592651367,43.78836441040039,-35.2674674987793
6.49,-0.4630111753940582,-15.852449417114258,0.010767702013254166,-0.09086620807647705,1.6820173263549805,0.08246680349111557,-14.001753807067871,44.372989654541016,-35.69131851196289
6.5,1.4380862712860107,-14.172688484191895,0.4977070689201355,-0.06108652427792549,1.9280433654785156,0.0887281745672226,-13.709442138671875,44.28529739379883,-35.20900344848633
6.51,3.4648072719573975,-13.030115127563477,1.781456470489502,-0.07849618047475815,1.9630154371261597,0.1411098688840866,-13.797135353088379,43.992984771728516,-34.185909271240234
6.52,4.7796630859375,-12.874582290649414,2.275574207305908,-0.10674870014190674,1.775479793548584,0.17409659922122955,-14.39637565612793,43.817596435546875,-35.22361755371094
6.539,5.091926097869873,-13.344771385192871,3.1680970191955566,-0.2376265674829483,0.8118398785591125,0.4404338300228119,-13.884828567504883,44.051448822021484,-34.799766540527344
6.542,2.5459630489349365,-14.884552955627441,3.7076785564422607,-0.2730567753314972,0.6345362663269043,0.5334380269050598,-13.431745529174805,43.802982330322266,-34.536685943603516
6.55,-0.8769694566726685,-16.7916316986084,3.190828800201416,-0.37827828526496887,0.03145955875515938,0.9813550114631653,-13.607131958007812,43.78836441040039,-34.60976028442383
6.56,-7.7036919593811035,-19.119848251342773,0.5491527915000916,-0.666454017162323,-0.8753698468208313,2.1169536113739014,-12.277112007141113,43.23297119140625,-34.43437576293945
6.571,-18.361324310302734,-18.708282470703125,2.5351955890655518,-0.6081163287162781,-1.2644909620285034,2.937192916870117,-11.370944023132324,43.10143280029297,-34.2443733215332
6.58,-21.156139373779297,-17.724834442138672,3.469592809677124,-0.46441027522087097,-0.8437576293945312,3.1644346714019775,-9.514761924743652,42.282955169677734,-35.179771423339844
6.6,-15.458830833435059,-16.84307861328125,2.623729705810547,-0.3588833212852478,-0.3286454975605011,3.327077627182007,-7.0885701179504395,41.25986862182617,-33.250511169433594
6.604,-9.014959335327148,-19.228721618652344,1.9956140518188477,-0.4179845154285431,-0.023976460099220276,3.6755762100219727,-6.693948745727539,41.11370849609375,-33.27974319458008
6.61,-8.091329574584961,-19.56491470336914,2.1511476039886475,-0.4479169249534607,-0.057421330362558365,3.8224892616271973,-5.568547248840332,40.38292694091797,-33.95206069946289
6.62,-9.422935485839844,-19.00738525390625,2.392822504043579,-0.5539020299911499,-0.00809396430850029,3.989102602005005,-4.486992359161377,39.68138122558594,-33.19205093383789
6.63,-10.962716102600098,-16.547563552856445,1.9836498498916626,-0.6162103414535522,0.1261436641216278,4.080885410308838,-2.6015784740448,38.950599670410156,-33.22127914428711
6.64,-11.674581527709961,-15.249457359313965,2.194218397140503,-0.6230825781822205,0.45234569907188416,4.078136444091797,-1.4761765003204346,37.8251953125,-32.31510925292969
6.659,-10.310672760009766,-14.872589111328125,2.341376781463623,-0.6954700946807861,1.185231328010559,3.6528213024139404,1.2569423913955688,35.79362487792969,-31.67202377319336
6.662,-5.528616905212402,-13.308879852294922,2.1415762901306152,-0.6876814961433411,1.2348641157150269,3.49827241897583,2.1046478748321533,35.57439422607422,-31.145864486694336
6.67,-0.8099704384803772,-11.297711372375488,1.4644074440002441,-0.6291911602020264,1.1693487167358398,3.2812626361846924,2.5138847827911377,35.01900100708008,-30.809703826904297
6.68,2.5974087715148926,-9.409774780273438,0.9367900490760803,-0.4812090992927551,0.84574294090271,3.0306551456451416,3.800058364868164,34.09821701049805,-29.684301376342773
6.69,4.5128631591796875,-7.832904815673828,0.8817551136016846,-0.3289509117603302,0.37048977613449097,2.7985262870788574,4.662379264831543,33.060508728027344,-29.31891441345215
6.7,5.419743537902832,-6.50608491897583,0.9332008361816406,-0.18631389737129211,-0.03894266113638878,2.4969115257263184,5.24700403213501,32.91435241699219,-28.9096736907959
6.719,6.106482982635498,-3.2554352283477783,-0.06340979784727097,0.025503622367978096,-0.5644394755363464,1.8055648803710938,7.234726905822754,31.292020797729492,-29.97661590576172
6.723,5.699703216552734,-2.2576282024383545,-0.09212366491556168,0.07956519722938538,-0.702189564704895,1.6336063146591187,7.395498275756836,31.321250915527344,-29.611223220825195
6.73,5.041677474975586,-1.1449655294418335,0.0323031060397625,0.14614950120449066,-0.8672758936882019,1.315956473350525,8.067816734313965,30.605087280273438,-30.195850372314453
6.74,5.029713153839111,-0.5850450992584229,0.1698903888463974,0.21868975460529327,-1.0543533563613892,0.7980954647064209,8.652440071105957,29.932767868041992,-31.145864486694336
6.75,5.693721294403076,-1.0660024881362915,0.36251261830329895,0.26862797141075134,-1.181107997894287,0.3127630054950714,8.886290550231934,29.97661590576172,-31.248172760009766
6.76,5.7439703941345215,-1.368694543838501,0.13280165195465088,0.3419318199157715,-1.3851369619369507,-0.17699819803237915,9.0762939453125,29.669687271118164,-31.788951873779297
6.779,4.396811485290527,-0.6879364848136902,-0.20458632707595825,0.5170974135398865,-1.7689130306243896,-0.7967209815979004,9.207834243774414,30.37123680114746,-33.060508728027344
6.783,2.81276273727417,-0.2967100143432617,0.09092725813388824,0.5233587622642517,-1.8177822828292847,-1.014952540397644,9.923998832702637,30.254310607910156,-33.45513153076172
6.79,3.2303104400634766,-0.556331217288971,0.17347964644432068,0.5143485069274902,-1.8241963386535645,-1.3660473823547363,10.523239135742188,30.678165435791016,-34.156681060791016
6.8,3.8799617290496826,-1.0277173519134521,0.11365906894207001,0.5154175162315369,-1.8932240009307861,-1.7261525392532349,9.880152702331543,31.306636810302734,-35.19438934326172
6.81,2.8139593601226807,-1.0325030088424683,0.07657032459974289,0.5369505286216736,-1.995696783065796,-2.0089828968048096,9.617071151733398,32.02280044555664,-36.465946197509766
6.82,0.9475577473640442,-0.2153540402650833,0.4989035129547119,0.5864306092262268,-2.0323486328125,-2.2682952880859375,9.324758529663086,32.69511795043945,-37.13826370239258
6.84,0.5455635190010071,-1.015753149986267,0.8590232729911804,0.5386304259300232,-1.91399347782135,-2.8157832622528076,8.930137634277344,34.40514373779297,-39.43291473388672
6.843,-0.11126624792814255,-1.306481122970581,0.8147560954093933,0.5413792729377747,-1.90925931930542,-2.855642318725586,8.915521621704102,34.200523376464844,-39.418296813964844
6.85,-1.4213366508483887,-1.612762451171875,1.1258230209350586,0.5467243790626526,-1.8771889209747314,-2.976593494415283,8.447822570800781,35.04823303222656,-40.04676818847656
6.86,-3.229114055633545,-1.9118653535842896,1.5098711252212524,0.5221370458602905,-1.7021758556365967,-3.1513009071350098,7.468576908111572,35.340545654296875,-41.27448272705078
6.87,-5.2522454261779785,-1.4368900060653687,1.56969153881073,0.5429064631462097,-1.38070809841156,-3.2876765727996826,6.591639518737793,36.64133071899414,-42.72142791748047
6.88,-6.882954120635986,-1.5828521251678467,1.9764714241027832,0.5283983945846558,-0.9822712540626526,-3.4442107677459717,5.583162784576416,36.96287536621094,-43.52528381347656
