time,accel_x,accel_y,accel_z,gyro_x,gyro_y,gyro_z,mag_x,mag_y,mag_z
0.0,-0.0011964113218709826,-9.844072341918945,-0.5335994362831116,-0.006261368282139301,0.0455094613134861,0.0044287727214396,-15.068693161010742,51.695411682128906,-44.256065368652344
0.004,0.17347964644432068,-9.753144264221191,-0.5395814776420593,-0.0039706239476799965,0.04001167416572571,0.004886921960860491,-14.73253345489502,51.49079132080078,-45.176849365234375
0.011,0.20937196910381317,-9.69810962677002,-0.5431707501411438,-0.0025961773935705423,0.02580905519425869,0.005955935921519995,-15.039462089538574,50.70154571533203,-44.59222412109375
0.021,0.17706885933876038,-9.693324089050293,-0.5647060871124268,0.007788531482219696,0.00809396430850029,0.010231993161141872,-14.820228576660156,51.24232864379883,-45.04530715942383
0.031,0.10289137810468674,-9.728019714355469,-0.5527420043945312,0.019089538604021072,-0.007635815534740686,0.009010262787342072,-15.097925186157227,50.62847137451172,-44.811458587646484
0.041,0.02153540402650833,-9.82253646850586,-0.503689169883728,0.01924225501716137,-0.012064589187502861,0.005497787147760391,-15.4633150100708,51.4615592956543,-44.82607650756836
0.06,-0.04546362906694412,-9.832107543945312,-0.47617167234420776,0.0032070425804704428,-0.006872233934700489,0.0029016099870204926,-15.14177131652832,51.02309036254883,-44.84069061279297
0.064,-0.0131605239585042,-9.866804122924805,-0.5060819387435913,-0.00809396430850029,0.006566801108419895,0.006566801108419895,-14.893306732177734,51.12540054321289,-44.94300079345703
0.071,0.041874393820762634,-9.842875480651855,-0.5431707501411438,-0.009162978269159794,0.014049900695681572,0.012217304669320583,-15.024847030639648,51.286170959472656,-44.621456146240234
0.081,0.11365906894207001,-9.751948356628418,-0.5623133182525635,-0.0019853119738399982,0.01664607785642147,0.026419920846819878,-14.834843635559082,51.198482513427734,-44.94300079345703
0.091,0.1698903888463974,-9.751948356628418,-0.556331217288971,0.012522736564278603,0.014202617108821869,0.04520402476191521,-15.28792667388916,50.993858337402344,-45.24992752075195
0.101,0.21655045449733734,-9.69810962677002,-0.5204389095306396,0.025656340643763542,0.004886921960860491,0.05757404863834381,-15.507162094116211,51.154632568359375,-45.39608383178711
0.121,0.16869398951530457,-9.714859962463379,-0.4977070689201355,0.03695734962821007,-0.012828170321881771,0.06444628536701202,-15.477930068969727,50.993858337402344,-44.88453674316406
0.125,0.02751745842397213,-9.69810962677002,-0.48693937063217163,0.039095375686883926,-0.030237827450037003,0.0633772686123848,-14.922536849975586,51.63694763183594,-44.66530227661133
0.131,-0.04666003957390785,-9.718448638916016,-0.5156532526016235,0.04001167416572571,-0.03420845419168472,0.05971207842230797,-14.674072265625,50.73078155517578,-44.31452941894531
0.141,-0.10887342691421509,-9.744770050048828,-0.4905286133289337,0.04734205827116966,-0.021532999351620674,0.058795779943466187,-14.484068870544434,51.43233108520508,-44.72376251220703
0.151,-0.13160523772239685,-9.875179290771484,-0.38165518641471863,0.0529925599694252,0.021838432177901268,0.07360926270484924,-14.893306732177734,50.90616989135742,-45.22069549560547
0.161,0.08255238085985184,-9.992426872253418,-0.3936192989349365,0.03726277872920036,0.0685696229338646,0.09697485715150833,-14.703303337097168,51.388484954833984,-45.001461029052734
0.18,0.2667997181415558,-10.027122497558594,-0.5180460810661316,0.009162978269159794,0.09605855494737625,0.12171489745378494,-14.294065475463867,50.979244232177734,-44.32914352416992
0.184,0.36610186100006104,-10.007980346679688,-0.638883650302887,-0.018478674814105034,0.08475754410028458,0.1359175145626068,-14.469453811645508,51.1400146484375,-45.01607894897461
0.191,0.3409772217273712,-9.93140983581543,-0.6795615553855896,-0.0277943667024374,0.062460970133543015,0.1345430612564087,-14.469453811645508,51.0815544128418,-44.84069061279297
0.201,0.2548356056213379,-9.828518867492676,-0.7262216210365295,-0.02687807008624077,0.023365594446659088,0.1342376321554184,-14.279450416564941,51.3592529296875,-44.97222900390625
0.211,0.20338991284370422,-9.80100154876709,-0.760917603969574,-0.009621127508580685,0.009162978269159794,0.14813482761383057,-14.337912559509277,50.86231994628906,-45.07453918457031
0.221,0.21774685382843018,-10.321439743041992,-0.348155677318573,0.035582900047302246,-0.0029016099870204926,0.19898934662342072,-14.381760597229004,50.86231994628906,-44.636070251464844
0.241,0.24885353446006775,-11.224730491638184,1.223928689956665,-0.025656340643763542,0.08781187981367111,0.3404046595096588,-14.834843635559082,50.90616989135742,-44.88453674316406
0.245,0.8207381367683411,-10.839487075805664,0.6317051649093628,-0.35842517018318176,0.35063666105270386,0.5827654004096985,-14.35252857208252,50.93539810180664,-44.53376388549805
0.251,0.9643074870109558,-10.341778755187988,-0.36251261830329895,-0.44425174593925476,0.34727686643600464,0.6478225588798523,-14.11867904663086,50.584625244140625,-44.16836929321289
0.261,0.1746760457754135,-9.433703422546387,-1.8903299570083618,-0.3988949954509735,0.2145664095878601,0.6398813128471375,-13.899443626403809,50.64308547973633,-44.65068435668945
0.271,-0.9738787412643433,-8.964709281921387,-1.987239122390747,-0.2785545587539673,0.1814269870519638,0.5859724879264832,-13.241742134094238,50.233848571777344,-44.29991149902344
0.281,-1.2729815244674683,-8.849854469299316,-1.8532410860061646,-0.14095714688301086,0.2713768780231476,0.5574145317077637,-13.007892608642578,50.42385482788086,-43.627593994140625
0.301,-0.8159525394439697,-9.272187232971191,-1.506281852722168,-0.033139437437057495,0.3753766715526581,0.5761985778808594,-12.920199394226074,50.21923065185547,-43.15989685058594
0.304,0.02153540402650833,-9.665806770324707,-1.0660024881362915,0.023518310859799385,0.41340306401252747,0.6136141419410706,-12.759428024291992,50.68693161010742,-43.262203216552734
0.311,0.37806597352027893,-9.7064847946167,-0.8745766282081604,0.02076941914856434,0.3988949954509735,0.6285803318023682,-12.861736297607422,50.13154220581055,-43.04296875
0.321,0.7585247159004211,-9.836893081665039,-0.7322037220001221,0.006108652334660292,0.34895676374435425,0.6524040699005127,-13.022507667541504,50.08769607543945,-42.95527648925781
0.331,0.7645068168640137,-9.755537986755371,-0.7369893193244934,-0.010690141469240189,0.2692388594150543,0.6606507897377014,-12.1455717086792,49.94153594970703,-43.58374786376953
0.341,0.6484549045562744,-9.513862609863281,-0.8243273496627808,-0.020158551633358,0.18325957655906677,0.6389650702476501,-11.575562477111816,50.20461654663086,-43.379127502441406
0.361,0.48813581466674805,-9.339186668395996,-0.9128617644309998,0.003817907767370343,0.054367005825042725,0.5754350423812866,-11.911721229553223,50.17538833618164,-43.189125061035156
0.364,0.15194423496723175,-9.499505043029785,-0.9439685344696045,0.07681629806756973,-0.051770828664302826,0.5216789245605469,-11.356328010559082,50.160770416259766,-43.48143768310547
0.371,0.24765713512897491,-9.834501266479492,-0.6041877269744873,0.14645493030548096,-0.050854530185461044,0.5448917746543884,-10.947091102600098,49.42999267578125,-42.838348388671875
0.381,0.30149564146995544,-10.693524360656738,0.5096712112426758,0.14355333149433136,-0.009773843921720982,0.6017022132873535,-10.859397888183594,50.01461410522461,-44.3437614440918
0.391,0.3254238963127136,-11.307282447814941,0.6424728631973267,-0.014049900695681572,0.04413501173257828,0.6327036619186401,-10.596317291259766,49.663841247558594,-43.72990417480469
0.401,-0.0813559740781784,-10.918450355529785,-0.22971096634864807,-0.17577646672725677,0.036193765699863434,0.6701191663742065,-9.938613891601562,50.07307434082031,-43.27682113647461
0.421,-0.9535397887229919,-9.708877563476562,-1.3268201351165771,-0.199294775724411,0.03726277872920036,0.6876814961433411,-9.763227462768555,49.6784553527832,-42.91142654418945
0.425,-1.6510475873947144,-8.775676727294922,-1.8436697721481323,-0.02672535367310047,0.08918632566928864,0.7017314434051514,-9.251681327819824,49.34230041503906,-43.34989929199219
0.431,-1.7838492393493652,-8.973084449768066,-1.4297115802764893,0.06215553730726242,0.1238529235124588,0.7194464802742004,-8.813212394714355,48.8599853515625,-42.999122619628906
0.441,-1.8424733877182007,-9.521040916442871,-0.937986433506012,0.10002917796373367,0.18081609904766083,0.7667886018753052,-8.418591499328613,48.713829040527344,-43.58374786376953
0.451,-1.9597216844558716,-10.293922424316406,-0.4929214417934418,0.07192938029766083,0.2393064647912979,0.8251261711120605,-8.593978881835938,48.87459945678711,-43.02835464477539
0.461,-1.9549360275268555,-11.045268058776855,0.11246266216039658,-0.033597588539123535,0.31871894001960754,0.9106473326683044,-7.892428874969482,48.9184455871582,-43.20374298095703
0.481,-1.8891334533691406,-11.263016700744629,-0.5599204897880554,-0.11728612333536148,0.355981707572937,0.9851729273796082,-8.155509948730469,48.17304992675781,-42.98450469970703
0.485,-2.122433662414551,-11.314461708068848,-1.6402798891067505,-0.17119498550891876,0.3484986424446106,1.09024178981781,-7.629348278045654,48.07073974609375,-42.706809997558594
0.491,-2.1511476039886475,-11.066803932189941,-2.042273998260498,-0.16325373947620392,0.3628539741039276,1.1855366230010986,-7.263957500457764,47.79304122924805,-41.93218231201172
0.501,-2.11405873298645,-10.87178897857666,-1.9381862878799438,-0.1434006243944168,0.37568211555480957,1.3295481204986572,-6.474714756011963,47.924583435058594,-42.838348388671875
0.511,-2.1619153022766113,-10.697113037109375,-1.7718851566314697,-0.16982053220272064,0.3908010423183441,1.4741705656051636,-5.87547492980957,47.64688491821289,-42.18064880371094
0.521,-1.9250258207321167,-10.307083129882812,-1.6582260131835938,-0.2142609804868698,0.41813725233078003,1.5867223739624023,-5.217772483825684,47.33995819091797,-42.063724517822266
0.541,-1.84965181350708,-9.942177772521973,-1.4823535680770874,-0.27091872692108154,0.44119739532470703,1.7102699279785156,-4.296989440917969,46.95995330810547,-41.508331298828125
0.544,-1.557727575302124,-9.394221305847168,-1.3244272470474243,-0.31612274050712585,0.45982882380485535,1.8887953758239746,-3.9900612831115723,46.126861572265625,-41.55217742919922
0.551,-1.4237295389175415,-9.020940780639648,-1.3004990816116333,-0.318566232919693,0.4499022364616394,1.9495763778686523,-3.4054369926452637,45.4399299621582,-41.04063034057617
0.561,-1.3184452056884766,-8.762516021728516,-1.332802176475525,-0.3036000430583954,0.38011088967323303,2.0864102840423584,-2.586962938308716,45.3814697265625,-40.82139587402344
0.571,-1.4093725681304932,-8.756534576416016,-1.1808578968048096,-0.27641651034355164,0.3217732608318329,2.1813998222351074,-2.3384976387023926,44.16836929321289,-40.952938079833984
0.581,-1.6295121908187866,-8.987441062927246,-0.9487541317939758,-0.2606867253780365,0.26969701051712036,2.263561248779297,-1.4030985832214355,44.431453704833984,-40.85062789916992
0.6,-1.94297194480896,-8.95992374420166,-0.937986433506012,-0.2272418737411499,0.21945331990718842,2.392911672592163,0.950014591217041,43.33528137207031,-39.68138122558594
0.604,-2.2504496574401855,-8.94676399230957,-0.638883650302887,-0.22281308472156525,0.2165517359972,2.3993258476257324,1.1546331644058228,42.64834976196289,-40.25138854980469
0.611,-2.414357900619507,-8.732605934143066,-0.8506484627723694,-0.18081609904766083,0.22281308472156525,2.3962714672088623,1.783104419708252,41.9029541015625,-39.82753372192383
0.621,-2.4059829711914062,-9.150154113769531,-0.745364248752594,-0.12110403180122375,0.21135936677455902,2.3687827587127686,2.3531131744384766,41.683719635009766,-38.67290496826172
0.631,-2.210968017578125,-9.633503913879395,-0.784845769405365,-0.11499537527561188,0.1820378452539444,2.341599225997925,3.610055446624756,40.70447540283203,-39.25752639770508
0.641,-2.0961124897003174,-9.614360809326172,-1.0516455173492432,-0.11239920556545258,0.10461067408323288,2.317622661590576,4.092370510101318,40.558319091796875,-38.70213317871094
0.661,-2.3078773021698,-9.095118522644043,-1.5086746215820312,-0.09666942805051804,-0.0073303827084600925,2.302809238433838,5.539316177368164,39.16983413696289,-38.819061279296875
0.664,-3.10109806060791,-8.751748085021973,-1.7970097064971924,-0.017562376335263252,-0.19944749772548676,2.275320291519165,5.743934631347656,38.5267448425293,-38.64366912841797
0.671,-3.675375461578369,-8.761320114135742,-1.6402798891067505,0.013591751456260681,-0.2643519341945648,2.2518019676208496,5.9923996925354,38.30751037597656,-38.61444091796875
0.681,-4.342973232269287,-8.737391471862793,-1.7180465459823608,0.03420845419168472,-0.30253100395202637,2.2101104259490967,6.737796306610107,37.54750061035156,-38.848289489746094
0.691,-4.809573173522949,-8.98385238647461,-1.3471590280532837,0.059406641870737076,-0.2548835277557373,2.1978931427001953,7.512423515319824,36.39286804199219,-38.833675384521484
0.701,-5.200799465179443,-9.524630546569824,-1.0839486122131348,0.012828170321881771,-0.1417207270860672,2.180025339126587,8.31628131866455,35.95439910888672,-38.89213943481445
0.72,-5.282155990600586,-9.913464546203613,-1.1186444759368896,-0.0754418596625328,-0.019394971430301666,2.1629209518432617,10.435544967651367,34.39052963256836,-39.00905990600586
0.724,-4.851447582244873,-9.517451286315918,-1.6007983684539795,-0.15745051205158234,0.15653420984745026,2.088548183441162,10.567085266113281,33.981292724609375,-38.7459831237793
0.731,-4.210171222686768,-9.127422332763672,-1.86520516872406,-0.15577064454555511,0.21762074530124664,2.0309741497039795,10.727856636047363,33.19205093383789,-38.789825439453125
0.741,-3.6394829750061035,-8.901299476623535,-1.9058831930160522,-0.14569135010242462,0.20601430535316467,1.9616410732269287,11.444022178649902,32.242034912109375,-38.04443359375
0.751,-3.345165967941284,-8.688338279724121,-1.9477574825286865,-0.15286903083324432,0.08368853479623795,1.9318612813949585,11.502485275268555,31.59894561767578,-38.67290496826172
0.761,-3.535395383834839,-8.539983749389648,-1.6797614097595215,-0.19135352969169617,-0.06017022579908371,1.9701931476593018,12.467114448547363,31.05817222595215,-37.86904525756836
0.781,-3.895514965057373,-8.410771369934082,-1.6163517236709595,-0.2765692174434662,-0.24190261960029602,2.0954203605651855,13.329436302185059,29.304296493530273,-38.05904769897461
0.785,-4.756931304931641,-7.581658363342285,-1.6139588356018066,-0.31612274050712585,-0.4219551682472229,2.2038490772247314,13.840982437133789,28.675825119018555,-38.029815673828125
0.791,-5.263012886047363,-6.995416641235352,-1.4237295389175415,-0.29413163661956787,-0.4726569652557373,2.22813081741333,14.104063987731934,27.71119499206543,-37.62057876586914
0.801,-5.804987907409668,-6.173482418060303,-1.4883357286453247,-0.2079996019601822,-0.460286945104599,2.239126443862915,15.083308219909668,26.87810707092285,-37.69365692138672
0.811,-6.273980617523193,-5.763113021850586,-1.5110673904418945,-0.09208793193101883,-0.45555275678634644,2.2768473625183105,15.667933464050293,25.76732063293457,-37.69365692138672
0.821,-6.630511283874512,-5.755934715270996,-1.2598210573196411,-0.007788531482219696,-0.4703662395477295,2.356565475463867,16.208711624145508,25.080385208129883,-38.33674621582031
0.84,-7.110272407531738,-5.764309883117676,-0.8123632073402405,-0.07987063378095627,-0.451123982667923,2.4381160736083984,16.6325626373291,23.180356979370117,-38.33674621582031
0.844,-7.395018577575684,-5.097908020019531,-0.6759723424911499,-0.09651671350002289,-0.44028112292289734,2.445140838623047,17.24641990661621,22.1718807220459,-38.97983169555664
0.851,-7.479963302612305,-4.796412467956543,-0.6149553656578064,-0.10934487730264664,-0.4335615932941437,2.451402187347412,17.304880142211914,21.148786544799805,-38.40982437133789
0.861,-8.00399112701416,-4.5236310958862305,-0.5288137793540955,-0.09498954564332962,-0.4346306025981903,2.4715607166290283,17.78719711303711,20.35954475402832,-37.86904525756836
0.871,-8.639286041259766,-4.335794448852539,-0.4127618968486786,-0.039706241339445114,-0.3643811345100403,2.484388828277588,17.962583541870117,19.0733699798584,-38.5267448425293
0.881,-9.198010444641113,-4.508077621459961,-0.7322037220001221,0.019394971430301666,-0.279928982257843,2.4740042686462402,19.36568260192871,18.591054916381836,-39.330604553222656
0.9,-9.68973445892334,-4.356133460998535,-1.0217353105545044,0.13759739696979523,-0.0659734457731247,2.4865269660949707,19.83338165283203,15.726396560668945,-38.5267448425293
0.904,-9.517451286315918,-4.280759334564209,-1.093519926071167,0.15592335164546967,-0.03695734962821007,2.4856104850769043,19.409530639648438,15.083308219909668,-38.775211334228516
0.911,-9.10827922821045,-4.18983268737793,-1.031306505203247,0.21532998979091644,0.03191770985722542,2.4889702796936035,19.0733699798584,14.469453811645508,-39.038291931152344
0.921,-8.793622970581055,-4.077369689941406,-0.7836494445800781,0.3036000430583954,0.06994406878948212,2.4915666580200195,20.388774871826172,13.650979042053223,-38.819061279296875
0.931,-8.496912956237793,-4.2006001472473145,-0.8195416927337646,0.3055853545665741,0.03649919852614403,2.470033645629883,20.008769989013672,12.452499389648438,-39.023677825927734
0.941,-8.544769287109375,-3.9912281036376953,-0.9320043921470642,0.28878653049468994,-0.014049900695681572,2.4439189434051514,20.154926300048828,10.727856636047363,-37.75211715698242
0.96,-8.958727836608887,-3.799802303314209,-1.2550355195999146,0.23716843128204346,-0.13347405195236206,2.289064645767212,20.549545288085938,8.301666259765625,-37.854427337646484
0.964,-8.914461135864258,-3.3032915592193604,-1.5254243612289429,0.24037547409534454,-0.17027868330478668,2.242180824279785,20.593395233154297,7.8047356605529785,-38.45366668701172
0.971,-9.116654396057129,-2.8965117931365967,-1.2454640865325928,0.2765692174434662,-0.1898263692855835,2.169335126876831,20.476469039916992,7.8047356605529785,-39.24291229248047
0.981,-9.594021797180176,-2.5734806060791016,-0.6460620760917664,0.3497203588485718,-0.15470163524150848,2.0861048698425293,21.09032440185547,6.255480766296387,-38.55597686767578
0.991,-10.169495582580566,-2.636890411376953,-0.18783655762672424,0.38438695669174194,-0.02825251594185829,2.0218112468719482,20.038002014160156,5.568547248840332,-38.71674728393555
1.001,-10.101300239562988,-2.8390841484069824,0.05982056260108948,0.3822489380836487,0.15851953625679016,1.9931005239486694,20.578777313232422,4.399298667907715,-38.819061279296875
1.02,-9.781858444213867,-3.0759735107421875,-0.21296119689941406,0.30894508957862854,0.4830417037010193,1.9862282276153564,20.549545288085938,2.1923413276672363,-38.17597198486328
1.024,-9.658628463745117,-3.0616164207458496,-0.3170489966869354,0.2971859276294708,0.5429064631462097,2.0062341690063477,20.62262535095215,1.9292603731155396,-38.51213073730469
1.031,-9.233901977539062,-3.235095977783203,-0.41515469551086426,0.27488934993743896,0.5926920175552368,2.0511326789855957,19.35106658935547,1.4615609645843506,-38.68751907348633
1.041,-8.511269569396973,-3.638286828994751,-0.36610186100006104,0.19837848842144012,0.6502660512924194,2.107485055923462,19.935691833496094,0.45308390259742737,-38.658287048339844
1.051,-7.875975608825684,-3.4480574131011963,-0.8171489238739014,0.1238529235124588,0.621097207069397,2.210721254348755,19.321834564208984,-1.1984800100326538,-37.94212341308594
1.061,-7.361518859863281,-2.9730820655822754,-1.0971091985702515,0.08720101416110992,0.5899431109428406,2.328160285949707,19.45337677001953,-2.0900321006774902,-36.71440887451172
1.081,-7.019344806671143,-2.7672994136810303,-1.5242280960083008,0.0985020250082016,0.47968190908432007,2.5031731128692627,19.16106414794922,-4.413913726806641,-36.69979476928711
1.084,-7.594818592071533,-2.0997018814086914,-2.0542380809783936,0.08949175477027893,0.2600758671760559,2.7152957916259766,18.751827239990234,-4.9400763511657715,-36.90441131591797
1.091,-7.812565803527832,-1.2538390159606934,-2.1367905139923096,0.11636982858181,0.15806137025356293,2.7714955806732178,18.56182289123535,-5.75855016708374,-37.91289138793945
1.101,-8.702695846557617,-0.5778666734695435,-2.1655044555664062,0.1976149082183838,0.07681629806756973,2.8040242195129395,18.34259033203125,-6.927798748016357,-36.7436408996582
1.111,-9.250652313232422,-0.10049854964017868,-2.0482561588287354,0.2522873282432556,0.038637224584817886,2.7759244441986084,17.26103401184082,-7.863198280334473,-36.96287536621094
1.121,-10.106086730957031,0.5443671345710754,-1.8077774047851562,0.29565879702568054,0.018020525574684143,2.7064385414123535,17.173341751098633,-8.75475025177002,-37.32826614379883
1.141,-10.378867149353027,0.9798608422279358,-1.5936198234558105,0.41111230850219727,0.10583239793777466,2.3999369144439697,16.720256805419922,-10.727856636047363,-36.845951080322266
1.144,-10.115657806396484,1.34476637840271,-1.4464612007141113,0.41951167583465576,0.10812314599752426,2.3577871322631836,15.507162094116211,-11.137094497680664,-36.64133071899414
1.151,-10.372885704040527,1.322034478187561,-1.4943177700042725,0.4338670074939728,0.11636982858181,2.2325596809387207,15.22946548461914,-11.356328010559082,-37.021339416503906
1.161,-10.212566375732422,1.293320655822754,-1.6498512029647827,0.45433101058006287,0.09437867254018784,2.0641136169433594,15.4633150100708,-12.65711784362793,-36.451332092285156
1.171,-10.01037311553955,1.361515998840332,-1.8963117599487305,0.47968190908432007,0.05726861581206322,1.9187276363372803,14.586379051208496,-12.817889213562012,-36.04209518432617
1.181,-9.717252731323242,1.8699908256530762,-2.8151557445526123,0.5199990272521973,-0.09605855494737625,1.7258470058441162,14.425606727600098,-14.35252857208252,-36.422096252441406
1.2,-10.070194244384766,3.104687213897705,-3.1058835983276367,0.7962628602981567,-0.44745880365371704,1.3994922637939453,13.241742134094238,-14.747150421142578,-36.0274772644043
1.204,-10.015158653259277,3.0137598514556885,-2.506481647491455,0.7964155077934265,-0.4954116940498352,1.3632985353469849,13.417129516601562,-15.039462089538574,-36.31978988647461
1.211,-9.933802604675293,2.8797619342803955,-1.7838492393493652,0.7435756921768188,-0.5728389024734497,1.2840386629104614,12.993276596069336,-15.200233459472656,-37.0067253112793
1.221,-9.33440113067627,2.7972095012664795,-1.9525432586669922,0.6178901791572571,-0.6470589637756348,1.2360858917236328,12.876352310180664,-16.194095611572266,-36.81671905517578
1.231,-8.755337715148926,3.7663025856018066,-2.9144580364227295,0.5186246037483215,-0.8910996913909912,1.1554515361785889,12.554807662963867,-15.916398048400879,-37.45980453491211
1.241,-9.998409271240234,4.682753562927246,-4.328616142272949,0.5021312236785889,-1.1044442653656006,1.0497719049453735,12.481730461120605,-17.027183532714844,-37.51826858520508
1.26,-11.193623542785645,5.1050872802734375,-2.840280294418335,0.5091561675071716,-1.3764320611953735,0.7008151412010193,12.37942123413086,-17.23180389404297,-37.854427337646484
1.264,-11.562119483947754,5.0356950759887695,-2.502892255783081,0.4963279962539673,-1.387580394744873,0.6485861539840698,12.496346473693848,-17.59719467163086,-38.570594787597656
1.271,-11.779865264892578,4.9531426429748535,-2.2779672145843506,0.39935314655303955,-1.4046845436096191,0.49586984515190125,11.897106170654297,-17.684886932373047,-38.278282165527344
1.281,-11.759527206420898,4.998606204986572,-2.1200408935546875,0.2454151064157486,-1.4317153692245483,0.25014930963516235,12.277112007141113,-18.298744201660156,-38.68751907348633
1.291,-11.757134437561035,4.7365922927856445,-1.8221343755722046,0.1592831164598465,-1.458593487739563,0.03588833287358284,12.130955696105957,-17.641040802001953,-39.929847717285156
1.301,-11.775079727172852,4.453042984008789,-1.5337992906570435,0.08536841720342636,-1.50211763381958,-0.16233743727207184,12.394037246704102,-18.035661697387695,-39.09675598144531
1.32,-12.467802047729492,3.85483717918396,-0.8291130065917969,-0.040317103266716,-1.5485433340072632,-0.4859433174133301,12.861736297607422,-17.933351516723633,-40.99678421020508
1.324,-12.489336967468262,3.8703906536102295,-0.7585247159004211,-0.06123923882842064,-1.5554156303405762,-0.5303837656974792,13.460975646972656,-17.72873306274414,-40.894474029541016
1.331,-12.376873970031738,4.029513359069824,-0.4749752879142761,-0.11545352637767792,-1.5748106241226196,-0.7000515460968018,13.154048919677734,-17.34872817993164,-41.53756332397461
1.341,-12.038290023803711,3.9876389503479004,-0.07896314561367035,-0.1411098688840866,-1.5902348756790161,-0.8669705390930176,13.767904281616211,-17.451038360595703,-42.312191009521484
1.351,-11.563315391540527,3.8763725757598877,0.09571290761232376,-0.15775594115257263,-1.6209309101104736,-1.0062477588653564,13.767904281616211,-17.42180633544922,-43.627593994140625
1.361,-11.052447319030762,4.01754903793335,0.17946170270442963,-0.1420261561870575,-1.6873624324798584,-1.116508960723877,14.761765480041504,-16.76410484313965,-42.98450469970703
1.38,-10.316654205322266,3.229114055633545,1.576870083808899,-0.032681290060281754,-1.833817481994629,-1.2426526546478271,14.878690719604492,-15.960245132446289,-45.32300567626953
1.384,-10.363314628601074,2.967099905014038,1.8747763633728027,-0.052228979766368866,-1.8420641422271729,-1.2622002363204956,15.068693161010742,-15.741011619567871,-45.995323181152344
1.391,-10.861021041870117,2.383251190185547,2.586641311645508,-0.10873401165008545,-1.8625280857086182,-1.3379476070404053,14.878690719604492,-15.79947280883789,-45.68839645385742
1.401,-11.772686958312988,2.664407968521118,2.2325034141540527,-0.11285734921693802,-1.9378172159194946,-1.452942967414856,16.32563591003418,-15.682548522949219,-47.237648010253906
1.411,-12.91525936126709,2.5220348834991455,2.196611166000366,0.0009162978385575116,-1.9182696342468262,-1.4995214939117432,15.711779594421387,-14.542531967163086,-47.07687759399414
1.421,-13.292129516601562,1.5684951543807983,2.8139593601226807,0.05497787147760391,-1.8212946653366089,-1.64414381980896,16.398714065551758,-14.381760597229004,-48.2607421875
1.437,-13.909478187561035,0.24406790733337402,4.890929222106934,-0.12538009881973267,-1.6493360996246338,-1.9514089822769165,16.88102912902832,-12.949429512023926,-48.24612808227539
1.441,-14.081761360168457,0.1818545162677765,4.962713718414307,-0.19028452038764954,-1.5586225986480713,-2.046856641769409,16.778718948364258,-12.817889213562012,-49.07921600341797
1.451,-14.8199462890625,0.21296119689941406,4.011567115783691,-0.2765692174434662,-1.3613131046295166,-2.2507331371307373,17.15872573852539,-11.926337242126465,-50.160770416259766
1.461,-14.70509147644043,0.5431707501411438,2.550748825073242,-0.27809640765190125,-1.19607412815094,-2.472935199737549,18.035661697387695,-10.976323127746582,-51.02309036254883
1.471,-13.853246688842773,0.9367900490760803,1.2406784296035767,-0.2246456891298294,-1.0771081447601318,-2.6448936462402344,17.772581100463867,-10.172464370727539,-51.06694030761719
1.481,-12.411571502685547,1.1629117727279663,0.7322037220001221,-0.16798794269561768,-1.000749945640564,-2.783560276031494,19.234142303466797,-9.441683769226074,-51.973106384277344
1.494,-10.121639251708984,1.1365907192230225,0.9846464395523071,-0.16019940376281738,-0.9867000579833984,-2.9222264289855957,18.868751525878906,-7.8485822677612305,-52.513885498046875
1.501,-9.233901977539062,0.6771687865257263,1.4237295389175415,-0.16539175808429718,-1.1016954183578491,-2.9686522483825684,19.33645248413086,-7.541654109954834,-52.17772674560547
1.511,-8.58784008026123,-0.1782652735710144,1.781456470489502,-0.215482696890831,-1.300837516784668,-2.98392391204834,19.701841354370117,-6.153171539306641,-53.215431213378906
1.521,-8.806783676147461,-0.760917603969574,2.001595973968506,-0.3159700334072113,-1.4608842134475708,-2.979342460632324,20.388774871826172,-4.837766647338867,-53.80005645751953
1.531,-9.153742790222168,-1.0444670915603638,2.1714866161346436,-0.4069889783859253,-1.5497651100158691,-2.9710958003997803,20.418006896972656,-3.9900612831115723,-54.282371520996094
1.55,-9.82253646850586,-1.4883357286453247,2.4849462509155273,-0.4804455041885376,-1.6157385110855103,-2.9077186584472656,19.950305938720703,-2.893890619277954,-54.99854278564453
1.553,-10.603793144226074,-2.0231313705444336,2.7732813358306885,-0.517250120639801,-1.5809192657470703,-2.794403076171875,20.154926300048828,-1.7684887647628784,-56.25548553466797
1.561,-11.431709289550781,-2.3401803970336914,3.2817561626434326,-0.5378668308258057,-1.5149458646774292,-2.6929993629455566,20.2718505859375,-0.6869336366653442,-56.66471862792969
1.571,-12.440284729003906,-2.3461625576019287,3.583251953125,-0.5555819272994995,-1.2941179275512695,-2.5751023292541504,19.964923858642578,0.6138556003570557,-57.17626190185547
1.581,-11.913863182067871,-2.4191436767578125,3.4779675006866455,-0.5546656250953674,-1.0366382598876953,-2.447736978530884,20.71031951904297,1.856182336807251,-56.65010070800781
1.591,-11.576476097106934,-2.5950162410736084,3.5676984786987305,-0.5745187401771545,-0.7620543241500854,-2.3127357959747314,20.067232131958008,2.747734546661377,-57.570884704589844
1.611,-10.819147109985352,-2.5088744163513184,3.6119656562805176,-0.5968153476715088,-0.5555819272994995,-2.241569995880127,20.315698623657227,3.9169833660125732,-58.30166244506836
1.614,-9.42772102355957,-2.644068956375122,3.607180118560791,-0.5952881574630737,-0.36942076683044434,-2.1728477478027344,20.2718505859375,5.52470064163208,-59.54399108886719
1.621,-8.744569778442383,-2.867797613143921,3.706482172012329,-0.5925393104553223,-0.31413745880126953,-2.133294105529785,20.140310287475586,6.007015228271484,-58.88629150390625
1.631,-7.8113694190979,-3.067598581314087,3.754338502883911,-0.6255260109901428,-0.2831360399723053,-2.0806069374084473,19.511838912963867,7.3370361328125,-59.74861526489258
1.641,-7.240681171417236,-3.1884360313415527,3.6981072425842285,-0.6998988389968872,-0.28878653049468994,-2.027308940887451,20.388774871826172,7.36626672744751,-59.38322067260742
1.651,-6.7692952156066895,-3.43489670753479,3.631108045578003,-0.7458664774894714,-0.30833423137664795,-1.9992091655731201,19.760305404663086,8.257820129394531,-59.82168960571289
1.661,-6.561119556427002,-3.7076785564422607,3.7124643325805664,-0.8002334237098694,-0.2921462953090668,-1.9853119850158691,20.140310287475586,9.441683769226074,-59.7339973449707
1.673,-6.488138675689697,-3.8763725757598877,3.5916268825531006,-0.861167311668396,-0.27550020813941956,-1.9882136583328247,19.45337677001953,9.967845916748047,-59.82168960571289
1.681,-6.413960933685303,-4.047459602355957,3.658625841140747,-0.883005678653717,-0.2457205355167389,-2.0037906169891357,19.62876319885254,11.210172653198242,-59.92399978637695
1.691,-5.994020938873291,-4.216153621673584,3.6873395442962646,-0.8904888033866882,-0.21090121567249298,-2.0306687355041504,18.72259521484375,12.028646469116211,-60.187076568603516
1.701,-5.9952168464660645,-4.311866283416748,3.836890935897827,-0.8663595914840698,-0.18051066994667053,-2.054797887802124,18.35720443725586,13.007892608642578,-60.26015853881836
1.711,-5.8025946617126465,-4.622933387756348,3.834498167037964,-0.8333728909492493,-0.1598939746618271,-2.10168194770813,18.44489860534668,13.899443626403809,-60.07015609741211
1.731,-5.340780258178711,-5.167300701141357,3.8464622497558594,-0.7987062931060791,-0.15745051205158234,-2.1650590896606445,18.327974319458008,14.776381492614746,-60.65477752685547
1.734,-5.030909538269043,-5.834897994995117,4.23529577255249,-0.7893905639648438,-0.06612616032361984,-2.197740316390991,17.81642723083496,16.091785430908203,-61.049400329589844
1.741,-4.698307037353516,-6.2668023109436035,4.205385684967041,-0.8364272713661194,-0.007941247895359993,-2.2091941833496094,17.59719467163086,16.822566986083984,-60.4940071105957
1.751,-4.003191947937012,-6.386443614959717,3.805784225463867,-0.9728028774261475,0.018020525574684143,-2.244929790496826,17.43642234802246,17.641040802001953,-60.362464904785156
1.761,-3.8811581134796143,-6.52044153213501,3.135793924331665,-1.0974193811416626,-0.009010262787342072,-2.2631027698516846,17.056415557861328,18.88336753845215,-61.4732551574707
1.771,-4.041477203369141,-6.409175395965576,2.717050075531006,-1.1688907146453857,-0.08536841720342636,-2.2733349800109863,16.121017456054688,19.511838912963867,-61.005558013916016
1.79,-4.256831645965576,-6.3900322914123535,2.493321180343628,-1.1928671598434448,-0.13118331134319305,-2.2939515113830566,16.033323287963867,21.148786544799805,-61.2540168762207
1.795,-4.687539577484131,-6.524030685424805,2.3198413848876953,-1.1832458972930908,-0.1365283876657486,-2.325105905532837,15.551008224487305,22.259572982788086,-61.15170669555664
1.801,-4.682753562927246,-6.625725269317627,2.4023938179016113,-1.1720976829528809,-0.12003502249717712,-2.345264434814453,15.594855308532715,23.048816680908203,-60.85940170288086
1.811,-4.298705577850342,-7.074379920959473,2.586641311645508,-1.1801916360855103,-0.09972374886274338,-2.3738222122192383,14.790996551513672,23.706518173217773,-60.362464904785156
1.821,-4.0079779624938965,-7.357929229736328,2.719442844390869,-1.2136363983154297,-0.10873401165008545,-2.394897222518921,14.425606727600098,24.904998779296875,-60.4940071105957
1.831,-3.6646077632904053,-7.4835524559021,2.6225335597991943,-1.266170859336853,-0.12247847765684128,-2.414750099182129,14.177140235900879,26.4104061126709,-60.02630615234375
1.851,-3.2781667709350586,-7.4500532150268555,2.2923240661621094,-1.3205379247665405,-0.14737124741077423,-2.4213171005249023,13.680211067199707,27.345806121826172,-60.65477752685547
1.854,-2.860619306564331,-7.3363938331604,1.8317056894302368,-1.337183952331543,-0.21410825848579407,-2.3652703762054443,12.993276596069336,28.13504981994629,-60.581703186035156
1.861,-2.9455647468566895,-7.2394843101501465,1.743171215057373,-1.324508547782898,-0.23808471858501434,-2.3165535926818848,12.598654747009277,29.625839233398438,-60.45016098022461
1.871,-2.8211376667022705,-7.17368221282959,1.820937991142273,-1.3012956380844116,-0.22815817594528198,-2.2374465465545654,11.429407119750977,30.327388763427734,-59.8363037109375
1.881,-2.706282138824463,-7.123432636260986,1.8484554290771484,-1.2889256477355957,-0.22067506611347198,-2.1629209518432617,10.96170711517334,31.75971794128418,-59.85091781616211
1.891,-2.5603203773498535,-6.983452796936035,1.9142580032348633,-1.288467526435852,-0.20906862616539001,-2.090533494949341,10.391697883605957,31.408945083618164,-59.13475799560547
1.911,-2.3054845333099365,-7.0576300621032715,1.9645073413848877,-1.2889256477355957,-0.2304489016532898,-2.0120372772216797,8.696288108825684,33.9082145690918,-59.00321578979492
1.914,-2.108076810836792,-7.28255558013916,2.155933141708374,-1.3069461584091187,-0.2718350291252136,-1.9416351318359375,9.03244686126709,33.95206069946289,-59.32476043701172
1.921,-2.234896183013916,-7.482356548309326,2.286341905593872,-1.338711142539978,-0.2857322096824646,-1.8971946239471436,8.769365310668945,34.87284469604492,-59.237064361572266
1.931,-2.231307029724121,-7.682156562805176,2.231307029724121,-1.4002559185028076,-0.2658790946006775,-1.821752905845642,7.746273040771484,35.340545654296875,-58.6378288269043
1.941,-2.2061824798583984,-7.776673316955566,2.0482561588287354,-1.4509576559066772,-0.20372354984283447,-1.7452419996261597,7.36626672744751,36.50979232788086,-58.7547492980957
1.951,-2.1188442707061768,-7.744369983673096,1.8831512928009033,-1.4999794960021973,-0.1414152979850769,-1.6646077632904053,6.445483684539795,36.90441131591797,-57.48318862915039
1.971,-2.062613010406494,-7.378268718719482,1.5098711252212524,-1.523956060409546,-0.11392636597156525,-1.6047430038452148,6.197018623352051,37.605960845947266,-57.117801666259766
1.974,-2.1236300468444824,-6.7657060623168945,0.9655039310455322,-1.510364294052124,-0.07559457421302795,-1.5462526082992554,4.896229267120361,38.05904769897461,-56.913185119628906
1.981,-2.117647886276245,-6.485745429992676,0.662811815738678,-1.4750868082046509,-0.05406157299876213,-1.5280793905258179,5.378544330596924,39.1844482421875,-56.98625946044922
1.991,-2.306680917739868,-6.244070529937744,0.4019941985607147,-1.3981177806854248,0.0024434609804302454,-1.5106697082519531,4.706226348876953,38.90675354003906,-56.54779052734375
2.001,-2.365305185317993,-6.357729434967041,0.41515469551086426,-1.3012956380844116,0.15286903083324432,-1.5042556524276733,4.311604976654053,39.8859977722168,-56.15317153930664
2.011,-2.062613010406494,-6.67717170715332,0.4785645008087158,-1.2542589902877808,0.30833423137664795,-1.4899002313613892,3.1131248474121094,40.1636962890625,-55.84624481201172
2.031,-1.8233308792114258,-7.1641106605529785,0.4570291042327881,-1.217301607131958,0.4648684561252594,-1.4746286869049072,1.9292603731155396,40.83601379394531,-54.8962287902832
2.034,-1.5720844268798828,-7.521838188171387,0.25363919138908386,-1.1514809131622314,0.6540839672088623,-1.4555391073226929,2.2215726375579834,41.522945404052734,-54.38468551635742
2.041,-1.3040882349014282,-7.8664045333862305,0.1256231814622879,-1.0948232412338257,0.7238752841949463,-1.4567607641220093,1.856182336807251,41.9029541015625,-53.829288482666016
2.051,-0.9535397887229919,-8.475377082824707,0.13639087975025177,-1.0180069208145142,0.7996225953102112,-1.4530956745147705,0.7746273279190063,42.10757064819336,-53.478515625
2.061,-0.6017948985099792,-9.235098838806152,0.34576284885406494,-0.9621127247810364,0.8613199591636658,-1.4234685897827148,0.46769949793815613,42.502193450927734,-52.45542526245117
2.071,0.037088751792907715,-9.647860527038574,0.02512463741004467,-0.9231700897216797,0.9482155442237854,-1.3489431142807007,-0.26308098435401917,42.443729400634766,-51.53464126586914
2.091,0.6197410225868225,-9.803394317626953,-0.6939185857772827,-0.8284859657287598,1.0103710889816284,-1.2341004610061646,-0.6869336366653442,43.30604934692383,-51.63694763183594
2.095,1.1210373640060425,-10.521241188049316,-1.4189437627792358,-0.6337726712226868,0.9550877809524536,-1.1065824031829834,-1.5054078102111816,43.686058044433594,-50.39461898803711
2.101,1.557727575302124,-10.815557479858398,-1.5254243612289429,-0.5774204134941101,0.9040805101394653,-1.0682505369186401,-1.3300204277038574,44.27068328857422,-50.584625244140625
2.111,1.7132608890533447,-11.140981674194336,-1.7778671979904175,-0.4752531349658966,0.6760751008987427,-0.9731083512306213,-1.7246419191360474,44.15375518798828,-49.649227142333984
2.121,1.9884356260299683,-11.382657051086426,-1.8125630617141724,-0.4308127164840698,0.47112980484962463,-0.8778132796287537,-1.7246419191360474,44.46068572998047,-49.18152618408203
2.131,2.0673987865448,-11.388638496398926,-1.7252249717712402,-0.413097620010376,0.24908030033111572,-0.7687739133834839,-3.0254311561584473,44.46068572998047,-49.473838806152344
2.151,2.0614166259765625,-11.387442588806152,-1.5014961957931519,-0.408974289894104,0.002138028386980295,-0.6446155309677124,-2.9961998462677,45.176849365234375,-49.10844802856445
2.154,1.454836130142212,-11.157731056213379,-1.4141581058502197,-0.3781256079673767,-0.2785545587539673,-0.44806966185569763,-3.683133363723755,44.738380432128906,-48.669979095458984
2.161,1.0049854516983032,-10.935198783874512,-1.4333007335662842,-0.3254384398460388,-0.3422372341156006,-0.3430008292198181,-3.770827054977417,45.42531204223633,-47.82227325439453
2.171,0.3852444291114807,-10.798808097839355,-1.1353943347930908,-0.23548854887485504,-0.32238414883613586,-0.17516560852527618,-3.946214437484741,44.6799201965332,-48.684593200683594
2.181,0.007178467698395252,-11.274980545043945,-0.9367900490760803,-0.17760907113552094,-0.23518311977386475,-0.01664607785642147,-3.3323590755462646,45.01607894897461,-48.01227569580078
2.191,-0.5515456199645996,-11.839686393737793,-1.160519003868103,-0.14798210561275482,-0.16279558837413788,0.06918048858642578,-3.566208839416504,44.358375549316406,-48.056121826171875
2.21,-1.5014961957931519,-11.899506568908691,-1.5948163270950317,-0.020616700872778893,0.1872301995754242,0.10934487730264664,-3.639286756515503,43.67144012451172,-48.655364990234375
2.214,-1.612762451171875,-11.630313873291016,-1.7383856773376465,0.03252857178449631,0.3150537610054016,0.13820825517177582,-3.4200527667999268,44.27068328857422,-47.9391975402832
2.221,-0.7645068168640137,-11.533404350280762,-1.5529417991638184,0.11239920556545258,0.4859433174133301,0.20173825323581696,-3.2885122299194336,44.66530227661133,-47.51534652709961
2.231,0.27278175950050354,-11.448458671569824,-1.1700901985168457,0.20326539874076843,0.6142250299453735,0.32849279046058655,-3.4492838382720947,43.72990417480469,-47.99766159057617
2.241,0.9092725515365601,-11.234301567077637,-0.5647060871124268,0.2399173229932785,0.637132465839386,0.4830417037010193,-2.718503475189209,44.372989654541016,-48.43613052368164
2.251,1.0995019674301147,-10.808380126953125,-0.20458632707595825,0.22968532145023346,0.5418374538421631,0.6188065409660339,-3.3762056827545166,43.51066970825195,-48.289974212646484
2.271,0.623330295085907,-10.347761154174805,0.02273181453347206,0.20372354984283447,0.29657506942749023,0.7365507483482361,-2.630809783935547,43.14527893066406,-47.99766159057617
2.274,-1.0205388069152832,-10.005587577819824,0.50129634141922,0.18051066994667053,0.0708603635430336,0.8013024926185608,-2.002338409423828,42.67757797241211,-47.661502838134766
2.281,-2.1056838035583496,-9.955338478088379,0.6520441174507141,0.1615738421678543,0.015118913725018501,0.8187121152877808,-2.1484947204589844,42.64834976196289,-47.74919891357422
2.291,-3.376272678375244,-9.818947792053223,0.6257230639457703,0.15745051205158234,0.05161811038851738,0.8181012272834778,-1.8269511461257935,42.39988327026367,-47.500728607177734
2.301,-4.338187217712402,-9.498309135437012,0.4905286133289337,0.1794416606426239,0.18829920887947083,0.7954992651939392,-1.5200233459472656,42.39988327026367,-48.37766647338867
2.311,-4.707878589630127,-9.029315948486328,0.3649054169654846,0.242513507604599,0.39706239104270935,0.7351763248443604,-1.490792155265808,41.508331298828125,-47.486114501953125
2.33,-4.533202171325684,-8.388039588928223,0.36610186100006104,0.3484986424446106,0.5734497308731079,0.5942191481590271,-0.6284711956977844,41.65448760986328,-47.76381301879883
2.334,-4.042673587799072,-7.7180495262146,0.6173481941223145,0.3781256079673767,0.6029239296913147,0.556345522403717,-0.07307805120944977,41.639869689941406,-47.924583435058594
2.341,-3.8536407947540283,-7.35912561416626,0.6580261588096619,0.4132503271102905,0.6299547553062439,0.513126790523529,-0.3215433955192566,41.318328857421875,-47.237648010253906
2.351,-3.672982692718506,-7.154539585113525,0.7310072779655457,0.4470006227493286,0.6540839672088623,0.4813618063926697,-0.46769949793815613,41.11370849609375,-47.296112060546875
2.361,-3.5784661769866943,-7.182056903839111,0.6520441174507141,0.4573853313922882,0.6827946305274963,0.4772384762763977,-0.058462437242269516,41.2014045715332,-48.056121826171875
2.371,-3.4959137439727783,-7.2813591957092285,0.4905286133289337,0.4573853313922882,0.7014260292053223,0.49037206172943115,0.07307805120944977,40.2221565246582,-47.16456985473633
2.391,-3.4085757732391357,-7.592426300048828,0.27756741642951965,0.4492913782596588,0.7060074806213379,0.49357911944389343,0.7892428636550903,40.23677444458008,-47.04764938354492
2.395,-3.262613534927368,-8.096115112304688,-0.03110669180750847,0.42684206366539,0.6811147332191467,0.47571131587028503,0.5553931593894958,40.1636962890625,-46.27302169799805
2.401,-3.2231318950653076,-8.288737297058105,-0.1663011610507965,0.42241328954696655,0.6618725061416626,0.46593746542930603,1.2130956649780273,40.514469146728516,-46.901493072509766
2.411,-3.0819554328918457,-8.575876235961914,-0.3397807776927948,0.44089198112487793,0.6180429458618164,0.460286945104599,0.8477053642272949,39.389068603515625,-46.755332946777344
2.421,-3.0831520557403564,-8.891729354858398,-0.24526430666446686,0.47968190908432007,0.5745187401771545,0.47968190908432007,1.2715580463409424,40.04676818847656,-47.09149169921875
2.431,-3.263810157775879,-9.462416648864746,-0.1986042857170105,0.48548513650894165,0.5459607839584351,0.4918992221355438,1.1984800100326538,39.403682708740234,-46.40456008911133
2.451,-3.363112211227417,-9.68255615234375,-0.24047866463661194,0.47219884395599365,0.526107668876648,0.5004513263702393,1.7538732290267944,38.950599670410156,-47.13534164428711
2.454,-3.623929738998413,-9.451648712158203,-0.3840480148792267,0.4691444933414459,0.516333818435669,0.5016730427742004,2.2215726375579834,39.31599044799805,-46.916107177734375
2.461,-3.785445213317871,-9.238687515258789,-0.37447673082351685,0.4795292019844055,0.5268712639808655,0.5028948187828064,2.4700381755828857,39.330604553222656,-47.20841979980469
2.471,-3.9553356170654297,-8.880961418151855,-0.22372892498970032,0.517861008644104,0.6006332635879517,0.5085453391075134,2.3092663288116455,38.263668060302734,-47.486114501953125
2.481,-3.896711587905884,-8.657232284545898,-0.02512463741004467,0.5448917746543884,0.7009678483009338,0.5100724697113037,3.2738964557647705,38.848289489746094,-46.916107177734375
2.491,-3.6047871112823486,-8.541180610656738,0.13519448041915894,0.559857964515686,0.8191702961921692,0.5148066878318787,2.806197166442871,38.29289627075195,-46.78456497192383
2.511,-3.0903303623199463,-8.47776985168457,0.17587246000766754,0.5377141237258911,1.0005972385406494,0.531758189201355,3.1423561573028564,37.98596954345703,-46.872257232666016
2.514,-2.5184457302093506,-8.407181739807129,0.22013966739177704,0.5306891798973083,1.0290025472640991,0.5398521423339844,2.5723471641540527,37.971351623535156,-46.477638244628906
2.521,-2.038684844970703,-8.342576026916504,0.11605189740657806,0.5274821519851685,1.044274091720581,0.5613851547241211,3.3469743728637695,38.1028938293457,-46.50687026977539
2.531,-1.5529417991638184,-8.25404167175293,0.009571290574967861,0.5392412543296814,1.0125091075897217,0.6152939796447754,3.2008185386657715,37.37211227416992,-46.63841247558594
2.541,-1.3567304611206055,-8.297112464904785,0.06340979784727097,0.5623013973236084,0.9640980362892151,0.6753115057945251,3.9608304500579834,37.43057632446289,-47.106109619140625
2.551,-1.4632110595703125,-8.39282512664795,0.09092725813388824,0.5787947773933411,0.9130908250808716,0.7231117486953735,3.653902292251587,37.094417572021484,-46.316864013671875
2.57,-1.530210018157959,-8.428717613220215,0.08015955239534378,0.5775730609893799,0.7988590598106384,0.7961101531982422,4.589301109313965,36.62671661376953,-46.43379211425781
2.574,-1.6091731786727905,-8.525627136230469,0.007178467698395252,0.5757404565811157,0.773202657699585,0.8086328506469727,4.033908367156982,36.451332092285156,-46.872257232666016
2.581,-1.734796404838562,-8.721837997436523,0.18903298676013947,0.5546656250953674,0.7440338730812073,0.82207190990448,4.998538494110107,36.67056655883789,-46.22917175292969
2.591,-1.9118653535842896,-9.026923179626465,0.2919243574142456,0.5067126750946045,0.7261660695075989,0.8187121152877808,4.691610336303711,36.14440155029297,-45.8199348449707
2.601,-2.258824348449707,-9.098708152770996,0.22612173855304718,0.45524731278419495,0.7368561625480652,0.8097019195556641,5.290850639343262,36.30517578125,-45.87839889526367
2.611,-2.5423738956451416,-9.121438980102539,-0.0023928226437419653,0.4225660264492035,0.767857551574707,0.7932084798812866,5.451622009277344,35.19438934326172,-46.44840621948242
2.631,-2.610569477081299,-8.799604415893555,-0.5383850932121277,0.43997567892074585,0.7701483368873596,0.7218900322914124,6.387021541595459,35.12131118774414,-46.112247467041016
2.635,-2.5328028202056885,-8.736194610595703,-0.574277400970459,0.4479169249534607,0.7625125646591187,0.707534670829773,6.460099697113037,35.01900100708008,-46.44840621948242
2.641,-2.548356056213379,-8.71944522857666,-0.6317051649093628,0.47479501366615295,0.7304421067237854,0.6653849482536316,6.957030296325684,35.04823303222656,-45.30839157104492
2.651,-2.3437697887420654,-8.834300994873047,-0.5575276613235474,0.503963828086853,0.6829473376274109,0.6172793507575989,7.073955059051514,34.52206802368164,-45.30839157104492
2.661,-2.2791635990142822,-9.176474571228027,-0.37806597352027893,0.5170974135398865,0.6455318927764893,0.5905539989471436,7.7316575050354,34.551300048828125,-45.51300811767578
2.671,-2.1200408935546875,-9.503094673156738,-0.1375872939825058,0.47998735308647156,0.6285803318023682,0.5965099334716797,7.322420120239258,33.542823791503906,-46.22917175292969
2.69,-2.062613010406494,-9.7124662399292,-0.24167509377002716,0.37369680404663086,0.6527094841003418,0.6436992287635803,8.228588104248047,33.060508728027344,-45.3814697265625
2.694,-2.080559253692627,-9.67537784576416,-0.27038896083831787,0.34834590554237366,0.656069278717041,0.6603453159332275,8.067816734313965,33.33820343017578,-45.83454895019531
2.701,-2.149951219558716,-9.58325481414795,-0.332602322101593,0.3315471112728119,0.6646214127540588,0.6942483186721802,8.418591499328613,33.22127914428711,-45.542240142822266
2.711,-2.1068801879882812,-9.66939640045166,-0.380458801984787,0.3254384398460388,0.6656904220581055,0.7290676236152649,8.403975486755371,33.10435485839844,-45.498390197753906
2.721,-1.939382791519165,-9.897911071777344,-0.5324030518531799,0.32620203495025635,0.6394231915473938,0.7629706859588623,9.22244930267334,33.235897064208984,-45.498390197753906
2.731,-1.4632110595703125,-10.051051139831543,-0.6508477926254272,0.331852525472641,0.5503895878791809,0.8126034736633301,9.485530853271484,31.788951873779297,-45.235313415527344
2.749,-1.3782658576965332,-10.073782920837402,-0.8590232729911804,0.3706424832344055,0.3730859160423279,0.8857545852661133,9.763227462768555,31.45279312133789,-44.32914352416992
2.753,-1.521835207939148,-10.104889869689941,-0.8602197170257568,0.3776674270629883,0.317497193813324,0.8979719281196594,9.82168960571289,31.920490264892578,-44.548377990722656
2.761,-1.5278172492980957,-10.261619567871094,-0.8578268885612488,0.36972618103027344,0.2428189367055893,0.9063712954521179,10.523239135742188,31.949722290039062,-45.08915710449219
2.771,-1.4249258041381836,-10.405189514160156,-0.8470591902732849,0.3240639865398407,0.13973543047904968,0.90728759765625,10.347851753234863,30.94124412536621,-45.60070037841797
2.781,-1.7156537771224976,-10.357333183288574,-1.015753149986267,0.24816399812698364,0.023518310859799385,0.9104946255683899,11.692487716674805,31.248172760009766,-45.60070037841797
2.8,-1.7335999011993408,-10.409974098205566,-1.0193424224853516,0.2079996019601822,-0.06383541971445084,0.9094256162643433,11.341712951660156,30.44431495666504,-46.22917175292969
2.804,-1.6390833854675293,-10.524829864501953,-0.9511469602584839,0.1895209401845932,-0.20693059265613556,0.8856018781661987,12.569424629211426,30.502779006958008,-46.78456497192383
2.811,-1.8616158962249756,-10.576275825500488,-0.8255237936973572,0.19257526099681854,-0.3003929853439331,0.8503244519233704,12.61327075958252,29.90353775024414,-46.667640686035156
2.821,-2.1332013607025146,-10.74855899810791,-0.5108676552772522,0.2054034322500229,-0.41141775250434875,0.7787004113197327,13.007892608642578,30.34200668334961,-47.25226593017578
2.831,-2.2803597450256348,-10.886146545410156,-0.09930214285850525,0.1999056488275528,-0.5584835410118103,0.6725625991821289,12.715579986572266,29.304296493530273,-47.2230339050293
2.841,-2.788834571838379,-10.931610107421875,0.17108681797981262,0.16035212576389313,-0.6659957766532898,0.5827654004096985,13.417129516601562,29.7281494140625,-48.056121826171875
2.86,-2.770888566970825,-10.829915046691895,0.19381862878799438,0.10842858254909515,-0.7197519540786743,0.48609599471092224,13.826367378234863,29.055830001831055,-48.24612808227539
2.864,-3.1214370727539062,-10.914859771728516,0.0813559740781784,0.07437284290790558,-0.8147415518760681,0.3628539741039276,14.410990715026855,29.435836791992188,-49.12306213378906
2.871,-3.091526985168457,-11.310873031616211,0.6281159520149231,0.06612616032361984,-0.9027060866355896,0.2874121069908142,14.557147026062012,29.333528518676758,-49.50307083129883
2.881,-3.4719855785369873,-11.523833274841309,1.160519003868103,0.04444044828414917,-1.0787880420684814,0.15546520054340363,14.571762084960938,29.552762985229492,-50.555397033691406
2.891,-4.006781578063965,-11.230712890625,1.5912269353866577,0.019547687843441963,-1.2379183769226074,0.06887505203485489,14.191757202148438,29.09967803955078,-50.964630126953125
2.901,-4.9399824142456055,-10.916056632995605,1.6067804098129272,0.024892758578062057,-1.4054481983184814,-0.03298672288656235,14.820228576660156,29.684301376342773,-52.090030670166016
2.921,-5.958127975463867,-10.557132720947266,1.4775679111480713,0.04902193322777748,-1.4947872161865234,-0.15103644132614136,14.381760597229004,30.02046012878418,-52.44080352783203
2.924,-6.818347930908203,-10.362117767333984,1.3208380937576294,0.05864306166768074,-1.468672752380371,-0.3332270085811615,14.761765480041504,30.35662078857422,-53.96083068847656
2.931,-7.131807804107666,-10.327422142028809,1.2538390159606934,0.03497203439474106,-1.4126259088516235,-0.4199698567390442,14.294065475463867,30.678165435791016,-54.077754974365234
2.941,-7.216752529144287,-10.100104331970215,1.1665010452270508,-0.025045473128557205,-1.304044485092163,-0.530536413192749,14.016368865966797,31.13124656677246,-54.99854278564453
2.951,-6.86979341506958,-9.67657470703125,1.210768222808838,-0.07223481684923172,-1.2008082866668701,-0.6180429458618164,13.504822731018066,31.379714965820312,-55.583160400390625
2.961,-6.330212116241455,-9.278169631958008,1.499103307723999,-0.08155050873756409,-1.1200214624404907,-0.6772968769073486,13.694826126098633,32.417423248291016,-55.72931671142578
2.98,-5.772684574127197,-9.073582649230957,1.9896320104599,-0.07406741380691528,-1.0490082502365112,-0.7165449261665344,13.241742134094238,31.891260147094727,-56.15317153930664
2.984,-4.9639105796813965,-8.981459617614746,2.4011974334716797,-0.12079859524965286,-0.9477574229240417,-0.7489207983016968,13.066354751586914,32.63665771484375,-56.401634216308594
2.991,-4.360918998718262,-8.845067977905273,2.5220348834991455,-0.16982053220272064,-0.9202684760093689,-0.7524333000183105,12.598654747009277,32.65127182006836,-56.06547546386719
3.001,-3.912264823913574,-8.784051895141602,2.4406790733337402,-0.2623666226863861,-0.9162978529930115,-0.7626652121543884,13.110200881958008,33.49897384643555,-56.79625701904297
3.011,-3.4636106491088867,-8.549554824829102,2.6560330390930176,-0.3897320032119751,-0.9495900273323059,-0.7699956297874451,12.452499389648438,33.572052001953125,-57.293190002441406
3.021,-3.1094729900360107,-7.836493968963623,2.4083759784698486,-0.536797821521759,-0.9517279863357544,-0.7538076639175415,12.23326587677002,34.58053207397461,-58.50628662109375
3.041,-2.530409812927246,-8.031509399414062,2.365305185317993,-0.6076582074165344,-1.0044151544570923,-0.7687739133834839,11.75094985961914,35.13592529296875,-58.52090072631836
3.045,-1.6079767942428589,-8.46461009979248,2.675175428390503,-0.7527386546134949,-1.1850786209106445,-0.7648032903671265,11.677871704101562,35.16515350341797,-57.950889587402344
3.051,-1.3399806022644043,-8.366503715515137,2.565105676651001,-0.826500654220581,-1.3051135540008545,-0.7458664774894714,11.546331405639648,35.662086486816406,-58.550132751464844
3.061,-1.4273186922073364,-8.263612747192383,2.5292134284973145,-0.8608618378639221,-1.4982997179031372,-0.739146888256073,11.195556640625,36.39286804199219,-59.22244644165039
3.071,-1.6701900959014893,-8.542376518249512,2.8103702068328857,-0.8594873547554016,-1.6904168128967285,-0.7455610036849976,10.815550804138184,36.6851806640625,-59.38322067260742
3.081,-2.0745770931243896,-8.889335632324219,3.208775043487549,-0.8759807348251343,-1.867262363433838,-0.7544185519218445,10.523239135742188,37.69365692138672,-59.997074127197266
3.101,-2.6835503578186035,-9.18604564666748,3.5820553302764893,-0.9317222237586975,-2.0587685108184814,-0.7730499505996704,9.441683769226074,38.7459831237793,-60.66939163208008
3.104,-3.8835508823394775,-9.212367057800293,3.915853977203369,-1.0137308835983276,-2.152688980102539,-0.831845760345459,9.558608055114746,38.760597229003906,-61.26863479614258
3.111,-4.451846599578857,-9.33320426940918,3.999603033065796,-1.061989188194275,-2.1647536754608154,-0.9004153609275818,8.930137634277344,38.55597686767578,-61.020172119140625
3.121,-5.166103839874268,-9.479166984558105,4.102494239807129,-1.1317806243896484,-2.124283790588379,-1.0213667154312134,8.140894889831543,39.389068603515625,-61.400177001953125
3.131,-5.697310447692871,-9.477970123291016,4.016352653503418,-1.2075278759002686,-1.9952385425567627,-1.1519391536712646,7.7901201248168945,40.35369873046875,-61.76556396484375
3.141,-5.90668249130249,-9.22313404083252,3.7088749408721924,-1.280220866203308,-1.7554739713668823,-1.304044485092163,6.8985676765441895,40.25138854980469,-62.554805755615234
3.161,-5.9437713623046875,-8.683552742004395,3.198007583618164,-1.3072515726089478,-1.5289957523345947,-1.4072808027267456,6.021631240844727,41.25986862182617,-62.40864944458008
3.164,-5.599205017089844,-8.206185340881348,2.6691935062408447,-1.2918273210525513,-1.2069170475006104,-1.4970780611038208,5.378544330596924,42.633731842041016,-61.75094985961914
3.171,-5.304887771606445,-7.992027282714844,2.3545374870300293,-1.2589932680130005,-1.0085384845733643,-1.5318973064422607,4.837766647338867,42.823734283447266,-62.07249069213867
3.181,-4.669593334197998,-7.864011287689209,1.9824535846710205,-1.1989758014678955,-0.7483099102973938,-1.565036654472351,4.808535575866699,43.77375030517578,-61.531715393066406
3.191,-3.91705060005188,-7.944170951843262,1.6462620496749878,-1.1065824031829834,-0.461355984210968,-1.5841262340545654,3.653902292251587,44.0806770324707,-61.239402770996094
3.201,-2.6871397495269775,-8.126025199890137,1.4560325145721436,-1.0261008739471436,-0.2825251817703247,-1.5625932216644287,2.893890619277954,44.94300079345703,-61.32709884643555
3.222,-1.8843477964401245,-8.286344528198242,1.2538390159606934,-0.9560041427612305,-0.1895209401845932,-1.5244141817092896,1.900029182434082,45.995323181152344,-60.56708526611328
3.226,-0.8422735333442688,-8.61176872253418,1.0229315757751465,-0.8626943826675415,-0.21090121567249298,-1.4590517282485962,1.3592517375946045,45.922245025634766,-60.31861877441406
3.231,-0.62931227684021,-8.718249320983887,0.9990034103393555,-0.836885392665863,-0.25763240456581116,-1.435075044631958,0.30692780017852783,46.4191780090332,-60.581703186035156
3.241,-0.2548356056213379,-8.910871505737305,0.9631110429763794,-0.7956519722938538,-0.4057672321796417,-1.3643674850463867,0.0,47.354576110839844,-60.33323287963867
3.251,-0.1375872939825058,-9.116654396057129,1.0229315757751465,-0.7863362431526184,-0.537408709526062,-1.2985467910766602,-0.3507746458053589,47.51534652709961,-60.02630615234375
3.261,-0.22492532432079315,-9.17288589477539,1.0671988725662231,-0.7970263957977295,-0.650418758392334,-1.2389873266220093,-0.9646301865577698,48.56766891479492,-59.71937942504883
3.281,-0.47617167234420776,-9.019744873046875,1.026520848274231,-0.808174729347229,-0.7237226366996765,-1.190729022026062,-1.739257574081421,48.31920623779297,-59.63168716430664
3.285,-0.6915256977081299,-8.884550094604492,1.0133603811264038,-0.8100072741508484,-0.806647539138794,-1.1537716388702393,-2.3823444843292236,48.74305725097656,-59.8363037109375
3.291,-0.7800601124763489,-8.791230201721191,1.0791629552841187,-0.8074111342430115,-0.8063421249389648,-1.1368201971054077,-2.718503475189209,49.4007568359375,-59.57322692871094
3.301,-0.9643074870109558,-8.400003433227539,0.8937192559242249,-0.7809911966323853,-0.7762569785118103,-1.1154398918151855,-3.1131248474121094,50.01461410522461,-59.032447814941406
3.311,-0.9152546525001526,-8.220541954040527,0.9140582084655762,-0.7228062748908997,-0.7420485615730286,-1.1180360317230225,-3.814674139022827,50.43846893310547,-59.500144958496094
3.321,-0.8518447875976562,-8.256434440612793,1.109073281288147,-0.6765332818031311,-0.6963863968849182,-1.1113165616989136,-4.282373428344727,50.19000244140625,-59.13475799560547
3.341,-0.6137589812278748,-8.33898639678955,1.00259268283844,-0.6356052756309509,-0.6015495657920837,-1.0671815872192383,-5.042385101318359,50.29231262207031,-58.681671142578125
3.345,-0.4749752879142761,-8.597411155700684,0.5252245664596558,-0.5306891798973083,-0.48319438099861145,-0.9952521920204163,-5.510084629058838,51.213096618652344,-58.71090316772461
3.351,-0.28953152894973755,-8.662017822265625,0.348155677318573,-0.4642575979232788,-0.44776421785354614,-0.9699012637138367,-5.860859394073486,51.388484954833984,-58.72551727294922
3.361,-0.22851455211639404,-8.876174926757812,0.23330020904541016,-0.38316524028778076,-0.45066583156585693,-0.9537133574485779,-5.948553085327148,51.900028228759766,-58.52090072631836
3.371,-0.4091726541519165,-9.139386177062988,0.3732803165912628,-0.3376557528972626,-0.4755585789680481,-0.9502009153366089,-6.767026901245117,51.84156799316406,-58.74013137817383
3.381,-0.37806597352027893,-9.342775344848633,0.4570291042327881,-0.33399054408073425,-0.46013423800468445,-0.9451612830162048,-7.497807502746582,52.528499603271484,-58.49167251586914
3.4,-0.17706885933876038,-9.503094673156738,0.5455635190010071,-0.38759398460388184,-0.2641991972923279,-0.8309293985366821,-7.629348278045654,52.57234573364258,-57.8193473815918
3.404,0.22372892498970032,-9.506684303283691,0.07537391036748886,-0.3807217478752136,-0.1817324161529541,-0.7851145267486572,-8.783981323242188,52.908504486083984,-58.27243423461914
3.411,0.6664010882377625,-9.486345291137695,-0.27038896083831787,-0.3433062732219696,-0.07376197725534439,-0.7082982659339905,-8.886290550231934,52.528499603271484,-58.6378288269043
3.421,1.2263215780258179,-9.497113227844238,-0.5706881880760193,-0.27122417092323303,0.001527163083665073,-0.6157521605491638,-9.163987159729004,53.113128662109375,-58.88629150390625
3.431,1.6139588356018066,-9.649056434631348,-0.7298108339309692,-0.2079996019601822,0.007941247895359993,-0.5386304259300232,-9.807073593139648,52.908504486083984,-58.06781768798828
3.441,1.7455641031265259,-9.787840843200684,-0.9008976817131042,-0.1693623811006546,-0.04184426739811897,-0.46013423800468445,-9.967845916748047,52.55773162841797,-57.936275482177734
3.461,1.734796404838562,-9.859625816345215,-1.0516455173492432,-0.13576479256153107,-0.09392052888870239,-0.3533855378627777,-10.099386215209961,53.04004669189453,-57.43934631347656
3.464,1.6749757528305054,-10.036694526672363,-1.1449655294418335,-0.09834930300712585,-0.1437060534954071,-0.23777928948402405,-10.713241577148438,53.04004669189453,-58.18474197387695
3.471,1.643869161605835,-10.153943061828613,-1.0480562448501587,-0.07681629806756973,-0.15424346923828125,-0.16768251359462738,-10.610932350158691,52.76234817504883,-57.936275482177734
3.481,1.5134602785110474,-10.291529655456543,-0.8602197170257568,-0.056810468435287476,-0.14767667651176453,-0.07147122919559479,-10.581701278686523,52.98158645629883,-58.46243667602539
3.491,1.4620145559310913,-10.438688278198242,-0.6687938570976257,-0.034666601568460464,-0.12751811742782593,0.027488935738801956,-11.268634796142578,52.83543014526367,-57.8193473815918
3.501,1.286142110824585,-10.553544044494629,-0.5180460810661316,-0.0027488935738801956,-0.08429940044879913,0.12996158003807068,-11.224788665771484,52.689273834228516,-57.746273040771484
3.52,1.1054840087890625,-10.77248764038086,-0.41874393820762634,0.04337143152952194,0.035582900047302246,0.24068090319633484,-11.356328010559082,52.689273834228516,-57.527042388916016
3.524,0.9726824164390564,-10.8969144821167,-0.5455635190010071,0.06001751124858856,0.080634206533432,0.27091872692108154,-11.531715393066406,53.17158508300781,-57.83396911621094
3.531,0.9750751852989197,-10.855039596557617,-0.680757999420166,0.10461067408323288,0.166460782289505,0.322536826133728,-11.487869262695312,51.98772430419922,-58.50628662109375
3.541,1.3040882349014282,-10.859825134277344,-1.2729815244674683,0.23884831368923187,0.31062498688697815,0.413097620010376,-11.590178489685059,52.61619567871094,-58.21397399902344
3.551,1.4787644147872925,-11.436495780944824,-1.7670994997024536,0.5215262174606323,0.5091561675071716,0.5749768614768982,-12.072493553161621,51.49079132080078,-58.02397155761719
3.561,1.6115659475326538,-12.775279998779297,-1.714457392692566,0.708450973033905,0.7507533431053162,0.7324274182319641,-12.247880935668945,51.31540298461914,-57.60011672973633
3.581,2.3473589420318604,-13.671391487121582,-1.4536396265029907,0.737772524356842,0.8610145449638367,0.8804094791412354,-11.926337242126465,50.48231506347656,-57.322418212890625
3.584,2.5435705184936523,-13.805390357971191,-1.695314884185791,0.683863639831543,0.7020369172096252,0.9976956248283386,-12.087108612060547,50.42385482788086,-57.60011672973633
3.591,2.3748762607574463,-13.502696990966797,-1.6139588356018066,0.6893614530563354,0.5859724879264832,1.0674870014190674,-12.247880935668945,49.06460189819336,-57.337032318115234
3.601,2.0470597743988037,-13.190434455871582,-0.873380184173584,0.698066234588623,0.4173736572265625,1.1986702680587769,-12.394037246704102,49.020755767822266,-57.293190002441406
3.611,1.397408366203308,-12.55753231048584,0.11246266216039658,0.6258314251899719,0.24724771082401276,1.2899945974349976,-12.408652305603027,48.20227813720703,-56.6793327331543
3.621,0.44745784997940063,-11.96889877319336,0.7908278107643127,0.5135849714279175,0.020616700872778893,1.3125966787338257,-12.642502784729004,47.04764938354492,-56.24086380004883
3.64,-0.9092725515365601,-11.247462272644043,1.4739786386489868,0.2690861225128174,-0.20952677726745605,1.2211195230484009,-13.285589218139648,44.13914108276367,-54.6185302734375
3.644,-2.740978240966797,-10.362117767333984,2.0231313705444336,0.2480112910270691,-0.19608773291110992,1.2043209075927734,-13.110200881958008,43.15989685058594,-54.22391128540039
3.651,-3.7160534858703613,-9.937392234802246,2.183450698852539,0.19089537858963013,-0.02580905519425869,1.1316279172897339,-13.27097225189209,41.84449005126953,-53.449283599853516
3.661,-4.823930263519287,-9.343972206115723,2.0745770931243896,0.17333300411701202,0.26893341541290283,1.0474811792373657,-13.037124633789062,39.60830307006836,-52.96696853637695
3.671,-4.894518852233887,-8.62612533569336,1.6510475873947144,0.18799376487731934,0.5894849896430969,0.949284553527832,-13.183279037475586,37.48904037475586,-51.63694763183594
3.681,-4.478167533874512,-7.763513088226318,1.109073281288147,0.23151792585849762,0.8266533613204956,0.8491026759147644,-12.730195999145508,35.80824279785156,-50.48231506347656
3.7,-3.128615379333496,-6.161518096923828,0.10408778488636017,0.4306599795818329,0.9808968305587769,0.6942483186721802,-11.370944023132324,31.20432472229004,-49.283836364746094
3.704,-2.9730820655822754,-6.089733123779297,0.035892337560653687,0.4996877610683441,0.9582948088645935,0.6708827614784241,-10.698626518249512,29.947385787963867,-48.87459945678711
3.711,-2.5639095306396484,-6.126822471618652,0.0406779870390892,0.5951354503631592,0.9033169150352478,0.6588181853294373,-9.953229904174805,28.032737731933594,-48.80152130126953
3.721,-2.1535403728485107,-6.821937084197998,0.35772696137428284,0.6792821288108826,0.7777841687202454,0.6756169199943542,-8.725519180297852,25.723472595214844,-48.655364990234375
3.731,-2.342573404312134,-7.3567328453063965,0.672383189201355,0.6953173279762268,0.6745479106903076,0.7168503403663635,-7.45396089553833,22.318035125732422,-47.14995574951172
3.741,-2.77447772026062,-7.785048007965088,0.9080761671066284,0.668744683265686,0.6444628238677979,0.7570146918296814,-5.539316177368164,20.768781661987305,-47.51534652709961
3.76,-3.2518458366394043,-8.081757545471191,1.117448091506958,0.5925393104553223,0.6724098920822144,0.7809911966323853,-0.8477053642272949,15.697164535522461,-48.5822868347168
3.764,-3.838087320327759,-8.522037506103516,1.1976077556610107,0.5761985778808594,0.6878342628479004,0.7756461501121521,-0.029231218621134758,14.498684883117676,-47.77842712402344
3.771,-4.003191947937012,-8.755337715148926,1.2131609916687012,0.5607743263244629,0.7086036205291748,0.7683157920837402,2.630809783935547,12.89096736907959,-48.611515045166016
3.781,-4.207778453826904,-8.865407943725586,1.1258230209350586,0.5552765130996704,0.7463245987892151,0.7590000629425049,4.720841884613037,11.341712951660156,-49.766151428222656
3.791,-4.2281174659729,-8.974281311035156,0.9762716293334961,0.5726861357688904,0.7802276015281677,0.7531968355178833,7.015492916107178,10.347851753234863,-50.760013580322266
3.801,-4.143172264099121,-9.284152030944824,1.0085747241973877,0.6021604537963867,0.808174729347229,0.7507533431053162,9.792458534240723,10.654779434204102,-52.98158645629883
3.82,-4.153940200805664,-10.009177207946777,1.2849457263946533,0.6035348773002625,0.9196576476097107,0.7597636580467224,12.847121238708496,10.874013900756836,-54.9400749206543
3.824,-4.0905303955078125,-10.022336959838867,1.2071789503097534,0.5864306092262268,0.9619600176811218,0.7638869881629944,14.440221786499023,10.888628959655762,-55.62701416015625
3.831,-4.0558342933654785,-10.000802040100098,1.1150553226470947,0.5586362481117249,1.0317513942718506,0.7699956297874451,15.039462089538574,11.341712951660156,-57.26395797729492
3.841,-3.717249870300293,-9.817750930786133,0.98703932762146,0.5328271985054016,1.1287262439727783,0.7742716670036316,16.179479598999023,12.817889213562012,-58.33089828491211
3.851,-3.2518458366394043,-9.555736541748047,0.849452018737793,0.5106833577156067,1.1945469379425049,0.7835873961448669,17.202571868896484,13.417129516601562,-60.75708770751953
3.861,-2.7385854721069336,-9.117850303649902,0.7369893193244934,0.49495354294776917,1.2121094465255737,0.8226827383041382,18.44489860534668,15.14177131652832,-61.32709884643555
3.88,-2.1511476039886475,-8.416753768920898,0.5647060871124268,0.5241223573684692,1.143234372138977,0.8822421431541443,19.409530639648438,18.021047592163086,-63.13943099975586
3.884,-1.6821541786193848,-7.893921375274658,0.47138604521751404,0.5372559428215027,1.1116219758987427,0.897513747215271,19.45337677001953,18.35720443725586,-63.85559844970703
3.891,-1.5960125923156738,-7.728816986083984,0.5144568085670471,0.5593998432159424,1.0503827333450317,0.9193521738052368,19.380298614501953,18.737211227416992,-63.73867416381836
3.901,-1.6462620496749878,-7.719245433807373,0.6508477926254272,0.5726861357688904,0.9758571982383728,0.9370672702789307,19.891843795776367,20.35954475402832,-65.30254364013672
3.911,-2.0063817501068115,-8.057829856872559,0.7860422134399414,0.5711589455604553,0.9364563822746277,0.9195048809051514,20.052616119384766,21.046478271484375,-66.34024810791016
3.921,-2.5459630489349365,-8.416753768920898,0.891326367855072,0.5485569834709167,0.9582948088645935,0.8823947906494141,20.18415641784668,22.75650405883789,-67.23180389404297
3.94,-2.849851608276367,-8.6033935546875,0.794417142868042,0.5157229900360107,1.0291552543640137,0.7806857824325562,20.403390884399414,25.007307052612305,-67.65565490722656
3.944,-2.829512596130371,-8.659625053405762,0.7501499056816101,0.5154175162315369,1.0375546216964722,0.7661777138710022,20.37415885925293,24.890382766723633,-67.53873443603516
3.951,-2.78165602684021,-8.764909744262695,0.8147560954093933,0.5193881988525391,1.052673578262329,0.7165449261665344,19.950305938720703,26.23501968383789,-67.5094985961914
3.961,-2.581855535507202,-8.799604415893555,0.9008976817131042,0.5094616413116455,1.0778716802597046,0.6453791260719299,20.46185302734375,27.681964874267578,-68.40104675292969
3.971,-2.2947168350219727,-8.739784240722656,0.5527420043945312,0.5044220089912415,1.0800096988677979,0.6032294034957886,19.234142303466797,28.16427993774414,-68.2695083618164
3.981,-2.128415822982788,-8.688338279724121,0.3086740970611572,0.5138903856277466,1.052215337753296,0.5580253601074219,19.219526290893555,29.669687271118164,-68.38643646240234
3.997,-1.9453648328781128,-8.565108299255371,0.19501502811908722,0.5406157374382019,0.9801332950592041,0.4680754840373993,19.234142303466797,30.780473709106445,-67.27565002441406
4.001,-2.11405873298645,-8.554340362548828,0.1746760457754135,0.5461135506629944,0.9721919894218445,0.4547891914844513,18.517976760864258,31.423559188842773,-66.93949127197266
4.011,-2.1619153022766113,-8.606983184814453,0.2225324958562851,0.5635231733322144,0.9636399149894714,0.38667771220207214,18.415668487548828,32.11049270629883,-67.26103210449219
4.021,-1.8903299570083618,-8.857032775878906,0.2189432680606842,0.575893223285675,0.9518807530403137,0.35934150218963623,18.488744735717773,33.65974807739258,-67.18795776367188
4.031,-1.9884356260299683,-9.239884376525879,0.3242274522781372,0.573144257068634,0.9466883540153503,0.35384368896484375,17.071033477783203,33.162818908691406,-66.0771713256836
4.041,-1.6115659475326538,-9.456435203552246,0.39960137009620667,0.5360342264175415,0.9472992420196533,0.35521814227104187,16.6325626373291,34.47822189331055,-65.87255096435547
4.061,-1.1808578968048096,-9.588040351867676,0.17108681797981262,0.48349982500076294,0.7672467231750488,0.3776674270629883,16.04793930053711,35.23823165893555,-65.93101501464844
4.065,-1.2323036193847656,-9.68255615234375,0.15912269055843353,0.47479501366615295,0.7182247638702393,0.3784310221672058,15.989476203918457,34.975154876708984,-65.34638977050781
4.071,-1.2801601886749268,-9.826126098632812,0.17228323221206665,0.45173484086990356,0.6331618428230286,0.36789360642433167,15.711779594421387,35.39900588989258,-65.2733154296875
4.081,-1.746760368347168,-9.943374633789062,0.22971096634864807,0.4053090810775757,0.5416847467422485,0.33948835730552673,14.980999946594238,35.6474723815918,-65.0979232788086
4.091,-2.0578272342681885,-9.982855796813965,0.1902294009923935,0.36453381180763245,0.48029276728630066,0.29046642780303955,14.600994110107422,36.465946197509766,-64.39637756347656
4.101,-2.4263219833374023,-10.007980346679688,0.15672987699508667,0.3419318199157715,0.4590652287006378,0.2295326143503189,14.90792179107666,36.275943756103516,-63.85559844970703
4.12,-2.6500511169433594,-10.39801025390625,0.12921242415905,0.3246748745441437,0.4836525619029999,0.10674870014190674,13.870213508605957,36.845951080322266,-63.92867660522461
4.124,-2.6213371753692627,-10.517650604248047,0.09451649338006973,0.3130684196949005,0.4940372407436371,0.078343465924263,14.279450416564941,36.43671417236328,-63.02250671386719
4.131,-2.465803623199463,-11.001002311706543,-0.04546362906694412,0.2996293902397156,0.493731826543808,0.03344487026333809,13.7240571975708,36.86056900024414,-62.42327117919922
4.141,-2.1236300468444824,-11.070393562316895,0.16869398951530457,0.24007004499435425,0.4462370276451111,-0.0073303827084600925,13.563285827636719,36.80210494995117,-61.970184326171875
4.151,-1.621137261390686,-10.63250732421875,-0.13519448041915894,0.20525072515010834,0.3969096839427948,-0.023060161620378494,13.256357192993164,36.58287048339844,-60.93247604370117
4.161,-1.219143033027649,-10.971091270446777,-0.23330020904541016,0.2606867253780365,0.29504790902137756,-0.05161811038851738,13.197896003723145,37.13826370239258,-60.65477752685547
4.18,-0.7968099117279053,-11.570493698120117,0.13878370821475983,0.2539672255516052,0.06062837690114975,-0.055436018854379654,13.548670768737793,37.48904037475586,-60.08477020263672
4.184,-0.7226324677467346,-11.491530418395996,0.2105683833360672,0.23289236426353455,-0.004581489134579897,-0.05115996673703194,13.066354751586914,36.71440887451172,-60.391700744628906
4.191,-0.7417749762535095,-11.458030700683594,0.2309073656797409,0.20922134816646576,-0.10873401165008545,-0.05253440886735916,12.832504272460938,36.88979721069336,-60.34785079956055
4.201,-0.906879723072052,-11.8528470993042,0.8075776100158691,0.194713294506073,-0.27229318022727966,-0.06429356336593628,12.949429512023926,37.34288024902344,-60.289390563964844
4.211,-0.8685945868492126,-12.29432201385498,1.612762451171875,0.1739438772201538,-0.39706239104270935,-0.09056076407432556,12.584039688110352,36.99210739135742,-60.099388122558594
4.221,-1.454836130142212,-12.519248008728027,2.0267207622528076,0.11789698898792267,-0.6307183504104614,-0.12507465481758118,12.452499389648438,37.211341857910156,-59.865535736083984
4.24,-3.538984537124634,-12.314661026000977,1.2789636850357056,0.05604688450694084,-0.9789115786552429,-0.24327708780765533,12.42326831817627,37.53288269042969,-61.195556640625
4.244,-4.034298896789551,-12.175877571105957,1.1353943347930908,0.04718933627009392,-0.9981537461280823,-0.2590068578720093,12.116340637207031,37.284420013427734,-61.18094253540039
4.251,-4.612165451049805,-12.008379936218262,1.0839486122131348,0.021532999351620674,-1.0201449394226074,-0.3170390725135803,11.414791107177734,37.284420013427734,-61.5755615234375
4.261,-4.9878387451171875,-11.724830627441406,1.1545369625091553,-0.02382374368607998,-0.9613491296768188,-0.3871358335018158,12.130955696105957,37.91289138793945,-61.341712951660156
4.271,-4.882554531097412,-11.249855041503906,1.1676974296569824,-0.07956519722938538,-0.8732318878173828,-0.43539419770240784,11.531715393066406,37.211341857910156,-61.48787307739258
4.281,-4.6779680252075195,-10.713863372802734,1.2741780281066895,-0.09957103431224823,-0.8216137290000916,-0.46074509620666504,11.341712951660156,38.07366180419922,-62.584041595458984
4.297,-4.346562385559082,-10.459028244018555,1.55413818359375,-0.14676035940647125,-0.7867944240570068,-0.5148066878318787,11.385560035705566,38.029815673828125,-62.51095962524414
4.301,-4.2245283126831055,-10.413564682006836,1.5792629718780518,-0.1817324161529541,-0.7896960377693176,-0.536797821521759,11.648640632629395,38.13212585449219,-62.07249069213867
4.311,-3.9361932277679443,-10.279565811157227,1.5601202249526978,-0.2629774808883667,-0.8071057200431824,-0.5838344097137451,10.610932350158691,38.33674621582031,-62.62788772583008
4.321,-3.3092734813690186,-10.05583667755127,1.5278172492980957,-0.3764457106590271,-0.8797986507415771,-0.6348416805267334,10.698626518249512,38.96521759033203,-62.30634307861328
4.331,-2.455035924911499,-9.559326171875,1.4488540887832642,-0.469449907541275,-0.9607383012771606,-0.6556111574172974,9.807073593139648,38.395206451416016,-63.02250671386719
4.341,-1.7682960033416748,-9.274580001831055,1.5086746215820312,-0.5451971888542175,-1.060920238494873,-0.6533203721046448,10.157849311828613,39.49137496948242,-63.00789260864258
4.36,-1.1617152690887451,-8.941977500915527,1.9310078620910645,-0.6769914031028748,-1.3287845849990845,-0.5795583724975586,9.558608055114746,40.38292694091797,-63.72406005859375
4.363,-1.200000524520874,-8.918049812316895,2.0482561588287354,-0.6939429044723511,-1.362382173538208,-0.5676465034484863,9.631686210632324,39.959075927734375,-63.387901306152344
4.371,-1.34476637840271,-8.841479301452637,2.1954145431518555,-0.746019184589386,-1.4576772451400757,-0.5329799056053162,9.047061920166016,40.10523223876953,-63.30020523071289
4.381,-1.7718851566314697,-8.798408508300781,2.335394859313965,-0.8277223706245422,-1.5676329135894775,-0.4908302128314972,9.047061920166016,40.74831771850586,-64.2502212524414
4.391,-2.3294126987457275,-8.752944946289062,2.5124638080596924,-0.8921687006950378,-1.6245959997177124,-0.47708573937416077,8.31628131866455,41.186790466308594,-64.96638488769531
4.41,-2.675175428390503,-8.792426109313965,2.623729705810547,-0.9511171579360962,-1.657124638557434,-0.4738787114620209,7.819350719451904,41.639869689941406,-64.22098541259766
4.414,-3.0065815448760986,-8.891729354858398,2.772084951400757,-1.0152579545974731,-1.6888896226882935,-0.502436637878418,7.527039051055908,41.78602600097656,-64.32330322265625
4.421,-3.056830644607544,-8.914461135864258,2.8390841484069824,-1.0560332536697388,-1.691791296005249,-0.5302309989929199,7.380882740020752,42.22449493408203,-65.66793060302734
4.431,-3.0687947273254395,-8.947959899902344,2.8450660705566406,-1.112385630607605,-1.7047721147537231,-0.5896376371383667,6.401637077331543,42.03449249267578,-66.0771713256836
4.441,-3.032902479171753,-9.022137641906738,2.8725833892822266,-1.1468994617462158,-1.7287486791610718,-0.6514877676963806,6.401637077331543,43.48143768310547,-65.88716125488281
4.451,-3.071187734603882,-9.134600639343262,2.8319056034088135,-1.1722503900527954,-1.761277198791504,-0.7185302376747131,5.9339375495910645,42.999122619628906,-65.74100494384766
4.461,-3.332005262374878,-9.229116439819336,2.778066873550415,-1.1965322494506836,-1.7789922952651978,-0.7993171811103821,5.1154632568359375,43.84682846069336,-66.1502456665039
4.48,-4.150351047515869,-9.244669914245605,2.6189444065093994,-1.213025689125061,-1.7044668197631836,-0.9757044911384583,4.004676818847656,45.08915710449219,-64.99561309814453
4.484,-4.267599105834961,-9.235098838806152,2.6213371753692627,-1.21027672290802,-1.6446019411087036,-1.0172432661056519,3.946214437484741,45.35223388671875,-66.16486358642578
4.491,-4.847858428955078,-9.255437850952148,2.5196421146392822,-1.2005029916763306,-1.5247195959091187,-1.0784825086593628,3.3177430629730225,45.4399299621582,-66.5302505493164
4.501,-5.119443893432617,-9.142974853515625,2.3712871074676514,-1.1914926767349243,-1.310916781425476,-1.1504119634628296,2.87927508354187,46.00994110107422,-65.0979232788086
4.511,-5.239084720611572,-8.837889671325684,2.063809394836426,-1.1681270599365234,-1.0548114776611328,-1.2139419317245483,2.3531131744384766,46.316864013671875,-65.6533203125
4.53,-5.069194793701172,-8.572286605834961,1.659422516822815,-1.1163562536239624,-0.7733554244041443,-1.280068039894104,2.1046478748321533,47.1791877746582,-64.74714660644531
4.534,-4.541577339172363,-8.342576026916504,1.1676974296569824,-0.99250328540802,-0.39324450492858887,-1.3781119585037231,0.891552209854126,47.09149169921875,-64.90792083740234
4.541,-3.9517464637756348,-8.2755765914917,0.937986433506012,-0.9271407127380371,-0.25534167885780334,-1.4185817241668701,0.3800058364868164,47.98304748535156,-64.76176452636719
4.551,-3.263810157775879,-8.182256698608398,0.8171489238739014,-0.8468118906021118,-0.12858712673187256,-1.4538593292236328,0.10230926424264908,48.041507720947266,-63.97251892089844
4.561,-2.5567307472229004,-8.093722343444824,0.8350950479507446,-0.773202657699585,-0.06322455406188965,-1.4711161851882935,-0.42385268211364746,49.06460189819336,-63.34404754638672
4.571,-1.9932211637496948,-8.066205024719238,0.906879723072052,-0.7165449261665344,-0.03848451003432274,-1.4717271327972412,-1.4177141189575195,49.63460922241211,-63.02250671386719
4.581,-1.3627125024795532,-8.227720260620117,1.0360921621322632,-0.6771441102027893,-0.0177150908857584,-1.4332425594329834,-2.0754165649414062,50.160770416259766,-62.61327362060547
4.594,-0.3768695592880249,-8.621339797973633,0.9439685344696045,-0.6436992287635803,-0.020311269909143448,-1.3477214574813843,-3.0108156204223633,50.51154327392578,-63.22712707519531
4.601,0.003589233849197626,-8.736194610595703,0.7752745151519775,-0.6177374720573425,-0.06887505203485489,-1.288620114326477,-2.952353000640869,50.993858337402344,-62.2332649230957
4.611,0.2715853750705719,-8.860621452331543,0.7597211599349976,-0.5864306092262268,-0.19120082259178162,-1.2180652618408203,-4.633148193359375,50.993858337402344,-61.4732551574707
4.621,0.2751745879650116,-8.861818313598633,0.794417142868042,-0.5659666657447815,-0.34345895051956177,-1.1565206050872803,-4.399298667907715,52.19234085083008,-61.926334381103516
4.631,0.15553347766399384,-8.95394229888916,0.9774680137634277,-0.584139883518219,-0.5091561675071716,-1.0978776216506958,-5.1154632568359375,51.710025787353516,-61.634029388427734
4.65,-0.09690931439399719,-8.830711364746094,0.9822536706924438,-0.6256787180900574,-0.5586362481117249,-1.0348057746887207,-5.773165702819824,52.79158401489258,-61.59017562866211
4.654,-0.29431718587875366,-8.50289535522461,0.34576284885406494,-0.6382014751434326,-0.4827362596988678,-0.9372199773788452,-6.503946304321289,53.05466079711914,-60.289390563964844
4.661,-0.30149564146995544,-8.382057189941406,0.037088751792907715,-0.6015495657920837,-0.4193589985370636,-0.8965974450111389,-6.869336128234863,53.59543991088867,-60.85940170288086
4.671,-0.0323031060397625,-8.47776985168457,-0.007178467698395252,-0.541532039642334,-0.3488040566444397,-0.8526151180267334,-7.263957500457764,53.2008171081543,-59.80707550048828
4.681,0.2153540402650833,-8.566305160522461,-0.1411765217781067,-0.48945578932762146,-0.30970868468284607,-0.8071057200431824,-7.717041492462158,53.843902587890625,-58.871673583984375
4.691,0.3936192989349365,-8.748159408569336,-0.10049854964017868,-0.4502076804637909,-0.317497193813324,-0.7867944240570068,-7.64396333694458,53.88775634765625,-58.7547492980957
4.711,0.43908295035362244,-8.855835914611816,-0.10289137810468674,-0.4363104999065399,-0.30512717366218567,-0.7661777138710022,-7.921660900115967,54.51622772216797,-58.28704833984375
4.714,0.7298108339309692,-9.08674430847168,-0.14715859293937683,-0.4265366494655609,-0.26542094349861145,-0.7145596146583557,-7.892428874969482,54.8962287902832,-57.96550369262695
4.729,0.8327022790908813,-9.078369140625,-0.3349951505661011,-0.4017966091632843,-0.2370157092809677,-0.6498079299926758,-7.307804584503174,54.8962287902832,-57.556270599365234
4.733,0.7645068168640137,-9.081957817077637,-0.3613162338733673,-0.3952298164367676,-0.22937989234924316,-0.6414085030555725,-7.702425956726074,54.92546081542969,-58.11166000366211
4.741,0.7980062961578369,-9.189635276794434,-0.4055834412574768,-0.3752239942550659,-0.19486600160598755,-0.6189591884613037,-7.556270122528076,55.071617126464844,-57.70242691040039
4.751,1.1054840087890625,-9.4660062789917,-0.44745784997940063,-0.35552358627319336,-0.15393804013729095,-0.5943718552589417,-7.64396333694458,55.20315933227539,-58.3162841796875
4.761,1.3854442834854126,-9.701699256896973,-0.519242525100708,-0.3381139039993286,-0.12247847765684128,-0.5621487498283386,-8.491668701171875,55.52470016479492,-59.237064361572266
4.771,1.6450655460357666,-9.957731246948242,-0.6125625967979431,-0.3170390725135803,-0.11255192011594772,-0.5229006409645081,-9.295527458190918,55.52470016479492,-59.61707305908203
4.791,2.1810576915740967,-10.309476852416992,-0.849452018737793,-0.26939156651496887,-0.09636398404836655,-0.4075998365879059,-10.377082824707031,55.61239242553711,-59.82168960571289
4.795,2.352144718170166,-10.381260871887207,-0.9236294627189636,-0.25305092334747314,-0.09468411654233932,-0.3729332387447357,-10.245542526245117,55.568546295166016,-59.865535736083984
4.801,2.586641311645508,-10.52363395690918,-1.0863415002822876,-0.22159136831760406,-0.09926559776067734,-0.3124575614929199,-10.874013900756836,56.16778564453125,-59.95323181152344
4.811,2.688336133956909,-10.74855899810791,-1.2418749332427979,-0.17272214591503143,-0.12186761200428009,-0.22220222651958466,-11.619409561157227,55.93394088745117,-59.660919189453125
4.821,2.6249263286590576,-10.934002876281738,-1.397408366203308,-0.11988230049610138,-0.13057243824005127,-0.12660181522369385,-11.429407119750977,56.24086380004883,-60.201690673828125
4.831,2.4777677059173584,-11.095518112182617,-1.530210018157959,-0.06536258012056351,-0.12003502249717712,-0.03955352306365967,-11.736333847045898,56.09471130371094,-61.034786224365234
4.85,2.3186450004577637,-11.176874160766602,-1.6342978477478027,0.032681290060281754,-0.07696902006864548,0.10659598559141159,-11.824028015136719,55.94855499267578,-60.596317291259766
4.854,2.2791635990142822,-11.127821922302246,-1.6558332443237305,0.053297992795705795,-0.07406741380691528,0.13530665636062622,-11.970184326171875,56.22624588012695,-60.23093032836914
4.861,2.252842426300049,-11.175678253173828,-1.6785650253295898,0.08139779418706894,-0.07956519722938538,0.1661553531885147,-12.043262481689453,55.83163070678711,-60.31861877441406
4.871,2.187039852142334,-11.619545936584473,-1.6199408769607544,0.118660569190979,-0.11682797223329544,0.17608189582824707,-11.926337242126465,55.583160400390625,-59.61707305908203
4.881,1.9118653535842896,-12.541979789733887,-1.2658032178878784,0.13469578325748444,-0.15485434234142303,0.1459967941045761,-11.502485275268555,55.90470504760742,-59.82168960571289
4.9,1.8508483171463013,-13.306486129760742,-1.1497513055801392,0.10567968338727951,-0.0933096632361412,0.16004669666290283,-11.47325325012207,55.51008605957031,-60.68401336669922
4.904,2.317448616027832,-13.094721794128418,-2.069791555404663,0.1339322030544281,0.04398229718208313,0.2793181240558624,-11.867875099182129,55.65624237060547,-60.45016098022461
4.911,2.5435705184936523,-12.775279998779297,-2.4287149906158447,0.2041817009449005,0.08277223259210587,0.35185837745666504,-11.765565872192383,54.691612243652344,-60.53785705566406
4.921,2.8833510875701904,-12.348160743713379,-2.4466609954833984,0.31154128909111023,0.05696318298578262,0.44318273663520813,-11.356328010559082,55.24700164794922,-60.33323287963867
4.931,3.148954391479492,-11.905488014221191,-2.1571295261383057,0.38866299390792847,-0.0503963828086853,0.5271766781806946,-11.23940372467041,54.633148193359375,-60.75708770751953
4.941,3.273381233215332,-11.289337158203125,-1.7240287065505981,0.4231768846511841,-0.2353358417749405,0.6493497490882874,-10.844781875610352,54.91084289550781,-60.786319732666016
4.951,3.3272199630737305,-10.207781791687012,-1.2071789503097534,0.43707406520843506,-0.37461310625076294,0.7867944240570068,-10.596317291259766,54.70622634887695,-61.80941390991211
4.967,2.9288148880004883,-8.97667407989502,-0.09690931439399719,0.4004221558570862,-0.5755877494812012,1.0102183818817139,-9.997076988220215,54.39929962158203,-62.80327606201172
4.971,2.5950162410736084,-8.647661209106445,0.19980068504810333,0.3533855378627777,-0.6670648455619812,1.0560332536697388,-9.880152702331543,54.18006134033203,-63.06635665893555
4.981,1.5266207456588745,-7.77188777923584,0.5826523303985596,0.22907446324825287,-0.8556694388389587,1.0939068794250488,-9.251681327819824,54.29698944091797,-62.949432373046875
4.991,0.1627119481563568,-6.668796539306641,0.519242525100708,0.09560041129589081,-0.9582948088645935,1.0929906368255615,-8.813212394714355,53.87313461303711,-63.40251541137695
5.001,-1.2370892763137817,-5.759523868560791,-0.019142581149935722,0.0887281745672226,-0.9300422668457031,1.0806206464767456,-7.907044887542725,53.80005645751953,-62.45249938964844
5.02,-2.0721843242645264,-5.416153907775879,-0.33738797903060913,0.17241671681404114,-0.8440630435943604,1.0821477174758911,-7.395498275756836,53.215431213378906,-63.22712707519531
5.024,-2.772084951400757,-6.008377552032471,-0.18903298676013947,0.3121521472930908,-0.7203628420829773,1.0862711668014526,-7.190880298614502,53.741600036621094,-63.54867172241211
5.031,-3.0317063331604004,-6.618546962738037,0.1615155190229416,0.36392295360565186,-0.6386595964431763,1.0781772136688232,-6.723180294036865,53.2008171081543,-64.38175964355469
5.041,-3.150151014328003,-7.40578556060791,0.4259223937988281,0.37858372926712036,-0.5355761051177979,1.0428996086120605,-6.138556003570557,52.67465591430664,-64.454833984375
5.051,-3.087937355041504,-7.969295978546143,0.3565305471420288,0.38041630387306213,-0.41141775250434875,0.9998337030410767,-5.87547492980957,52.294654846191406,-64.95176696777344
5.061,-3.1334011554718018,-8.641678810119629,0.27397817373275757,0.3962987959384918,-0.31780263781547546,0.95462965965271,-5.451622009277344,52.66004180908203,-65.02484893798828
5.071,-2.9718856811523438,-9.214759826660156,0.1423729509115219,0.4205807149410248,-0.22937989234924316,0.8967501521110535,-4.866997718811035,51.95848846435547,-65.18561553955078
5.083,-2.8187451362609863,-9.89432144165039,0.5072783827781677,0.4567744731903076,-0.11163561791181564,0.8544477224349976,-4.837766647338867,51.476173400878906,-64.86407470703125
5.091,-2.6799612045288086,-10.207781791687012,0.6041877269744873,0.4544837474822998,-0.03191770985722542,0.8428412675857544,-4.662379264831543,51.3592529296875,-64.54253387451172
5.101,-2.258824348449707,-10.413564682006836,0.3278166949748993,0.4560109078884125,0.03878994286060333,0.8321511745452881,-3.873136520385742,51.44694519042969,-64.98100280761719
5.111,-1.5409777164459229,-10.469796180725098,0.004785645287483931,0.4769330322742462,0.020463986322283745,0.8413141369819641,-3.800058364868164,50.39461898803711,-65.71177673339844
5.121,-1.317248821258545,-10.36929702758789,-0.06939185410737991,0.5047274231910706,-0.048258356750011444,0.864068865776062,-3.3031277656555176,51.09617233276367,-66.0771713256836
5.141,-1.1437692642211914,-10.315458297729492,-0.035892337560653687,0.5236642360687256,-0.14156801998615265,0.8950702548027039,-3.0108156204223633,50.233848571777344,-66.34024810791016
5.144,-0.9008976817131042,-10.195816040039062,0.06340979784727097,0.5215262174606323,-0.29413163661956787,0.9899070858955383,-2.586962938308716,49.605377197265625,-66.82256317138672
5.151,-0.7704888582229614,-10.090532302856445,0.1411765217781067,0.5048801302909851,-0.3706424832344055,1.0473284721374512,-2.4992692470550537,49.6784553527832,-67.14410400390625
5.161,-0.7214360237121582,-9.90269660949707,0.1902294009923935,0.4755585789680481,-0.451123982667923,1.1302534341812134,-1.5784857273101807,49.6784553527832,-66.7933349609375
5.171,-0.8255237936973572,-9.749555587768555,0.20937196910381317,0.4499022364616394,-0.5045746564865112,1.2014192342758179,-1.5784857273101807,49.26921844482422,-68.7518310546875
5.181,-0.9020940661430359,-9.780662536621094,0.30987051129341125,0.4190535545349121,-0.5126686692237854,1.2599095106124878,-1.5054078102111816,48.406898498535156,-67.69950103759766
5.201,-0.7764708995819092,-9.773483276367188,0.40319061279296875,0.37720927596092224,-0.4970915913581848,1.316261887550354,0.0,48.23151397705078,-68.72259521484375
5.204,-0.7477570176124573,-9.913464546203613,0.33020952343940735,0.2747366428375244,-0.4951062798500061,1.3622294664382935,0.46769949793815613,48.085357666015625,-69.23414611816406
5.211,-0.6975077390670776,-9.832107543945312,0.16869398951530457,0.23579397797584534,-0.5206099152565002,1.3816243410110474,0.33615902066230774,47.64688491821289,-69.90646362304688
5.221,-0.30987051129341125,-9.81535816192627,0.08973085135221481,0.1953241527080536,-0.5783366560935974,1.4118623733520508,1.2277112007141113,47.237648010253906,-70.12569427490234
5.231,-0.1495514065027237,-9.835697174072266,0.11365906894207001,0.1699732542037964,-0.693026602268219,1.4385876655578613,1.5638701915740967,45.93686294555664,-70.3156967163086
5.241,-0.0023928226437419653,-9.90867805480957,0.2392822504043579,0.146913081407547,-0.8210029006004333,1.4561500549316406,1.7684887647628784,46.287635803222656,-70.18415832519531
5.261,0.0813559740781784,-9.979266166687012,0.35054853558540344,0.08491026610136032,-1.053742527961731,1.4553864002227783,2.923121929168701,45.39608383178711,-71.06109619140625
5.265,-0.44745784997940063,-9.949356079101562,0.696311354637146,-0.014202617108821869,-1.2718214988708496,1.423926830291748,3.0838937759399414,44.97222900390625,-71.82110595703125
5.271,-1.0671988725662231,-9.832107543945312,0.8051848411560059,-0.08109235763549805,-1.3704761266708374,1.3898711204528809,3.2300498485565186,44.47529983520508,-72.0549545288086
5.281,-1.4895319938659668,-9.720841407775879,1.0049854516983032,-0.16814064979553223,-1.4662293195724487,1.3271046876907349,2.893890619277954,45.176849365234375,-71.57263946533203
5.291,-2.1128623485565186,-9.577272415161133,1.0863415002822876,-0.24755313992500305,-1.4689781665802002,1.2614367008209229,3.493130683898926,44.31452941894531,-72.28880310058594
5.301,-2.27677059173584,-9.385847091674805,1.1150553226470947,-0.32070425152778625,-1.4045318365097046,1.1954632997512817,3.873136520385742,44.24144744873047,-72.37649536132812
5.321,-2.258824348449707,-8.9910306930542,1.1222338676452637,-0.350789338350296,-1.3368786573410034,1.1447614431381226,3.946214437484741,43.23297119140625,-73.29727935791016
5.324,-2.2671992778778076,-8.63330364227295,1.0528419017791748,-0.34315353631973267,-1.2909109592437744,1.078635334968567,4.1654486656188965,43.01374053955078,-73.00496673583984
5.331,-2.2743778228759766,-8.534001350402832,1.0217353105545044,-0.33108893036842346,-1.2938125133514404,1.031598687171936,4.004676818847656,43.11604690551758,-72.78573608398438
5.341,-2.2683956623077393,-8.566305160522461,0.9355936050415039,-0.32039880752563477,-1.312138557434082,0.9709702730178833,4.443145275115967,43.20374298095703,-74.26190948486328
5.351,-1.920240044593811,-8.842676162719727,1.0707881450653076,-0.32940909266471863,-1.361160397529602,0.8991936445236206,3.756211757659912,42.619117736816406,-74.27652740478516
5.361,-2.1188442707061768,-8.947959899902344,1.2382856607437134,-0.39538252353668213,-1.403157353401184,0.8365799188613892,4.603917121887207,42.282955169677734,-74.43729400634766
5.381,-2.310270071029663,-8.97667407989502,1.2825528383255005,-0.45662176609039307,-1.4495831727981567,0.7689266204833984,3.9608304500579834,42.12218475341797,-75.2265396118164
5.385,-2.2636101245880127,-9.165706634521484,1.4620145559310913,-0.5511531829833984,-1.5042556524276733,0.6666066646575928,3.566208839416504,42.136802673339844,-74.93423461914062
5.391,-2.383251190185547,-9.168099403381348,1.444068431854248,-0.5777257680892944,-1.517083764076233,0.6339254379272461,3.9023678302764893,41.39140701293945,-75.86962890625
5.401,-2.5663022994995117,-9.195616722106934,1.332802176475525,-0.6082690358161926,-1.534340739250183,0.5719225406646729,3.478515148162842,41.683719635009766,-75.7527084350586
5.411,-2.630908489227295,-9.254240989685059,1.1892328262329102,-0.6001750826835632,-1.5740469694137573,0.4795292019844055,3.0400466918945312,41.128326416015625,-76.2934799194336
5.421,-2.585444688796997,-9.382257461547852,1.2981061935424805,-0.5791002511978149,-1.6102408170700073,0.41523563861846924,3.3615901470184326,42.16603469848633,-76.61502075195312
5.441,-2.7840490341186523,-9.525826454162598,1.3124631643295288,-0.5539020299911499,-1.6516268253326416,0.33597588539123535,2.791581392288208,42.35603332519531,-77.28733825683594
5.444,-2.9754748344421387,-9.749555587768555,1.4380862712860107,-0.5259549617767334,-1.65834641456604,0.20494529604911804,2.2215726375579834,42.09295654296875,-78.29582214355469
5.451,-3.036491870880127,-9.848857879638672,1.432104229927063,-0.5251913666725159,-1.6548339128494263,0.15424346923828125,1.8415666818618774,41.9029541015625,-77.60888671875
5.461,-2.9132614135742188,-10.051051139831543,1.5242280960083008,-0.5296201705932617,-1.6329954862594604,0.024892758578062057,1.3154048919677734,42.3414192199707,-77.33119201660156
5.471,-2.6500511169433594,-10.478169441223145,1.5397813320159912,-0.5499314665794373,-1.6187928915023804,-0.05864306166768074,0.8330897688865662,42.48757553100586,-78.09120178222656
5.481,-2.2923240661621094,-10.642078399658203,1.4201401472091675,-0.5844453573226929,-1.6146694421768188,-0.11743884533643723,0.39462143182754517,43.23297119140625,-78.12043762207031
5.5,-1.9142580032348633,-10.679167747497559,1.234696388244629,-0.625220537185669,-1.6797266006469727,-0.18249599635601044,-0.5992400050163269,43.20374298095703,-79.3042984008789
5.504,-1.3591231107711792,-11.005786895751953,1.073180913925171,-0.6307183504104614,-1.6951509714126587,-0.18784105777740479,-0.9792458415031433,43.057586669921875,-78.86582946777344
5.511,-1.0636096000671387,-11.103893280029297,0.9798608422279358,-0.6673702597618103,-1.7727309465408325,-0.19898934662342072,-1.5638701915740967,42.76527404785156,-78.74890899658203
5.521,-0.6352943778038025,-11.1493558883667,0.8039883971214294,-0.70692378282547,-1.8738291263580322,-0.206777885556221,-2.5431160926818848,43.75913619995117,-79.5089111328125
5.531,-0.45942193269729614,-11.377870559692383,0.5611169338226318,-0.7342600226402283,-2.024407386779785,-0.2171625941991806,-3.3908214569091797,42.96989059448242,-80.18123626708984
5.541,-0.7740780711174011,-12.251252174377441,0.98703932762146,-0.7192938327789307,-2.2154555320739746,-0.2658790946006775,-3.741595983505249,43.802982330322266,-80.47354888916016
5.561,-0.8662018179893494,-12.805190086364746,2.1810576915740967,-0.7228062748908997,-2.41413950920105,-0.31551188230514526,-5.583162784576416,44.051448822021484,-80.8243179321289
5.564,-1.8340984582901,-13.270593643188477,3.5294132232666016,-0.7883215546607971,-2.6954429149627686,-0.3396410644054413,-5.831628322601318,43.91990661621094,-81.27740478515625
5.571,-2.51724910736084,-13.462019920349121,3.765106201171875,-0.8533787131309509,-2.7681357860565186,-0.36254850029945374,-7.0008769035339355,44.022212982177734,-80.41508483886719
5.581,-3.2518458366394043,-13.191630363464355,3.315255641937256,-0.9648616313934326,-2.7853927612304688,-0.39477166533470154,-7.702425956726074,44.577606201171875,-80.95586395263672
5.591,-3.4947173595428467,-12.435498237609863,2.6117656230926514,-1.0319041013717651,-2.752405881881714,-0.4335615932941437,-9.26629638671875,44.7822265625,-81.21894073486328
5.601,-2.904886484146118,-11.669795989990234,2.1607186794281006,-1.0418306589126587,-2.708423614501953,-0.4485277831554413,-10.391697883605957,45.30839157104492,-80.89739990234375
5.62,-1.9800606966018677,-11.282157897949219,2.079362630844116,-0.9914342761039734,-2.7621798515319824,-0.35903605818748474,-12.569424629211426,45.922245025634766,-80.64893341064453
5.624,-0.9427720904350281,-10.910075187683105,2.472982168197632,-0.9856310486793518,-2.7843236923217773,-0.3145955801010132,-12.803274154663086,45.98070526123047,-80.57585144042969
5.631,-0.6101697683334351,-10.73539924621582,2.7864418029785156,-0.9903652667999268,-2.817157745361328,-0.23839014768600464,-14.162525177001953,46.170711517333984,-81.33586883544922
5.641,-0.3720839321613312,-10.455437660217285,3.1920251846313477,-1.0166324377059937,-2.869539499282837,-0.12812897562980652,-14.805611610412598,46.88687515258789,-80.78047943115234
5.651,-0.31106695532798767,-10.088139533996582,3.480360507965088,-1.0642799139022827,-2.9123001098632812,-0.033139437437057495,-16.15024757385254,46.550716400146484,-80.73662567138672
5.661,-0.314656138420105,-9.555736541748047,3.823730707168579,-1.144914150238037,-2.944523334503174,0.0607810914516449,-16.939491271972656,46.98918533325195,-80.89739990234375
5.681,-0.17946170270442963,-8.914461135864258,4.210171222686768,-1.2134836912155151,-2.954144239425659,0.1270599663257599,-18.459514617919922,47.38380432128906,-80.83893585205078
5.684,-0.07417750358581543,-8.184649467468262,4.508077621459961,-1.2805262804031372,-2.9601004123687744,0.2002110779285431,-19.36568260192871,47.63227081298828,-80.99971008300781
5.691,0.06580261886119843,-7.952546119689941,4.699503421783447,-1.3170254230499268,-2.9750664234161377,0.23671028017997742,-19.950305938720703,47.64688491821289,-79.64045715332031
5.701,0.3086740970611572,-7.629514694213867,4.932803630828857,-1.3684909343719482,-3.031266212463379,0.279928982257843,-21.09032440185547,48.099971771240234,-79.0119857788086
5.711,0.574277400970459,-7.422535419464111,5.19960355758667,-1.4135421514511108,-3.1842875480651855,0.293826162815094,-21.83572006225586,48.72844314575195,-78.93890380859375
5.721,0.4905286133289337,-7.301697731018066,5.505885124206543,-1.457371711730957,-3.4469597339630127,0.24984388053417206,-22.84419822692871,49.15229415893555,-78.01811981201172
5.741,0.11365906894207001,-7.221538543701172,5.924628257751465,-1.4827226400375366,-3.667940378189087,0.18509215116500854,-25.548086166381836,50.46770095825195,-76.27886199951172
5.744,-0.769292414188385,-7.106682777404785,6.3661041259765625,-1.50211763381958,-3.8964037895202637,0.0858265683054924,-25.591930389404297,50.263084411621094,-76.5127182006836
5.751,-1.4871392250061035,-7.098308086395264,6.638886451721191,-1.4982997179031372,-3.986812114715576,0.009468411095440388,-26.79041290283203,50.45308303833008,-75.59193420410156
5.761,-2.445464611053467,-7.244270324707031,6.86261510848999,-1.4828753471374512,-4.0161333084106445,-0.1033889427781105,-27.652734756469727,51.183860778808594,-74.62730407714844
5.771,-3.2853453159332275,-7.454838752746582,6.9822564125061035,-1.4550809860229492,-3.9274051189422607,-0.260992169380188,-28.73428726196289,50.92078399658203,-73.88190460205078
5.781,-4.084547996520996,-7.747959613800049,7.032505512237549,-1.4170546531677246,-3.773772716522217,-0.3949243724346161,-29.011985778808594,51.60771560668945,-73.25343322753906
5.801,-4.559523582458496,-8.061419486999512,6.847061634063721,-1.2957979440689087,-3.344639778137207,-0.7426593899726868,-31.160480499267578,52.44080352783203,-71.3680191040039
5.804,-5.084747791290283,-8.709874153137207,6.503691673278809,-1.2840386629104614,-3.2812626361846924,-0.8376489877700806,-31.423559188842773,52.16311264038086,-70.95877838134766
5.811,-5.231906414031982,-8.981459617614746,6.061019420623779,-1.253190040588379,-3.0773861408233643,-0.9239336848258972,-32.38819122314453,51.82695388793945,-70.44723510742188
5.821,-5.095515727996826,-9.037691116333008,5.349154949188232,-1.1927144527435303,-2.710256338119507,-1.102611780166626,-33.19205093383789,52.47003936767578,-69.84799194335938
5.831,-4.625326156616211,-8.924031257629395,4.554737567901611,-1.1162035465240479,-2.409710645675659,-1.2084441184997559,-34.33206558227539,52.42618942260742,-69.32183837890625
5.841,-3.6610186100006104,-8.685946464538574,3.970889091491699,-1.0163270235061646,-2.121687650680542,-1.2716686725616455,-35.06284713745117,53.5369758605957,-68.38643646240234
5.861,-2.39401912689209,-8.475377082824707,3.535395383834839,-0.9051495790481567,-1.9034559726715088,-1.2838859558105469,-36.80210494995117,52.58695983886719,-67.02719116210938
5.864,-0.6173481941223145,-8.358129501342773,3.3332018852233887,-0.7538076639175415,-1.7679967880249023,-1.221577763557434,-37.22595977783203,53.27389907836914,-67.11487579345703
5.871,0.3720839321613312,-8.426324844360352,3.28773832321167,-0.6944010853767395,-1.80510675907135,-1.162629246711731,-37.664424896240234,52.86465835571289,-66.54487609863281
5.881,1.8436697721481323,-8.94556713104248,3.3990042209625244,-0.6362161040306091,-1.933541178703308,-1.0706939697265625,-38.64366912841797,53.01081466674805,-65.68254852294922
5.891,2.5292134284973145,-9.595218658447266,3.6574294567108154,-0.6114761233329773,-2.1560487747192383,-0.9796751141548157,-39.30137634277344,52.76234817504883,-64.27944946289062
5.901,2.9551358222961426,-10.303494453430176,4.065405368804932,-0.6424775123596191,-2.436588764190674,-0.9033169150352478,-40.2221565246582,52.528499603271484,-64.01637268066406
5.921,2.847459077835083,-10.803593635559082,4.287938117980957,-0.8217664957046509,-3.018132448196411,-0.7951937913894653,-40.879859924316406,52.689273834228516,-62.730194091796875
5.924,1.9609181880950928,-11.023734092712402,4.554737567901611,-0.8707883954048157,-3.129920721054077,-0.7762569785118103,-40.9237060546875,52.57234573364258,-62.87635040283203
5.931,1.447657585144043,-10.840682983398438,4.58584451675415,-0.9398161768913269,-3.261256694793701,-0.7492262125015259,-41.93218231201172,52.718502044677734,-61.429405212402344
5.941,0.5575276613235474,-10.358529090881348,4.5200419425964355,-0.9981537461280823,-3.383888006210327,-0.7304421067237854,-42.633731842041016,53.127742767333984,-60.581703186035156
5.951,-0.19501502811908722,-9.847661018371582,4.30588436126709,-0.9984592199325562,-3.4385604858398438,-0.7428121566772461,-42.76527404785156,52.733116149902344,-59.57322692871094
5.961,-0.8973084688186646,-9.473184585571289,4.163511276245117,-0.9526443481445312,-3.436116933822632,-0.7994698882102966,-43.29143524169922,53.49312973022461,-58.60859298706055
5.98,-1.4763715267181396,-9.494720458984375,4.106083393096924,-0.8374962210655212,-3.2618675231933594,-0.9944885969161987,-44.38760757446289,52.80619812011719,-57.48318862915039
5.984,-2.282752752304077,-9.79142951965332,4.222135543823242,-0.8153523802757263,-3.1754302978515625,-1.0574077367782593,-44.928382873535156,52.25080108642578,-56.16778564453125
5.991,-2.3533408641815186,-10.005587577819824,4.204189300537109,-0.7890851497650146,-2.9935450553894043,-1.1414016485214233,-44.85530471801758,52.323883056640625,-56.48933029174805
6.001,-2.366501569747925,-10.208977699279785,4.022334575653076,-0.7434229850769043,-2.7181975841522217,-1.228450059890747,-45.46916198730469,52.57234573364258,-55.51008605957031
6.011,-2.190629005432129,-10.396814346313477,3.8021950721740723,-0.6765332818031311,-2.4408648014068604,-1.303586483001709,-45.96609115600586,52.17772674560547,-54.077754974365234
6.021,-1.8293129205703735,-10.590632438659668,3.696910858154297,-0.6206390857696533,-2.1991147994995117,-1.398423194885254,-46.57994842529297,52.16311264038086,-53.91698455810547
6.041,-0.9643074870109558,-10.542776107788086,3.184846878051758,-0.6073527932167053,-1.7398968935012817,-1.4353805780410767,-47.19380569458008,52.36772918701172,-52.61619567871094
6.045,-0.751346230506897,-10.415956497192383,2.9132614135742188,-0.6013968586921692,-1.7020232677459717,-1.432020902633667,-47.26688003540039,51.7392578125,-52.002342224121094
6.051,-0.3840480148792267,-10.307083129882812,2.651247262954712,-0.5792529582977295,-1.6027576923370361,-1.4161382913589478,-47.67612075805664,51.388484954833984,-51.92926025390625
6.061,0.13519448041915894,-10.269994735717773,2.2061824798583984,-0.5378668308258057,-1.5068517923355103,-1.3773484230041504,-48.27535629272461,50.87693786621094,-51.388484954833984
6.071,0.6436693072319031,-10.38365364074707,1.7383856773376465,-0.4836525619029999,-1.4908167123794556,-1.3367259502410889,-48.8599853515625,51.03771209716797,-50.17538833618164
6.081,0.787238597869873,-10.555936813354492,1.612762451171875,-0.42867469787597656,-1.54640531539917,-1.2880094051361084,-49.45922088623047,50.92078399658203,-50.555397033691406
6.099,1.0336993932724,-10.948359489440918,1.2693923711776733,-0.39278632402420044,-1.6117680072784424,-1.1791225671768188,-50.0,50.68693161010742,-48.77228546142578
6.103,0.9990034103393555,-11.047661781311035,1.231107234954834,-0.3839287757873535,-1.632842779159546,-1.1455250978469849,-50.3215446472168,49.97077178955078,-48.2607421875
6.111,0.8937192559242249,-11.224730491638184,1.2885348796844482,-0.38438695669174194,-1.65529203414917,-1.090088963508606,-50.68693161010742,49.69307327270508,-49.283836364746094
6.121,0.8997012972831726,-11.187642097473145,1.0803593397140503,-0.40393462777137756,-1.6536122560501099,-1.0080803632736206,-50.71616744995117,49.82461166381836,-48.026893615722656
6.131,1.0360921621322632,-11.006983757019043,0.5539384484291077,-0.38240164518356323,-1.6473509073257446,-0.906676709651947,-51.25694274902344,48.69921112060547,-48.17304992675781
6.141,1.0049854516983032,-10.680363655090332,0.17228323221206665,-0.3332270085811615,-1.6789631843566895,-0.8385652303695679,-50.979244232177734,48.9622917175293,-46.88687515258789
6.16,0.9128617644309998,-10.347761154174805,-0.0023928226437419653,-0.24846942722797394,-1.713935136795044,-0.7000515460968018,-51.505409240722656,49.07921600341797,-46.19994354248047
6.164,0.9080761671066284,-10.269994735717773,0.010767702013254166,-0.23976460099220276,-1.7174475193023682,-0.6824891567230225,-51.6807975769043,48.94767761230469,-46.360713958740234
6.171,0.8111668825149536,-10.241281509399414,0.05503491684794426,-0.21868975460529327,-1.718058466911316,-0.6316346526145935,-51.914642333984375,48.55305480957031,-46.46302032470703
6.181,0.8602197170257568,-10.24487018585205,0.05383851006627083,-0.19746218621730804,-1.6723963022232056,-0.5427537560462952,-51.578487396240234,48.9184455871582,-45.42531204223633
6.191,0.849452018737793,-10.216156005859375,-0.04546362906694412,-0.18219056725502014,-1.6326900720596313,-0.4792237877845764,-51.82695388793945,48.12919998168945,-44.548377990722656
6.201,0.849452018737793,-10.181459426879883,-0.09690931439399719,-0.17547103762626648,-1.564731240272522,-0.4043927788734436,-51.914642333984375,48.845367431640625,-44.21221923828125
6.22,0.745364248752594,-10.086943626403809,-0.2967100143432617,-0.14813482761383057,-1.389260172843933,-0.29016098380088806,-51.92926025390625,49.166908264160156,-43.34989929199219
6.223,0.7405785322189331,-10.078568458557129,-0.32662028074264526,-0.14095714688301086,-1.3631458282470703,-0.27809640765190125,-51.87080001831055,48.34843444824219,-43.247589111328125
6.231,0.8231310248374939,-10.071390151977539,-0.468993216753006,-0.08903361111879349,-1.267698049545288,-0.2197587788105011,-51.7977180480957,48.2607421875,-42.45834732055664
6.241,1.179661512374878,-10.17428207397461,-0.672383189201355,0.011453723534941673,-1.1743884086608887,-0.13530665636062622,-51.84156799316406,48.72844314575195,-42.09295654296875
6.251,1.4416755437850952,-10.906484603881836,-0.5706881880760193,0.11835514008998871,-1.1206321716308594,-0.058795779943466187,-51.31540298461914,48.655364990234375,-42.38526916503906
6.261,1.5122638940811157,-11.935399055480957,-0.33379876613616943,0.18341228365898132,-1.0960450172424316,-0.005650503095239401,-51.783103942871094,48.81613540649414,-42.38526916503906
6.28,0.5276173949241638,-12.618549346923828,-0.10648059844970703,0.0685696229338646,-0.9589056968688965,0.08643742650747299,-51.43233108520508,49.45922088623047,-41.888336181640625
6.284,0.4402793347835541,-12.45583724975586,-0.25722840428352356,0.04856378585100174,-0.8840747475624084,0.12568552792072296,-51.3592529296875,48.87459945678711,-42.19526290893555
6.291,0.43908295035362244,-11.693723678588867,-0.8638089299201965,0.06948591768741608,-0.7565565705299377,0.20112738013267517,-51.154632568359375,48.669979095458984,-41.946800231933594
6.301,0.8709874153137207,-11.081161499023438,-0.9044869542121887,0.15622878074645996,-0.5931501388549805,0.3237585723400116,-50.950016021728516,48.655364990234375,-41.82987594604492
6.311,1.3890334367752075,-10.695917129516602,-0.5216353535652161,0.2382374405860901,-0.4970915913581848,0.44257184863090515,-50.68693161010742,49.13768005371094,-41.74217987060547
6.321,1.710868239402771,-10.284351348876953,-0.13878370821475983,0.2996293902397156,-0.4518875777721405,0.565203070640564,-50.30692672729492,49.049983978271484,-41.42063903808594
6.34,1.6259229183197021,-9.77109146118164,0.8709874153137207,0.27550020813941956,-0.4444044530391693,0.836885392665863,-49.98538589477539,49.06460189819336,-41.639869689941406
6.344,1.3722838163375854,-9.626324653625488,0.7956134676933289,0.2431243658065796,-0.47540587186813354,0.8817839622497559,-49.34230041503906,48.8599853515625,-41.55217742919922
6.351,0.7238287925720215,-9.365507125854492,0.727418065071106,0.19776761531829834,-0.5360342264175415,0.9275988340377808,-49.093833923339844,49.18152618408203,-41.712947845458984
6.361,-0.5048855543136597,-8.863015174865723,0.5718846321105957,0.14095714688301086,-0.5736024975776672,0.9508117437362671,-48.74305725097656,49.35691452026367,-41.55217742919922
6.371,-1.5649060010910034,-8.233702659606934,0.21774685382843018,0.11957687139511108,-0.5314527750015259,0.9465356469154358,-48.2607421875,49.31306457519531,-41.712947845458984
6.381,-2.2504496574401855,-7.7515482902526855,-0.037088751792907715,0.14813482761383057,-0.42500948905944824,0.9257662296295166,-47.89535140991211,50.0,-41.55217742919922
6.394,-2.709871768951416,-7.386643409729004,-0.003589233849197626,0.21212296187877655,-0.2223549336194992,0.87735515832901,-47.06226348876953,50.20461654663086,-42.326805114746094
6.401,-2.6009981632232666,-7.325625896453857,0.010767702013254166,0.23869559168815613,-0.11835514008998871,0.8521569967269897,-46.916107177734375,50.49692916870117,-42.09295654296875
6.411,-2.3270199298858643,-7.4392852783203125,0.1866401582956314,0.2620611786842346,-0.004123340360820293,0.816726803779602,-46.49225616455078,50.584625244140625,-41.49371337890625
6.421,-1.805384635925293,-7.562515735626221,0.2153540402650833,0.2519819140434265,0.0555887334048748,0.7822129726409912,-46.22917175292969,50.950016021728516,-42.0052604675293
6.431,-1.428515076637268,-7.878368377685547,0.2763710021972656,0.21945331990718842,0.05115996673703194,0.7493789196014404,-45.498390197753906,50.540775299072266,-42.39988327026367
6.441,-1.3076776266098022,-8.323433876037598,0.14715859293937683,0.17241671681404114,0.025961771607398987,0.7313584089279175,-45.746856689453125,51.403099060058594,-42.692195892333984
6.46,-1.1976077556610107,-8.662017822265625,-0.4342972934246063,0.19486600160598755,-0.06872233748435974,0.7648032903671265,-45.68839645385742,51.98772430419922,-43.30604934692383
6.464,-1.2167502641677856,-8.724230766296387,-0.5096712112426758,0.2050980031490326,-0.09483683109283447,0.7646505236625671,-44.548377990722656,51.783103942871094,-43.11604690551758
6.471,-1.345962643623352,-8.891729354858398,-0.574277400970459,0.23777928948402405,-0.18020524084568024,0.7637342810630798,-44.562992095947266,51.505409240722656,-42.96989059448242
6.481,-1.6414762735366821,-9.305686950683594,-0.4450649917125702,0.2869539260864258,-0.2643519341945648,0.7553348541259766,-44.182987213134766,52.14849853515625,-43.466819763183594
6.491,-1.7443677186965942,-9.852446556091309,-0.22971096634864807,0.3338378667831421,-0.2967277765274048,0.7611380815505981,-43.422977447509766,51.72464370727539,-43.057586669921875
6.501,-1.53858482837677,-10.433902740478516,-0.1256231814622879,0.3514002561569214,-0.2915354371070862,0.7852672338485718,-43.08681869506836,52.484657287597656,-43.452205657958984
6.514,-1.1856435537338257,-10.747363090515137,-0.19621144235134125,0.3631593883037567,-0.3003929853439331,0.8142833113670349,-43.262203216552734,51.914642333984375,-43.33528137207031
6.521,-0.9882357120513916,-10.804789543151855,-0.23808583617210388,0.3732386529445648,-0.3237585723400116,0.8281804919242859,-42.312191009521484,52.35311508178711,-43.802982330322266
6.531,-0.8470591902732849,-10.826325416564941,-0.28115665912628174,0.37262779474258423,-0.3677408695220947,0.8431467413902283,-42.45834732055664,52.718502044677734,-43.247589111328125
6.541,-0.698704183101654,-10.693524360656738,-0.31345975399017334,0.3591887652873993,-0.45524731278419495,0.8767443299293518,-41.727561950683594,52.76234817504883,-44.41683578491211
6.551,-0.6448656916618347,-10.327422142028809,-0.27038896083831787,0.33948835730552673,-0.5302309989929199,0.920573890209198,-41.508331298828125,52.85004425048828,-44.636070251464844
6.561,-0.9092725515365601,-9.90269660949707,-0.21296119689941406,0.3176499307155609,-0.6120869517326355,0.957531213760376,-41.11370849609375,53.4200553894043,-44.13914108276367
6.579,-1.5816556215286255,-9.328418731689453,-0.0011964113218709826,0.2868012487888336,-0.7214318513870239,1.0103710889816284,-39.75445556640625,53.8585205078125,-44.4022216796875
6.582,-1.8233308792114258,-9.146564483642578,0.07417750358581543,0.2762638032436371,-0.7370089292526245,1.0210611820220947,-39.72522735595703,53.317745208740234,-44.82607650756836
6.591,-2.038684844970703,-8.934799194335938,0.11006983369588852,0.2684752643108368,-0.7371616363525391,1.0381654500961304,-38.90675354003906,53.56621170043945,-45.29377365112305
6.601,-2.3126630783081055,-8.635696411132812,0.17347964644432068,0.2739730477333069,-0.7153232097625732,1.0690141916275024,-38.263668060302734,53.49312973022461,-45.761470794677734
6.611,-2.386840581893921,-8.615358352661133,0.4007977545261383,0.2704605758190155,-0.6638578176498413,1.11085844039917,-37.95673751831055,53.639286041259766,-44.70914840698242
6.63,-2.565105676651001,-8.665606498718262,0.43190446496009827,0.2480112910270691,-0.6233879327774048,1.1406381130218506,-37.854427337646484,54.457759857177734,-45.58608627319336
6.634,-2.792423963546753,-8.673981666564941,0.331405907869339,0.20830504596233368,-0.5674937963485718,1.1643091440200806,-36.50979232788086,53.93159866333008,-45.790706634521484
6.641,-2.8342983722686768,-8.556733131408691,0.2153540402650833,0.19120082259178162,-0.5161811113357544,1.1728612184524536,-36.07132339477539,54.13621520996094,-45.57147216796875
6.651,-2.9347968101501465,-8.394021987915039,0.14356935024261475,0.2021963894367218,-0.4816672205924988,1.179580807685852,-35.6036262512207,54.22391128540039,-45.52762222290039
