time,accel_x,accel_y,accel_z,gyro_x,gyro_y,gyro_z,mag_x,mag_y,mag_z
0.0,82.16899871826172,-16.089035034179688,-9.117119789123535,-9.992342948913574,6.128636837005615,-4.663093090057373,-34.5,0.30000001192092896,-9.90000057220459
0.019,77.95520782470703,-8.542511940002441,-12.411541938781738,-4.396630764007568,4.663093090057373,5.196018218994141,-34.5,0.30000001192092896,-9.90000057220459
0.022,76.92091369628906,-9.040505409240723,-13.10107135772705,-2.9310872554779053,7.06125545501709,-6.661561965942383,-34.80000305175781,-0.75,-9.450000762939453
0.03,78.22335815429688,-8.504204750061035,-12.7946138381958,-7.594180583953857,9.059723854064941,0.6661561727523804,-34.80000305175781,-0.75,-9.450000762939453
0.039,78.989501953125,-9.500192642211914,-11.453861236572266,-4.663093090057373,4.263399600982666,9.72588062286377,-36.45000076293945,0.15000000596046448,-11.100000381469727
0.05,77.95520782470703,-9.691728591918945,-12.871228218078613,-2.131699800491333,-0.7993874549865723,4.663093090057373,-34.20000076293945,0.45000001788139343,-10.050000190734863
0.06,77.99351501464844,-9.691728591918945,-12.258312225341797,10.658498764038086,-4.263399600982666,3.0643184185028076,-34.20000076293945,0.45000001788139343,-10.050000190734863
0.07,77.7253646850586,-10.5344877243042,-11.836933135986328,1.0658499002456665,8.127105712890625,0.0,-37.05000305175781,0.0,-8.700000762939453
0.088,76.07815551757812,-9.500192642211914,-11.224017143249512,-2.398162364959717,3.197549819946289,-4.263399600982666,-34.95000076293945,-0.15000000596046448,-8.550000190734863
0.092,76.46122741699219,-10.687716484069824,-11.224017143249512,-0.2664624750614166,3.9969370365142822,-2.531393527984619,-35.25,0.75,-8.700000762939453
0.1,77.57213592529297,-10.84094524383545,-11.990161895751953,-3.86370587348938,4.130168437957764,-9.859111785888672,-35.25,0.75,-8.700000762939453
0.11,76.5761489868164,-11.185709953308105,-11.453861236572266,-6.261868000030518,9.992342948913574,-4.529861927032471,-35.25,0.75,-8.700000762939453
0.12,76.03984832763672,-11.377246856689453,-12.526463508605957,0.5329249501228333,-3.4640121459960938,6.395099639892578,-35.55000305175781,0.0,-9.90000057220459
0.138,76.80599212646484,-10.228029251098633,-12.02846908569336,2.131699800491333,-3.597243309020996,1.8652373552322388,-35.70000076293945,-0.15000000596046448,-10.800000190734863
0.142,76.99752807617188,-9.500192642211914,-11.568782806396484,-7.327718257904053,7.327718257904053,-2.797856092453003,-36.0,-1.5,-9.450000762939453
0.15,77.99351501464844,-9.653421401977539,-11.338939666748047,-10.125574111938477,4.130168437957764,-0.9326186776161194,-36.0,-1.5,-9.450000762939453
0.16,77.45721435546875,-9.040505409240723,-12.22000503540039,-1.1990811824798584,-5.329249382019043,4.130168437957764,-36.0,-1.5,-9.450000762939453
0.17,78.14674377441406,-9.53849983215332,-12.564770698547363,-1.3323123455047607,2.2649309635162354,5.196018218994141,-34.5,1.0500000715255737,-8.700000762939453
0.18,77.84028625488281,-8.580819129943848,-11.990161895751953,-5.595712184906006,8.926492691040039,1.4655436277389526,-34.95000076293945,1.6500000953674316,-8.550000190734863
0.19,77.91690063476562,-9.921571731567383,-12.60307788848877,4.529861927032471,-1.8652373552322388,2.797856092453003,-34.80000305175781,0.30000001192092896,-8.700000762939453
0.203,77.26567840576172,-9.768342971801758,-11.683704376220703,-3.4640121459960938,7.9938740730285645,-3.86370587348938,-34.80000305175781,0.30000001192092896,-8.700000762939453
0.21,76.80599212646484,-9.806650161743164,-11.224017143249512,-4.396630764007568,4.396630764007568,0.7993874549865723,-34.80000305175781,0.30000001192092896,-8.700000762939453
0.22,77.38059997558594,-9.308655738830566,-11.990161895751953,-4.263399600982666,2.9310872554779053,2.9310872554779053,-35.25,-0.30000001192092896,-8.700000762939453
0.23,76.19307708740234,-10.84094524383545,-10.879252433776855,-2.2649309635162354,-2.797856092453003,-4.529861927032471,-35.70000076293945,0.45000001788139343,-8.25
0.24,76.95922088623047,-10.266336441040039,-11.683704376220703,-1.1990811824798584,7.72741174697876,-5.062787055969238,-34.80000305175781,0.75,-10.950000762939453
0.258,76.30799865722656,-10.649409294128418,-12.756306648254395,-11.191424369812012,8.39356803894043,-3.4640121459960938,-34.80000305175781,0.75,-10.950000762939453
0.262,77.45721435546875,-10.189722061157227,-11.185709953308105,-2.398162364959717,6.661561965942383,-2.131699800491333,-35.400001525878906,-0.15000000596046448,-10.050000190734863
0.27,77.1890640258789,-9.806650161743164,-11.72201156616211,-4.929555892944336,1.0658499002456665,-0.9326186776161194,-34.80000305175781,-1.5,-9.15000057220459
0.28,77.22737121582031,-10.342951774597168,-12.717999458312988,-9.459418296813965,8.660030364990234,-4.663093090057373,-35.400001525878906,-0.45000001788139343,-10.350000381469727
0.29,77.57213592529297,-9.53849983215332,-12.181697845458984,-9.72588062286377,7.460949420928955,-2.6646246910095215,-36.150001525878906,-0.15000000596046448,-10.050000190734863
0.3,77.99351501464844,-10.074800491333008,-12.105083465576172,-7.9938740730285645,6.128636837005615,1.3323123455047607,-36.150001525878906,-0.15000000596046448,-10.050000190734863
0.319,77.61044311523438,-9.232041358947754,-12.02846908569336,-8.526799201965332,7.460949420928955,-0.1332312375307083,-34.650001525878906,1.350000023841858,-9.0
0.323,77.49552154541016,-8.887276649475098,-12.526463508605957,-7.9938740730285645,10.791729927062988,-4.929555892944336,-34.650001525878906,-0.45000001788139343,-9.75
0.33,77.30398559570312,-9.078812599182129,-11.492168426513672,0.1332312375307083,-3.9969370365142822,1.5987749099731445,-35.55000305175781,-0.75,-9.450000762939453
0.34,76.80599212646484,-9.576807022094727,-12.373234748840332,-1.1990811824798584,1.0658499002456665,-0.5329249501228333,-35.70000076293945,1.6500000953674316,-10.800000190734863
0.35,77.61044311523438,-10.342951774597168,-11.492168426513672,-10.791729927062988,6.9280242919921875,-2.531393527984619,-35.70000076293945,1.6500000953674316,-10.800000190734863
0.36,76.76768493652344,-8.772355079650879,-11.798625946044922,-7.72741174697876,3.0643184185028076,-3.0643184185028076,-34.80000305175781,0.30000001192092896,-9.450000762939453
0.378,77.1507568359375,-9.155426979064941,-11.30063247680664,1.8652373552322388,-2.531393527984619,1.0658499002456665,-34.80000305175781,0.0,-9.450000762939453
0.382,77.8019790649414,-9.53849983215332,-11.798625946044922,-0.7993874549865723,-1.0658499002456665,-0.2664624750614166,-33.900001525878906,0.15000000596046448,-10.050000190734863
0.39,76.80599212646484,-9.117119789123535,-12.48815631866455,-7.860642910003662,5.595712184906006,-2.797856092453003,-36.0,0.75,-9.450000762939453
0.4,75.12047576904297,-8.65743350982666,-12.373234748840332,-2.797856092453003,7.460949420928955,-0.9326186776161194,-36.0,0.75,-9.450000762939453
0.41,77.68705749511719,-9.84495735168457,-11.798625946044922,3.86370587348938,-4.130168437957764,9.72588062286377,-34.80000305175781,-0.30000001192092896,-9.450000762939453
0.42,76.65276336669922,-10.189722061157227,-11.60708999633789,-7.194486618041992,0.9326186776161194,-2.531393527984619,-34.80000305175781,-0.30000001192092896,-9.90000057220459
0.44,77.45721435546875,-10.15141487121582,-12.181697845458984,-5.595712184906006,2.797856092453003,-2.9310872554779053,-36.75,-0.75,-10.200000762939453
0.443,77.91690063476562,-9.998186111450195,-12.411541938781738,-4.663093090057373,5.196018218994141,9.859111785888672,-35.70000076293945,-0.15000000596046448,-10.050000190734863
0.45,76.65276336669922,-10.687716484069824,-12.449849128723145,-4.263399600982666,2.797856092453003,-5.995405673980713,-35.70000076293945,-0.15000000596046448,-10.050000190734863
0.46,77.03583526611328,-10.611102104187012,-12.02846908569336,-7.72741174697876,11.191424369812012,-6.395099639892578,-35.25,-0.30000001192092896,-9.15000057220459
0.47,77.91690063476562,-9.117119789123535,-13.369222640991211,-0.1332312375307083,4.263399600982666,2.797856092453003,-34.5,0.30000001192092896,-9.90000057220459
0.48,77.45721435546875,-9.84495735168457,-12.143390655517578,1.0658499002456665,1.9984685182571411,1.5987749099731445,-36.45000076293945,-0.45000001788139343,-9.300000190734863
0.499,76.84429931640625,-8.772355079650879,-12.526463508605957,-7.460949420928955,11.191424369812012,-6.395099639892578,-34.95000076293945,-0.15000000596046448,-8.550000190734863
0.503,76.34630584716797,-9.078812599182129,-12.871228218078613,-3.86370587348938,0.9326186776161194,1.8652373552322388,-34.95000076293945,-0.15000000596046448,-8.550000190734863
0.51,77.8019790649414,-9.500192642211914,-13.522451400756836,1.4655436277389526,2.797856092453003,3.0643184185028076,-34.650001525878906,0.15000000596046448,-9.75
0.52,78.07012939453125,-9.883264541625977,-12.411541938781738,-3.9969370365142822,3.9969370365142822,0.0,-34.650001525878906,0.45000001788139343,-10.350000381469727
0.53,77.49552154541016,-8.695740699768066,-12.717999458312988,-0.39969372749328613,5.329249382019043,-4.529861927032471,-34.20000076293945,0.9000000357627869,-8.25
0.54,76.84429931640625,-8.159439086914062,-12.526463508605957,11.857580184936523,-3.7304747104644775,2.9310872554779053,-34.20000076293945,-0.45000001788139343,-10.050000190734863
0.559,77.22737121582031,-8.121131896972656,-12.02846908569336,12.656967163085938,-3.9969370365142822,-4.263399600982666,-34.20000076293945,-0.45000001788139343,-10.050000190734863
0.563,76.72937774658203,-7.086836814880371,-10.879252433776855,3.597243309020996,6.128636837005615,0.6661561727523804,-34.650001525878906,0.15000000596046448,-8.25
0.57,75.00555419921875,-8.580819129943848,-10.41956615447998,2.531393527984619,8.39356803894043,-0.39969372749328613,-35.55000305175781,-0.75,-10.950000762939453
0.58,74.85232543945312,-8.236053466796875,-10.342951774597168,8.926492691040039,-1.9984685182571411,2.131699800491333,-36.0,-0.75,-8.40000057220459
0.59,76.15476989746094,-8.65743350982666,-10.879252433776855,3.4640121459960938,3.0643184185028076,-1.1990811824798584,-36.0,-0.75,-8.40000057220459
0.6,76.65276336669922,-7.2783732414245605,-9.806650161743164,4.929555892944336,-6.261868000030518,-4.130168437957764,-36.0,-0.75,-8.40000057220459
0.619,76.88260650634766,-8.389283180236816,-9.691728591918945,4.663093090057373,-2.2649309635162354,0.6661561727523804,-35.55000305175781,-1.0500000715255737,-7.950000286102295
0.623,80.13871765136719,-7.163451671600342,-8.65743350982666,-11.191424369812012,-1.3323123455047607,-3.197549819946289,-34.80000305175781,0.30000001192092896,-9.450000762939453
0.63,81.93915557861328,-6.742072105407715,-7.4316020011901855,-14.522205352783203,-6.395099639892578,3.0643184185028076,-35.70000076293945,-0.45000001788139343,-7.500000476837158
0.64,82.36053466796875,-6.933608055114746,-7.967903137207031,-8.793261528015137,-13.056661605834961,27.31240463256836,-34.80000305175781,-1.0500000715255737,-9.15000057220459
0.65,83.01176452636719,-6.971915245056152,-10.879252433776855,-14.655436515808105,-20.784072875976562,29.444103240966797,-34.80000305175781,-1.0500000715255737,-9.15000057220459
0.66,79.6024169921875,-8.006210327148438,-14.250288963317871,-11.724349021911621,-16.520673751831055,26.912710189819336,-35.25,-1.0500000715255737,-9.15000057220459
0.68,77.41890716552734,-10.649409294128418,-17.889474868774414,-14.388973236083984,1.5987749099731445,18.652372360229492,-35.400001525878906,-1.350000023841858,-8.550000190734863
0.684,75.9632339477539,-11.070788383483887,-18.157625198364258,-29.7105655670166,7.327718257904053,18.385910034179688,-35.55000305175781,-1.5,-10.200000762939453
0.69,77.68705749511719,-7.546523571014404,-16.395492553710938,-20.517610549926758,0.2664624750614166,41.568145751953125,-34.5,-0.75,-9.450000762939453
0.803,76.30799865722656,-16.089035034179688,-19.038692474365234,-85.66768646240234,6.261868000030518,123.2388916015625,-36.45000076293945,-4.050000190734863,-9.75
0.81,77.34229278564453,-12.90953540802002,-18.847156524658203,-90.99693298339844,8.526799201965332,124.17151641845703,-36.45000076293945,-4.050000190734863,-9.75
0.82,77.34229278564453,-11.951854705810547,-19.843143463134766,-79.2725830078125,0.1332312375307083,128.7013702392578,-36.0,-3.450000047683716,-9.15000057220459
0.83,77.91690063476562,-11.530475616455078,-18.655620574951172,-77.67381286621094,-2.131699800491333,138.96017456054688,-37.650001525878906,-4.350000381469727,-8.550000190734863
0.84,77.95520782470703,-11.568782806396484,-19.728221893310547,-78.73966217041016,8.39356803894043,128.16845703125,-37.20000076293945,-5.100000381469727,-9.75
0.859,77.64875030517578,-11.951854705810547,-20.992361068725586,-71.94486999511719,5.995405673980713,134.83001708984375,-37.20000076293945,-5.100000381469727,-9.75
0.863,77.41890716552734,-13.177685737609863,-21.45204734802246,-71.14547729492188,22.249616622924805,119.5084228515625,-36.75,-6.450000286102295,-9.90000057220459
0.87,77.26567840576172,-12.871228218078613,-22.103269577026367,-69.14701080322266,23.581928253173828,165.2067413330078,-36.75,-6.450000286102295,-9.90000057220459
0.88,77.61044311523438,-13.713987350463867,-21.643583297729492,-78.3399658203125,22.915773391723633,107.11791229248047,-37.20000076293945,-7.800000190734863,-8.25
0.89,77.95520782470703,-14.211980819702148,-20.800825119018555,-63.950992584228516,24.381317138671875,152.1500701904297,-37.650001525878906,-6.750000476837158,-8.550000190734863
0.9,77.45721435546875,-13.48414421081543,-21.107282638549805,-68.4808578491211,31.709033966064453,135.36293029785156,-37.650001525878906,-6.750000476837158,-8.550000190734863
0.919,75.58016204833984,-13.48414421081543,-20.072986602783203,-61.28636932373047,19.584991455078125,121.90658569335938,-37.95000076293945,-8.700000762939453,-7.050000190734863
0.922,71.71112823486328,-14.633360862731934,-21.030668258666992,-61.15313720703125,27.71209716796875,123.63858795166016,-37.80000305175781,-8.850000381469727,-8.700000762939453
0.93,69.60423278808594,-12.871228218078613,-20.64759635925293,-61.68606185913086,21.316997528076172,133.76416015625,-37.80000305175781,-8.850000381469727,-8.700000762939453
0.94,67.53564453125,-14.441824913024902,-21.222204208374023,-63.28483963012695,24.248085021972656,136.9617156982422,-37.80000305175781,-8.850000381469727,-7.650000095367432
0.95,65.69689178466797,-14.020444869995117,-21.56696891784668,-63.551300048828125,33.17457962036133,136.16232299804688,-37.80000305175781,-8.850000381469727,-7.650000095367432
0.96,64.0496826171875,-13.48414421081543,-20.877439498901367,-58.4885139465332,25.7136287689209,136.0290985107422,-38.55000305175781,-9.15000057220459,-7.350000381469727
0.979,63.01538848876953,-12.258312225341797,-20.83913230895996,-58.355281829833984,24.381317138671875,136.69525146484375,-37.5,-10.800000190734863,-7.650000095367432
0.982,62.59400939941406,-10.649409294128418,-21.643583297729492,-61.15313720703125,32.64165496826172,136.16232299804688,-40.20000076293945,-11.40000057220459,-7.800000190734863
0.99,62.479087829589844,-11.568782806396484,-21.37543296813965,-51.29402542114258,33.17457962036133,124.57120513916016,-40.20000076293945,-11.40000057220459,-7.800000190734863
1.0,60.71695327758789,-11.070788383483887,-20.724210739135742,-42.500762939453125,29.044410705566406,128.3016815185547,-40.20000076293945,-11.40000057220459,-7.800000190734863
1.01,62.8238525390625,-9.921571731567383,-19.843143463134766,-24.381317138671875,23.182235717773438,125.63705444335938,-37.95000076293945,-12.15000057220459,-8.25
1.02,62.90046691894531,-12.105083465576172,-18.195932388305664,-16.920366287231445,30.110260009765625,115.64471435546875,-38.55000305175781,-12.300000190734863,-7.350000381469727
1.037,61.90447998046875,-12.526463508605957,-18.11931800842285,2.6646246910095215,28.111791610717773,98.32465362548828,-37.95000076293945,-14.40000057220459,-6.750000476837158
1.041,54.166419982910156,-13.369222640991211,-17.276559829711914,1.9984685182571411,27.578866958618164,91.92955017089844,-37.95000076293945,-14.40000057220459,-6.750000476837158
1.05,53.055511474609375,-13.10107135772705,-15.629348754882812,19.98468589782715,23.715160369873047,98.32465362548828,-37.95000076293945,-14.40000057220459,-6.750000476837158
1.06,50.029239654541016,-11.185709953308105,-13.943830490112305,22.915773391723633,34.10719680786133,86.60030364990234,-38.400001525878906,-14.100000381469727,-6.300000190734863
1.07,45.81544494628906,-8.274360656738281,-10.074800491333008,34.64012145996094,35.17304611206055,98.4578857421875,-38.55000305175781,-15.750000953674316,-6.600000381469727
1.08,46.504974365234375,-6.205770969390869,-7.929595947265625,53.29249572753906,32.77488327026367,98.19142150878906,-37.95000076293945,-15.15000057220459,-5.25
1.099,46.88804626464844,-5.2480902671813965,-4.63517427444458,62.8851432800293,41.967838287353516,96.45941925048828,-38.70000076293945,-14.850000381469727,-7.050000190734863
1.103,59.18466567993164,-12.181697845458984,-0.9959878921508789,92.19601440429688,26.379785537719727,98.32465362548828,-39.30000305175781,-15.750000953674316,-5.850000381469727
1.11,63.20692443847656,-14.595053672790527,0.3064578175544739,109.78253936767578,24.381317138671875,98.05818939208984,-39.30000305175781,-15.750000953674316,-5.850000381469727
1.12,67.61225891113281,-18.195932388305664,2.1068975925445557,116.31086730957031,21.983154296875,57.822357177734375,-37.80000305175781,-18.450000762939453,-6.150000095367432
1.13,73.74140930175781,-24.24847412109375,1.455674648284912,140.95864868164062,3.597243309020996,29.31087303161621,-40.05000305175781,-17.400001525878906,-3.9000000953674316
1.14,78.45320129394531,-25.857378005981445,2.3750481605529785,157.74578857421875,-13.456355094909668,7.06125545501709,-40.05000305175781,-17.400001525878906,-3.9000000953674316
1.153,78.68304443359375,-27.58120346069336,-3.294421434402466,164.67381286621094,-14.255742073059082,-18.519142150878906,-40.05000305175781,-18.900001525878906,-5.850000381469727
1.16,80.75163269042969,-29.688100814819336,-8.65743350982666,153.61561584472656,-2.9310872554779053,-44.49923324584961,-37.80000305175781,-18.900001525878906,-5.850000381469727
1.17,80.90486145019531,-29.917943954467773,-9.883264541625977,139.09341430664062,4.130168437957764,-55.95711898803711,-38.400001525878906,-18.30000114440918,-4.950000286102295
1.18,84.50574493408203,-30.875625610351562,-8.65743350982666,134.69677734375,0.9326186776161194,-59.68759536743164,-38.25,-17.700000762939453,-4.650000095367432
1.19,89.60060119628906,-31.871612548828125,-5.51624059677124,117.9096450805664,8.926492691040039,-60.22052001953125,-38.25,-17.700000762939453,-4.650000095367432
1.209,96.49590301513672,-31.52684783935547,-3.064578056335449,120.4410400390625,9.326186180114746,-77.00765228271484,-39.0,-16.950000762939453,-3.9000000953674316
1.213,101.32261657714844,-31.182083129882812,-2.7964274883270264,135.89585876464844,-9.459418296813965,-88.19908142089844,-38.70000076293945,-18.30000114440918,-6.300000190734863
1.22,109.59697723388672,-30.569168090820312,-5.669469833374023,145.75497436523438,-15.987748146057129,-105.65237426757812,-39.45000076293945,-19.05000114440918,-4.950000286102295
1.23,113.54261779785156,-28.19411849975586,-8.006210327148438,142.69065856933594,-22.782541275024414,-130.03369140625,-38.55000305175781,-18.450000762939453,-5.100000381469727
1.24,118.79071044921875,-27.351360321044922,-10.917559623718262,156.01377868652344,-34.773353576660156,-145.2220458984375,-38.55000305175781,-18.450000762939453,-5.100000381469727
1.25,121.74037170410156,-25.89568519592285,-13.10107135772705,164.5405731201172,-55.69065856933594,-148.4196014404297,-39.0,-17.700000762939453,-5.100000381469727
1.268,120.74437713623047,-25.665842056274414,-12.22000503540039,152.68299865722656,-57.689125061035156,-151.35069274902344,-37.650001525878906,-16.350000381469727,-5.700000286102295
1.272,118.63748168945312,-24.210166931152344,-11.453861236572266,160.6768798828125,-75.14241790771484,-143.62327575683594,-37.20000076293945,-14.850000381469727,-5.700000286102295
1.28,113.61923217773438,-19.919757843017578,-10.879252433776855,167.33843994140625,-78.87289428710938,-137.22817993164062,-38.55000305175781,-16.200000762939453,-6.600000381469727
1.29,109.94174194335938,-17.391481399536133,-11.070788383483887,167.33843994140625,-75.8085708618164,-142.29095458984375,-38.55000305175781,-16.200000762939453,-6.600000381469727
1.3,106.95378112792969,-16.242263793945312,-10.611102104187012,155.21438598632812,-73.14395141601562,-149.88514709472656,-38.400001525878906,-15.600000381469727,-6.750000476837158
1.31,105.07672119140625,-15.399505615234375,-9.84495735168457,145.75497436523438,-78.07350158691406,-148.8192901611328,-37.80000305175781,-14.250000953674316,-6.600000381469727
1.329,104.46380615234375,-15.705963134765625,-7.240066051483154,146.5543670654297,-94.32771301269531,-146.1546630859375,-37.95000076293945,-13.65000057220459,-6.0
1.333,103.54443359375,-16.47210693359375,-5.094861030578613,121.77335357666016,-101.65543365478516,-161.2097930908203,-37.5,-14.550000190734863,-7.350000381469727
1.34,103.12305450439453,-18.04270362854004,-3.294421434402466,115.37825012207031,-110.18223571777344,-167.33843994140625,-37.5,-14.550000190734863,-7.350000381469727
1.35,105.84286499023438,-17.085023880004883,-1.8770540952682495,102.98774719238281,-135.36293029785156,-169.60336303710938,-38.55000305175781,-13.500000953674316,-8.700000762939453
1.36,104.34888458251953,-17.238252639770508,-0.15322890877723694,90.99693298339844,-145.88819885253906,-175.0658416748047,-37.95000076293945,-12.90000057220459,-8.25
1.37,103.5061264038086,-15.820884704589844,-0.6512228846549988,68.4808578491211,-143.88973999023438,-189.32159423828125,-36.45000076293945,-10.5,-9.300000190734863
1.389,100.78631591796875,-15.629348754882812,-2.911349296569824,50.89433288574219,-148.95252990722656,-207.5742645263672,-36.75,-11.100000381469727,-9.15000057220459
1.393,98.21973419189453,-12.02846908569336,-5.937620162963867,53.159263610839844,-146.9540557861328,-209.83920288085938,-36.75,-11.100000381469727,-9.15000057220459
1.4,94.5039291381836,-10.611102104187012,-10.802638053894043,31.709033966064453,-121.50688934326172,-211.83766174316406,-37.80000305175781,-9.600000381469727,-11.700000762939453
1.41,92.090576171875,-9.346963882446289,-10.113107681274414,24.914241790771484,-104.45329284667969,-203.3108673095703,-36.75,-9.15000057220459,-10.200000762939453
1.42,90.2518310546875,-6.933608055114746,-9.346963882446289,30.110260009765625,-95.52679443359375,-188.2557373046875,-38.400001525878906,-10.5,-10.800000190734863
1.43,87.22555541992188,-5.669469833374023,-7.738059997558594,35.705970764160156,-88.59877014160156,-176.9310760498047,-36.75,-8.850000381469727,-11.40000057220459
1.45,84.16098022460938,-4.788403511047363,-5.286397457122803,50.62786865234375,-84.73506927490234,-169.20367431640625,-36.75,-8.850000381469727,-11.40000057220459
1.454,82.36053466796875,-5.861005783081055,-4.711789131164551,65.949462890625,-92.06278228759766,-175.7320098876953,-37.5,-5.700000286102295,-12.0
1.46,75.19709014892578,-4.941632270812988,-5.363011837005615,68.74732208251953,-92.99540710449219,-158.67840576171875,-37.20000076293945,-5.850000381469727,-12.600000381469727
1.47,71.59620666503906,-5.439626216888428,-1.6089035272598267,53.95865249633789,-89.66461944580078,-155.88055419921875,-37.5,-6.450000286102295,-13.500000953674316
1.48,62.785545349121094,-5.286397457122803,-1.2258312702178955,48.09647750854492,-88.99846649169922,-130.30015563964844,-36.0,-5.700000286102295,-12.750000953674316
1.49,51.7530632019043,-5.899312973022461,-0.7661445140838623,45.69831466674805,-93.52832794189453,-92.3292465209961,-36.0,-5.700000286102295,-12.750000953674316
1.509,41.60165023803711,-9.921571731567383,-1.1875240802764893,32.90811538696289,-80.73812866210938,-66.21592712402344,-34.80000305175781,-4.200000286102295,-13.200000762939453
1.513,29.53487205505371,-17.544710159301758,-1.455674648284912,20.517610549926758,-86.86676788330078,-42.633995056152344,-37.5,-4.950000286102295,-14.250000953674316
1.52,12.717999458312988,-26.776752471923828,-0.689530074596405,11.457886695861816,-77.67381286621094,-45.69831466674805,-35.400001525878906,-4.050000190734863,-14.40000057220459
1.53,4.9799394607543945,-29.305028915405273,2.3367409706115723,14.388973236083984,-85.13475799560547,-57.02296829223633,-34.5,-5.400000095367432,-13.950000762939453
1.54,-2.604891538619995,-34.93619155883789,4.903325080871582,1.1990811824798584,-79.0061264038086,-72.21133422851562,-34.5,-5.400000095367432,-13.950000762939453
1.55,-6.742072105407715,-38.613685607910156,3.2178070545196533,-5.062787055969238,-78.73966217041016,-76.60796356201172,-35.55000305175781,-5.400000095367432,-13.950000762939453
1.569,-3.3710360527038574,-38.99675750732422,3.332728862762451,-5.595712184906006,-70.21286010742188,-61.15313720703125,-35.400001525878906,-3.1500000953674316,-16.650001525878906
1.573,4.8267107009887695,-39.18829345703125,0.5746083855628967,-19.98468589782715,-38.63705825805664,-61.81929397583008,-35.25,-5.400000095367432,-17.25
1.58,21.107282638549805,-38.19230651855469,-2.2601263523101807,-20.650842666625977,-22.382848739624023,-46.364471435546875,-35.25,-3.450000047683716,-15.450000762939453
1.59,28.155811309814453,-35.97048568725586,-4.367023944854736,-32.90811538696289,6.794793128967285,-17.186830520629883,-35.25,-3.450000047683716,-15.450000762939453
1.6,41.5633430480957,-35.28095626831055,-6.320692539215088,-43.03369140625,27.578866958618164,17.852985382080078,-36.0,-3.750000238418579,-15.450000762939453
1.61,54.587799072265625,-35.74064254760742,-11.262324333190918,-58.355281829833984,50.89433288574219,44.23276901245117,-35.25,-5.400000095367432,-15.000000953674316
1.629,67.38241577148438,-35.204341888427734,-14.058752059936523,-65.68299865722656,85.93415069580078,76.74119567871094,-36.30000305175781,-3.750000238418579,-13.500000953674316
1.632,77.26567840576172,-33.90189743041992,-17.659631729125977,-68.88054656982422,103.7871322631836,127.36906433105469,-34.650001525878906,-4.050000190734863,-14.850000381469727
1.64,90.2901382446289,-34.55311965942383,-19.07699966430664,-70.87902069091797,97.39203643798828,141.35833740234375,-34.650001525878906,-4.050000190734863,-14.850000381469727
1.65,96.3426742553711,-33.7486686706543,-19.000385284423828,-74.60948944091797,110.71515655517578,173.6002960205078,-35.70000076293945,-6.300000190734863,-12.600000381469727
1.66,103.00813293457031,-35.85556411743164,-18.655620574951172,-83.00305938720703,103.25421142578125,194.117919921875,-36.75,-4.950000286102295,-13.950000762939453
1.67,105.03841400146484,-39.99274444580078,-21.337125778198242,-88.46553802490234,101.12251281738281,213.9693603515625,-37.5,-6.150000095367432,-11.40000057220459
1.689,106.9920883178711,-46.73481750488281,-24.286781311035156,-114.84532928466797,110.44869232177734,224.62786865234375,-35.70000076293945,-6.750000476837158,-12.600000381469727
1.693,109.75020599365234,-54.4345703125,-27.849353790283203,-154.54823303222656,112.4471664428711,242.08116149902344,-35.70000076293945,-6.750000476837158,-12.600000381469727
1.7,118.17779541015625,-59.644351959228516,-30.99054718017578,-180.9280242919922,118.57579803466797,249.80856323242188,-37.650001525878906,-7.500000476837158,-11.100000381469727
1.71,124.76663970947266,-61.138336181640625,-30.14778709411621,-244.4793243408203,115.64471435546875,281.3843688964844,-38.70000076293945,-9.0,-10.350000381469727
1.72,133.23252868652344,-59.644351959228516,-28.500577926635742,-308.2970886230469,112.98008728027344,296.3062744140625,-37.05000305175781,-8.40000057220459,-9.450000762939453
1.73,139.17015075683594,-53.74504089355469,-26.54690933227539,-347.4670715332031,105.25267791748047,310.1623229980469,-38.70000076293945,-9.75,-10.050000190734863
1.749,143.34564208984375,-44.35976791381836,-24.938005447387695,-367.3185119628906,94.19448852539062,338.0076599121094,-38.70000076293945,-9.75,-10.050000190734863
1.753,144.49485778808594,-35.35757064819336,-23.75048065185547,-365.320068359375,93.2618637084961,359.4578857421875,-37.05000305175781,-11.850000381469727,-7.950000286102295
1.76,145.4142303466797,-22.869415283203125,-27.27474594116211,-351.3307800292969,88.46553802490234,364.5206604003906,-38.55000305175781,-11.850000381469727,-7.950000286102295
1.77,143.5754852294922,-15.782577514648438,-30.569168090820312,-303.2342834472656,68.4808578491211,383.3062744140625,-38.70000076293945,-13.65000057220459,-6.300000190734863
1.78,138.8253936767578,-14.824896812438965,-35.204341888427734,-264.4640197753906,60.88667678833008,385.1715087890625,-38.400001525878906,-15.15000057220459,-5.700000286102295
1.79,133.88375854492188,-14.709975242614746,-36.27694320678711,-229.82388305664062,63.28483963012695,390.10107421875,-38.400001525878906,-15.15000057220459,-5.700000286102295
1.809,129.55503845214844,-18.23423957824707,-34.66804122924805,-175.0658416748047,29.31087303161621,365.5865173339844,-39.150001525878906,-17.55000114440918,-4.950000286102295
1.812,118.75240325927734,-21.490354537963867,-32.21637725830078,-175.9984588623047,16.65390396118164,375.44561767578125,-38.400001525878906,-18.30000114440918,-5.25
1.82,114.65353393554688,-20.341136932373047,-31.335311889648438,-159.21133422851562,13.989279747009277,339.8728942871094,-38.400001525878906,-18.30000114440918,-5.25
1.83,108.98406219482422,-21.720197677612305,-28.960264205932617,-159.21133422851562,17.453292846679688,323.8851318359375,-39.75,-20.850000381469727,-5.100000381469727
1.84,99.40725708007812,-22.448034286499023,-28.002582550048828,-142.95712280273438,16.25421142578125,315.7580261230469,-39.75,-20.850000381469727,-5.100000381469727
1.85,91.32443237304688,-19.345149993896484,-26.700138092041016,-140.95864868164062,25.447166442871094,285.1148376464844,-39.0,-24.30000114440918,-5.400000095367432
1.869,85.46342468261719,-19.766529083251953,-25.972299575805664,-148.95252990722656,36.5053596496582,259.6676940917969,-39.0,-23.850000381469727,-4.650000095367432
1.872,76.65276336669922,-20.341136932373047,-21.0689754486084,-153.0826873779297,42.23430252075195,232.88819885253906,-38.55000305175781,-25.05000114440918,-4.650000095367432
1.88,74.08617401123047,-19.881450653076172,-18.77054214477539,-155.21438598632812,29.044410705566406,208.5068817138672,-38.55000305175781,-25.05000114440918,-4.650000095367432
1.89,68.7231674194336,-18.617311477661133,-17.851167678833008,-162.27565002441406,22.782541275024414,177.19754028320312,-38.55000305175781,-25.05000114440918,-4.650000095367432
1.9,61.06172180175781,-10.41956615447998,-16.625335693359375,-174.39968872070312,33.57427215576172,143.09034729003906,-36.0,-27.750001907348633,-4.650000095367432
1.91,50.335697174072266,-5.056553840637207,-15.897499084472656,-153.0826873779297,26.912710189819336,131.63246154785156,-38.25,-26.250001907348633,-4.650000095367432
1.925,37.924156188964844,1.6855180263519287,-14.748282432556152,-150.01837158203125,34.24042892456055,104.32006072998047,-38.55000305175781,-26.55000114440918,-4.350000381469727
1.93,16.433799743652344,9.921571731567383,-14.250288963317871,-159.74424743652344,52.093414306640625,97.65850067138672,-38.55000305175781,-26.55000114440918,-4.350000381469727
1.94,9.768342971801758,12.717999458312988,-13.254301071166992,-168.9372100830078,63.018375396728516,93.66156005859375,-38.55000305175781,-26.55000114440918,-4.350000381469727
1.95,-0.38307225704193115,16.47210693359375,-9.883264541625977,-159.07809448242188,62.35221862792969,99.52373504638672,-37.95000076293945,-28.350000381469727,-4.950000286102295
1.96,-5.975927352905273,19.536685943603516,-4.865017890930176,-149.08575439453125,67.28177642822266,117.11026000976562,-37.650001525878906,-29.100000381469727,-4.200000286102295
1.97,-7.6997528076171875,24.210166931152344,-2.719813108444214,-155.34762573242188,74.47626495361328,90.06431579589844,-37.05000305175781,-29.700000762939453,-4.650000095367432
1.988,-5.822698593139648,29.917943954467773,1.1492167711257935,-81.53751373291016,63.018375396728516,44.49923324584961,-37.5,-30.150001525878906,-3.6000001430511475
1.992,0.19153612852096558,33.097442626953125,-2.183511972427368,-52.3598747253418,61.552833557128906,35.03981399536133,-37.95000076293945,-28.80000114440918,-3.0
2.2,128.1759796142578,-17.161638259887695,-28.8453426361084,136.0290985107422,-86.73353576660156,-369.84991455078125,-41.55000305175781,-16.200000762939453,-4.350000381469727
2.219,131.93008422851562,-16.931795120239258,-24.59324073791504,126.96936798095703,-77.00765228271484,-365.0535888671875,-40.05000305175781,-13.050000190734863,-6.600000381469727
2.223,133.69223022460938,-15.591041564941406,-22.562957763671875,163.0750274658203,-92.46247863769531,-338.140869140625,-39.900001525878906,-12.90000057220459,-5.700000286102295
2.23,130.58934020996094,-20.149600982666016,-24.554933547973633,179.32923889160156,-87.0,-337.0750427246094,-39.900001525878906,-12.90000057220459,-5.700000286102295
2.24,128.94212341308594,-23.367408752441406,-25.474306106567383,184.1255645751953,-99.92343139648438,-354.1286315917969,-41.25,-10.050000190734863,-7.650000095367432
2.25,124.07711029052734,-23.865402221679688,-23.02264404296875,178.26339721679688,-99.12403869628906,-372.2480773925781,-40.95000076293945,-9.450000762939453,-7.500000476837158
2.26,120.20807647705078,-24.401702880859375,-20.379444122314453,169.4701385498047,-102.32159423828125,-373.58038330078125,-40.80000305175781,-7.200000286102295,-8.40000057220459
2.278,115.22814178466797,-21.643583297729492,-20.149600982666016,158.81163024902344,-105.65237426757812,-358.6584777832031,-40.05000305175781,-6.150000095367432,-8.700000762939453
2.282,110.0566635131836,-14.09705924987793,-17.42978858947754,143.3568115234375,-106.71822357177734,-340.40582275390625,-40.05000305175781,-6.150000095367432,-8.700000762939453
2.29,110.17158508300781,-8.389283180236816,-14.211980819702148,122.43950653076172,-95.66002655029297,-327.4823913574219,-40.20000076293945,-3.6000001430511475,-9.75
2.3,110.59296417236328,-6.435614109039307,-12.411541938781738,105.78560638427734,-110.04900360107422,-306.1653747558594,-39.30000305175781,-2.700000047683716,-10.950000762939453
2.31,103.42951202392578,-6.244078159332275,-9.078812599182129,99.92343139648438,-127.63552856445312,-279.5191345214844,-37.95000076293945,-1.350000023841858,-10.050000190734863
2.32,92.20549774169922,-5.631162166595459,-10.15141487121582,100.45635223388672,-128.3016815185547,-284.1822204589844,-39.0,-0.75,-10.950000762939453
2.339,78.22335815429688,-3.2561142444610596,-10.342951774597168,102.98774719238281,-121.50688934326172,-270.7258605957031,-39.0,-0.75,-10.950000762939453
2.343,62.977081298828125,-4.903325080871582,-4.098873138427734,99.52373504638672,-93.79479217529297,-247.41041564941406,-36.75,0.30000001192092896,-13.200000762939453
2.35,48.99494171142578,-11.070788383483887,3.064578056335449,90.06431579589844,-78.47319793701172,-229.69065856933594,-37.5,2.25,-12.450000762939453
2.36,43.70854568481445,-15.476119995117188,7.508216381072998,81.40428924560547,-80.73812866210938,-201.4456329345703,-37.80000305175781,2.700000047683716,-12.0
2.37,30.645782470703125,-22.90772247314453,15.169661521911621,50.62786865234375,-100.72281646728516,-188.65542602539062,-37.5,3.0,-13.200000762939453
2.38,17.276559829711914,-29.266721725463867,16.89348793029785,23.98162269592285,-109.38284301757812,-166.67227172851562,-37.5,3.0,-13.200000762939453
2.399,-1.4939818382263184,-36.04710006713867,16.1656494140625,6.794793128967285,-96.72587585449219,-181.8606414794922,-37.650001525878906,4.350000381469727,-14.40000057220459
2.403,-19.230228424072266,-40.52904510498047,12.947842597961426,3.86370587348938,-85.53445434570312,-152.81622314453125,-37.05000305175781,4.950000286102295,-13.200000762939453
2.41,-26.66183090209961,-44.97268295288086,13.48414421081543,4.529861927032471,-70.61255645751953,-139.09341430664062,-36.0,5.400000095367432,-15.000000953674316
2.42,-24.095245361328125,-45.12591552734375,14.480132102966309,-12.790199279785156,-47.56355285644531,-128.16845703125,-35.400001525878906,7.050000190734863,-15.600000381469727
2.43,-13.48414421081543,-46.658203125,13.062764167785645,-30.90964698791504,-27.578866958618164,-123.37212371826172,-35.400001525878906,7.050000190734863,-15.600000381469727
2.44,-16.740259170532227,-44.78114700317383,2.451662540435791,-43.16691970825195,5.329249382019043,-82.86982727050781,-34.95000076293945,7.050000190734863,-14.100000381469727
2.459,8.925583839416504,-41.946414947509766,-4.098873138427734,-47.830013275146484,33.84073257446289,-53.82542037963867,-35.70000076293945,7.500000476837158,-15.90000057220459
2.463,28.577192306518555,-38.03907775878906,-13.10107135772705,-55.69065856933594,85.4012222290039,10.525267601013184,-34.80000305175781,7.650000095367432,-15.000000953674316
2.47,55.85193634033203,-30.79901123046875,-18.732234954833984,-60.48698043823242,100.9892807006836,47.9632453918457,-34.5,8.40000057220459,-14.700000762939453
2.48,75.08216857910156,-27.88766098022461,-20.494365692138672,-74.20980072021484,117.64318084716797,139.7595672607422,-34.5,8.40000057220459,-14.700000762939453
2.49,91.66919708251953,-28.692113876342773,-19.19192123413086,-83.5359878540039,126.16998291015625,161.34303283691406,-36.45000076293945,7.800000190734863,-12.600000381469727
2.5,101.97383880615234,-21.643583297729492,-16.203956604003906,-97.65850067138672,112.58039855957031,187.1898956298828,-36.45000076293945,6.300000190734863,-12.600000381469727
2.519,98.6028060913086,-31.794998168945312,-22.984336853027344,-102.05513000488281,112.04747009277344,237.55130004882812,-36.75,7.650000095367432,-12.450000762939453
2.523,100.82462310791016,-41.5633430480957,-30.0711727142334,-140.29249572753906,136.82847595214844,280.98468017578125,-36.30000305175781,5.700000286102295,-11.700000762939453
2.53,112.20186614990234,-49.49293899536133,-33.63374710083008,-168.0045928955078,141.0918731689453,295.107177734375,-36.30000305175781,5.700000286102295,-11.700000762939453
2.54,120.2846908569336,-52.82566452026367,-31.871612548828125,-220.23123168945312,137.49464416503906,307.89739990234375,-39.30000305175781,4.5,-10.200000762939453
2.55,128.6356658935547,-54.05149841308594,-31.41192626953125,-255.80397033691406,127.23583221435547,333.34454345703125,-38.25,2.700000047683716,-10.200000762939453
2.56,137.5995635986328,-49.56955337524414,-32.599449157714844,-318.15618896484375,138.8269500732422,328.814697265625,-39.900001525878906,3.6000001430511475,-7.050000190734863
2.579,148.4788055419922,-43.3637809753418,-32.75267791748047,-359.7243347167969,134.96324157714844,356.26031494140625,-40.80000305175781,2.700000047683716,-6.150000095367432
2.583,158.5919189453125,-35.16603469848633,-30.79901123046875,-389.16845703125,114.97856140136719,405.2894287109375,-40.80000305175781,2.700000047683716,-6.150000095367432
2.59,165.52552795410156,-19.345149993896484,-30.91393280029297,-397.1623229980469,106.71822357177734,421.8100891113281,-40.95000076293945,-0.45000001788139343,-6.300000190734863
2.6,166.63644409179688,-14.020444869995117,-31.335311889648438,-399.9601745605469,108.050537109375,447.25726318359375,-42.0,-2.25,-4.650000095367432
2.61,162.11618041992188,-10.496180534362793,-32.10145568847656,-385.7044372558594,99.12403869628906,460.84686279296875,-42.150001525878906,-3.6000001430511475,-4.5
2.62,154.68458557128906,-5.1331682205200195,-29.305028915405273,-356.26031494140625,89.39816284179688,471.5053405761719,-43.95000076293945,-5.100000381469727,-3.450000047683716
2.639,148.6320343017578,-3.294421434402466,-28.883649826049805,-340.5390319824219,86.73353576660156,479.0995178222656,-43.95000076293945,-5.100000381469727,-3.450000047683716
2.642,142.3496551513672,1.3024457693099976,-27.27474594116211,-297.5053405761719,75.14241790771484,473.3705749511719,-42.900001525878906,-9.450000762939453,-0.45000001788139343
2.65,135.3394317626953,1.7621324062347412,-28.347347259521484,-274.5895690917969,81.93721008300781,472.03826904296875,-43.05000305175781,-10.800000190734863,-1.8000000715255737
2.66,131.01071166992188,2.0685901641845703,-29.496564865112305,-233.42112731933594,79.9387435913086,453.11944580078125,-43.20000076293945,-12.15000057220459,-0.15000000596046448
2.67,123.8472671508789,3.4093432426452637,-31.22039031982422,-205.7090301513672,81.8039779663086,426.3399658203125,-43.05000305175781,-14.250000953674316,1.0500000715255737
2.68,115.53459930419922,2.183511972427368,-30.79901123046875,-184.25880432128906,87.79938507080078,400.8927917480469,-43.05000305175781,-14.250000953674316,1.0500000715255737
2.7,106.53240203857422,-0.9959878921508789,-27.619510650634766,-163.34149169921875,65.28330993652344,395.9632263183594,-44.25,-17.400001525878906,0.0
2.704,97.6068115234375,-4.137180328369141,-20.95405387878418,-171.20213317871094,57.955589294433594,338.54058837890625,-43.20000076293945,-20.25,0.45000001788139343
2.71,82.70530700683594,-5.018246650695801,-17.62132453918457,-170.93568420410156,55.02450180053711,322.9525146484375,-43.20000076293945,-20.25,0.45000001788139343
2.72,77.53382873535156,-7.661445617675781,-17.92778205871582,-182.39356994628906,38.50382614135742,280.98468017578125,-43.650001525878906,-20.25,2.25
2.73,65.16059112548828,-7.2783732414245605,-15.514427185058594,-205.97549438476562,29.977027893066406,238.084228515625,-43.650001525878906,-20.25,2.25
2.74,54.01319122314453,-4.8267107009887695,-12.832921028137207,-237.01837158203125,30.110260009765625,188.78866577148438,-40.95000076293945,-23.700000762939453,0.45000001788139343
2.759,41.25688552856445,4.175487995147705,-8.35097599029541,-252.07350158691406,24.781009674072266,197.9816131591797,-41.25,-22.350000381469727,1.350000023841858
2.763,26.891674041748047,16.203956604003906,-7.086836814880371,-243.28024291992188,8.260336875915527,104.05359649658203,-41.70000076293945,-26.100000381469727,0.45000001788139343
2.77,7.661445617675781,37.42616271972656,-3.2561142444610596,-235.55282592773438,13.189892768859863,95.12710571289062,-41.70000076293945,-26.100000381469727,0.45000001788139343
2.78,-1.37906014919281,46.198516845703125,-3.6391866207122803,-205.7090301513672,3.4640121459960938,77.14088439941406,-41.70000076293945,-26.100000381469727,0.45000001788139343
2.79,-7.814674377441406,57.76729965209961,-1.6855180263519287,-138.96017456054688,0.6661561727523804,75.5421142578125,-42.150001525878906,-24.900001525878906,-0.15000000596046448
2.8,-9.232041358947754,64.85413360595703,-4.558559894561768,-86.86676788330078,12.390504837036133,71.14547729492188,-41.55000305175781,-27.000001907348633,-0.30000001192092896
2.819,-8.96389102935791,60.678646087646484,-4.788403511047363,-14.788667678833008,14.522205352783203,54.4915771484375,-42.150001525878906,-24.900001525878906,0.15000000596046448
2.823,-0.2298433631658554,37.08139419555664,-2.7964274883270264,65.54976654052734,5.8621745109558105,11.724349021911621,-42.150001525878906,-24.900001525878906,0.15000000596046448
2.83,3.8307228088378906,31.60346221923828,-2.2601263523101807,108.050537109375,-7.9938740730285645,-9.192955017089844,-42.150001525878906,-24.900001525878906,0.15000000596046448
2.84,8.159439086914062,24.05693817138672,-0.8427590131759644,143.09034729003906,-27.578866958618164,-32.24195861816406,-40.95000076293945,-26.850000381469727,-0.9000000357627869
2.85,12.90953540802002,13.79060173034668,-1.1492167711257935,170.0030517578125,-39.70290756225586,-67.01531219482422,-42.150001525878906,-26.850000381469727,-0.45000001788139343
2.86,22.17988395690918,5.324704647064209,3.44765043258667,214.7687530517578,-69.94640350341797,-92.3292465209961,-41.55000305175781,-27.750001907348633,-0.30000001192092896
2.879,34.476505279541016,-5.056553840637207,3.9456443786621094,252.20672607421875,-90.19754791259766,-119.37519073486328,-41.70000076293945,-27.600000381469727,-0.45000001788139343
2.882,61.90447998046875,-32.82929229736328,-3.754108190536499,294.174560546875,-95.26033782958984,-170.4027557373047,-42.150001525878906,-26.850000381469727,-1.2000000476837158
2.89,67.80379486083984,-38.34553527832031,-6.742072105407715,314.29248046875,-98.85757446289062,-199.5803985595703,-42.150001525878906,-26.850000381469727,-1.2000000476837158
2.9,84.69728088378906,-58.03544998168945,-10.955866813659668,328.2817687988281,-100.58958435058594,-252.87289428710938,-41.70000076293945,-24.450000762939453,-1.2000000476837158
2.91,93.69947814941406,-66.61626434326172,-11.683704376220703,309.62939453125,-112.58039855957031,-289.37823486328125,-42.900001525878906,-25.650001525878906,-0.9000000357627869
2.92,101.32261657714844,-75.46524047851562,-11.990161895751953,272.7243347167969,-128.03521728515625,-315.8912658691406,-42.30000305175781,-24.30000114440918,-1.350000023841858
2.937,110.78450012207031,-79.37257385253906,-12.564770698547363,183.7258758544922,-151.35069274902344,-341.2052001953125,-43.650001525878906,-22.5,-2.25
2.941,120.55284118652344,-78.83627319335938,-19.460071563720703,161.47625732421875,-144.82235717773438,-342.93719482421875,-42.900001525878906,-21.0,-3.750000238418579
2.95,120.16976928710938,-76.84429931640625,-22.524648666381836,101.78866577148438,-129.76722717285156,-354.7947998046875,-42.900001525878906,-21.0,-3.750000238418579
2.96,120.43791961669922,-74.77571105957031,-29.64979362487793,69.4134750366211,-112.58039855957031,-373.713623046875,-42.75,-17.400001525878906,-3.3000001907348633
2.97,123.46419525146484,-69.79576873779297,-32.599449157714844,50.4946403503418,-100.9892807006836,-386.23736572265625,-42.75,-17.400001525878906,-3.3000001907348633
2.98,128.7122802734375,-57.805606842041016,-33.59543991088867,37.4379768371582,-90.59724426269531,-409.0198974609375,-42.75,-17.400001525878906,-3.3000001907348633
2.999,131.2405548095703,-40.60565948486328,-32.10145568847656,31.309341430664062,-79.53904724121094,-431.9356689453125,-43.20000076293945,-12.450000762939453,-6.0
3.003,128.36752319335938,-10.266336441040039,-37.73262023925781,60.75344467163086,-81.8039779663086,-421.410400390625,-43.05000305175781,-12.750000953674316,-4.650000095367432
3.01,126.49046325683594,-3.8307228088378906,-39.647979736328125,85.80091857910156,-70.47932434082031,-414.74884033203125,-42.45000076293945,-11.40000057220459,-6.0
3.02,125.22632598876953,1.1875240802764893,-40.758888244628906,114.71209716796875,-52.626338958740234,-415.1485290527344,-42.45000076293945,-11.40000057220459,-6.0
3.03,122.92789459228516,4.481945514678955,-38.99675750732422,156.94639587402344,-49.42878723144531,-411.4180603027344,-41.25,-6.900000095367432,-5.100000381469727
3.04,123.61742401123047,5.937620162963867,-35.93217849731445,201.0459442138672,-47.9632453918457,-403.8238830566406,-42.150001525878906,-6.750000476837158,-6.300000190734863
3.052,123.27265930175781,7.393294811248779,-32.75267791748047,241.41500854492188,-40.23583221435547,-399.0275573730469,-42.150001525878906,-5.100000381469727,-7.500000476837158
3.06,125.76262664794922,10.074800491333008,-29.879636764526367,257.4027404785156,-33.57427215576172,-384.9050598144531,-41.25,-4.950000286102295,-8.40000057220459
3.07,125.91585540771484,12.60307788848877,-23.13756561279297,282.050537109375,-44.23276901245117,-356.1271057128906,-41.25,-4.950000286102295,-8.40000057220459
3.08,125.6860122680664,12.29662036895752,-18.617311477661133,297.6385803222656,-53.026031494140625,-346.134765625,-41.25,-0.30000001192092896,-7.950000286102295
3.09,124.4601821899414,8.734047889709473,-10.611102104187012,305.09954833984375,-65.54976654052734,-323.08575439453125,-39.150001525878906,-0.15000000596046448,-9.75
3.109,119.7483901977539,2.2218191623687744,-3.754108190536499,294.4410400390625,-96.32618713378906,-317.3568115234375,-39.150001525878906,0.9000000357627869,-10.350000381469727
3.113,110.47804260253906,-6.588842868804932,-6.01423454284668,302.8345947265625,-121.50688934326172,-298.4379577636719,-38.70000076293945,2.1000001430511475,-10.800000190734863
3.12,95.04022979736328,-19.613300323486328,-10.994174003601074,280.5849914550781,-124.43797302246094,-301.3690490722656,-38.70000076293945,2.1000001430511475,-10.800000190734863
3.13,83.31822204589844,-23.175872802734375,-14.058752059936523,244.21286010742188,-92.72894287109375,-325.084228515625,-37.80000305175781,3.750000238418579,-14.250000953674316
3.14,68.1868667602539,-24.59324073791504,-15.629348754882812,202.11178588867188,-81.27105712890625,-274.3231201171875,-36.900001525878906,3.1500000953674316,-15.90000057220459
3.15,57.03946304321289,-22.524648666381836,-5.592854976654053,148.95252990722656,-68.88054656982422,-237.6845245361328,-37.95000076293945,4.050000190734863,-15.15000057220459
3.168,47.232810974121094,-20.41775131225586,5.20978307723999,102.45481872558594,-76.34149932861328,-222.4961700439453,-37.20000076293945,4.350000381469727,-15.90000057220459
3.172,34.70634841918945,-24.89969825744629,13.522451400756836,64.3506851196289,-110.18223571777344,-209.83920288085938,-37.20000076293945,4.350000381469727,-15.90000057220459
3.18,11.683704376220703,-27.46628189086914,15.131354331970215,50.09494400024414,-104.32006072998047,-201.71209716796875,-35.400001525878906,5.850000381469727,-15.600000381469727
3.19,-1.6855180263519287,-29.879636764526367,13.407529830932617,41.434913635253906,-92.06278228759766,-193.7182159423828,-35.400001525878906,6.300000190734863,-16.650001525878906
3.2,-17.1999454498291,-33.82528305053711,11.262324333190918,32.37519073486328,-80.07197570800781,-190.9203643798828,-34.20000076293945,6.300000190734863,-18.900001525878906
3.21,-24.286781311035156,-37.84754180908203,13.254301071166992,34.10719680786133,-68.61408996582031,-170.93568420410156,-34.80000305175781,6.450000286102295,-18.0
3.229,-25.052927017211914,-38.49876403808594,13.21599292755127,11.857580184936523,-53.29249572753906,-147.75344848632812,-34.80000305175781,6.450000286102295,-18.0
3.233,-20.915746688842773,-38.537071228027344,16.05072784423828,-7.460949420928955,-14.655436515808105,-103.65390014648438,-33.0,6.900000095367432,-19.05000114440918
3.24,-13.637372970581055,-35.85556411743164,16.1656494140625,-15.055130004882812,-1.0658499002456665,-87.0,-35.25,8.40000057220459,-17.25
3.25,-3.294421434402466,-35.395877838134766,11.30063247680664,-14.788667678833008,21.983154296875,-49.16232681274414,-31.80000114440918,8.40000057220459,-19.5
3.26,6.550535678863525,-34.09343338012695,5.2480902671813965,-19.718223571777344,52.226646423339844,-14.522205352783203,-34.20000076293945,9.75,-18.450000762939453
3.27,20.724210739135742,-32.484527587890625,-5.822698593139648,-29.977027893066406,90.4640121459961,17.053598403930664,-34.20000076293945,9.75,-18.450000762939453
3.289,38.613685607910156,-31.41192626953125,-12.449849128723145,-30.776416778564453,118.70903015136719,69.67993927001953,-32.55000305175781,9.600000381469727,-18.0
3.293,61.78955841064453,-30.837318420410156,-13.599065780639648,-63.018375396728516,154.14854431152344,122.57273864746094,-33.75,8.100000381469727,-16.80000114440918
3.3,100.55647277832031,-28.577192306518555,-14.441824913024902,-59.287899017333984,177.46400451660156,164.4073486328125,-33.0,9.600000381469727,-16.5
3.31,120.78268432617188,-33.90189743041992,-7.316680431365967,-81.67074584960938,143.88973999023438,207.4410400390625,-33.75,8.40000057220459,-16.80000114440918
3.32,91.82242584228516,-25.052927017211914,-12.986149787902832,-82.6033706665039,141.22511291503906,246.8774871826172,-33.75,8.40000057220459,-16.80000114440918
3.33,111.2824935913086,-43.3637809753418,-23.597251892089844,-109.78253936767578,150.01837158203125,285.1148376464844,-36.0,7.200000286102295,-16.05000114440918
3.35,120.322998046875,-51.52322006225586,-32.10145568847656,-164.27410888671875,167.6049041748047,324.151611328125,-36.0,6.450000286102295,-13.950000762939453
3.353,134.07530212402344,-55.23902130126953,-33.17405700683594,-235.28636169433594,161.34303283691406,369.3169860839844,-36.0,6.450000286102295,-12.450000762939453
3.36,152.30953979492188,-59.60604476928711,-35.089420318603516,-262.1990661621094,154.54823303222656,383.3062744140625,-36.900001525878906,4.050000190734863,-13.350000381469727
3.37,159.58790588378906,-59.29958724975586,-35.5874137878418,-333.0780944824219,151.88360595703125,399.6937255859375,-36.900001525878906,4.050000190734863,-13.350000381469727
3.38,170.50546264648438,-54.24303436279297,-35.28095626831055,-384.7718200683594,143.4900360107422,428.2052001953125,-37.5,2.700000047683716,-9.450000762939453
3.39,179.35443115234375,-44.47468948364258,-31.871612548828125,-430.3368835449219,122.17304229736328,475.76873779296875,-39.150001525878906,3.1500000953674316,-9.75
3.409,182.91700744628906,-30.109479904174805,-26.96828842163086,-443.3935546875,115.37825012207031,512.673828125,-40.20000076293945,1.6500000953674316,-8.550000190734863
3.413,181.0399627685547,-16.242263793945312,-23.099258422851562,-432.6018371582031,100.9892807006836,554.3751831054688,-41.25,-1.5,-7.650000095367432
3.42,174.29788208007812,-5.592854976654053,-23.02264404296875,-430.20367431640625,99.3905029296875,567.83154296875,-41.25,-1.5,-7.650000095367432
3.43,167.5175018310547,-2.75812029838562,-23.175872802734375,-392.6324462890625,83.66921997070312,593.545166015625,-42.0,-2.25,-5.400000095367432
3.44,159.58790588378906,-1.5705963373184204,-23.865402221679688,-355.32769775390625,88.19908142089844,596.0765380859375,-41.25,-4.950000286102295,-3.6000001430511475
3.45,151.2369384765625,2.5282769203186035,-23.02264404296875,-320.1546630859375,94.19448852539062,589.5482177734375,-42.45000076293945,-6.300000190734863,-5.25
3.47,144.11178588867188,1.455674648284912,-26.470293045043945,-264.3307800292969,85.53445434570312,577.690673828125,-42.75,-8.40000057220459,-3.3000001907348633
3.473,136.94833374023438,1.2258312702178955,-23.060951232910156,-236.21897888183594,87.9326171875,578.4900512695312,-42.75,-8.40000057220459,-3.3000001907348633
3.48,129.0570526123047,-7.4316020011901855,-19.268535614013672,-244.4793243408203,89.26493072509766,554.5084228515625,-43.650001525878906,-14.100000381469727,-3.0
3.49,123.8089599609375,-12.7946138381958,-19.115306854248047,-232.0888214111328,73.27718353271484,532.5252685546875,-43.05000305175781,-14.550000190734863,-1.8000000715255737
3.5,115.91767120361328,-13.330915451049805,-16.510414123535156,-239.81622314453125,68.74732208251953,489.09185791015625,-43.05000305175781,-18.150001525878906,-1.350000023841858
3.51,105.53640747070312,-13.905523300170898,-16.35718536376953,-244.4793243408203,66.882080078125,451.6539001464844,-43.20000076293945,-19.5,-2.25
3.529,93.73778533935547,-12.717999458312988,-16.970102310180664,-257.13629150390625,61.15313720703125,414.6156005859375,-43.20000076293945,-19.5,-2.25
3.533,84.08436584472656,-12.90953540802002,-17.697938919067383,-267.5283203125,38.37059783935547,340.9387512207031,-43.20000076293945,-22.5,-0.9000000357627869
3.54,65.73519897460938,-12.105083465576172,-14.863204002380371,-280.7182312011719,14.388973236083984,314.1592712402344,-40.20000076293945,-22.200000762939453,-2.25
3.55,54.4345703125,-6.971915245056152,-13.369222640991211,-310.56201171875,5.995405673980713,272.9908142089844,-41.70000076293945,-24.150001525878906,-1.6500000953674316
3.56,35.510799407958984,7.891288757324219,-5.746084213256836,-333.8774719238281,-23.848390579223633,228.89126586914062,-41.55000305175781,-25.500001907348633,-3.6000001430511475
3.57,14.441824913024902,22.60126495361328,-1.647210717201233,-336.5421142578125,-25.980091094970703,194.78407287597656,-41.55000305175781,-25.500001907348633,-3.6000001430511475
3.589,-2.4133553504943848,39.57136535644531,1.5705963373184204,-316.6906433105469,-25.7136287689209,203.57733154296875,-42.150001525878906,-26.400001525878906,-2.700000047683716
3.593,-15.207969665527344,56.92454147338867,6.627150535583496,-234.35374450683594,-17.32006072998047,178.26339721679688,-42.0,-26.55000114440918,-3.0
3.6,-15.820884704589844,62.785545349121094,7.661445617675781,-190.78712463378906,-18.119447708129883,145.88819885253906,-42.0,-26.55000114440918,-4.650000095367432
3.61,-11.836933135986328,60.257266998291016,7.048529624938965,-128.83460998535156,-24.64777946472168,127.23583221435547,-40.05000305175781,-27.450000762939453,-3.6000001430511475
3.62,-3.6391866207122803,51.676448822021484,5.592854976654053,-87.26646423339844,-24.781009674072266,99.52373504638672,-40.05000305175781,-27.450000762939453,-3.6000001430511475
3.63,-2.911349296569824,42.40610122680664,-2.183511972427368,-45.298622131347656,-33.30780792236328,56.49004364013672,-42.150001525878906,-27.900001525878906,-4.5
3.649,1.4939818382263184,32.02484130859375,-3.4093432426452637,-7.327718257904053,-39.70290756225586,22.116384506225586,-41.400001525878906,-28.80000114440918,-5.25
3.653,2.3367409706115723,29.994558334350586,-3.3710360527038574,48.49617004394531,-52.226646423339844,1.1990811824798584,-42.150001525878906,-27.600000381469727,-7.050000190734863
3.66,5.363011837005615,33.212364196777344,0.15322890877723694,83.00305938720703,-47.830013275146484,-41.967838287353516,-42.150001525878906,-27.600000381469727,-7.050000190734863
3.67,11.683704376220703,33.71036148071289,-0.2298433631658554,150.41806030273438,-57.289432525634766,-66.882080078125,-42.150001525878906,-27.600000381469727,-7.050000190734863
3.68,24.24847412109375,24.095245361328125,-0.4596867263317108,221.16384887695312,-58.08882141113281,-95.26033782958984,-40.80000305175781,-30.150001525878906,-6.900000095367432
3.69,35.89387130737305,1.3024457693099976,-3.294421434402466,272.8575744628906,-47.696781158447266,-141.75804138183594,-40.650001525878906,-27.600000381469727,-6.750000476837158
3.71,45.24083709716797,-24.66985511779785,-8.925583839416504,306.96478271484375,-51.693721771240234,-181.06124877929688,-40.650001525878906,-27.900001525878906,-7.050000190734863
3.714,68.30178833007812,-58.61005783081055,-18.808849334716797,312.9601745605469,-47.297088623046875,-241.0153045654297,-42.75,-27.450000762939453,-8.700000762939453
3.72,78.49150848388672,-63.20692443847656,-18.272546768188477,308.4303283691406,-50.09494400024414,-266.1960144042969,-42.75,-27.450000762939453,-8.700000762939453
3.73,88.14492797851562,-67.03765106201172,-20.570980072021484,297.5053405761719,-48.62940216064453,-302.8345947265625,-41.400001525878906,-26.100000381469727,-7.800000190734863
3.74,105.11502838134766,-70.79175567626953,-28.462270736694336,295.9065856933594,-60.22052001953125,-337.208251953125,-41.55000305175781,-24.750001907348633,-6.900000095367432
3.75,119.40362548828125,-73.32003021240234,-32.82929229736328,299.5038146972656,-56.49004364013672,-371.71514892578125,-42.30000305175781,-25.05000114440918,-7.650000095367432
3.769,132.58131408691406,-76.46122741699219,-36.123714447021484,305.89892578125,-45.69831466674805,-414.2159118652344,-42.150001525878906,-24.450000762939453,-8.25
3.773,143.3839569091797,-78.22335815429688,-32.905906677246094,301.6355285644531,-55.82388687133789,-446.32464599609375,-40.95000076293945,-21.0,-7.500000476837158
3.78,157.4427032470703,-75.00555419921875,-26.355371475219727,291.7763977050781,-70.87902069091797,-465.1102600097656,-40.95000076293945,-21.0,-7.500000476837158
3.79,163.03555297851562,-69.83407592773438,-25.81907081604004,260.6003112792969,-77.94027709960938,-481.3644714355469,-41.70000076293945,-19.80000114440918,-7.800000190734863
3.8,159.626220703125,-60.90849304199219,-27.389667510986328,257.4027404785156,-89.5313949584961,-470.972412109375,-42.150001525878906,-16.80000114440918,-8.25
3.81,150.58570861816406,-51.7530632019043,-31.52684783935547,269.6600341796875,-101.38896942138672,-472.7044372558594,-42.900001525878906,-16.80000114440918,-8.25
3.829,141.35366821289062,-40.375816345214844,-33.7486686706543,284.3154602050781,-95.26033782958984,-464.8437805175781,-42.0,-12.750000953674316,-10.65000057220459
3.833,127.4864501953125,-28.38565444946289,-31.335311889648438,311.8943176269531,-93.52832794189453,-483.8958435058594,-40.650001525878906,-11.700000762939453,-9.300000190734863
3.84,126.56707763671875,-25.972299575805664,-28.500577926635742,323.4854431152344,-89.39816284179688,-475.9019775390625,-40.650001525878906,-11.700000762939453,-9.300000190734863
3.85,125.26463317871094,-20.187908172607422,-24.89969825744629,340.6722717285156,-96.99234008789062,-466.8422546386719,-40.650001525878906,-10.5,-11.100000381469727
3.86,123.96218872070312,-13.905523300170898,-17.238252639770508,342.5375061035156,-94.32771301269531,-445.39202880859375,-40.95000076293945,-8.25,-10.050000190734863
3.87,123.2343521118164,-12.641385078430176,-10.036493301391602,343.86981201171875,-95.26033782958984,-447.6569519042969,-40.95000076293945,-8.25,-10.050000190734863
3.889,120.39961242675781,-14.97812557220459,-3.7924153804779053,334.410400390625,-108.3169937133789,-430.86981201171875,-40.05000305175781,-4.950000286102295,-12.450000762939453
3.892,110.97603607177734,-24.66985511779785,4.520252704620361,292.309326171875,-99.52373504638672,-417.54669189453125,-39.900001525878906,-4.050000190734863,-13.65000057220459
3.9,108.2562255859375,-25.129541397094727,6.205770969390869,268.1944885253906,-103.25421142578125,-405.02294921875,-37.5,-1.8000000715255737,-13.500000953674316
3.91,103.73596954345703,-29.4582576751709,7.967903137207031,235.4196014404297,-98.19142150878906,-397.2955627441406,-37.5,-1.8000000715255737,-13.500000953674316
3.92,96.22775268554688,-34.43819808959961,7.623138427734375,201.17916870117188,-96.8591079711914,-352.6630859375,-36.75,-1.8000000715255737,-13.500000953674316
3.93,88.75784301757812,-38.2689208984375,9.84495735168457,148.15313720703125,-83.13629150390625,-343.0704345703125,-36.75,0.30000001192092896,-17.55000114440918
3.947,79.52580261230469,-41.71657180786133,11.530475616455078,73.9433364868164,-74.8759536743164,-321.353759765625,-35.25,1.5,-17.55000114440918
3.951,56.34992980957031,-36.50678634643555,10.5344877243042,70.21286010742188,-78.20673370361328,-308.4303283691406,-34.95000076293945,2.8500001430511475,-17.100000381469727
3.96,52.289363861083984,-32.71437072753906,9.27034854888916,38.50382614135742,-62.618682861328125,-288.9785461425781,-34.95000076293945,2.8500001430511475,-17.100000381469727
3.97,38.95845031738281,-28.92195701599121,11.492168426513672,6.9280242919921875,-50.62786865234375,-260.86676025390625,-34.650001525878906,4.050000190734863,-18.450000762939453
3.98,21.796812057495117,-22.448034286499023,12.105083465576172,-6.128636837005615,-42.90045928955078,-227.82540893554688,-32.70000076293945,4.050000190734863,-18.150001525878906
3.99,2.3750481605529785,-18.11931800842285,13.407529830932617,-15.721285820007324,-50.4946403503418,-197.0489959716797,-32.400001525878906,5.100000381469727,-17.700000762939453
4.002,-13.292608261108398,-16.548721313476562,13.713987350463867,-12.25727367401123,-67.94792938232422,-165.73965454101562,-33.150001525878906,7.050000190734863,-19.200000762939453
4.01,-24.9763126373291,-16.395492553710938,13.292608261108398,-14.788667678833008,-68.21439361572266,-169.33689880371094,-33.150001525878906,7.050000190734863,-19.200000762939453
4.02,-27.427974700927734,-19.153614044189453,7.393294811248779,16.78713607788086,-69.54670715332031,-159.8774871826172,-31.950000762939453,7.050000190734863,-17.400001525878906
4.03,-23.597251892089844,-18.962078094482422,0.3447650372982025,49.29555892944336,-56.09035110473633,-81.67074584960938,-32.400001525878906,7.800000190734863,-19.950000762939453
4.04,-35.510799407958984,-17.276559829711914,-1.37906014919281,62.485450744628906,-18.385910034179688,-128.83460998535156,-30.450000762939453,9.450000762939453,-17.100000381469727
4.05,3.064578056335449,-22.792800903320312,1.1875240802764893,77.94027709960938,-3.4640121459960938,-84.20214080810547,-29.250001907348633,6.450000286102295,-18.75
4.066,10.879252433776855,-29.803022384643555,6.435614109039307,67.94792938232422,-0.9326186776161194,-31.709033966064453,-29.250001907348633,6.450000286102295,-18.75
4.07,24.554933547973633,-41.639957427978516,2.183511972427368,67.5482406616211,2.398162364959717,-23.448698043823242,-30.450000762939453,6.750000476837158,-18.450000762939453
4.08,26.12552833557129,-45.96867370605469,4.252102375030518,51.560489654541016,12.790199279785156,-8.260336875915527,-29.700000762939453,6.750000476837158,-19.650001525878906
4.09,34.01681900024414,-48.30541229248047,-12.334927558898926,40.36906433105469,33.30780792236328,30.776416778564453,-29.250001907348633,7.200000286102295,-19.80000114440918
4.1,50.144161224365234,-48.30541229248047,-18.387468338012695,0.9326186776161194,75.8085708618164,51.4272575378418,-28.80000114440918,7.200000286102295,-19.5
4.118,84.04605865478516,-44.97268295288086,-17.1999454498291,-46.364471435546875,87.79938507080078,102.18836212158203,-28.80000114440918,7.200000286102295,-19.5
4.122,139.82138061523438,-49.87601089477539,-13.48414421081543,-118.17610931396484,76.60796356201172,183.45941162109375,-30.30000114440918,6.450000286102295,-19.5
4.13,124.34526062011719,-26.12552833557129,-4.060565948486328,-140.95864868164062,67.01531219482422,228.6248016357422,-31.200000762939453,5.550000190734863,-18.450000762939453
4.14,117.8330307006836,-32.599449157714844,-14.441824913024902,-157.34608459472656,80.20520782470703,260.4670715332031,-31.80000114440918,4.950000286102295,-18.75
4.15,111.51233673095703,-45.892059326171875,-29.64979362487793,-154.14854431152344,96.59264373779297,271.7917175292969,-31.80000114440918,4.200000286102295,-18.75
4.16,120.9742202758789,-53.553504943847656,-34.32327651977539,-154.54823303222656,101.52220153808594,292.1761169433594,-31.80000114440918,4.200000286102295,-18.75
4.17,141.58351135253906,-55.23902130126953,-31.067161560058594,-196.915771484375,97.65850067138672,314.1592712402344,-33.0,2.25,-17.25
4.182,156.8297882080078,-56.38823699951172,-30.301015853881836,-276.32159423828125,103.12097930908203,355.7274169921875,-32.70000076293945,2.8500001430511475,-16.350000381469727
4.19,169.12640380859375,-57.57576370239258,-31.680076599121094,-335.6094970703125,113.64624786376953,379.44256591796875,-32.55000305175781,1.5,-16.80000114440918
4.2,176.63462829589844,-56.57977294921875,-29.688100814819336,-385.8376770019531,108.050537109375,429.8039855957031,-34.5,3.0,-14.700000762939453
4.21,183.1468505859375,-49.3397102355957,-27.504589080810547,-420.7442626953125,111.5145492553711,465.7763977050781,-34.5,3.0,-14.700000762939453
4.22,181.2314910888672,-40.873809814453125,-25.39769172668457,-454.8514404296875,108.84992218017578,504.9463806152344,-35.55000305175781,-1.0500000715255737,-10.950000762939453
4.239,175.3704833984375,-31.60346221923828,-25.39769172668457,-447.25726318359375,86.3338394165039,531.1929321289062,-36.150001525878906,-2.1000001430511475,-11.850000381469727
4.243,168.5518035888672,-23.9420166015625,-22.524648666381836,-444.326171875,83.40275573730469,558.6385498046875,-36.900001525878906,-2.8500001430511475,-10.350000381469727
4.25,160.9669647216797,-14.020444869995117,-25.359384536743164,-423.9418029785156,74.47626495361328,554.1087036132812,-38.70000076293945,-2.1000001430511475,-9.75
4.26,156.63824462890625,-12.066776275634766,-24.861391067504883,-392.2327575683594,57.55589294433594,562.23583984375,-38.70000076293945,-2.1000001430511475,-9.75
4.27,154.4164276123047,-12.48815631866455,-24.861391067504883,-347.86676025390625,27.978559494018555,548.11328125,-38.55000305175781,-6.900000095367432,-9.15000057220459
4.28,149.55142211914062,-9.27034854888916,-23.597251892089844,-311.7611083984375,17.32006072998047,541.5849609375,-38.400001525878906,-9.0,-7.800000190734863
4.298,140.6641387939453,-6.052541732788086,-27.15982437133789,-280.8514404296875,22.649311065673828,524.7978515625,-37.80000305175781,-10.800000190734863,-7.950000286102295
4.303,129.01873779296875,-7.929595947265625,-30.26270866394043,-253.00611877441406,21.183767318725586,512.0076293945312,-38.55000305175781,-11.550000190734863,-6.150000095367432
4.31,111.12926483154297,-9.84495735168457,-26.54690933227539,-228.75804138183594,15.721285820007324,498.95098876953125,-38.55000305175781,-11.550000190734863,-6.150000095367432
4.32,101.24600219726562,-12.947842597961426,-25.81907081604004,-227.82540893554688,28.644716262817383,463.64471435546875,-39.900001525878906,-16.80000114440918,-6.300000190734863
4.33,86.22956848144531,-13.21599292755127,-23.13756561279297,-235.0198974609375,42.101070404052734,423.0091857910156,-38.25,-19.200000762939453,-6.600000381469727
4.34,74.20109558105469,-12.947842597961426,-20.64759635925293,-229.95712280273438,41.168453216552734,415.814697265625,-39.45000076293945,-19.05000114440918,-6.750000476837158
4.359,63.32184600830078,-11.224017143249512,-14.403517723083496,-260.4670715332031,38.90352249145508,371.71514892578125,-38.400001525878906,-20.25,-6.750000476837158
4.363,55.43055725097656,-13.407529830932617,-3.3710360527038574,-323.4854431152344,9.859111785888672,291.7763977050781,-38.400001525878906,-20.25,-6.750000476837158
4.37,39.99274444580078,-5.171475887298584,2.5282769203186035,-350.66461181640625,-6.128636837005615,267.9280090332031,-35.400001525878906,-22.200000762939453,-5.25
4.38,28.309040069580078,5.171475887298584,3.7158010005950928,-379.309326171875,-22.382848739624023,242.747314453125,-37.05000305175781,-21.600000381469727,-8.40000057220459
4.39,13.713987350463867,22.17988395690918,7.738059997558594,-391.5666198730469,-28.77794647216797,220.09800720214844,-38.400001525878906,-22.950000762939453,-6.300000190734863
4.4,-1.455674648284912,41.90810775756836,16.28057098388672,-361.45635986328125,-42.76722717285156,216.90045166015625,-36.900001525878906,-22.950000762939453,-6.0
4.419,-17.391481399536133,54.587799072265625,10.074800491333008,-308.4303283691406,-22.116384506225586,170.8024444580078,-36.900001525878906,-22.950000762939453,-6.0
4.423,-22.17988395690918,56.04347229003906,4.367023944854736,-239.949462890625,9.059723854064941,126.96936798095703,-36.30000305175781,-23.850000381469727,-8.40000057220459
4.43,-15.169661521911621,49.45463180541992,5.5545477867126465,-203.04440307617188,17.186830520629883,103.25421142578125,-37.80000305175781,-25.500001907348633,-9.15000057220459
4.44,-7.6997528076171875,50.22077560424805,5.171475887298584,-139.6263427734375,3.9969370365142822,82.20367431640625,-37.20000076293945,-23.25,-8.550000190734863
4.45,-3.064578056335449,54.702720642089844,3.907337188720703,-85.00152587890625,-2.797856092453003,57.289432525634766,-36.900001525878906,-24.450000762939453,-8.25
4.46,-4.443638324737549,54.51118469238281,1.723825216293335,-38.23736572265625,11.457886695861816,31.575803756713867,-36.900001525878906,-24.450000762939453,-8.25
4.479,-7.010222434997559,48.26710510253906,0.6512228846549988,13.456355094909668,5.995405673980713,9.059723854064941,-35.70000076293945,-27.600000381469727,-7.800000190734863
4.483,-6.244078159332275,39.26490783691406,1.5322890281677246,67.5482406616211,15.188361167907715,-25.18070411682129,-36.75,-26.250001907348633,-8.700000762939453
4.49,4.788403511047363,23.367408752441406,2.145204782485962,111.38131713867188,3.9969370365142822,-40.9019889831543,-36.45000076293945,-26.100000381469727,-7.800000190734863
4.5,13.982137680053711,15.322891235351562,-0.1149216815829277,156.81317138671875,12.790199279785156,-70.21286010742188,-34.95000076293945,-25.650001525878906,-9.0
4.51,30.530860900878906,5.171475887298584,2.5665841102600098,232.75497436523438,3.4640121459960938,-116.71056365966797,-34.95000076293945,-25.650001525878906,-9.0
4.52,44.05331039428711,-8.236053466796875,-4.788403511047363,282.3169860839844,10.92496109008789,-154.41500854492188,-36.30000305175781,-25.80000114440918,-9.15000057220459
4.54,57.614070892333984,-24.823083877563477,-17.966089248657227,323.08575439453125,38.10413360595703,-200.91270446777344,-36.150001525878906,-26.100000381469727,-8.25
4.544,85.73157501220703,-48.19049072265625,-26.96828842163086,344.6692199707031,48.09647750854492,-268.32769775390625,-37.95000076293945,-25.200000762939453,-6.300000190734863
4.55,98.71772766113281,-60.90849304199219,-41.29519271850586,316.55743408203125,59.4211311340332,-308.69677734375,-37.95000076293945,-25.200000762939453,-6.300000190734863
4.56,109.4820556640625,-64.54767608642578,-44.12992477416992,311.62786865234375,55.95711898803711,-317.09033203125,-37.95000076293945,-25.200000762939453,-6.300000190734863
4.57,128.25259399414062,-68.30178833007812,-46.58158874511719,304.03369140625,57.955589294433594,-367.71820068359375,-37.20000076293945,-22.5,-7.050000190734863
4.58,140.81736755371094,-71.97927856445312,-43.32547378540039,327.6156005859375,30.643184661865234,-397.69525146484375,-38.55000305175781,-21.600000381469727,-6.600000381469727
4.599,148.09573364257812,-70.29376220703125,-39.72459411621094,349.99847412109375,5.062787055969238,-439.2633972167969,-37.80000305175781,-21.900001525878906,-6.900000095367432
4.604,145.14608764648438,-66.27149963378906,-38.34553527832031,350.5313720703125,1.1990811824798584,-497.3522033691406,-36.900001525878906,-20.25,-5.25
4.61,146.25698852539062,-56.57977294921875,-37.234622955322266,350.93109130859375,2.131699800491333,-511.7411804199219,-36.900001525878906,-20.25,-5.25
4.62,149.74295043945312,-51.59983444213867,-36.2003288269043,367.98468017578125,-12.923430442810059,-525.4639892578125,-38.55000305175781,-20.100000381469727,-5.850000381469727
4.63,156.17855834960938,-42.061336517333984,-28.309040069580078,382.3736572265625,-37.304744720458984,-540.5191040039062,-39.900001525878906,-15.15000057220459,-6.0
4.64,159.7411346435547,-30.99054718017578,-19.99637222290039,385.03826904296875,-60.08728790283203,-547.5803833007812,-38.55000305175781,-16.200000762939453,-6.150000095367432
4.659,156.6765594482422,-24.018630981445312,-18.655620574951172,393.5650634765625,-82.47013854980469,-546.6477661132812,-39.75,-13.500000953674316,-7.650000095367432
4.663,153.11398315429688,-15.093047142028809,-20.11129379272461,413.81622314453125,-99.3905029296875,-529.9938354492188,-36.75,-9.15000057220459,-6.600000381469727
4.67,146.21868896484375,-12.717999458312988,-22.409727096557617,417.1470031738281,-105.25267791748047,-525.0643310546875,-36.75,-9.15000057220459,-6.600000381469727
4.68,142.84765625,-10.41956615447998,-22.141576766967773,420.2113342285156,-108.983154296875,-515.0719604492188,-36.150001525878906,-7.800000190734863,-7.500000476837158
4.69,140.8556671142578,-9.615114212036133,-18.655620574951172,438.3307800292969,-124.03828430175781,-497.8851318359375,-36.75,-6.900000095367432,-8.700000762939453
4.7,137.4463348388672,-12.22000503540039,-14.288596153259277,429.5375061035156,-120.57427215576172,-477.63397216796875,-36.150001525878906,-6.750000476837158,-9.300000190734863
4.718,133.3474578857422,-13.752294540405273,-9.27034854888916,412.3506774902344,-129.90045166015625,-455.3843688964844,-36.150001525878906,-6.750000476837158,-9.300000190734863
4.722,123.42588806152344,-20.11129379272461,0.9576807022094727,357.0597229003906,-121.24042510986328,-424.6079406738281,-36.0,-3.450000047683716,-10.950000762939453
4.73,121.05083465576172,-23.13756561279297,4.8267107009887695,308.83001708984375,-138.2940216064453,-399.56048583984375,-36.0,-3.450000047683716,-10.950000762939453
4.74,114.69184112548828,-26.470293045043945,6.358999729156494,260.6003112792969,-136.9617156982422,-373.1806945800781,-34.20000076293945,-2.1000001430511475,-11.550000190734863
4.75,103.69766235351562,-32.178070068359375,9.691728591918945,216.76722717285156,-138.96017456054688,-362.12249755859375,-34.5,0.0,-13.950000762939453
4.76,92.7034912109375,-36.008792877197266,9.078812599182129,172.2679901123047,-153.7488555908203,-366.3858947753906,-34.5,0.0,-13.950000762939453
4.779,81.78592681884766,-35.6257209777832,7.5848307609558105,132.56507873535156,-151.2174530029297,-356.9264831542969,-32.70000076293945,1.350000023841858,-15.90000057220459
4.782,70.86837005615234,-33.17405700683594,8.925583839416504,62.21898651123047,-135.0964813232422,-370.6492919921875,-33.30000305175781,1.8000000715255737,-16.80000114440918
4.79,54.4345703125,-26.048913955688477,7.086836814880371,48.8958625793457,-136.82847595214844,-334.9433288574219,-33.30000305175781,1.8000000715255737,-16.80000114440918
4.8,44.78114700317383,-22.333112716674805,8.619126319885254,25.313934326171875,-132.43185424804688,-312.6937255859375,-31.500001907348633,4.5,-16.05000114440918
4.81,27.964275360107422,-15.782577514648438,13.292608261108398,5.728943347930908,-140.02603149414062,-279.7856140136719,-31.500001907348633,4.5,-16.05000114440918
4.82,10.84094524383545,-12.871228218078613,13.062764167785645,18.119447708129883,-150.41806030273438,-266.8621826171875,-30.30000114440918,3.450000047683716,-16.80000114440918
4.839,-1.9536685943603516,-16.012420654296875,7.010222434997559,51.027565002441406,-150.81776428222656,-243.01377868652344,-30.30000114440918,6.150000095367432,-19.05000114440918
4.842,-18.88546371459961,-28.155811309814453,8.159439086914062,71.41194152832031,-136.29556274414062,-235.0198974609375,-29.700000762939453,6.750000476837158,-21.150001525878906
4.85,-21.45204734802246,-30.339323043823242,8.848969459533691,77.54058074951172,-135.0964813232422,-224.22817993164062,-29.700000762939453,6.750000476837158,-21.150001525878906
4.86,-21.37543296813965,-33.82528305053711,13.752294540405273,76.20826721191406,-129.2342987060547,-215.43490600585938,-28.650001525878906,8.25,-21.150001525878906
4.87,-11.60708999633789,-34.24666213989258,16.931795120239258,57.02296829223633,-144.42266845703125,-181.8606414794922,-27.450000762939453,9.450000762939453,-21.150001525878906
4.88,2.0685901641845703,-32.369606018066406,22.677879333496094,14.12251091003418,-133.49769592285156,-125.37059783935547,-25.80000114440918,10.050000190734863,-20.55000114440918
4.899,8.274360656738281,-31.258697509765625,19.574993133544922,5.595712184906006,-112.31393432617188,-117.24349212646484,-25.950000762939453,10.950000762939453,-22.950000762939453
4.903,15.361198425292969,-36.008792877197266,5.937620162963867,11.990811347961426,-54.22511291503906,-66.74884796142578,-25.950000762939453,10.950000762939453,-22.950000762939453
4.91,19.000385284423828,-41.79318618774414,-13.560758590698242,12.656967163085938,-25.04747200012207,-41.30168533325195,-26.55000114440918,9.15000057220459,-22.80000114440918
4.92,21.796812057495117,-41.60165023803711,-17.353174209594727,-6.395099639892578,23.848390579223633,-29.7105655670166,-25.80000114440918,10.350000381469727,-23.100000381469727
4.93,38.95845031738281,-37.617698669433594,-20.915746688842773,-18.91883659362793,59.68759536743164,6.128636837005615,-25.650001525878906,9.75,-23.700000762939453
4.94,62.28755187988281,-33.51882553100586,-18.655620574951172,-46.764163970947266,65.41653442382812,65.81623077392578,-24.750001907348633,10.800000190734863,-22.80000114440918
4.959,88.37477111816406,-29.84132957458496,-15.935806274414062,-92.72894287109375,82.07044219970703,108.58345794677734,-24.750001907348633,10.800000190734863,-22.80000114440918
4.963,124.91986846923828,-30.224401473999023,-26.278757095336914,-135.89585876464844,93.12863159179688,207.4410400390625,-27.30000114440918,9.600000381469727,-22.350000381469727
4.97,117.75641632080078,-26.01060676574707,-30.4925537109375,-144.02296447753906,102.72128295898438,245.81163024902344,-25.200000762939453,9.75,-20.700000762939453
4.98,120.78268432617188,-26.929981231689453,-37.234622955322266,-165.2067413330078,119.90811157226562,284.5819091796875,-27.750001907348633,10.050000190734863,-21.30000114440918
4.99,127.75460052490234,-30.79901123046875,-43.82346725463867,-206.90811157226562,147.0872802734375,308.0306091308594,-29.250001907348633,8.40000057220459,-19.80000114440918
5.0,142.9625701904297,-36.2386360168457,-45.85375213623047,-229.82388305664062,139.89280700683594,329.3476257324219,-29.250001907348633,8.40000057220459,-19.80000114440918
5.012,159.05160522460938,-38.843528747558594,-40.7205810546875,-306.03216552734375,145.2220458984375,359.4578857421875,-30.900001525878906,7.500000476837158,-18.150001525878906
5.02,172.305908203125,-34.09343338012695,-35.43418502807617,-356.26031494140625,128.3016815185547,406.4884948730469,-31.05000114440918,7.200000286102295,-18.30000114440918
5.03,178.9713592529297,-29.573179244995117,-34.13174057006836,-425.0076599121094,120.4410400390625,452.3200378417969,-32.400001525878906,6.750000476837158,-17.100000381469727
5.04,182.18917846679688,-22.677879333496094,-33.557132720947266,-452.3200378417969,96.45941925048828,494.6875915527344,-34.80000305175781,4.5,-15.750000953674316
5.05,182.76377868652344,-12.143390655517578,-34.591426849365234,-467.10870361328125,70.74578857421875,521.467041015625,-34.80000305175781,4.5,-15.750000953674316
5.06,177.66891479492188,1.723825216293335,-33.82528305053711,-459.3813171386719,64.48391723632812,540.3859252929688,-34.80000305175781,4.5,-15.750000953674316
5.076,170.35223388671875,11.1474027633667,-34.01681900024414,-393.69830322265625,43.96630859375,588.34912109375,-34.5,1.5,-12.450000762939453
5.08,155.25918579101562,19.19192123413086,-35.16603469848633,-379.7090148925781,48.8958625793457,595.2771606445312,-36.75,2.25,-11.700000762939453
5.09,150.85386657714844,20.532672882080078,-34.93619155883789,-333.0780944824219,62.75191116333008,610.865234375,-37.80000305175781,1.0500000715255737,-10.65000057220459
5.1,140.47259521484375,18.617311477661133,-34.09343338012695,-283.2496032714844,73.9433364868164,629.117919921875,-37.80000305175781,1.0500000715255737,-10.65000057220459
5.11,134.4583740234375,11.377246856689453,-31.641769409179688,-257.26953125,70.47932434082031,644.4395141601562,-37.80000305175781,1.0500000715255737,-10.65000057220459
5.129,129.44012451171875,4.750096321105957,-26.54690933227539,-222.89585876464844,70.21286010742188,640.5758056640625,-39.150001525878906,-5.850000381469727,-9.75
5.132,123.73234558105469,-3.869029998779297,-28.309040069580078,-199.31393432617188,75.00918579101562,624.454833984375,-41.25,-7.650000095367432,-7.650000095367432
5.14,112.66155242919922,-13.828908920288086,-27.811046600341797,-204.50994873046875,83.66921997070312,592.3460693359375,-40.20000076293945,-9.450000762939453,-7.500000476837158
5.15,106.03440856933594,-18.387468338012695,-28.500577926635742,-203.44410705566406,82.6033706665039,576.22509765625,-43.20000076293945,-12.15000057220459,-7.800000190734863
5.16,101.89722442626953,-19.728221893310547,-26.163835525512695,-218.89892578125,88.33231353759766,540.252685546875,-43.20000076293945,-12.15000057220459,-7.800000190734863
5.17,93.85270690917969,-16.70195198059082,-16.81687355041504,-232.0888214111328,74.8759536743164,494.28790283203125,-41.25,-16.200000762939453,-7.350000381469727
5.188,86.61264038085938,-16.05072784423828,-9.768342971801758,-263.5314025878906,49.82848358154297,459.91424560546875,-42.75,-17.700000762939453,-7.350000381469727
5.193,77.99351501464844,-10.917559623718262,-5.286397457122803,-316.9571228027344,27.978559494018555,404.7565002441406,-40.80000305175781,-18.450000762939453,-7.650000095367432
5.2,59.5294303894043,-9.500192642211914,-5.018246650695801,-343.86981201171875,28.644716262817383,413.949462890625,-40.650001525878906,-20.55000114440918,-7.500000476837158
5.21,45.54729461669922,-3.294421434402466,-6.742072105407715,-391.3001403808594,9.592649459838867,370.915771484375,-40.650001525878906,-20.55000114440918,-7.500000476837158
5.22,24.018630981445312,8.772355079650879,-1.6855180263519287,-411.151611328125,-2.9310872554779053,329.0811462402344,-40.20000076293945,-22.5,-6.750000476837158
5.23,8.312667846679688,19.766529083251953,8.465897560119629,-429.8039855957031,-18.652372360229492,324.5513000488281,-40.650001525878906,-23.25,-8.25
5.249,1.4173674583435059,43.13393783569336,11.60708999633789,-404.09033203125,-12.124042510986328,321.22052001953125,-41.55000305175781,-24.30000114440918,-9.15000057220459
5.253,1.8387469053268433,60.90849304199219,10.266336441040039,-318.8223571777344,-24.381317138671875,286.58038330078125,-40.650001525878906,-24.900001525878906,-8.550000190734863
5.26,1.7621324062347412,71.28974914550781,8.542511940002441,-259.6676940917969,-29.577335357666016,275.9219055175781,-40.650001525878906,-24.900001525878906,-8.550000190734863
5.27,0.5746083855628967,67.30580139160156,5.018246650695801,-181.99386596679688,-39.83613967895508,217.96630859375,-41.400001525878906,-27.900001525878906,-9.75
5.28,2.145204782485962,59.49112319946289,1.5705963373184204,-98.59111785888672,-53.026031494140625,172.2679901123047,-40.5,-27.450000762939453,-9.450000762939453
5.29,-1.723825216293335,43.63193130493164,2.9496564865112305,-36.372127532958984,-65.41653442382812,136.9617156982422,-40.5,-26.250001907348633,-10.950000762939453
5.309,-7.469909191131592,35.31926345825195,6.933608055114746,-6.5283308029174805,-54.75803756713867,118.8422622680664,-39.900001525878906,-29.100000381469727,-11.550000190734863
5.313,-9.308655738830566,23.9420166015625,13.330915451049805,22.649311065673828,-54.75803756713867,85.13475799560547,-39.900001525878906,-29.100000381469727,-11.550000190734863
5.32,-13.522451400756836,16.28057098388672,2.4133553504943848,34.10719680786133,-39.03675079345703,51.29402542114258,-39.0,-30.150001525878906,-12.0
5.33,-10.342951774597168,11.492168426513672,-5.669469833374023,67.94792938232422,-1.9984685182571411,21.183767318725586,-39.150001525878906,-30.30000114440918,-11.550000190734863
5.34,1.2258312702178955,2.7964274883270264,-10.611102104187012,94.9938735961914,27.978559494018555,-47.297088623046875,-39.30000305175781,-30.150001525878906,-12.0
5.35,16.66364288330078,-4.711789131164551,-14.173673629760742,138.02755737304688,35.306278228759766,-92.72894287109375,-39.0,-30.150001525878906,-11.40000057220459
5.369,31.871612548828125,-13.713987350463867,-18.4257755279541,185.99081420898438,36.238895416259766,-133.89739990234375,-39.0,-30.150001525878906,-11.40000057220459
5.373,47.19450378417969,-24.44001007080078,-21.528661727905273,219.69830322265625,38.10413360595703,-202.77793884277344,-38.55000305175781,-30.150001525878906,-11.40000057220459
5.38,67.65056610107422,-35.66402816772461,-25.09123420715332,224.76109313964844,51.960182189941406,-225.2940216064453,-39.75,-28.500001907348633,-10.950000762939453
5.39,77.1890640258789,-37.96246337890625,-29.190107345581055,237.15159606933594,46.09800720214844,-263.93109130859375,-39.900001525878906,-27.150001525878906,-9.75
5.4,90.67321014404297,-41.21857833862305,-36.04710006713867,257.4027404785156,71.67840576171875,-278.5865173339844,-40.95000076293945,-26.850000381469727,-9.300000190734863
5.41,107.49008178710938,-44.35976791381836,-44.32146072387695,286.84686279296875,74.74272155761719,-318.15618896484375,-40.95000076293945,-26.850000381469727,-9.300000190734863
5.429,123.31096649169922,-51.40829849243164,-46.42835998535156,323.75189208984375,67.01531219482422,-366.5191345214844,-43.05000305175781,-26.250001907348633,-9.450000762939453
5.433,138.48062133789062,-61.253257751464844,-46.083595275878906,379.1761169433594,48.22970962524414,-426.3399658203125,-41.70000076293945,-26.400001525878906,-8.550000190734863
5.44,150.85386657714844,-70.14053344726562,-45.73883056640625,387.0367431640625,44.23276901245117,-476.5681457519531,-42.900001525878906,-23.700000762939453,-9.300000190734863
5.45,153.57366943359375,-69.79576873779297,-44.0150032043457,390.5007629394531,33.57427215576172,-521.467041015625,-43.05000305175781,-23.55000114440918,-7.950000286102295
5.46,160.04759216308594,-63.896453857421875,-38.115692138671875,393.4318542480469,-3.597243309020996,-539.0535888671875,-43.05000305175781,-23.55000114440918,-7.950000286102295
5.47,174.29788208007812,-50.029239654541016,-25.474306106567383,385.4379577636719,-41.035221099853516,-518.9356689453125,-45.0,-19.650001525878906,-7.950000286102295
5.489,179.43104553222656,-40.682273864746094,-20.30282974243164,373.9800720214844,-80.47166442871094,-513.073486328125,-44.70000076293945,-15.90000057220459,-6.750000476837158
5.493,170.96514892578125,-36.35355758666992,-21.98834800720215,395.1638488769531,-108.983154296875,-490.9571228027344,-44.400001525878906,-13.65000057220459,-6.300000190734863
5.609,93.58455657958984,-29.726408004760742,12.22000503540039,216.6339874267578,-152.41653442382812,-392.3659973144531,-40.05000305175781,1.5,-15.750000953674316
5.612,73.7031021118164,-36.77493667602539,13.905523300170898,151.6171417236328,-143.2235870361328,-370.1163635253906,-37.95000076293945,6.300000190734863,-17.700000762939453
5.62,68.22517395019531,-36.315250396728516,13.407529830932617,101.12251281738281,-126.96936798095703,-368.5176086425781,-37.95000076293945,6.300000190734863,-17.700000762939453
5.63,57.65237808227539,-37.27293395996094,11.60708999633789,56.62327575683594,-114.44563293457031,-340.9387512207031,-37.650001525878906,7.800000190734863,-19.950000762939453
5.64,43.67023849487305,-32.75267791748047,10.074800491333008,16.25421142578125,-105.5191421508789,-316.6906433105469,-36.75,7.650000095367432,-19.80000114440918
5.65,28.8453426361084,-26.585216522216797,9.691728591918945,-21.45022964477539,-104.7197494506836,-275.6554260253906,-35.400001525878906,8.25,-21.150001525878906
5.669,12.60307788848877,-16.395492553710938,16.1656494140625,-45.831546783447266,-112.04747009277344,-256.20367431640625,-35.400001525878906,8.25,-21.150001525878906
5.672,-2.7964274883270264,-13.522451400756836,14.326903343200684,-43.96630859375,-123.10566711425781,-220.36447143554688,-33.900001525878906,11.700000762939453,-19.650001525878906
5.68,-23.21417999267578,-10.802638053894043,10.687716484069824,-16.25421142578125,-137.76109313964844,-208.90658569335938,-33.900001525878906,11.700000762939453,-19.650001525878906
5.69,-31.83330535888672,-12.717999458312988,13.254301071166992,9.72588062286377,-133.89739990234375,-222.89585876464844,-33.75,13.050000190734863,-20.55000114440918
5.7,-35.16603469848633,-14.058752059936523,15.131354331970215,38.63705825805664,-125.90351867675781,-231.02296447753906,-33.45000076293945,13.200000762939453,-21.75
5.71,-31.60346221923828,-21.413740158081055,13.177685737609863,72.47779083251953,-131.0995330810547,-222.76263427734375,-33.45000076293945,13.200000762939453,-21.75
5.729,-13.79060173034668,-32.676063537597656,13.943830490112305,84.06890869140625,-120.30780792236328,-219.56507873535156,-30.150001525878906,15.15000057220459,-22.5
5.733,12.641385078430176,-51.1401481628418,12.526463508605957,70.61255645751953,-99.25727081298828,-182.39356994628906,-30.000001907348633,15.750000953674316,-23.850000381469727
5.74,16.70195198059082,-54.20472717285156,9.27034854888916,51.4272575378418,-77.80704498291016,-166.40582275390625,-30.000001907348633,16.200000762939453,-24.150001525878906
5.75,25.81907081604004,-55.085792541503906,3.294421434402466,8.39356803894043,-31.709033966064453,-151.2174530029297,-30.000001907348633,16.200000762939453,-24.150001525878906
5.76,37.617698669433594,-48.343719482421875,-8.542511940002441,-39.03675079345703,34.50688934326172,-117.77641296386719,-27.900001525878906,16.80000114440918,-22.5
5.77,47.65419006347656,-38.2689208984375,-15.207969665527344,-69.67993927001953,70.3460922241211,-63.28483963012695,-27.30000114440918,17.400001525878906,-23.850000381469727
5.789,74.6990966796875,-26.508602142333984,-22.83110809326172,-62.085758209228516,83.5359878540039,14.92189884185791,-27.000001907348633,16.950000762939453,-24.150001525878906
5.792,111.81879425048828,-15.24627685546875,-24.861391067504883,-62.085758209228516,94.72740936279297,55.4241943359375,-28.05000114440918,16.5,-22.350000381469727
5.8,117.2967300415039,-16.28057098388672,-24.746469497680664,-65.15007781982422,92.46247863769531,107.3843765258789,-28.05000114440918,16.5,-22.350000381469727
5.81,122.6214370727539,-19.153614044189453,-25.5892276763916,-65.81623077392578,66.74884796142578,152.81622314453125,-27.150001525878906,17.850000381469727,-22.200000762939453
5.82,121.5871353149414,-29.305028915405273,-28.040889739990234,-95.66002655029297,68.61408996582031,186.92343139648438,-28.500001907348633,18.150001525878906,-23.55000114440918
5.83,123.11943054199219,-36.430171966552734,-32.52283477783203,-152.1500701904297,80.20520782470703,216.10107421875,-28.650001525878906,17.100000381469727,-21.75
5.848,128.7888946533203,-40.95042419433594,-38.65199279785156,-267.66156005859375,94.9938735961914,289.511474609375,-30.900001525878906,17.55000114440918,-22.5
5.851,148.4405059814453,-35.93217849731445,-37.42616271972656,-301.23583984375,94.9938735961914,290.444091796875,-30.900001525878906,17.55000114440918,-22.5
5.86,153.880126953125,-33.32728576660156,-36.50678634643555,-345.8682861328125,86.86676788330078,325.6171569824219,-31.500001907348633,15.750000953674316,-19.80000114440918
5.87,161.1201934814453,-24.746469497680664,-35.0128059387207,-396.2297058105469,85.26799011230469,357.9923400878906,-30.450000762939453,17.100000381469727,-17.700000762939453
5.88,167.09613037109375,-13.828908920288086,-35.43418502807617,-402.8912658691406,75.8085708618164,396.0964660644531,-33.45000076293945,15.90000057220459,-17.700000762939453
5.89,172.95713806152344,-4.6734819412231445,-36.2386360168457,-396.8958435058594,57.955589294433594,438.4639892578125,-33.30000305175781,15.450000762939453,-16.05000114440918
5.902,176.13662719726562,3.026270866394043,-35.54910659790039,-379.1761169433594,41.168453216552734,456.050537109375,-33.30000305175781,15.450000762939453,-16.05000114440918
5.91,174.25958251953125,11.377246856689453,-31.794998168945312,-354.2618713378906,23.315465927124023,486.1607971191406,-37.20000076293945,12.90000057220459,-12.300000190734863
5.92,171.30992126464844,14.633360862731934,-28.61549949645996,-314.6921691894531,3.7304747104644775,517.3369140625,-36.900001525878906,14.40000057220459,-11.550000190734863
5.93,159.47299194335938,15.131354331970215,-31.83330535888672,-285.1148376464844,9.459418296813965,538.1209716796875,-37.95000076293945,10.950000762939453,-11.550000190734863
5.94,142.88595581054688,13.062764167785645,-33.82528305053711,-274.5895690917969,25.980091094970703,559.1715087890625,-38.70000076293945,9.450000762939453,-11.100000381469727
5.95,130.85748291015625,7.4316020011901855,-34.55311965942383,-252.3399658203125,37.03828430175781,577.8238525390625,-38.70000076293945,9.450000762939453,-11.100000381469727
5.966,123.54080963134766,3.294421434402466,-32.9442138671875,-233.28790283203125,49.16232681274414,569.5635375976562,-42.150001525878906,4.800000190734863,-9.300000190734863
5.97,113.65753936767578,-1.37906014919281,-26.43198585510254,-225.42726135253906,52.093414306640625,570.3629150390625,-42.45000076293945,4.350000381469727,-8.25
5.98,110.28650665283203,-0.9576807022094727,-25.359384536743164,-210.63858032226562,60.08728790283203,541.4517211914062,-42.75,1.8000000715255737,-7.650000095367432
5.99,106.91547393798828,-5.286397457122803,-26.66183090209961,-203.04440307617188,57.15620040893555,531.326171875,-42.30000305175781,-1.8000000715255737,-7.350000381469727
6.0,102.9315185546875,-4.213795185089111,-25.052927017211914,-200.5130157470703,61.01990509033203,492.95556640625,-42.30000305175781,-1.8000000715255737,-7.350000381469727
6.019,95.1168441772461,-5.784391403198242,-22.677879333496094,-219.9647674560547,67.814697265625,440.46246337890625,-43.5,-3.450000047683716,-6.900000095367432
6.023,88.94937896728516,-4.903325080871582,-18.923770904541016,-235.68606567382812,40.76875686645508,404.7565002441406,-44.70000076293945,-5.550000190734863,-4.950000286102295
6.03,79.67903137207031,0.5363011956214905,-12.411541938781738,-242.34762573242188,24.11485481262207,378.1102600097656,-45.150001525878906,-7.050000190734863,-5.700000286102295
6.04,70.94498443603516,3.294421434402466,-9.461885452270508,-265.9295349121094,12.923430442810059,327.2159118652344,-44.55000305175781,-7.650000095367432,-3.9000000953674316
6.05,57.307613372802734,6.818686485290527,-7.469909191131592,-295.7733459472656,-6.794793128967285,297.9050598144531,-44.55000305175781,-7.650000095367432,-3.9000000953674316
6.06,41.25688552856445,17.12333106994629,-6.205770969390869,-304.3001403808594,-18.91883659362793,276.4548034667969,-45.45000076293945,-11.40000057220459,-3.0
6.078,20.992361068725586,31.794998168945312,-3.6391866207122803,-317.7565002441406,-17.586523056030273,238.88360595703125,-45.900001525878906,-11.700000762939453,-4.200000286102295
6.082,6.320692539215088,50.41231155395508,3.44765043258667,-292.8422546386719,-13.323123931884766,216.10107421875,-43.95000076293945,-12.90000057220459,-3.0
6.09,-6.627150535583496,68.45501708984375,14.480132102966309,-246.07809448242188,-29.577335357666016,221.5635528564453,-45.45000076293945,-14.850000381469727,-1.6500000953674316
6.1,-6.205770969390869,75.50354766845703,15.322891235351562,-177.86370849609375,-44.76569747924805,182.7932586669922,-45.45000076293945,-14.850000381469727,-1.6500000953674316
6.11,-2.0685901641845703,74.35432434082031,14.709975242614746,-114.04593658447266,-72.87748718261719,160.2771759033203,-43.5,-14.550000190734863,-3.6000001430511475
6.12,1.4939818382263184,66.9227294921875,8.695740699768066,-41.168453216552734,-87.0,118.8422622680664,-44.400001525878906,-17.55000114440918,-5.25
6.139,2.75812029838562,52.05952072143555,-2.2218191623687744,15.45482349395752,-94.86064147949219,87.79938507080078,-45.45000076293945,-17.100000381469727,-4.950000286102295
6.143,9.730035781860352,39.26490783691406,-4.711789131164551,45.298622131347656,-83.40275573730469,35.839202880859375,-43.95000076293945,-17.55000114440918,-5.25
6.15,19.268535614013672,37.88584899902344,-8.159439086914062,62.618682861328125,-83.5359878540039,1.3323123455047607,-43.95000076293945,-17.55000114440918,-5.25
6.16,23.175872802734375,41.180267333984375,-10.189722061157227,121.10719299316406,-91.3966293334961,-28.77794647216797,-45.45000076293945,-16.80000114440918,-5.25
6.17,27.198131561279297,41.065345764160156,-14.36521053314209,211.70443725585938,-106.71822357177734,-61.81929397583008,-43.95000076293945,-18.75,-7.050000190734863
6.18,34.476505279541016,29.879636764526367,-13.560758590698242,287.2465515136719,-102.8545150756836,-116.71056365966797,-43.5,-16.950000762939453,-5.100000381469727
6.198,49.37801742553711,7.814674377441406,-13.828908920288086,368.6508483886719,-119.5084228515625,-148.95252990722656,-43.20000076293945,-18.30000114440918,-6.750000476837158
6.203,67.84210205078125,-14.173673629760742,-12.334927558898926,463.2450256347656,-151.35069274902344,-222.09646606445312,-43.20000076293945,-18.30000114440918,-6.750000476837158
6.21,95.1934585571289,-47.80741882324219,-8.312667846679688,482.4302978515625,-159.47779846191406,-248.7427215576172,-43.20000076293945,-16.80000114440918,-7.050000190734863
6.22,99.67540740966797,-57.84391403198242,-6.742072105407715,464.7105712890625,-172.6676788330078,-312.42724609375,-42.900001525878906,-15.600000381469727,-7.500000476837158
6.23,105.76625061035156,-67.15257263183594,-11.72201156616211,421.6768798828125,-173.73353576660156,-339.6064147949219,-42.900001525878906,-15.90000057220459,-7.050000190734863
6.24,105.84286499023438,-67.95702362060547,-24.13355255126953,401.1592712402344,-183.5926513671875,-350.2649230957031,-42.900001525878906,-14.100000381469727,-9.75
6.259,107.71992492675781,-66.8844223022461,-33.17405700683594,385.4379577636719,-165.73965454101562,-362.9219055175781,-42.900001525878906,-14.100000381469727,-9.75
6.263,114.11723327636719,-65.35212707519531,-35.089420318603516,412.084228515625,-158.545166015625,-393.5650634765625,-41.400001525878906,-12.90000057220459,-9.75
6.27,126.10739135742188,-60.90849304199219,-26.087221145629883,433.5344543457031,-168.40428161621094,-429.4042663574219,-40.20000076293945,-11.40000057220459,-11.100000381469727
6.28,134.5349884033203,-61.636329650878906,-21.413740158081055,456.3169860839844,-175.0658416748047,-457.3828430175781,-40.05000305175781,-11.100000381469727,-11.700000762939453
6.29,148.3638916015625,-62.8238525390625,-14.211980819702148,471.7718200683594,-184.92495727539062,-530.3935546875,-40.650001525878906,-10.950000762939453,-12.600000381469727
6.3,156.94471740722656,-59.452816009521484,-7.929595947265625,457.915771484375,-208.24041748046875,-553.0428466796875,-40.650001525878906,-10.950000762939453,-12.600000381469727
6.32,157.3660888671875,-51.48491287231445,-1.072602391242981,431.2695007324219,-231.68911743164062,-562.7687377929688,-39.150001525878906,-7.800000190734863,-13.350000381469727
6.324,148.21066284179688,-42.90409469604492,-0.6512228846549988,393.96478271484375,-240.0826873779297,-541.8514404296875,-37.80000305175781,-3.750000238418579,-15.750000953674316
6.33,136.60357666015625,-36.35355758666992,-2.8347349166870117,390.6340026855469,-245.0122528076172,-534.1240234375,-37.80000305175781,-3.750000238418579,-15.750000953674316
6.34,134.49667358398438,-35.16603469848633,-3.332728862762451,370.5160827636719,-234.62020874023438,-498.2848205566406,-36.900001525878906,-4.050000190734863,-17.100000381469727
6.35,133.7688446044922,-33.17405700683594,-1.9153614044189453,342.4042663574219,-224.09494018554688,-497.6186828613281,-36.900001525878906,-4.050000190734863,-17.100000381469727
6.36,132.8111572265625,-28.8453426361084,2.298433542251587,301.5022888183594,-206.1087188720703,-496.15313720703125,-34.80000305175781,-0.75,-20.100000381469727
6.379,131.20225524902344,-24.171859741210938,2.2601263523101807,276.32159423828125,-205.44256591796875,-491.6232604980469,-34.05000305175781,1.8000000715255737,-21.600000381469727
6.383,124.95817565917969,-19.268535614013672,1.647210717201233,260.6003112792969,-189.72128295898438,-483.49615478515625,-30.450000762939453,0.9000000357627869,-22.200000762939453
6.39,113.81077575683594,-14.939818382263184,-2.145204782485962,251.4073486328125,-166.1393585205078,-469.24041748046875,-30.450000762939453,0.9000000357627869,-22.200000762939453
6.4,107.6050033569336,-14.288596153259277,-3.2178070545196533,256.4701232910156,-159.07809448242188,-469.5068664550781,-30.450000762939453,0.9000000357627869,-22.200000762939453
6.41,102.9315185546875,-11.91354751586914,-4.405331134796143,259.6676940917969,-148.0198974609375,-465.50994873046875,-30.000001907348633,3.450000047683716,-23.850000381469727
6.42,99.56048583984375,-9.461885452270508,-4.865017890930176,261.9326171875,-135.62939453125,-479.6324462890625,-28.950000762939453,5.100000381469727,-25.80000114440918
6.439,95.76806640625,-6.435614109039307,-1.8387469053268433,266.1960144042969,-122.57273864746094,-470.039794921875,-29.250001907348633,4.5,-25.350000381469727
6.443,91.89904022216797,-5.056553840637207,2.030282974243164,276.4548034667969,-124.8376693725586,-447.25726318359375,-27.150001525878906,5.550000190734863,-25.80000114440918
6.45,85.19527435302734,-3.1028854846954346,6.780379295349121,281.2511291503906,-128.96783447265625,-426.47320556640625,-27.150001525878906,5.550000190734863,-25.80000114440918
6.46,79.5641098022461,-2.75812029838562,5.899312973022461,272.0581970214844,-115.91117858886719,-413.81622314453125,-25.650001525878906,5.550000190734863,-27.750001907348633
6.47,69.56592559814453,-1.800439715385437,6.358999729156494,276.5880432128906,-109.915771484375,-387.4364318847656,-23.400001525878906,8.700000762939453,-28.80000114440918
6.48,59.37620162963867,-0.5746083855628967,7.086836814880371,285.64776611328125,-101.2557373046875,-353.46246337890625,-21.75,7.650000095367432,-29.400001525878906
6.499,48.458641052246094,1.2258312702178955,9.500192642211914,280.98468017578125,-92.06278228759766,-311.49462890625,-21.30000114440918,9.15000057220459,-28.950000762939453
6.504,40.682273864746094,-0.7661445140838623,13.637372970581055,271.7917175292969,-83.13629150390625,-278.320068359375,-21.0,8.100000381469727,-30.900001525878906
6.51,34.3998908996582,-10.189722061157227,12.947842597961426,276.8545227050781,-77.67381286621094,-266.0627746582031,-21.0,8.100000381469727,-30.900001525878906
6.52,32.982521057128906,-15.322891235351562,14.709975242614746,291.7763977050781,-95.52679443359375,-282.050537109375,-19.650001525878906,6.300000190734863,-31.80000114440918
6.53,32.21637725830078,-22.06496238708496,17.085023880004883,302.5681457519531,-110.31546783447266,-308.4303283691406,-18.150001525878906,7.500000476837158,-32.85000228881836
6.541,30.99054718017578,-27.46628189086914,12.143390655517578,280.5849914550781,-101.12251281738281,-304.6998291015625,-16.80000114440918,7.650000095367432,-32.70000076293945
6.559,24.286781311035156,-28.38565444946289,6.512228488922119,278.320068359375,-94.46094512939453,-321.7534484863281,-16.80000114440918,7.650000095367432,-32.70000076293945
6.563,14.939818382263184,-27.619510650634766,2.3750481605529785,225.56048583984375,-74.8759536743164,-329.747314453125,-16.200000762939453,6.300000190734863,-35.400001525878906
6.57,10.802638053894043,-25.20615577697754,-1.6855180263519287,202.77793884277344,-53.82542037963867,-323.75189208984375,-16.200000762939453,6.300000190734863,-35.400001525878906
6.58,12.60307788848877,-23.712173461914062,-6.780379295349121,161.2097930908203,-29.177640914916992,-302.03521728515625,-14.700000762939453,7.800000190734863,-35.10000228881836
6.59,20.992361068725586,-22.103269577026367,-9.27034854888916,129.10107421875,-7.860642910003662,-275.5221862792969,-14.700000762939453,6.750000476837158,-36.900001525878906
6.6,36.35355758666992,-22.103269577026367,-14.518439292907715,88.46553802490234,25.04747200012207,-274.5895690917969,-14.700000762939453,6.750000476837158,-36.900001525878906
6.619,56.120086669921875,-18.387468338012695,-19.421764373779297,71.67840576171875,54.89126968383789,-250.74119567871094,-11.700000762939453,7.500000476837158,-36.60000228881836
6.622,80.90486145019531,-3.179499864578247,-32.75267791748047,66.21592712402344,99.3905029296875,-198.51454162597656,-11.700000762939453,7.800000190734863,-36.60000228881836
6.63,83.93113708496094,0.9193734526634216,-31.680076599121094,75.14241790771484,115.51148223876953,-169.0704345703125,-12.300000190734863,6.450000286102295,-36.60000228881836
6.64,87.57032012939453,8.887276649475098,-33.40390396118164,90.33078002929688,142.69065856933594,-108.84992218017578,-12.300000190734863,6.450000286102295,-36.30000305175781
6.65,89.48567962646484,17.353174209594727,-39.035064697265625,122.03981018066406,164.4073486328125,-69.28024291992188,-12.300000190734863,6.450000286102295,-36.30000305175781
6.66,89.7921371459961,16.70195198059082,-42.1762580871582,156.01377868652344,166.1393585205078,-18.91883659362793,-12.0,7.200000286102295,-35.55000305175781
6.679,88.37477111816406,13.867216110229492,-46.46666717529297,169.33689880371094,181.3277130126953,20.117916107177734,-12.750000953674316,6.900000095367432,-36.30000305175781
6.683,90.63490295410156,10.15141487121582,-47.80741882324219,163.74119567871094,196.78253173828125,61.68606185913086,-13.500000953674316,6.900000095367432,-36.30000305175781
6.69,98.64111328125,2.873042106628418,-44.85776138305664,164.14088439941406,197.18223571777344,88.33231353759766,-13.500000953674316,6.900000095367432,-36.30000305175781
6.803,123.69403839111328,12.143390655517578,-36.8132438659668,73.41041564941406,66.61561584472656,453.6523742675781,-21.900001525878906,-2.8500001430511475,-32.85000228881836
6.81,120.9742202758789,11.91354751586914,-34.9744987487793,79.13935852050781,52.093414306640625,437.2649230957031,-19.950000762939453,-2.4000000953674316,-32.55000305175781
6.82,118.94393920898438,9.078812599182129,-34.32327651977539,111.91423797607422,57.689125061035156,454.185302734375,-23.25,-4.200000286102295,-31.500001907348633
6.83,114.57691955566406,7.661445617675781,-32.13976287841797,147.4869842529297,42.101070404052734,469.5068664550781,-22.05000114440918,-4.5,-32.70000076293945
6.84,107.6050033569336,5.70777702331543,-29.305028915405273,156.81317138671875,39.9693717956543,478.5666198730469,-22.05000114440918,-4.5,-32.70000076293945
6.855,103.16136169433594,2.9879636764526367,-28.347347259521484,173.86676025390625,32.5084228515625,493.88818359375,-23.400001525878906,-8.700000762939453,-32.10000228881836
6.86,98.02819061279297,0.727837324142456,-26.700138092041016,171.20213317871094,26.246553421020508,511.8744201660156,-24.30000114440918,-9.15000057220459,-33.45000076293945
6.87,96.9555892944336,2.3750481605529785,-25.972299575805664,173.0673828125,17.053598403930664,465.24346923828125,-24.450000762939453,-11.700000762939453,-33.30000305175781
6.88,92.0522689819336,-1.455674648284912,-26.96828842163086,191.71975708007812,17.053598403930664,478.96630859375,-24.900001525878906,-14.40000057220459,-31.350000381469727
6.89,87.26386260986328,1.4939818382263184,-28.38565444946289,201.4456329345703,22.249616622924805,474.16998291015625,-24.900001525878906,-14.40000057220459,-31.350000381469727
6.909,80.10041046142578,4.9799394607543945,-31.83330535888672,223.0290985107422,14.522205352783203,474.4364318847656,-22.80000114440918,-17.700000762939453,-30.900001525878906
6.913,71.28974914550781,0.689530074596405,-29.53487205505371,249.27565002441406,10.125574111938477,406.08880615234375,-22.950000762939453,-19.05000114440918,-31.05000114440918
6.92,61.636329650878906,0.689530074596405,-21.298818588256836,251.27410888671875,1.3323123455047607,382.7733459472656,-24.0,-19.200000762939453,-31.200000762939453
6.93,60.21895980834961,-0.9576807022094727,-16.89348793029785,244.34608459472656,-14.12251091003418,341.8713684082031,-24.450000762939453,-21.450000762939453,-31.80000114440918
6.94,53.59181213378906,0.3447650372982025,-17.161638259887695,235.0198974609375,-34.773353576660156,332.0122375488281,-24.450000762939453,-21.450000762939453,-31.80000114440918
6.95,47.04127502441406,5.937620162963867,-13.982137680053711,224.3614044189453,-52.493106842041016,303.6340026855469,-23.25,-26.250001907348633,-30.450000762939453
6.968,39.68628692626953,14.901511192321777,-6.512228488922119,213.4364471435547,-77.00765228271484,298.30474853515625,-23.25,-27.450000762939453,-30.900001525878906
6.972,30.91393280029297,24.44001007080078,1.9153614044189453,230.09034729003906,-122.03981018066406,262.5987548828125,-24.150001525878906,-29.55000114440918,-31.350000381469727
6.98,21.796812057495117,28.61549949645996,14.901511192321777,247.2771759033203,-165.07350158691406,242.747314453125,-21.75,-30.450000762939453,-32.25
6.99,16.625335693359375,29.075185775756836,18.88546371459961,273.9234313964844,-188.1225128173828,180.5283203125,-21.75,-30.450000762939453,-32.25
7.0,13.369222640991211,30.91393280029297,20.95405387878418,311.0949401855469,-216.90045166015625,122.17304229736328,-20.25,-31.200000762939453,-30.450000762939453
7.01,16.35718536376953,26.929981231689453,23.558944702148438,349.73199462890625,-251.80703735351562,84.73506927490234,-20.25,-31.950000762939453,-30.900001525878906
7.03,27.58120346069336,14.403517723083496,25.780763626098633,381.30780029296875,-281.7840576171875,44.09954071044922,-18.450000762939453,-33.45000076293945,-29.850000381469727
7.033,38.80522155761719,0.0,28.38565444946289,406.4884948730469,-315.35833740234375,-31.44257164001465,-18.450000762939453,-33.75,-31.80000114440918
7.04,48.99494171142578,-18.847156524658203,30.37763023376465,417.4134521484375,-337.8744201660156,-70.61255645751953,-18.450000762939453,-33.75,-31.80000114440918
7.05,53.247047424316406,-25.39769172668457,29.53487205505371,448.5895690917969,-355.32769775390625,-126.83613586425781,-15.000000953674316,-35.85000228881836,-30.150001525878906
7.06,58.49513626098633,-32.10145568847656,30.224401473999023,456.3169860839844,-359.19140625,-179.9954071044922,-14.550000190734863,-37.5,-30.900001525878906
7.07,68.1102523803711,-41.333499908447266,30.760704040527344,467.6416320800781,-360.52374267578125,-232.0888214111328,-15.750000953674316,-38.55000305175781,-31.950000762939453
7.089,76.537841796875,-46.0452880859375,33.02082824707031,481.2312316894531,-362.12249755859375,-255.1378173828125,-14.40000057220459,-39.900001525878906,-31.05000114440918
7.093,86.61264038085938,-50.144161224365234,35.43418502807617,480.0321350097656,-366.78558349609375,-289.2450256347656,-14.40000057220459,-39.900001525878906,-31.05000114440918
7.1,98.56449890136719,-55.23902130126953,35.54910659790039,471.37213134765625,-360.25726318359375,-289.37823486328125,-13.800000190734863,-41.25,-28.200000762939453
7.11,102.66336822509766,-56.15839385986328,33.71036148071289,463.64471435546875,-373.713623046875,-315.22509765625,-14.40000057220459,-42.60000228881836,-31.80000114440918
7.12,106.64732360839844,-57.34592056274414,30.301015853881836,472.7044372558594,-368.7840576171875,-327.3491516113281,-12.300000190734863,-42.900001525878906,-30.150001525878906
7.13,114.1555404663086,-57.0777702331543,27.27474594116211,492.6891174316406,-344.0030517578125,-346.4012145996094,-11.700000762939453,-45.0,-27.000001907348633
7.149,121.31898498535156,-57.42253494262695,31.52684783935547,522.0,-337.4747314453125,-359.7243347167969,-11.700000762939453,-45.0,-27.000001907348633
7.153,126.72030639648438,-56.426544189453125,38.422149658203125,554.5084228515625,-357.45941162109375,-363.8545227050781,-12.90000057220459,-45.0,-28.500001907348633
7.16,128.40582275390625,-54.66441345214844,47.730804443359375,578.2235717773438,-371.71514892578125,-385.4379577636719,-12.750000953674316,-46.650001525878906,-28.950000762939453
7.17,128.1759796142578,-55.698707580566406,52.71074295043945,587.6829833984375,-388.9019775390625,-412.084228515625,-12.15000057220459,-46.95000076293945,-25.80000114440918
7.18,127.71629333496094,-57.499149322509766,55.507171630859375,603.404296875,-401.9586486816406,-430.20367431640625,-12.300000190734863,-45.900001525878906,-24.900001525878906
7.19,128.98043823242188,-59.68265914916992,55.77532196044922,606.3353881835938,-417.1470031738281,-440.8621520996094,-12.300000190734863,-45.900001525878906,-24.900001525878906
7.3,101.20769500732422,-26.738445281982422,2.1068975925445557,58.62174606323242,-161.2097930908203,-463.7779235839844,-16.80000114440918,-49.80000305175781,-20.55000114440918
7.31,87.64693450927734,-15.476119995117188,2.451662540435791,60.08728790283203,-125.63705444335938,-429.6707458496094,-16.650001525878906,-48.45000076293945,-20.700000762939453
7.329,77.87859344482422,-8.542511940002441,4.750096321105957,73.81010437011719,-106.4517593383789,-403.29095458984375,-19.05000114440918,-47.85000228881836,-21.600000381469727
7.332,73.0518798828125,-3.026270866394043,6.627150535583496,127.23583221435547,-74.07656860351562,-359.4578857421875,-19.05000114440918,-47.55000305175781,-20.55000114440918
7.34,73.47325897216797,4.63517427444458,9.691728591918945,145.88819885253906,-50.09494400024414,-322.286376953125,-19.05000114440918,-47.55000305175781,-20.55000114440918
7.35,78.18505096435547,8.619126319885254,14.901511192321777,173.2006072998047,-46.764163970947266,-295.50689697265625,-22.650001525878906,-48.0,-19.950000762939453
7.36,85.5783462524414,8.619126319885254,22.026655197143555,228.6248016357422,-71.41194152832031,-251.0076446533203,-22.650001525878906,-46.20000076293945,-19.650001525878906
7.37,90.44336700439453,10.074800491333008,21.337125778198242,285.3813171386719,-84.20214080810547,-246.74424743652344,-23.25,-45.900001525878906,-19.05000114440918
7.39,87.03401947021484,7.1251444816589355,15.284584045410156,323.4854431152344,-81.53751373291016,-216.6339874267578,-24.450000762939453,-46.95000076293945,-18.900001525878906
7.394,71.63451385498047,4.941632270812988,9.193734169006348,334.9433288574219,-62.75191116333008,-160.41041564941406,-25.200000762939453,-47.25,-18.450000762939453
7.4,45.24083709716797,-2.0685901641845703,9.691728591918945,338.4073486328125,-58.355281829833984,-111.781005859375,-25.200000762939453,-47.25,-18.450000762939453
7.41,33.44221115112305,-8.887276649475098,6.244078159332275,300.16998291015625,-14.388973236083984,-79.2725830078125,-26.250001907348633,-48.30000305175781,-16.80000114440918
7.42,19.843143463134766,-20.30282974243164,1.8387469053268433,264.1975402832031,8.39356803894043,-62.485450744628906,-25.950000762939453,-47.25,-16.650001525878906
7.43,14.36521053314209,-29.113492965698242,7.4316020011901855,241.68145751953125,14.388973236083984,-49.42878723144531,-26.700000762939453,-46.95000076293945,-15.90000057220459
7.449,13.752294540405273,-39.60967254638672,11.224017143249512,242.34762573242188,-1.9984685182571411,-42.633995056152344,-26.700000762939453,-46.95000076293945,-15.90000057220459
7.452,13.445837020874023,-51.02522659301758,12.986149787902832,210.90504455566406,-5.995405673980713,-64.48391723632812,-28.80000114440918,-48.30000305175781,-11.700000762939453
7.46,16.242263793945312,-62.2109375,9.308655738830566,193.7182159423828,-1.3323123455047607,-76.87442779541016,-28.80000114440918,-48.30000305175781,-11.700000762939453
7.47,16.127342224121094,-64.50936889648438,5.363011837005615,162.5421142578125,6.5283308029174805,-74.07656860351562,-27.30000114440918,-49.80000305175781,-13.200000762939453
7.48,21.911733627319336,-63.168617248535156,3.141192674636841,113.91270446777344,24.248085021972656,-66.08269500732422,-27.30000114440918,-51.000003814697266,-12.0
7.49,31.067161560058594,-60.10403823852539,2.030282974243164,73.67687225341797,43.96630859375,-44.89892578125,-27.30000114440918,-51.000003814697266,-12.0
7.509,40.682273864746094,-56.92454147338867,-0.07661445438861847,57.15620040893555,46.764163970947266,-21.983154296875,-28.950000762939453,-50.85000228881836,-10.800000190734863
7.513,58.9165153503418,-47.730804443359375,-12.986149787902832,41.568145751953125,66.08269500732422,34.64012145996094,-29.55000114440918,-51.000003814697266,-9.90000057220459
7.52,61.023414611816406,-45.93036651611328,-13.79060173034668,32.5084228515625,83.00305938720703,51.693721771240234,-29.55000114440918,-51.000003814697266,-9.90000057220459
7.53,68.68486022949219,-43.3637809753418,-16.931795120239258,39.9693717956543,100.58958435058594,86.60030364990234,-27.900001525878906,-50.400001525878906,-10.050000190734863
7.54,78.989501953125,-42.061336517333984,-16.625335693359375,52.493106842041016,105.11944580078125,126.16998291015625,-27.900001525878906,-50.400001525878906,-10.050000190734863
7.55,89.10260772705078,-40.873809814453125,-16.127342224121094,50.76110076904297,115.11178588867188,161.34303283691406,-27.150001525878906,-50.85000228881836,-8.550000190734863
7.569,98.06649780273438,-41.946414947509766,-15.476119995117188,47.696781158447266,107.3843765258789,195.71669006347656,-28.950000762939453,-51.150001525878906,-9.75
7.572,106.14933013916016,-51.02522659301758,-23.903709411621094,42.101070404052734,120.04134368896484,233.42112731933594,-27.30000114440918,-51.750003814697266,-6.600000381469727
7.58,109.25221252441406,-53.43858337402344,-25.20615577697754,36.372127532958984,119.90811157226562,243.28024291992188,-27.30000114440918,-51.750003814697266,-6.600000381469727
7.59,114.53861236572266,-58.9548225402832,-29.611486434936523,3.0643184185028076,132.29861450195312,274.7228088378906,-27.30000114440918,-51.750003814697266,-6.600000381469727
7.6,119.97823333740234,-63.589996337890625,-31.450233459472656,-44.23276901245117,126.83613586425781,295.7733459472656,-25.500001907348633,-54.000003814697266,-5.100000381469727
7.61,125.41786193847656,-67.88040924072266,-32.63775634765625,-90.86370086669922,120.04134368896484,331.0796203613281,-25.500001907348633,-56.400001525878906,-5.400000095367432
7.628,128.94212341308594,-71.40467071533203,-32.9442138671875,-195.84991455078125,115.77794647216797,365.9862060546875,-25.05000114440918,-55.650001525878906,-3.9000000953674316
7.631,137.4463348388672,-71.02159881591797,-30.032865524291992,-208.77334594726562,116.0444107055664,372.2480773925781,-25.05000114440918,-55.650001525878906,-3.9000000953674316
7.64,140.89398193359375,-70.6002197265625,-30.26270866394043,-242.6140899658203,103.7871322631836,394.76416015625,-22.05000114440918,-59.55000305175781,-6.150000095367432
7.65,142.1581268310547,-67.22918701171875,-27.083209991455078,-283.3828430175781,91.52986145019531,417.54669189453125,-21.30000114440918,-57.900001525878906,-6.900000095367432
7.66,143.7287139892578,-59.759273529052734,-27.504589080810547,-311.49462890625,92.19601440429688,415.01531982421875,-19.650001525878906,-61.650001525878906,-6.0
