time,accel_x,accel_y,accel_z,gyro_x,gyro_y,gyro_z,mag_x,mag_y,mag_z
0.0,-0.7082754373550415,-9.616753578186035,2.1272192001342773,0.018936822190880775,0.001527163083665073,-0.010231993161141872,-17.465654373168945,49.12306213378906,-31.978952407836914
0.004,-0.6867400407791138,-9.626324653625488,2.0518453121185303,0.020616700872778893,-0.0013744467869400978,-0.008399397134780884,-17.23180389404297,49.50307083129883,-31.905874252319336
0.011,-0.5407779216766357,-9.635896682739258,2.0303099155426025,0.021074850112199783,-0.007635815534740686,-0.0074830991216003895,-17.53873062133789,49.00613784790039,-30.868165969848633
0.021,-0.5024927258491516,-9.588040351867676,2.1750757694244385,0.023518310859799385,-0.027947084978222847,-0.0039706239476799965,-17.655654907226562,48.976905822753906,-30.619701385498047
0.031,-0.6496513485908508,-9.585646629333496,2.0781664848327637,0.02428189292550087,-0.039095375686883926,0.0013744467869400978,-17.757965087890625,49.53229904174805,-31.175094604492188
0.041,-0.6376872062683105,-9.571290016174316,2.1200408935546875,0.02977968007326126,-0.035124752670526505,0.003359758760780096,-17.480268478393555,48.94767761230469,-30.63431739807129
0.051,-0.6496513485908508,-9.611968040466309,2.1128623485565186,0.021380282938480377,-0.0429132841527462,0.008399397134780884,-17.53873062133789,49.32768249511719,-30.37123680114746
0.07,-0.9667003750801086,-9.728019714355469,2.00518536567688,0.01572977937757969,-0.01114829070866108,-0.0003054326225537807,-17.81642723083496,49.093833923339844,-30.108156204223633
0.074,-0.8530412316322327,-9.644271850585938,1.9525432586669922,0.017409659922122955,0.004581489134579897,-0.0019853119738399982,-17.465654373168945,49.15229415893555,-31.20432472229004
0.081,-0.5491527915000916,-9.65503978729248,2.090130567550659,0.024892758578062057,0.021074850112199783,-0.0004581489192787558,-17.217187881469727,49.45922088623047,-31.160480499267578
0.091,-0.5958127975463867,-9.638289451599121,2.1607186794281006,0.02168571576476097,0.003359758760780096,-0.0088575454428792,-17.377958297729492,49.13768005371094,-30.795087814331055
0.101,-0.882951557636261,-9.58205795288086,2.0721843242645264,0.02382374368607998,0.007024950347840786,-0.006108652334660292,-16.98333740234375,49.020755767822266,-30.42970085144043
0.111,-0.7369893193244934,-9.58325481414795,2.0099709033966064,0.027641652151942253,0.018020525574684143,-0.008704829961061478,-17.217187881469727,49.649227142333984,-31.02893829345703
0.131,-0.5300102233886719,-9.57368278503418,2.0985054969787598,0.027488935738801956,-0.021838432177901268,0.0024434609804302454,-17.553346633911133,49.44460678100586,-31.292020797729492
0.135,-0.6364907622337341,-9.577272415161133,2.1068801879882812,0.026114489883184433,-0.02321287989616394,0.003817907767370343,-17.100261688232422,49.44460678100586,-31.321250915527344
0.141,-0.7298108339309692,-9.588040351867676,2.097308874130249,0.029932396486401558,-0.019089538604021072,0.006108652334660292,-17.451038360595703,49.093833923339844,-31.014324188232422
0.151,-0.6245266795158386,-9.635896682739258,2.1104695796966553,0.031154125928878784,-0.013744467869400978,0.008704829961061478,-17.59719467163086,49.225372314453125,-31.832796096801758
0.161,-0.6592226028442383,-9.597611427307129,2.1511476039886475,0.027488935738801956,-0.025656340643763542,0.008246680721640587,-17.480268478393555,49.35691452026367,-31.014324188232422
0.171,-0.7920242547988892,-9.614360809326172,2.1188442707061768,0.02932153083384037,-0.02626720443367958,0.008704829961061478,-17.81642723083496,49.82461166381836,-31.423559188842773
0.191,-0.8889335989952087,-9.613164901733398,2.1332013607025146,0.02275473065674305,-0.015118913725018501,0.0050396379083395,-17.15872573852539,49.576148986816406,-31.4674072265625
0.196,-0.882951557636261,-9.621540069580078,2.0889341831207275,0.020922133699059486,0.012217304669320583,-0.0006108652451075613,-17.52411651611328,49.225372314453125,-32.5489616394043
0.202,-0.8350950479507446,-9.66939640045166,2.059023857116699,0.021380282938480377,0.02229658141732216,-0.005345070734620094,-17.50950050354004,49.56153106689453,-32.052032470703125
0.211,-0.6209374666213989,-9.639486312866211,2.025524377822876,0.027488935738801956,0.02733621932566166,-0.0013744467869400978,-17.275650024414062,49.80999755859375,-31.876644134521484
0.221,-0.5970092415809631,-9.69093132019043,2.197807550430298,0.02626720443367958,0.020922133699059486,0.00015271631127689034,-17.553346633911133,49.32768249511719,-32.38819122314453
0.231,-0.6496513485908508,-9.568897247314453,1.9537396430969238,0.032681290060281754,0.014355332590639591,0.0004581489192787558,-18.021047592163086,49.473838806152344,-31.59894561767578
0.251,-0.6029912829399109,-9.613164901733398,2.079362630844116,0.037110064178705215,-0.004581489134579897,0.007635815534740686,-17.129493713378906,49.12306213378906,-32.66588592529297
0.254,-0.6197410225868225,-9.585646629333496,2.104487419128418,0.039095375686883926,-0.009926560334861279,0.01038470957428217,-17.187957763671875,49.63460922241211,-32.19818878173828
0.261,-0.7178468108177185,-9.603592872619629,2.1260228157043457,0.037110064178705215,-0.0138971833512187,0.00855211354792118,-16.9541072845459,49.590763092041016,-32.2274169921875
0.271,-0.8255237936973572,-9.591629981994629,2.146361827850342,0.0377209298312664,-0.014966198243200779,0.007635815534740686,-16.720256805419922,49.7223014831543,-32.28588104248047
0.281,-0.787238597869873,-9.594021797180176,2.2025930881500244,0.036041051149368286,-0.016035212203860283,0.003512475173920393,-16.837182998657227,49.41537857055664,-32.052032470703125
0.291,-0.751346230506897,-9.614360809326172,2.228914260864258,0.030695976689457893,-0.011453723534941673,0.0013744467869400978,-17.53873062133789,49.15229415893555,-32.65127182006836
0.31,-0.6209374666213989,-9.66939640045166,2.2671992778778076,0.024587325751781464,-0.003512475173920393,0.003512475173920393,-17.24641990661621,49.31306457519531,-32.47588348388672
0.314,-0.6257230639457703,-9.7064847946167,2.2444677352905273,0.019394971430301666,-0.005650503095239401,0.004886921960860491,-17.26103401184082,49.54691696166992,-32.417423248291016
0.321,-0.7896314859390259,-9.597611427307129,2.1343977451324463,0.01710422709584236,-0.0073303827084600925,0.006108652334660292,-16.997953414916992,49.50307083129883,-32.72434997558594
0.331,-0.8099704384803772,-9.595218658447266,2.2097716331481934,0.015882495790719986,0.0050396379083395,0.0064140851609408855,-17.15872573852539,49.766151428222656,-31.949722290039062
0.341,-0.672383189201355,-9.641878128051758,2.115255117416382,0.01878410577774048,0.0138971833512187,0.0088575454428792,-17.42180633544922,49.34230041503906,-32.373573303222656
0.351,-0.6400800943374634,-9.614360809326172,2.0650060176849365,0.016493361443281174,0.01542434748262167,0.012522736564278603,-17.553346633911133,49.15229415893555,-32.13972473144531
0.37,-0.5814558863639832,-9.716055870056152,2.122433662414551,0.015118913725018501,-0.04306599870324135,0.009773843921720982,-17.61180877685547,49.605377197265625,-32.21280288696289
0.374,-0.5910272002220154,-9.69930648803711,2.2959132194519043,0.012980885803699493,-0.06215553730726242,0.00855211354792118,-17.304880142211914,49.63460922241211,-31.05817222595215
0.381,-0.4630111753940582,-9.999605178833008,2.4562323093414307,-0.0027488935738801956,-0.13576479256153107,-0.006261368282139301,-17.114879608154297,49.649227142333984,-32.5051155090332
0.391,-0.17706885933876038,-9.985248565673828,2.2372889518737793,-0.029932396486401558,-0.25763240456581116,-0.03588833287358284,-17.61180877685547,49.590763092041016,-31.935108184814453
0.401,-0.4163511395454407,-9.470791816711426,2.321038007736206,-0.04718933627009392,-0.29535335302352905,0.0039706239476799965,-17.363344192504883,49.13768005371094,-32.31510925292969
0.411,-0.6041877269744873,-9.540183067321777,2.249253273010254,-0.08628471195697784,-0.26740625500679016,0.0481056347489357,-16.807950973510742,49.15229415893555,-31.71587371826172
0.431,-0.8303093910217285,-9.521040916442871,2.1475582122802734,-0.10674870014190674,-0.08689558506011963,0.14309518039226532,-16.9541072845459,49.06460189819336,-31.876644134521484
0.434,-0.8889335989952087,-9.605986595153809,2.218146562576294,-0.10522153228521347,-0.06612616032361984,0.14844025671482086,-17.202571868896484,48.99152374267578,-31.75971794128418
0.441,-0.6364907622337341,-9.603592872619629,2.2803597450256348,-0.10415252298116684,-0.012064589187502861,0.16493360698223114,-16.895645141601562,49.41537857055664,-31.511253356933594
0.451,-0.4498506486415863,-9.547362327575684,2.204986095428467,-0.10125090926885605,0.006261368282139301,0.18997909128665924,-16.501022338867188,49.56153106689453,-32.1689567565918
0.461,-0.5623133182525635,-9.517451286315918,2.2061824798583984,-0.10277807712554932,-0.019089538604021072,0.19853119552135468,-16.530254364013672,49.38614273071289,-32.183570861816406
0.471,-0.8518447875976562,-9.565308570861816,1.987239122390747,-0.10613783448934555,-0.0328340083360672,0.21700987219810486,-16.530254364013672,49.10844802856445,-31.423559188842773
0.491,-1.1521440744400024,-9.604789733886719,1.6402798891067505,-0.10064005106687546,-0.014660765416920185,0.2292271852493286,-16.13563346862793,49.225372314453125,-31.218942642211914
0.495,-1.2370892763137817,-9.719645500183105,1.6390833854675293,-0.07131851464509964,0.010537425056099892,0.20922134816646576,-16.04793930053711,49.093833923339844,-30.765857696533203
0.501,-1.357926845550537,-9.584450721740723,1.4596216678619385,-0.05955936014652252,0.023365594446659088,0.20433442294597626,-15.931015014648438,49.00613784790039,-31.67202377319336
0.511,-1.5182459354400635,-9.488738059997559,1.3268201351165771,-0.034666601568460464,0.050243668258190155,0.19349156320095062,-16.164865493774414,49.020755767822266,-31.292020797729492
0.521,-1.6378871202468872,-9.561718940734863,1.1784651279449463,-0.002138028386980295,0.0861319974064827,0.16554446518421173,-16.164865493774414,49.26921844482422,-31.74510383605957
0.54,-0.9678966999053955,-9.56052303314209,1.4979069232940674,0.052839841693639755,0.10919215530157089,0.13775010406970978,-15.887167930603027,49.31306457519531,-31.321250915527344
0.544,-0.7070790529251099,-9.505488395690918,1.660618782043457,0.06520986557006836,0.0985020250082016,0.13301590085029602,-15.85793685913086,49.06460189819336,-31.20432472229004
0.551,-0.5060819387435913,-9.449256896972656,1.8855441808700562,0.08659014105796814,0.07162395119667053,0.1290452778339386,-15.770242691040039,49.590763092041016,-30.94124412536621
0.561,-0.7501499056816101,-9.476773262023926,1.9465612173080444,0.09468411654233932,0.03084869496524334,0.12889257073402405,-15.726396560668945,49.44460678100586,-31.335866928100586
0.571,-1.4141581058502197,-9.530611991882324,1.743171215057373,0.10522153228521347,0.022143863141536713,0.11285734921693802,-15.609471321105957,49.6199951171875,-31.218942642211914
0.581,-1.4572290182113647,-9.622735977172852,1.8843477964401245,0.12278390675783157,0.058948494493961334,0.09712757170200348,-15.741011619567871,48.52382278442383,-31.905874252319336
0.594,-1.1210373640060425,-9.497113227844238,2.1308083534240723,0.13744467496871948,0.08735372871160507,0.08216137439012527,-15.755626678466797,49.166908264160156,-32.59280776977539
0.601,-0.916451096534729,-9.504291534423828,2.258824348449707,0.1408044397830963,0.08689558506011963,0.07559457421302795,-15.901782989501953,48.9184455871582,-32.00818634033203
0.611,-0.9272187352180481,-9.55214786529541,2.3569302558898926,0.13530665636062622,0.043676864355802536,0.0679587572813034,-15.81408977508545,49.225372314453125,-31.379714965820312
0.621,-1.3196415901184082,-9.501898765563965,2.366501569747925,0.12965615093708038,0.05207626149058342,0.06933320313692093,-15.171003341674805,48.94767761230469,-31.613563537597656
0.631,-1.2370892763137817,-9.471988677978516,2.2121644020080566,0.13011428713798523,0.11453723162412643,0.0633772686123848,-15.667933464050293,49.25460433959961,-31.262788772583008
0.641,-0.9846464395523071,-9.571290016174316,2.0267207622528076,0.13072516024112701,0.1394299864768982,0.06475171446800232,-15.41946792602539,49.54691696166992,-31.438175201416016
0.661,-0.9188438653945923,-9.649056434631348,1.9704893827438354,0.13729196786880493,0.12064588069915771,0.0754418596625328,-15.4633150100708,49.035369873046875,-31.803565979003906
0.665,-0.9391828775405884,-9.635896682739258,1.971685767173767,0.14217887818813324,0.11056660860776901,0.07284567505121231,-15.624086380004883,49.035369873046875,-32.11049270629883
0.671,-1.0456634759902954,-9.53659439086914,2.0650060176849365,0.15515977144241333,0.1111774668097496,0.0682641938328743,-15.667933464050293,48.90382766723633,-32.417423248291016
0.681,-1.0061818361282349,-9.517451286315918,2.210968017578125,0.15821409225463867,0.11667525768280029,0.05345070734620094,-15.81408977508545,49.020755767822266,-32.66588592529297
0.691,-0.9942178130149841,-9.449256896972656,1.990828275680542,0.16722436249256134,0.09865473955869675,0.04398229718208313,-16.04793930053711,48.9622917175293,-32.183570861816406
0.701,-0.6951149702072144,-9.521040916442871,2.1846470832824707,0.18387043476104736,0.08659014105796814,0.03420845419168472,-15.667933464050293,49.54691696166992,-32.38819122314453
0.715,-0.9846464395523071,-9.69930648803711,2.283949136734009,0.17623461782932281,-0.0010690141934901476,0.031612277030944824,-15.755626678466797,49.093833923339844,-33.11897277832031
0.721,-1.439282774925232,-9.753144264221191,2.0829520225524902,0.17348572611808777,-0.006566801108419895,0.024129178375005722,-15.726396560668945,49.12306213378906,-32.00818634033203
0.731,-1.1437692642211914,-9.493523597717285,2.664407968521118,0.18738290667533875,0.039095375686883926,0.010995574295520782,-15.741011619567871,48.99152374267578,-32.34434509277344
0.741,-0.5264209508895874,-9.524630546569824,2.335394859313965,0.17379117012023926,0.02977968007326126,-0.0025961773935705423,-15.741011619567871,48.88921356201172,-32.15433883666992
0.751,-0.28594231605529785,-9.511469841003418,2.691925287246704,0.18845191597938538,0.014508049935102463,0.0022907445672899485,-16.04793930053711,48.88921356201172,-31.832796096801758
0.761,-1.392622709274292,-9.862017631530762,2.57228422164917,0.15195272862911224,-0.03451388329267502,-0.009468411095440388,-16.267173767089844,49.26921844482422,-32.08126449584961
0.781,-2.528017044067383,-9.763912200927734,2.4119651317596436,0.12767083942890167,0.1339322030544281,-0.05497787147760391,-15.828704833984375,48.77228546142578,-32.680503845214844
0.785,-1.9704893827438354,-9.647860527038574,2.3018951416015625,0.11774427443742752,0.20723602175712585,-0.06979135423898697,-16.311019897460938,49.210758209228516,-32.28588104248047
0.791,-0.6173481941223145,-9.373882293701172,2.413161516189575,0.1342376321554184,0.2834414541721344,-0.07437284290790558,-16.033323287963867,49.020755767822266,-32.34434509277344
0.801,0.0526420958340168,-9.385847091674805,2.8103702068328857,0.12263119220733643,0.21945331990718842,-0.06673702597618103,-15.18561840057373,48.93306350708008,-32.21280288696289
0.812,-0.6640082597732544,-9.605986595153809,2.7003002166748047,0.11362093687057495,0.11239920556545258,-0.04046982154250145,-16.106401443481445,49.093833923339844,-31.876644134521484
0.821,-1.6414762735366821,-9.765109062194824,2.6213371753692627,0.07987063378095627,0.10277807712554932,-0.0354301817715168,-16.004093170166016,49.26921844482422,-32.46126937866211
0.84,-0.5539384484291077,-9.579665184020996,2.7038893699645996,0.058337628841400146,0.28420504927635193,-0.014202617108821869,-15.872551918029785,48.87459945678711,-32.53434753417969
0.844,-0.06580261886119843,-9.41934585571289,2.695514678955078,0.06444628536701202,0.2868012487888336,-0.0024434609804302454,-16.06255531311035,49.34230041503906,-32.70973205566406
0.851,0.43549370765686035,-9.381060600280762,2.847459077835083,0.06520986557006836,0.22342397272586823,0.01160643994808197,-15.784857749938965,49.48845672607422,-32.63665771484375
0.861,-0.14715859293937683,-9.483952522277832,3.0544381141662598,0.053908854722976685,0.0907134935259819,0.055436018854379654,-15.697164535522461,48.93306350708008,-32.402809143066406
0.871,-1.073180913925171,-9.366703987121582,2.644068956375122,0.04566217586398125,0.031612277030944824,0.08124507963657379,-15.945630073547363,49.19614028930664,-32.47588348388672
0.881,-1.8604196310043335,-9.58923625946045,2.293520450592041,0.022449297830462456,0.07452555745840073,0.09758572280406952,-16.091785430908203,49.25460433959961,-32.95820236206055
0.894,-1.5134602785110474,-9.741181373596191,2.289931058883667,0.025045473128557205,0.18799376487731934,0.0933096632361412,-16.194095611572266,49.020755767822266,-32.242034912109375
0.901,-1.137787103652954,-9.69810962677002,2.2983059883117676,0.01924225501716137,0.21319197118282318,0.09285151958465576,-15.741011619567871,49.63460922241211,-32.972816467285156
0.911,-0.8422735333442688,-9.629914283752441,2.3126630783081055,0.024587325751781464,0.20555615425109863,0.10308350622653961,-15.887167930603027,49.19614028930664,-33.250511169433594
0.921,-0.8231310248374939,-9.515058517456055,2.502892255783081,0.02672535367310047,0.16890422999858856,0.11591167747974396,-15.667933464050293,49.80999755859375,-32.82666015625
0.931,-1.3028918504714966,-9.657431602478027,2.3330020904541016,0.01863138936460018,0.13744467496871948,0.13530665636062622,-15.01023006439209,49.54691696166992,-33.732826232910156
0.941,-1.6307085752487183,-9.738787651062012,2.091326951980591,0.01191187184303999,0.15653420984745026,0.14294245839118958,-15.682548522949219,49.34230041503906,-33.38205337524414
0.961,-1.0109676122665405,-9.610772132873535,2.5088744163513184,0.0044287727214396,0.2506074607372284,0.1696678102016449,-15.638701438903809,49.020755767822266,-32.76819610595703
0.965,-0.8554341197013855,-9.562914848327637,2.544766664505005,0.002138028386980295,0.2528982162475586,0.17562375962734222,-15.361004829406738,49.44460678100586,-32.95820236206055
0.971,-0.4833501875400543,-9.467202186584473,2.737389087677002,-0.001527163083665073,0.24037547409534454,0.20143280923366547,-15.52177619934082,49.15229415893555,-32.25665283203125
0.981,-0.2715853750705719,-9.330811500549316,2.880958318710327,-0.0039706239476799965,0.16859880089759827,0.2571742534637451,-15.477930068969727,49.13768005371094,-33.39666748046875
0.991,-0.5826523303985596,-9.385847091674805,2.5351955890655518,-0.015118913725018501,0.10002917796373367,0.29794952273368835,-15.682548522949219,49.13768005371094,-33.08974075317383
1.001,-1.399801254272461,-9.757929801940918,2.489731788635254,-0.040164388716220856,0.07299839705228806,0.33139437437057495,-15.624086380004883,49.44460678100586,-33.557437896728516
1.018,-2.1882362365722656,-9.65503978729248,2.5016961097717285,-0.07299839705228806,0.20830504596233368,0.3637702465057373,-14.966383934020996,48.8599853515625,-33.14820098876953
1.022,-2.042273998260498,-9.535398483276367,2.550748825073242,-0.07483098655939102,0.24190261960029602,0.3709478974342346,-15.097925186157227,49.049983978271484,-31.75971794128418
1.031,-0.6664010882377625,-9.385847091674805,2.7840490341186523,-0.08536841720342636,0.3045163154602051,0.39385536313056946,-15.039462089538574,49.4007568359375,-32.417423248291016
1.041,0.2560320198535919,-9.369096755981445,3.060420036315918,-0.08811730891466141,0.20326539874076843,0.44516804814338684,-14.761765480041504,48.655364990234375,-32.00818634033203
1.051,-0.08374878764152527,-9.449256896972656,3.2159535884857178,-0.09743300080299377,0.07192938029766083,0.4999931752681732,-14.527915000915527,48.87459945678711,-32.1251106262207
1.061,-0.9810572266578674,-9.640682220458984,3.060420036315918,-0.12522737681865692,-0.010842857882380486,0.5534439086914062,-14.761765480041504,48.81613540649414,-31.774335861206055
1.08,-1.1150553226470947,-9.373882293701172,2.8450660705566406,-0.15454889833927155,0.05375614017248154,0.6287330389022827,-13.592517852783203,48.6407470703125,-31.014324188232422
1.084,-0.8793622851371765,-9.322437286376953,2.7732813358306885,-0.15592335164546967,0.05100724473595619,0.6586654186248779,-13.607131958007812,48.77228546142578,-31.774335861206055
1.091,-0.5060819387435913,-9.096315383911133,2.744567632675171,-0.15470163524150848,0.019089538604021072,0.7029531598091125,-12.964046478271484,48.6407470703125,-31.920490264892578
1.101,-0.26919254660606384,-9.162117958068848,2.685943365097046,-0.15622878074645996,-0.08674286305904388,0.7699956297874451,-13.300204277038574,48.479976654052734,-32.03741455078125
1.111,-1.1928220987319946,-9.56052303314209,2.5674986839294434,-0.18066339194774628,-0.1618792861700058,0.8272642493247986,-13.183279037475586,48.12919998168945,-31.145864486694336
1.121,-3.0963122844696045,-9.812965393066406,2.210968017578125,-0.21059578657150269,-0.13148874044418335,0.8463537693023682,-13.007892608642578,48.1584358215332,-31.49663734436035
1.14,-2.6225335597991943,-9.82133960723877,2.0554347038269043,-0.23197607696056366,0.14538592100143433,0.8113817572593689,-12.160186767578125,47.25226593017578,-32.812042236328125
1.144,-2.4179470539093018,-9.838089942932129,1.9848462343215942,-0.23625212907791138,0.16569718718528748,0.8101600408554077,-12.028646469116211,47.74919891357422,-32.13972473144531
1.151,-2.4885356426239014,-9.884749412536621,2.045863151550293,-0.23655755817890167,0.1788308024406433,0.8084800839424133,-11.444022178649902,47.544578552246094,-32.25665283203125
1.161,-2.7146570682525635,-9.76989459991455,1.9848462343215942,-0.23808471858501434,0.21914789080619812,0.8072583675384521,-11.75094985961914,47.20841979980469,-32.02280044555664
1.171,-2.5806589126586914,-9.723234176635742,1.8580267429351807,-0.2402227520942688,0.25473082065582275,0.807563841342926,-11.137094497680664,47.296112060546875,-32.15433883666992
1.181,-2.1164515018463135,-9.763912200927734,1.8628122806549072,-0.2402227520942688,0.2710714340209961,0.8182539939880371,-11.107863426208496,47.16456985473633,-31.935108184814453
1.196,-1.9022939205169678,-9.795019149780273,2.1415762901306152,-0.2574796974658966,0.19853119552135468,0.8652905821800232,-10.77170467376709,46.62379455566406,-31.277402877807617
1.202,-2.0338993072509766,-9.832107543945312,2.2408783435821533,-0.26832255721092224,0.1794416606426239,0.8820894360542297,-10.581701278686523,46.550716400146484,-30.45893096923828
1.211,-2.2779672145843506,-9.90149974822998,2.194218397140503,-0.28267788887023926,0.13958270847797394,0.9231700897216797,-10.596317291259766,46.81379699707031,-30.722009658813477
1.221,-4.034298896789551,-11.258230209350586,1.4931212663650513,-0.3604104816913605,0.08659014105796814,1.090394377708435,-10.21631145477295,46.726104736328125,-31.218942642211914
1.231,-1.6307085752487183,-9.956534385681152,2.2193429470062256,-0.34437528252601624,0.22250765562057495,0.8976664543151855,-9.938613891601562,46.02455520629883,-31.321250915527344
1.241,-2.170289993286133,-10.904091835021973,2.231307029724121,-0.4007275700569153,0.19333885610103607,0.9917396903038025,-9.58784008026123,45.42531204223633,-31.482023239135742
1.261,-3.2518458366394043,-12.501300811767578,2.163111686706543,-0.5180137157440186,0.2915354371070862,1.0242682695388794,-9.03244686126709,45.04530715942383,-30.239694595336914
1.264,-2.9240291118621826,-11.961719512939453,2.080559253692627,-0.5201517343521118,0.3152064383029938,1.0328203439712524,-8.94475269317627,45.235313415527344,-30.093538284301758
1.271,-3.0113673210144043,-11.503494262695312,1.8532410860061646,-0.5299255847930908,0.39645153284072876,1.0598511695861816,-8.462437629699707,44.66530227661133,-30.210464477539062
1.281,-2.860619306564331,-11.715259552001953,1.7240287065505981,-0.5561928153038025,0.5539020299911499,1.0847439765930176,-8.023969650268555,44.358375549316406,-30.166616439819336
1.291,-2.4119651317596436,-12.004791259765625,1.8987046480178833,-0.6171265840530396,0.665232241153717,1.1589640378952026,-8.228588104248047,44.03683090209961,-29.640457153320312
1.301,-2.0338993072509766,-12.000005722045898,1.9932211637496948,-0.6641632318496704,0.7118107080459595,1.2402091026306152,-7.76088809967041,43.53989791870117,-29.011985778808594
1.318,-2.073380708694458,-12.507284164428711,2.2444677352905273,-0.7648032903671265,0.818559467792511,1.3794864416122437,-7.220110893249512,43.189125061035156,-28.60274887084961
1.322,-2.087737560272217,-12.705887794494629,2.3030917644500732,-0.7797694802284241,0.8382598161697388,1.401172161102295,-6.869336128234863,43.11604690551758,-29.172758102416992
1.331,-2.018345832824707,-13.021740913391113,2.3054845333099365,-0.8381071090698242,0.9320276379585266,1.4860823154449463,-7.015492916107178,42.38526916503906,-27.62350082397461
1.341,-1.7096717357635498,-13.344771385192871,2.1511476039886475,-0.9153815507888794,1.0723739862442017,1.5859588384628296,-6.197018623352051,41.698333740234375,-27.652734756469727
1.351,-0.9463613033294678,-13.817354202270508,1.9334007501602173,-0.988990843296051,1.162629246711731,1.6806429624557495,-6.0800933837890625,41.508331298828125,-26.95118522644043
1.361,-0.28115665912628174,-14.067404747009277,1.6271193027496338,-1.0616837739944458,1.2229522466659546,1.8046486377716064,-5.787781238555908,40.93832015991211,-26.702720642089844
1.381,0.9499505758285522,-14.110474586486816,1.2215359210968018,-1.1786644458770752,1.2835805416107178,2.05433988571167,-4.910844802856445,40.03215408325195,-25.548086166381836
1.384,1.0552347898483276,-14.08893871307373,1.2335000038146973,-1.1885910034179688,1.289841890335083,2.0870211124420166,-4.954691410064697,39.72522735595703,-24.802688598632812
1.391,1.2741780281066895,-14.023137092590332,1.0552347898483276,-1.2125674486160278,1.318858027458191,2.1839959621429443,-4.3262200355529785,39.49137496948242,-24.87576675415039
1.401,1.887937068939209,-14.108081817626953,0.8805586695671082,-1.2344058752059937,1.3771957159042358,2.2736403942108154,-4.1362175941467285,38.67290496826172,-24.203449249267578
1.411,2.5710878372192383,-14.305489540100098,1.2023932933807373,-1.293965220451355,1.445918083190918,2.328465700149536,-4.106986045837402,37.971351623535156,-23.531131744384766
1.421,3.717249870300293,-14.44786262512207,1.2251251935958862,-1.3423763513565063,1.5427402257919312,2.3214404582977295,-3.756211757659912,37.3867301940918,-22.025724411010742
1.44,4.564309120178223,-13.241880416870117,2.169093608856201,-1.6626224517822266,1.3112223148345947,2.233475923538208,-4.1508331298828125,36.05670928955078,-21.411867141723633
1.444,5.55733060836792,-12.693923950195312,2.3030917644500732,-1.6412421464920044,1.1020008325576782,2.245082378387451,-3.493130683898926,35.69131851196289,-21.338788986206055
1.451,7.194020748138428,-11.502297401428223,2.4945175647735596,-1.5280793905258179,-0.3090977966785431,2.428800344467163,-2.87927508354187,34.96053695678711,-21.031862258911133
1.461,3.1716861724853516,-9.851250648498535,2.3030917644500732,-1.3707815408706665,-1.9526307582855225,2.7989845275878906,-2.2654194831848145,34.09821701049805,-20.564163208007812
1.471,-2.9144580364227295,-8.568697929382324,3.4061830043792725,-1.0749701261520386,-3.1395421028137207,2.9568932056427,-1.6369482278823853,32.53434753417969,-21.4703311920166
1.481,-7.472784996032715,-7.737191677093506,4.433900356292725,-0.7307475805282593,-3.4156529903411865,2.80539870262146,0.17538732290267944,32.34434509277344,-22.434959411621094
1.494,-9.936195373535156,-6.15433931350708,4.54636287689209,-0.3937026560306549,-2.3214404582977295,2.1542162895202637,2.3677287101745605,31.525867462158203,-23.69190216064453
1.501,-9.644271850585938,-4.193421840667725,4.0725836753845215,-0.28909197449684143,-1.5373951196670532,1.6250542402267456,2.776965856552124,31.335866928100586,-24.013446807861328
1.511,-6.504888534545898,-3.1034910678863525,4.040280818939209,-0.21120664477348328,-0.7635815143585205,0.8604037165641785,3.4492838382720947,30.722009658813477,-24.890382766723633
1.521,-1.9154545068740845,-3.8775689601898193,3.5198421478271484,-0.14614950120449066,-0.1739438772201538,0.1576032191514969,3.9169833660125732,30.91201400756836,-25.095001220703125
1.531,2.561516523361206,-4.000799655914307,3.2745776176452637,-0.028557950630784035,0.020463986322283745,-0.41111230850219727,4.01929235458374,30.707395553588867,-25.548086166381836
1.541,3.9349966049194336,-3.194417953491211,2.5459630489349365,0.12782354652881622,-0.12538009881973267,-0.7197519540786743,3.726980447769165,31.145864486694336,-25.021923065185547
1.561,-0.2069791555404663,-1.7802599668502808,2.1738791465759277,0.47051894664764404,-0.4836525619029999,-1.3955215215682983,2.747734546661377,31.788951873779297,-25.635778427124023
1.564,-1.3543375730514526,-1.8269200325012207,2.1990039348602295,0.49785515666007996,-0.4599815011024475,-1.4924964904785156,2.923121929168701,32.35895919799805,-25.577316284179688
1.571,-2.3186450004577637,-2.053041696548462,2.1200408935546875,0.5720753073692322,-0.30711251497268677,-1.8263343572616577,2.4700381755828857,32.78281021118164,-25.197309494018555
1.581,-1.9645073413848877,-2.4765713214874268,1.9824535846710205,0.6540839672088623,0.01572977937757969,-2.3075432777404785,0.950014591217041,33.572052001953125,-26.074249267578125
1.591,-0.638883650302887,-2.706282138824463,1.6187443733215332,0.703411340713501,0.25503623485565186,-2.746755599975586,0.8623209595680237,34.47822189331055,-26.512714385986328
1.601,0.6101697683334351,-2.7900309562683105,1.0193424224853516,0.7945829629898071,0.2119702398777008,-3.1946723461151123,-0.9207833409309387,35.74978256225586,-27.62350082397461
1.617,-0.5048855543136597,-4.139583110809326,1.466800332069397,0.9358454942703247,-0.07116580009460449,-3.648545265197754,-1.900029182434082,36.87518310546875,-26.99502944946289
1.622,-1.5840485095977783,-4.920839786529541,1.836491346359253,0.9512698650360107,-0.07666358351707458,-3.7815611362457275,-2.835428237915039,37.69365692138672,-27.185035705566406
1.631,-3.363112211227417,-5.9784674644470215,1.935793399810791,0.9566149711608887,0.17898350954055786,-4.034153938293457,-4.1362175941467285,38.99444580078125,-27.024263381958008
1.641,-3.4911282062530518,-6.1399827003479,1.4644074440002441,1.0282388925552368,0.5002986192703247,-4.2948408126831055,-5.9339375495910645,40.529083251953125,-27.681964874267578
1.651,-2.451446771621704,-6.867401123046875,1.210768222808838,1.15178644657135,0.7024950385093689,-4.51475191116333,-7.687810897827148,41.186790466308594,-27.433500289916992
1.661,-1.6139588356018066,-8.368897438049316,0.769292414188385,1.235322117805481,0.613461434841156,-4.581489086151123,-9.470914840698242,42.10757064819336,-28.485822677612305
1.681,-2.854637384414673,-11.913863182067871,-0.17946170270442963,1.3555099964141846,0.19593501091003418,-4.61523962020874,-13.197896003723145,43.627593994140625,-30.42970085144043
1.684,-3.1070802211761475,-12.198609352111816,-0.3038884699344635,1.362382173538208,0.16661350429058075,-4.614628791809082,-13.914060592651367,44.10990905761719,-30.254310607910156
1.691,-3.7663025856018066,-12.77647590637207,-0.5754737854003906,1.3625348806381226,0.11530081182718277,-4.604701995849609,-15.638701438903809,44.738380432128906,-30.57585334777832
1.701,-4.238884925842285,-13.325629234313965,-0.9607182741165161,1.317789077758789,0.10842858254909515,-4.5825581550598145,-17.451038360595703,45.39608383178711,-30.882781982421875
1.711,-4.063012599945068,-13.795818328857422,-1.2430713176727295,1.246623158454895,0.078343465924263,-4.518875598907471,-19.35106658935547,46.27302169799805,-32.13972473144531
1.722,-3.781856060028076,-14.536396980285645,-0.9427720904350281,1.17408287525177,0.012980885803699493,-4.453513145446777,-21.178016662597656,46.53609848022461,-31.905874252319336
1.74,-3.671786069869995,-14.852250099182129,-0.8123632073402405,0.9853256344795227,-0.09697485715150833,-4.295604228973389,-25.86962890625,47.13534164428711,-32.972816467285156
1.743,-3.530609607696533,-14.677574157714844,-0.8398807048797607,0.9527970552444458,-0.1336267739534378,-4.26857328414917,-25.84039878845215,46.974571228027344,-33.440513610839844
1.751,-3.7088749408721924,-14.603395462036133,-0.6975077390670776,0.9158397316932678,-0.2551889419555664,-4.16747522354126,-26.658872604370117,47.529964447021484,-32.35895919799805
1.761,-4.60139799118042,-14.758930206298828,-0.769292414188385,0.8477282524108887,-0.40653079748153687,-3.966500759124756,-28.383514404296875,47.41303634643555,-33.39666748046875
1.771,-5.942574977874756,-14.232508659362793,-0.9176474213600159,0.8280278444290161,-0.4462370276451111,-3.8015670776367188,-30.166616439819336,47.33995819091797,-34.142066955566406
1.781,-6.198606967926025,-14.398809432983398,-0.7441678643226624,0.7728971838951111,-0.42684206366539,-3.600897789001465,-31.74510383605957,47.661502838134766,-34.06898498535156
1.794,-6.057430744171143,-14.22293758392334,-0.8769694566726685,0.6939429044723511,-0.42699480056762695,-3.258202314376831,-33.352821350097656,47.1207275390625,-33.76205825805664
1.801,-6.197410583496094,-13.84965705871582,-0.8638089299201965,0.6514877676963806,-0.4401284158229828,-3.0253100395202637,-34.59514617919922,46.38994216918945,-34.09821701049805
1.811,-6.686742782592773,-13.25862979888916,-0.7932206988334656,0.5972734689712524,-0.4225660264492035,-2.5752551555633545,-35.852088928222656,46.88687515258789,-34.47822189331055
1.822,-7.820940971374512,-12.593424797058105,-0.6616154909133911,0.5713117122650146,-0.3428480923175812,-2.2036962509155273,-37.211341857910156,46.40456008911133,-34.916690826416016
1.831,-8.3629150390625,-12.273983001708984,-0.6161518096923828,0.5326744914054871,-0.18768833577632904,-1.8200730085372925,-38.00058364868164,46.287635803222656,-35.95439910888672
1.841,-8.327022552490234,-12.236894607543945,-0.6735795140266418,0.4657847285270691,0.005803219974040985,-1.4240795373916626,-39.52061080932617,46.63841247558594,-36.04209518432617
1.861,-6.783651828765869,-12.0335054397583,-1.3555339574813843,0.23396137356758118,0.17470745742321014,-0.5807800889015198,-39.87138366699219,46.03916931152344,-36.0859375
1.865,-6.406782150268555,-11.892328262329102,-1.4069796800613403,0.16783522069454193,0.1434006243944168,-0.3637702465057373,-39.593685150146484,46.49225616455078,-35.969017028808594
1.871,-5.982056140899658,-11.651848793029785,-1.3962119817733765,0.07254024595022202,0.06001751124858856,-0.047800205647945404,-40.45600509643555,46.126861572265625,-35.969017028808594
1.881,-5.438885688781738,-11.188838005065918,-1.3184452056884766,-0.040317103266716,-0.076052725315094,0.3439171314239502,-40.11984634399414,45.98070526123047,-35.41362380981445
1.891,-5.1936211585998535,-10.901700019836426,-1.164108157157898,-0.12721268832683563,-0.21349740028381348,0.6910412907600403,-40.04676818847656,46.59456253051758,-36.30517578125
1.901,-5.015356063842773,-10.977072715759277,-0.865005373954773,-0.1846340149641037,-0.31871894001960754,0.9909761548042297,-39.53522491455078,46.21455764770508,-35.39900588989258
1.915,-4.535595417022705,-10.72582721710205,-0.6867400407791138,-0.25625795125961304,-0.4360050857067108,1.3846787214279175,-39.05290985107422,46.03916931152344,-35.12131118774414
1.922,-4.481756687164307,-10.295119285583496,-0.2679961323738098,-0.2565633952617645,-0.5050328373908997,1.564578652381897,-38.64366912841797,46.08301544189453,-35.03361511230469
1.931,-5.0943193435668945,-9.960124015808105,1.4297115802764893,-0.20143280923366547,-0.546571671962738,1.7368425130844116,-37.88365936279297,46.521484375,-34.88745880126953
1.941,-3.8321051597595215,-9.920642852783203,3.891925811767578,-0.11453723162412643,-0.2997821271419525,1.6578881740570068,-36.97748947143555,47.20841979980469,-34.50745391845703
1.951,-0.35054853558540344,-11.562119483947754,5.688935279846191,-0.10125090926885605,0.2877175211906433,1.3521502017974854,-36.87518310546875,47.41303634643555,-33.586673736572266
1.961,5.4245285987854,-14.076974868774414,3.6646077632904053,-0.31963521242141724,1.0680978298187256,0.9558513760566711,-36.465946197509766,46.59456253051758,-34.52206802368164
1.981,6.904489517211914,-9.537790298461914,-0.016749758273363113,-0.11728612333536148,0.0044287727214396,1.4430164098739624,-35.44285202026367,47.16456985473633,-34.31745147705078
1.985,3.8081772327423096,-8.778069496154785,0.665204644203186,-0.0959058403968811,-0.1560760736465454,1.4773775339126587,-35.57439422607422,47.03303146362305,-34.09821701049805
1.991,-1.1437692642211914,-8.669196128845215,1.3016955852508545,-0.08384125679731369,-0.42149701714515686,1.5028811693191528,-35.58900833129883,47.16456985473633,-34.682838439941406
2.001,-5.797809600830078,-9.023334503173828,1.4045867919921875,-0.12965615093708038,-0.2991712689399719,1.408502459526062,-34.2882194519043,47.20841979980469,-35.23823165893555
2.011,-5.712863922119141,-8.931209564208984,1.9178473949432373,-0.14905111491680145,0.07101307809352875,1.2131783962249756,-33.630516052246094,47.51534652709961,-34.902076721191406
2.021,-2.2061824798583984,-9.139386177062988,2.3054845333099365,-0.15302173793315887,0.2958114743232727,0.9990701079368591,-34.551300048828125,47.63227081298828,-34.09821701049805
2.04,0.6508477926254272,-10.036694526672363,2.667997121810913,-0.022143863141536713,-0.4437935948371887,1.05099356174469,-33.060508728027344,48.114585876464844,-33.76205825805664
2.044,-0.9798608422279358,-10.782058715820312,2.867797613143921,-0.018020525574684143,-0.5201517343521118,1.0709995031356812,-32.987430572509766,48.289974212646484,-34.50745391845703
2.051,-3.174079179763794,-10.805987358093262,2.2743778228759766,-0.035124752670526505,-0.5375614166259766,1.0306823253631592,-32.08126449584961,47.99766159057617,-33.74744415283203
2.061,-3.9804604053497314,-9.116654396057129,1.3040882349014282,-0.0328340083360672,-0.3254384398460388,0.9182831645011902,-32.38819122314453,47.63227081298828,-33.83513641357422
2.071,-3.3379874229431152,-9.336793899536133,1.3483555316925049,0.014966198243200779,-0.17348572611808777,0.8206974267959595,-31.02893829345703,48.34843444824219,-33.30897521972656
2.081,-1.5278172492980957,-10.217351913452148,0.9391828775405884,0.033139437437057495,-0.11102475225925446,0.7185302376747131,-31.014324188232422,48.20227813720703,-34.50745391845703
2.095,-1.4823535680770874,-9.724431037902832,0.46420758962631226,0.09056076407432556,-0.0630718320608139,0.6940956115722656,-30.122772216796875,48.12919998168945,-34.185909271240234
2.101,-2.17627215385437,-9.625128746032715,0.6520441174507141,0.11438451707363129,0.04718933627009392,0.6615670323371887,-30.152002334594727,48.01227569580078,-34.726688385009766
2.111,-2.352144718170166,-9.645467758178711,0.6065804958343506,0.13469578325748444,0.2655736804008484,0.6097962260246277,-30.152002334594727,48.085357666015625,-34.06898498535156
2.121,-0.7310072779655457,-9.373882293701172,0.453439861536026,0.2554943859577179,0.46899178624153137,0.5477933883666992,-29.91815185546875,47.51534652709961,-33.8643684387207
2.131,0.35533416271209717,-9.623931884765625,2.891726016998291,0.24174991250038147,0.42592576146125793,0.5688682198524475,-29.71353530883789,47.76381301879883,-33.9082145690918
2.141,0.6699903011322021,-9.461220741271973,1.8819550275802612,0.23686298727989197,0.2773328125476837,0.5375614166259766,-29.581993103027344,48.216896057128906,-34.21514129638672
2.16,-0.13878370821475983,-10.090532302856445,2.9001009464263916,0.20861048996448517,0.024434609338641167,0.6116288304328918,-29.494300842285156,48.23151397705078,-34.63899612426758
2.164,-0.4498506486415863,-10.140782356262207,2.6907289028167725,0.1966986060142517,-0.035735614597797394,0.5962044596672058,-28.83659553527832,48.14381790161133,-34.741302490234375
2.171,-1.4560325145721436,-10.047462463378906,2.2947168350219727,0.16401731967926025,-0.0907134935259819,0.5714644193649292,-29.34814453125,48.45074462890625,-33.41128158569336
2.181,-2.3078773021698,-9.760323524475098,2.1714866161346436,0.1319468915462494,-0.08261951804161072,0.5048801302909851,-29.479684829711914,48.1584358215332,-34.58053207397461
2.191,-1.8376877307891846,-9.647860527038574,2.3952155113220215,0.11362093687057495,-0.008399397134780884,0.4381431043148041,-28.83659553527832,48.596900939941406,-34.30283737182617
2.201,-1.357926845550537,-9.601200103759766,2.449054002761841,0.08811730891466141,0.018020525574684143,0.37720927596092224,-28.003507614135742,48.56766891479492,-34.755916595458984
2.215,-1.574477195739746,-10.106086730957031,1.6558332443237305,0.02626720443367958,-0.008704829961061478,0.3413209319114685,-28.398128509521484,48.07073974609375,-34.799766540527344
2.221,-2.3808584213256836,-10.06421184539795,0.9547362327575684,0.04413501173257828,0.0073303827084600925,0.29825496673583984,-27.769657135009766,48.88921356201172,-34.916690826416016
2.231,-2.0829520225524902,-9.680163383483887,0.6891329288482666,0.10659598559141159,0.13240504264831543,0.23090705275535583,-27.769657135009766,48.406898498535156,-34.21514129638672
2.241,-1.2669994831085205,-9.598808288574219,1.0504491329193115,0.1270599663257599,0.16798794269561768,0.2200642079114914,-28.295820236206055,48.18766403198242,-34.60976028442383
2.251,-0.5108676552772522,-9.625128746032715,1.7790635824203491,0.1290452778339386,0.11285734921693802,0.21532998979091644,-28.06197166442871,47.99766159057617,-34.726688385009766
2.261,-0.5659025311470032,-9.80817985534668,2.115255117416382,0.1267545372247696,0.0138971833512187,0.2119702398777008,-27.959659576416016,48.36305236816406,-34.30283737182617
2.281,-2.132004976272583,-9.6526460647583,2.311466693878174,0.10949759185314178,0.03451388329267502,0.16920965909957886,-27.667348861694336,48.50920867919922,-34.741302490234375
2.284,-2.1104695796966553,-9.507880210876465,2.4083759784698486,0.10797043144702911,0.10323622077703476,0.15347988903522491,-28.018123626708984,48.50920867919922,-34.30283737182617
2.291,-1.6342978477478027,-9.452845573425293,2.5627129077911377,0.10308350622653961,0.20372354984283447,0.14538592100143433,-27.988893508911133,48.479976654052734,-34.33206558227539
2.301,-0.48813581466674805,-9.492326736450195,2.4670000076293945,0.08918632566928864,0.260992169380188,0.15347988903522491,-27.52119255065918,48.289974212646484,-34.49283981323242
2.311,0.48574298620224,-9.625128746032715,2.4394824504852295,0.07681629806756973,0.17073683440685272,0.18524488806724548,-27.667348861694336,48.5384407043457,-34.799766540527344
2.321,0.6747759580612183,-9.611968040466309,2.5387847423553467,0.059864792972803116,0.004734205547720194,0.24785856902599335,-27.535808563232422,48.78690719604492,-35.179771423339844
2.34,-0.882951557636261,-9.982855796813965,2.4813568592071533,-0.037110064178705215,-0.19944749772548676,0.3565925657749176,-27.4481143951416,48.94767761230469,-34.171295166015625
2.344,-1.0037890672683716,-9.905089378356934,2.4023938179016113,-0.04459316283464432,-0.16951508820056915,0.3727805018424988,-27.287343978881836,49.00613784790039,-35.15053939819336
2.351,-0.6604190468788147,-9.773483276367188,2.4394824504852295,-0.04688390716910362,-0.09483683109283447,0.39706239104270935,-27.287343978881836,48.36305236816406,-34.82899475097656
2.361,-0.22971096634864807,-9.651450157165527,2.23848557472229,-0.05772676318883896,-0.07956519722938538,0.4567744731903076,-26.673486709594727,48.8599853515625,-34.6682243347168
2.371,0.16749757528305054,-9.515058517456055,2.317448616027832,-0.0780380368232727,-0.168751522898674,0.5157229900360107,-26.264249801635742,48.669979095458984,-34.59514617919922
2.381,0.03469592705368996,-9.42772102355957,2.0135602951049805,-0.10186177492141724,-0.3390301764011383,0.6192646622657776,-26.264249801635742,48.69921112060547,-34.81438064575195
2.394,-1.2203395366668701,-9.805787086486816,1.8664016723632812,-0.15653420984745026,-0.413555771112442,0.6959282159805298,-25.606548309326172,48.31920623779297,-34.6682243347168
2.401,-1.2598210573196411,-9.69093132019043,2.1020946502685547,-0.14996741712093353,-0.36392295360565186,0.7382306456565857,-25.635778427124023,48.479976654052734,-34.93130874633789
2.411,-0.6915256977081299,-9.45763111114502,2.197807550430298,-0.16569718718528748,-0.33796119689941406,0.7953465580940247,-25.080385208129883,48.6407470703125,-34.52206802368164
2.421,-0.3888336718082428,-9.260223388671875,2.2636101245880127,-0.18188512325286865,-0.3998112976551056,0.8672758936882019,-25.036537170410156,48.69921112060547,-34.21514129638672
2.431,-0.43908295035362244,-9.245866775512695,2.190629005432129,-0.21700987219810486,-0.5392412543296814,0.9587529897689819,-24.32037353515625,48.55305480957031,-35.092079162597656
2.441,-0.7716853022575378,-9.418149948120117,2.4047865867614746,-0.25625795125961304,-0.6336199641227722,1.0465648174285889,-24.21806526184082,48.36305236816406,-34.43437576293945
2.461,-1.935793399810791,-9.629914283752441,2.187039852142334,-0.35216379165649414,-0.6020076870918274,1.1934778690338135,-22.961122512817383,47.89535140991211,-33.77667236328125
2.464,-2.053041696548462,-9.537790298461914,2.1200408935546875,-0.34177911281585693,-0.5207626223564148,1.2221887111663818,-22.20111083984375,47.95381546020508,-33.820518493652344
2.471,-2.2025930881500244,-9.421738624572754,2.551945447921753,-0.31841349601745605,-0.42959097027778625,1.229824423789978,-21.57263946533203,48.14381790161133,-33.87898254394531
2.481,-2.197807550430298,-8.805586814880371,2.1272192001342773,-0.28878653049468994,-0.30604347586631775,1.239292860031128,-21.148786544799805,47.95381546020508,-33.235897064208984
2.491,-2.496910333633423,-8.790033340454102,1.0205388069152832,-0.27000242471694946,-0.3300199508666992,1.2533427476882935,-20.91493797302246,47.98304748535156,-32.943580627441406
2.501,-3.269791841506958,-8.94676399230957,0.9140582084655762,-0.28619036078453064,-0.39614611864089966,1.2762501239776611,-20.505699157714844,47.851505279541016,-33.060508728027344
2.518,-3.676571846008301,-9.339186668395996,1.1545369625091553,-0.3013092875480652,-0.25854870676994324,1.1725558042526245,-19.862613677978516,47.836891174316406,-32.66588592529297
2.522,-3.662214994430542,-9.470791816711426,1.2634103298187256,-0.290313720703125,-0.23350323736667633,1.1681270599365234,-19.774919509887695,47.36919021606445,-32.446651458740234
2.531,-3.238685369491577,-10.085746765136719,1.4775679111480713,-0.29474249482154846,-0.08674286305904388,1.13620924949646,-18.97106170654297,47.296112060546875,-32.183570861816406
2.541,-2.7003002166748047,-9.760323524475098,1.7527425289154053,-0.2817615866661072,-0.080634206533432,1.089020013809204,-18.43028450012207,46.71148681640625,-32.34434509277344
2.551,-3.1334011554718018,-9.328418731689453,1.0743772983551025,-0.25503623485565186,-0.15851953625679016,1.0629055500030518,-17.962583541870117,47.296112060546875,-32.11049270629883
2.561,-3.8045878410339355,-9.872785568237305,0.906879723072052,-0.29565879702568054,-0.16982053220272064,1.011745572090149,-17.772581100463867,46.95995330810547,-32.27126693725586
2.58,-4.225724697113037,-11.327622413635254,1.377069354057312,-0.3628539741039276,-0.02122756652534008,0.8941540122032166,-16.895645141601562,46.40456008911133,-32.1251106262207
2.584,-4.137190341949463,-11.405388832092285,1.506281852722168,-0.37171149253845215,0.03344487026333809,0.8674286603927612,-16.501022338867188,46.81379699707031,-32.59280776977539
2.591,-3.6370902061462402,-11.468798637390137,1.8771692514419556,-0.3926336169242859,0.08231408894062042,0.8161159157752991,-16.69102668762207,46.346099853515625,-32.1689567565918
2.601,-3.720839262008667,-11.34796142578125,1.9860427379608154,-0.40454548597335815,0.02626720443367958,0.7334964275360107,-16.033323287963867,46.27302169799805,-32.32973098754883
2.611,-4.455435752868652,-11.438888549804688,1.534995675086975,-0.4046982228755951,-0.024587325751781464,0.6562219858169556,-16.296403884887695,46.53609848022461,-32.35895919799805
2.621,-4.782055854797363,-11.752347946166992,1.2287143468856812,-0.40286561846733093,0.025961771607398987,0.5874996781349182,-15.667933464050293,46.38994216918945,-32.11049270629883
2.64,-4.225724697113037,-12.77049446105957,1.3938192129135132,-0.42409318685531616,0.25564709305763245,0.48090362548828125,-15.4633150100708,46.170711517333984,-31.482023239135742
2.644,-4.041477203369141,-12.92363452911377,1.361515998840332,-0.4193589985370636,0.3194825351238251,0.4631885588169098,-15.697164535522461,45.84916687011719,-31.218942642211914
2.651,-3.9278182983398438,-13.293325424194336,1.612762451171875,-0.4285219609737396,0.3969096839427948,0.43997567892074585,-15.214850425720215,46.097633361816406,-31.379714965820312
2.661,-3.6119656562805176,-13.71805191040039,1.817348837852478,-0.4415028393268585,0.4824308156967163,0.4031710624694824,-15.448699951171875,45.89301300048828,-30.9266300201416
2.671,-3.2949166297912598,-14.137992858886719,1.7216358184814453,-0.446389764547348,0.5613851547241211,0.3920227587223053,-15.244080543518066,45.132999420166016,-29.830459594726562
2.681,-3.0233314037323,-14.668002128601074,1.6319050788879395,-0.4509712755680084,0.6927211284637451,0.3933972120285034,-15.068693161010742,45.235313415527344,-29.830459594726562
2.698,-1.5122638940811157,-15.63589859008789,0.8530412316322327,-0.4063781201839447,0.9593638181686401,0.43188172578811646,-15.375621795654297,44.88453674316406,-30.195850372314453
2.701,-0.9451649785041809,-15.65025520324707,0.5874379277229309,-0.38698312640190125,1.052215337753296,0.4531092941761017,-15.346389770507812,45.24992752075195,-30.400466918945312
2.711,-0.18065811693668365,-15.603595733642578,0.4666004180908203,-0.3637702465057373,1.2137892246246338,0.5236642360687256,-15.477930068969727,44.85530471801758,-29.46506690979004
2.721,0.4618147313594818,-15.544971466064453,0.17587246000766754,-0.36224305629730225,1.3570371866226196,0.5403103232383728,-15.638701438903809,44.548377990722656,-29.26045036315918
2.731,1.293320655822754,-14.662019729614258,0.4402793347835541,-0.3228422701358795,1.5288430452346802,0.555429220199585,-15.945630073547363,44.75299835205078,-29.304296493530273
2.741,2.1367905139923096,-13.7228364944458,0.8590232729911804,-0.24694228172302246,1.7081319093704224,0.5650503635406494,-15.448699951171875,44.21221923828125,-28.120431900024414
2.761,2.2480568885803223,-12.489336967468262,1.2550355195999146,-0.0377209298312664,1.7049248218536377,0.48090362548828125,-16.281789779663086,44.41683578491211,-28.07658576965332
2.765,1.7706886529922485,-12.454641342163086,1.5780664682388306,-0.0138971833512187,1.6626224517822266,0.4576907753944397,-16.340251922607422,44.38760757446289,-28.485822677612305
2.771,0.3613162338733673,-12.673584938049316,1.781456470489502,0.02321287989616394,1.4631749391555786,0.45646902918815613,-15.916398048400879,44.27068328857422,-28.354280471801758
2.781,-2.496910333633423,-14.394023895263672,3.486342430114746,-0.0009162978385575116,0.9702066779136658,0.7226535677909851,-16.04793930053711,44.13914108276367,-28.208127975463867
2.791,-5.1182475090026855,-17.602798461914062,3.9864423274993896,-0.19120082259178162,0.19562958180904388,1.2919800281524658,-15.974861145019531,44.16836929321289,-27.871967315673828
2.801,-6.52044153213501,-19.117456436157227,2.242074728012085,-0.39248090982437134,-0.3182607889175415,1.869247555732727,-15.302543640136719,43.83221435546875,-27.316574096679688
2.819,-17.662620544433594,-17.95932960510254,0.7250252366065979,-0.5858197212219238,-1.1812607049942017,3.3260085582733154,-13.636363983154297,42.896812438964844,-26.68810272216797
2.822,-18.765710830688477,-17.9700984954834,0.7369893193244934,-0.5558873414993286,-1.1940888166427612,3.4468071460723877,-13.007892608642578,42.838348388671875,-26.936567306518555
2.831,-19.886749267578125,-18.004793167114258,1.9501503705978394,-0.4303545355796814,-0.7875579595565796,3.701232433319092,-11.268634796142578,42.6629638671875,-27.389652252197266
2.841,-18.195022583007812,-17.068002700805664,0.6843472719192505,-0.3352122902870178,0.03741549327969551,3.7982072830200195,-9.836304664611816,41.639869689941406,-26.99502944946289
2.851,-16.13001823425293,-15.848860740661621,1.872383713722229,-0.2719877362251282,0.5028948187828064,3.9324450492858887,-8.769365310668945,41.56679153442383,-27.08272361755371
2.861,-13.422537803649902,-15.281761169433594,1.9405790567398071,-0.26282477378845215,0.9586002826690674,3.8397462368011475,-7.556270122528076,40.25138854980469,-28.222742080688477
2.88,-7.542176723480225,-14.22772216796875,2.2372889518737793,-0.2675589621067047,1.158505916595459,3.607006311416626,-5.173925876617432,38.848289489746094,-26.571178436279297
2.884,-6.321837425231934,-13.713266372680664,1.9298113584518433,-0.2756529450416565,1.1204795837402344,3.57875394821167,-5.173925876617432,38.570594787597656,-25.548086166381836
2.891,-4.803591251373291,-12.636495590209961,1.3423734903335571,-0.26633724570274353,0.8823947906494141,3.5159876346588135,-4.881613731384277,37.98596954345703,-26.556564331054688
2.901,-3.170490026473999,-10.898110389709473,0.9990034103393555,-0.1866193264722824,0.445931613445282,3.417027473449707,-3.551593065261841,37.021339416503906,-25.76732063293457
2.911,-2.603391170501709,-9.578468322753906,1.0013961791992188,-0.04413501173257828,0.004581489134579897,3.1954362392425537,-2.4408068656921387,36.61210250854492,-25.88424301147461
2.921,-1.7515461444854736,-8.787640571594238,1.0636096000671387,0.08109235763549805,-0.2747366428375244,2.880993366241455,-0.9353989958763123,36.0274772644043,-25.855012893676758
2.941,0.3086740970611572,-6.642475128173828,1.3950154781341553,0.3378084599971771,-0.32940909266471863,2.088701009750366,0.8184741139411926,34.82899475097656,-26.05963134765625
2.945,1.7168502807617188,-5.904289722442627,1.179661512374878,0.38667771220207214,-0.2370157092809677,1.817171335220337,0.6869336366653442,34.69745635986328,-25.168079376220703
2.951,3.566502094268799,-5.099104881286621,0.9475577473640442,0.4772384762763977,-0.14523321390151978,1.4220943450927734,0.8623209595680237,34.785152435302734,-25.942707061767578
2.961,7.137789726257324,-2.840280294418335,0.2883351147174835,0.6050620079040527,-0.18738290667533875,1.0545060634613037,2.1484947204589844,34.08360290527344,-26.86349105834961
2.971,6.9068827629089355,-0.7728817462921143,-0.1818545162677765,0.70692378282547,-0.4254676401615143,0.7301366925239563,2.1046478748321533,34.60976028442383,-26.147327423095703
2.981,5.970092296600342,0.3517449200153351,0.30149564146995544,0.7860308289527893,-0.6038402915000916,0.18356500566005707,2.5285003185272217,34.989768981933594,-27.024263381958008
2.998,7.383053779602051,-0.16869398951530457,-0.019142581149935722,0.8277223706245422,-0.6831000447273254,-0.8283332586288452,2.616194009780884,35.325927734375,-26.907337188720703
3.001,7.4632134437561035,-0.18065811693668365,-0.24167509377002716,0.8717046976089478,-0.8008443117141724,-1.048092007637024,2.791581392288208,35.895938873291016,-26.644256591796875
3.011,7.630711555480957,-0.5060819387435913,-0.6137589812278748,0.9663887619972229,-1.0801624059677124,-1.5036447048187256,3.0254311561584473,35.57439422607422,-27.535808563232422
3.021,7.674978256225586,-0.19381862878799438,-1.1497513055801392,1.0018190145492554,-1.4563027620315552,-1.918116807937622,2.002338409423828,37.021339416503906,-27.594270706176758
3.031,6.32542610168457,0.7992027401924133,-1.4105688333511353,1.0671815872192383,-2.059684991836548,-2.2678372859954834,1.6661795377731323,38.04443359375,-27.55042266845703
3.041,4.3310089111328125,-0.34695929288864136,-0.332602322101593,1.035416603088379,-2.4355196952819824,-2.66367769241333,1.7684887647628784,38.71674728393555,-28.99736976623535
3.06,-0.6317051649093628,-1.0671988725662231,0.47976091504096985,0.9042332768440247,-2.478585720062256,-3.0770809650421143,0.6577024459838867,40.71908950805664,-29.991230010986328
3.064,-2.218146562576294,-0.7501499056816101,1.1006983518600464,0.8721628189086914,-2.411543130874634,-3.1981847286224365,0.7015492916107178,40.71908950805664,-31.379714965820312
3.071,-2.6560330390930176,-0.787238597869873,1.3950154781341553,0.7889324426651001,-2.188271999359131,-3.3884694576263428,-0.39462143182754517,41.683719635009766,-31.730487823486328
3.081,-3.6394829750061035,-1.4021941423416138,1.6905291080474854,0.7231117486953735,-1.940260648727417,-3.4495561122894287,-1.1838643550872803,43.21835708618164,-31.730487823486328
3.091,-5.326422691345215,-1.86520516872406,1.887937068939209,0.6641632318496704,-1.6662876605987549,-3.4956765174865723,-1.344636082649231,43.978370666503906,-32.56357955932617
3.101,-6.850651264190674,-1.769492268562317,1.8448662757873535,0.569631814956665,-1.3300063610076904,-3.4553589820861816,-2.4846534729003906,44.84069061279297,-32.91435241699219
3.121,-10.664810180664062,-1.920240044593811,1.710868239402771,0.4473060667514801,-0.8269587755203247,-3.2681291103363037,-4.823151111602783,46.170711517333984,-33.89359664916992
3.125,-10.900503158569336,-1.932204246520996,1.5409777164459229,0.42898011207580566,-0.7539604306221008,-3.22674298286438,-5.188541412353516,46.901493072509766,-34.127445220947266
3.131,-11.286943435668945,-1.8161523342132568,1.2215359210968018,0.3859141170978546,-0.5511531829833984,-3.0860912799835205,-5.743934631347656,46.95995330810547,-34.44898986816406
3.141,-11.279766082763672,-1.5804593563079834,0.882951557636261,0.3338378667831421,-0.3604104816913605,-2.8626673221588135,-6.723180294036865,47.500728607177734,-34.65361022949219
3.151,-12.037094116210938,-1.31365966796875,1.0456634759902954,0.33078351616859436,-0.37048977613449097,-2.5144741535186768,-8.053200721740723,47.99766159057617,-34.49283981323242
3.161,-15.718451499938965,-2.809173583984375,1.9824535846710205,0.2802344262599945,-0.16401731967926025,-2.21056866645813,-9.0762939453125,48.1584358215332,-35.41362380981445
3.18,-16.089338302612305,-2.3306093215942383,1.8855441808700562,0.1333213448524475,0.7499897480010986,-1.5919147729873657,-10.45016098022461,49.00613784790039,-35.296695709228516
3.184,-14.861821174621582,-1.8616158962249756,1.3854442834854126,0.12980885803699493,0.7843509316444397,-1.4950926303863525,-11.137094497680664,48.74305725097656,-34.49283981323242
3.191,-13.59362506866455,-2.0961124897003174,0.8614161610603333,0.1443169116973877,0.7728971838951111,-1.1989758014678955,-11.122478485107422,48.72844314575195,-34.916690826416016
3.201,-13.03490161895752,-3.996013641357422,0.5718846321105957,0.06979135423898697,0.6495024561882019,-0.6673702597618103,-11.487869262695312,48.976905822753906,-35.04823303222656
3.211,-13.598410606384277,-5.394618511199951,-0.259621262550354,-0.053297992795705795,0.4763221740722656,-0.24663683772087097,-11.721718788146973,49.576148986816406,-34.741302490234375
3.221,-13.228718757629395,-5.765506267547607,-1.042074203491211,-0.22678370773792267,0.33337968587875366,0.09773843735456467,-12.467114448547363,49.283836364746094,-34.44898986816406
3.242,-14.635699272155762,-3.3619158267974854,4.2209391593933105,0.07406741380691528,-0.8394815921783447,0.9518807530403137,-11.809412002563477,49.020755767822266,-34.755916595458984
3.245,-16.627723693847656,-9.002994537353516,5.772684574127197,-0.019547687843441963,-0.839786946773529,0.957531213760376,-11.575562477111816,48.55305480957031,-34.712074279785156
3.251,-15.887145042419434,-13.696516036987305,5.6339006423950195,-0.15515977144241333,-0.2968805134296417,0.9228646755218506,-11.356328010559082,48.31920623779297,-34.21514129638672
3.261,-9.617950439453125,-14.770894050598145,4.068994522094727,-0.184939444065094,0.21074850857257843,0.8637634515762329,-11.502485275268555,48.041507720947266,-34.902076721191406
3.271,4.4997029304504395,-12.617353439331055,4.193421840667725,-0.182648703455925,0.36529740691185,0.3214678466320038,-10.786319732666016,48.23151397705078,-34.712074279785156
3.281,5.952146053314209,-12.002398490905762,6.113661289215088,-0.08888089656829834,0.16264288127422333,0.6053674817085266,-10.596317291259766,48.55305480957031,-34.43437576293945
3.3,-9.759126663208008,-9.986444473266602,4.278366565704346,0.1365283876657486,-0.005955935921519995,0.45433101058006287,-9.953229904174805,47.8807373046875,-34.551300048828125
3.303,-10.131211280822754,-9.013762474060059,4.274777412414551,0.16982053220272064,0.14309518039226532,0.42867469787597656,-9.660917282104492,47.89535140991211,-34.69745635986328
3.311,-8.785247802734375,-8.26121997833252,2.7661027908325195,0.21945331990718842,0.6553056836128235,0.30604347586631775,-9.73399543762207,47.64688491821289,-34.551300048828125
3.321,-4.9184465408325195,-6.550351619720459,-0.12203395366668701,0.3126102685928345,0.7968736886978149,0.21624629199504852,-9.997076988220215,47.61765670776367,-34.40514373779297
3.331,-4.6193437576293945,-5.6446685791015625,-0.6137589812278748,0.3732386529445648,0.6843218207359314,0.17852537333965302,-9.967845916748047,47.296112060546875,-33.572052001953125
3.341,-7.5912299156188965,-5.435296535491943,-1.2406784296035767,0.41401392221450806,0.5250386595726013,0.2431243658065796,-9.529377937316895,47.529964447021484,-34.551300048828125
3.36,-8.01356315612793,-7.801797866821289,-2.148754596710205,0.2970332205295563,0.6786712408065796,0.09605855494737625,-9.514761924743652,47.51534652709961,-35.15053939819336
3.364,-7.074379920959473,-8.535198211669922,-1.3758729696273804,0.25763240456581116,0.6908885836601257,0.05497787147760391,-9.397836685180664,47.69073486328125,-35.39900588989258
3.371,-3.3200414180755615,-13.225130081176758,2.8378875255584717,0.21441368758678436,0.5181664228439331,0.06719517707824707,-9.54399299621582,48.2607421875,-35.67670440673828
3.381,-2.750549554824829,-15.830914497375488,5.37069034576416,0.18585574626922607,0.24098633229732513,0.10033462196588516,-9.470914840698242,47.8807373046875,-35.325927734375
3.392,-5.0009989738464355,-11.453245162963867,4.1347975730896,0.14844025671482086,0.20143280923366547,0.07254024595022202,-10.377082824707031,48.494590759277344,-35.23823165893555
3.401,-6.539583683013916,-6.396015167236328,1.7718851566314697,0.11759155988693237,0.22510384023189545,-0.01817324012517929,-9.850920677185059,48.12919998168945,-34.56591796875
3.421,-6.214160442352295,-8.061419486999512,2.9599215984344482,-0.036193765699863434,0.14828753471374512,-0.25045475363731384,-9.8655366897583,48.55305480957031,-35.58900833129883
3.425,-5.461617469787598,-9.206384658813477,3.728017568588257,-0.05009094625711441,0.146913081407547,-0.27382034063339233,-9.923998832702637,47.80765914916992,-35.311309814453125
3.431,-4.098905086517334,-9.726823806762695,4.005584716796875,-0.08032877743244171,0.12339477986097336,-0.3245221674442291,-9.836304664611816,48.36305236816406,-34.65361022949219
3.441,-4.013959884643555,-8.652446746826172,3.5018956661224365,-0.07040221989154816,0.03436116874217987,-0.3481931984424591,-10.654779434204102,47.98304748535156,-34.93130874633789
3.451,-5.831308364868164,-8.374878883361816,2.3952155113220215,-0.07223481684923172,-0.01313360221683979,-0.39507707953453064,-10.654779434204102,48.78690719604492,-35.06284713745117
3.461,-6.382853984832764,-8.416753768920898,1.9058831930160522,-0.09987646341323853,0.0377209298312664,-0.49953505396842957,-10.523239135742188,49.12306213378906,-34.726688385009766
3.481,-5.2283172607421875,-8.799604415893555,1.820937991142273,-0.11301006376743317,-0.030543262138962746,-0.6117815375328064,-10.91786003112793,48.494590759277344,-34.96053695678711
3.485,-5.3276190757751465,-9.140582084655762,2.5495524406433105,-0.10476338863372803,-0.038179077208042145,-0.616973876953125,-10.888628959655762,48.6407470703125,-34.31745147705078
3.491,-5.130211353302002,-9.016155242919922,2.149951219558716,-0.09239336103200912,-0.014813481830060482,-0.6603453159332275,-11.224788665771484,48.43613052368164,-34.799766540527344
3.501,-5.254638671875,-8.927620887756348,2.386840581893921,-0.1114829033613205,-0.01572977937757969,-0.721737265586853,-11.56094741821289,48.50920867919922,-33.77667236328125
3.511,-5.190032482147217,-8.751748085021973,1.8903299570083618,-0.11575896292924881,-0.02474004216492176,-0.8069530129432678,-12.496346473693848,48.421512603759766,-34.58053207397461
3.521,-5.400600433349609,-9.065208435058594,1.727617859840393,-0.13439035415649414,-0.007177666295319796,-0.8613199591636658,-12.335575103759766,48.75767135620117,-34.361297607421875
3.541,-4.839483737945557,-8.798408508300781,2.2636101245880127,-0.15057827532291412,-0.005803219974040985,-0.9717338681221008,-13.44636058807373,48.90382766723633,-34.2882194519043
3.544,-4.634897232055664,-8.577072143554688,2.5914268493652344,-0.15332716703414917,-0.008399397134780884,-0.9848674535751343,-13.139432907104492,49.049983978271484,-33.67436599731445
3.551,-4.744967460632324,-8.475377082824707,3.174079179763794,-0.18631389737129211,-0.021380282938480377,-1.0224356651306152,-13.329436302185059,49.32768249511719,-34.30283737182617
3.561,-4.749752521514893,-8.601000785827637,2.7601208686828613,-0.23625212907791138,-0.036193765699863434,-1.1062768697738647,-14.381760597229004,49.035369873046875,-33.981292724609375
3.571,-4.590630054473877,-8.933603286743164,2.550748825073242,-0.2713768780231476,-0.02428189292550087,-1.160185694694519,-14.761765480041504,49.50307083129883,-34.08360290527344
3.581,-4.147957801818848,-9.489934921264648,2.3018951416015625,-0.3020728826522827,-0.017562376335263252,-1.2041680812835693,-15.112540245056152,49.18152618408203,-33.5282096862793
3.601,-2.7074787616729736,-9.388238906860352,3.1585259437561035,-0.44318273663520813,-0.06551529467105865,-1.233795166015625,-15.989476203918457,49.07921600341797,-33.425899505615234
3.604,-2.5363919734954834,-9.280562400817871,3.1405797004699707,-0.4534147381782532,-0.12476921826601028,-1.233642339706421,-15.989476203918457,49.26921844482422,-33.820518493652344
3.611,-2.4873390197753906,-8.798408508300781,2.8211376667022705,-0.4499022364616394,-0.18936823308467865,-1.2316570281982422,-16.35486602783203,49.605377197265625,-33.2651252746582
3.621,-3.1453652381896973,-8.541180610656738,2.2983059883117676,-0.4356996417045593,-0.322536826133728,-1.229824423789978,-16.574100494384766,48.8599853515625,-33.22127914428711
3.631,-3.689732551574707,-8.790033340454102,1.753938913345337,-0.430965393781662,-0.3263547420501709,-1.226922869682312,-17.553346633911133,49.225372314453125,-32.812042236328125
3.641,-3.1788647174835205,-9.364311218261719,2.1296122074127197,-0.43478330969810486,-0.2701551616191864,-1.1826351881027222,-18.050277709960938,49.225372314453125,-32.53434753417969
3.66,-2.2911276817321777,-9.738787651062012,2.14516544342041,-0.3851505219936371,-0.22937989234924316,-1.0943650007247925,-19.17568016052246,50.02922821044922,-31.6281795501709
3.664,-1.25862455368042,-9.098708152770996,2.4765713214874268,-0.3568980097770691,-0.27901268005371094,-1.080315113067627,-19.380298614501953,49.88307571411133,-31.45279312133789
3.671,-1.2203395366668701,-8.433503150939941,2.3533408641815186,-0.294895201921463,-0.3514002561569214,-1.049619197845459,-19.614147186279297,49.605377197265625,-32.25665283203125
3.681,-2.4370899200439453,-7.314858913421631,2.115255117416382,-0.20082195103168488,-0.42409318685531616,-1.0280861854553223,-19.74568748474121,49.25460433959961,-31.847414016723633
3.691,-3.69930362701416,-7.462017059326172,1.0612168312072754,-0.15882496535778046,-0.43829578161239624,-0.9911288022994995,-20.549545288085938,49.70768737792969,-31.686643600463867
3.701,-3.9864423274993896,-8.333003997802734,1.0336993932724,-0.16829337179660797,-0.23640485107898712,-0.9350818991661072,-20.30108070373535,49.6199951171875,-31.6281795501709
3.72,-0.9595218300819397,-8.926424980163574,1.101894736289978,-0.1511891484260559,0.07467827200889587,-0.7716754674911499,-20.520315170288086,49.91230773925781,-30.882781982421875
3.724,-0.04785645380616188,-8.861818313598633,1.3351950645446777,-0.12980885803699493,0.0633772686123848,-0.7079927921295166,-20.958784103393555,49.70768737792969,-31.64279556274414
3.731,0.891326367855072,-8.947959899902344,1.56969153881073,-0.12079859524965286,-0.03145955875515938,-0.603076696395874,-21.48494529724121,49.239986419677734,-31.218942642211914
3.741,1.1581261157989502,-9.043672561645508,1.5936198234558105,-0.08399397134780884,-0.2678644061088562,-0.4567744731903076,-21.499561309814453,50.0584602355957,-30.590471267700195
3.751,0.10887342691421509,-9.30209732055664,1.9920247793197632,-0.06750060617923737,-0.4980078935623169,-0.3150537610054016,-21.499561309814453,49.795379638671875,-31.233558654785156
3.761,-1.0289136171340942,-9.55095100402832,2.108076810836792,-0.04841107130050659,-0.7250970005989075,-0.21899518370628357,-21.4703311920166,49.50307083129883,-30.42970085144043
3.781,-1.1449655294418335,-10.447062492370605,2.93001127243042,-0.03588833287358284,-1.0111346244812012,-0.2509129047393799,-21.733409881591797,49.88307571411133,-30.57585334777832
3.785,0.07657032459974289,-9.625128746032715,1.8029918670654297,0.0019853119738399982,-0.9375254511833191,-0.33857205510139465,-21.76264190673828,49.97077178955078,-30.780473709106445
3.791,-0.778863787651062,-8.738588333129883,2.183450698852539,-0.009926560334861279,-0.9187412858009338,0.032070424407720566,-21.704179763793945,50.0584602355957,-31.20432472229004
3.801,-2.592623233795166,-8.049454689025879,1.8065810203552246,-0.05375614017248154,-0.7005097270011902,0.16401731967926025,-21.499561309814453,49.69307327270508,-31.248172760009766
3.811,-2.1188442707061768,-9.125028610229492,1.7563318014144897,-0.06414084881544113,-0.46334129571914673,0.26893341541290283,-21.499561309814453,49.63460922241211,-31.175094604492188
3.821,-1.6390833854675293,-10.85145092010498,2.149951219558716,-0.146913081407547,-0.27901268005371094,0.45753806829452515,-21.4703311920166,49.91230773925781,-31.262788772583008
3.841,-0.28594231605529785,-10.707880973815918,1.9286149740219116,-0.09697485715150833,-0.20494529604911804,0.6757696866989136,-21.00263023376465,49.51768493652344,-30.722009658813477
3.845,-0.3852444291114807,-9.711270332336426,1.88075852394104,-0.07727444916963577,-0.20784689486026764,0.6992879509925842,-20.578777313232422,49.54691696166992,-31.10201644897461
3.851,-1.432104229927063,-9.192028045654297,1.7838492393493652,-0.05345070734620094,-0.22892174124717712,0.751669704914093,-20.198772430419922,49.035369873046875,-30.9266300201416
3.861,-3.2853453159332275,-9.148957252502441,1.7084753513336182,-0.06765332818031311,-0.25305092334747314,0.8087855577468872,-19.760305404663086,49.35691452026367,-31.262788772583008
3.871,-3.713660717010498,-9.462416648864746,1.820937991142273,-0.09498954564332962,-0.14156801998615265,0.8184067010879517,-19.701841354370117,49.649227142333984,-31.014324188232422
3.881,-3.3296124935150146,-9.969695091247559,1.5876377820968628,-0.1189659982919693,-0.0032070425804704428,0.829707682132721,-19.05875587463379,49.06460189819336,-30.34200668334961
3.901,-2.420340061187744,-9.69810962677002,2.139183282852173,-0.023060161620378494,0.2370157092809677,0.8301658034324646,-18.72259521484375,48.845367431640625,-29.596609115600586
3.904,-2.5124638080596924,-9.500701904296875,1.9597216844558716,-0.024587325751781464,0.23197607696056366,0.8298604488372803,-18.16720199584961,49.12306213378906,-31.072786331176758
3.911,-2.9862425327301025,-9.376275062561035,2.1930220127105713,-0.04886921867728233,0.24342979490756989,0.8190175890922546,-17.860275268554688,49.15229415893555,-30.780473709106445
3.921,-3.3092734813690186,-9.20279598236084,1.5050853490829468,-0.07895433157682419,0.17119498550891876,0.7959573864936829,-17.90412139892578,48.45074462890625,-30.210464477539062
3.931,-3.847658634185791,-10.307083129882812,1.4811570644378662,-0.19654588401317596,0.16859880089759827,0.7367034554481506,-17.465654373168945,49.00613784790039,-30.02046012878418
3.941,-3.69930362701416,-11.029715538024902,1.781456470489502,-0.20723602175712585,0.30772337317466736,0.6983716487884521,-17.173341751098633,49.210758209228516,-30.254310607910156
3.961,-3.3714869022369385,-10.484152793884277,1.7898313999176025,-0.19868391752243042,0.40454548597335815,0.6469062566757202,-17.24641990661621,48.81613540649414,-30.137386322021484
3.965,-3.2470602989196777,-10.409974098205566,1.8963117599487305,-0.3599523603916168,0.2243402600288391,0.4882340133190155,-17.100261688232422,48.81613540649414,-30.152002334594727
3.971,-3.504288673400879,-10.448260307312012,1.7024933099746704,-0.39614611864089966,0.14553864300251007,0.4528038501739502,-16.720256805419922,48.5822868347168,-29.87430763244629
3.981,-4.595416069030762,-11.041679382324219,1.8867405652999878,-0.48456883430480957,0.10797043144702911,0.35735616087913513,-16.515640258789062,48.669979095458984,-29.655071258544922
3.991,-5.138586521148682,-12.161520957946777,1.4009976387023926,-0.5386304259300232,0.2292271852493286,0.2996293902397156,-16.70564079284668,48.5384407043457,-29.055830001831055
4.001,-4.765305995941162,-12.848259925842285,1.6354942321777344,-0.4957171380519867,0.43508875370025635,0.22372940182685852,-16.9541072845459,48.8599853515625,-28.851213455200195
4.02,-4.265206336975098,-13.435699462890625,1.5493526458740234,-0.41630467772483826,0.7373143434524536,0.12370020896196365,-16.384098052978516,48.494590759277344,-28.222742080688477
4.024,-3.9457645416259766,-13.688141822814941,1.5182459354400635,-0.3585779070854187,0.8709411025047302,0.0835358202457428,-16.442562103271484,47.9391975402832,-27.871967315673828
4.031,-3.5365920066833496,-14.23011589050293,2.9312076568603516,-0.3588833212852478,1.0546588897705078,0.052381694316864014,-17.129493713378906,48.17304992675781,-28.105815887451172
4.041,-3.6921253204345703,-15.621541976928711,1.9082759618759155,-0.3885102868080139,1.2460123300552368,0.04444044828414917,-16.6325626373291,47.82227325439453,-27.842735290527344
4.051,-3.838087320327759,-15.89193058013916,1.7850456237792969,-0.38316524028778076,1.5221234560012817,0.03145955875515938,-17.451038360595703,48.655364990234375,-27.652734756469727
4.061,-3.0005996227264404,-15.933805465698242,1.0959126949310303,-0.3735440969467163,1.8600845336914062,-0.011301006190478802,-17.72873306274414,47.71996307373047,-27.652734756469727
4.081,-1.9154545068740845,-16.098909378051758,0.7561319470405579,-0.34926217794418335,2.1145100593566895,-0.02076941914856434,-18.89798355102539,48.24612808227539,-27.15580177307129
4.084,0.20338991284370422,-16.21137237548828,0.5180460810661316,-0.2770273983478546,2.370309829711914,-0.015118913725018501,-18.678749084472656,48.14381790161133,-26.658872604370117
4.091,1.5098711252212524,-15.55693531036377,-0.3086740970611572,-0.21380282938480377,2.4779746532440186,0.006719517521560192,-19.00029182434082,47.96842956542969,-25.913476943969727
4.101,2.7314069271087646,-14.861821174621582,0.4893321990966797,-0.16508632898330688,2.4164299964904785,0.02428189292550087,-19.394912719726562,48.01227569580078,-25.84039878845215
4.111,4.443471431732178,-13.617552757263184,0.6125625967979431,-0.168751522898674,2.2937989234924316,0.025656340643763542,-19.935691833496094,47.96842956542969,-26.49810028076172
4.121,5.789434432983398,-13.49073314666748,1.038485050201416,-0.1693623811006546,1.9607245922088623,0.04948008432984352,-20.344928741455078,48.099971771240234,-25.036537170410156
4.142,6.809973239898682,-15.549757957458496,4.059423446655273,-0.33078351616859436,0.8758280277252197,0.2422080636024475,-20.681087493896484,47.8807373046875,-25.387313842773438
4.146,4.074976921081543,-18.897315979003906,5.381457805633545,-0.8181012272834778,-1.158505916595459,1.330159068107605,-20.35954475402832,48.14381790161133,-24.919614791870117
4.152,-0.5503491759300232,-18.616159439086914,5.337190628051758,-0.8245153427124023,-1.9004018306732178,1.7595973014831543,-19.891843795776367,48.18766403198242,-24.75884246826172
4.161,-7.311269283294678,-17.639888763427734,5.300102233886719,-0.7851145267486572,-2.836247444152832,2.4408648014068604,-18.43028450012207,47.26688003540039,-24.524991989135742
4.171,-14.555540084838867,-17.164913177490234,4.916053771972656,-0.8037459254264832,-3.17970609664917,3.216205358505249,-16.07716941833496,47.310726165771484,-23.66267204284668
4.181,-18.215362548828125,-17.142181396484375,4.502095699310303,-0.6130033135414124,-3.149010419845581,4.212984561920166,-13.621747970581055,45.64455032348633,-23.77959632873535
4.201,-22.863418579101562,-19.156936645507812,5.411368370056152,-0.4231768846511841,-1.93598473072052,5.002528190612793,-8.184741020202637,44.4022216796875,-24.2911434173584
4.204,-21.82015037536621,-20.353349685668945,5.36351203918457,-0.3900374472141266,-1.31748366355896,4.995350360870361,-7.497807502746582,43.77375030517578,-23.735750198364258
4.211,-19.066009521484375,-19.68814468383789,4.145565032958984,-0.337503045797348,-0.3966042399406433,4.898222923278809,-6.971645355224609,43.78836441040039,-24.2911434173584
4.221,-14.392827987670898,-17.846866607666016,3.425325632095337,-0.2687807083129883,0.5612324476242065,4.780478477478027,-4.296989440917969,42.3414192199707,-22.771120071411133
4.231,-10.394421577453613,-16.613367080688477,3.005384922027588,-0.2652682065963745,1.1476629972457886,4.690681457519531,-2.893890619277954,41.157554626464844,-22.332651138305664
4.241,-7.820940971374512,-16.054643630981445,2.612962245941162,-0.31184670329093933,1.2889256477355957,4.508491039276123,-1.5638701915740967,40.1636962890625,-22.09880256652832
4.261,-5.648257732391357,-14.167901992797852,1.5038889646530151,-0.31093040108680725,1.3135130405426025,4.4119744300842285,0.7307804822921753,37.73750305175781,-21.19263458251953
4.265,-3.442075490951538,-11.386245727539062,0.7980062961578369,-0.17821994423866272,1.0853548049926758,4.04881477355957,0.9938614368438721,37.34288024902344,-20.798011779785156
4.271,-1.330409288406372,-9.805787086486816,1.2406784296035767,-0.06291911751031876,0.973566472530365,3.6757287979125977,1.6954107284545898,36.88979721069336,-19.979537963867188
4.281,1.9968103170394897,-7.810173034667969,1.4955140352249146,0.07513642311096191,0.9127854108810425,3.1227431297302246,2.660040855407715,35.77901077270508,-20.549545288085938
4.291,4.457828521728516,-6.050251483917236,1.1880364418029785,0.21410825848579407,0.8802568316459656,2.4947736263275146,3.0692780017852783,34.77053451538086,-19.950305938720703
4.301,5.803791522979736,-3.8775689601898193,0.6125625967979431,0.24846942722797394,0.9740245938301086,2.0839667320251465,3.3908214569091797,34.6682243347168,-19.701841354370117
4.32,6.981059551239014,-1.5254243612289429,-0.436690092086792,0.46074509620666504,0.9080511927604675,1.042594313621521,3.595440149307251,33.27974319458008,-19.45337677001953
4.324,9.221938133239746,1.31365966796875,-0.5000999569892883,0.49327367544174194,0.8407033085823059,0.902247965335846,4.238526821136475,32.82666015625,-19.102602005004883
4.331,11.02014446258545,2.286341905593872,-0.6915256977081299,0.587652325630188,0.5119050741195679,0.44318273663520813,4.06313943862915,32.943580627441406,-19.16106414794922
4.341,12.713067054748535,2.183450698852539,-0.6867400407791138,0.750142514705658,-0.3176499307155609,-0.284052312374115,3.683133363723755,33.01666259765625,-20.08184814453125
4.351,12.806386947631836,0.3002992272377014,-0.8219345808029175,0.8445212244987488,-0.8648324608802795,-0.7893905639648438,4.3262200355529785,33.10435485839844,-19.146448135375977
4.361,11.794222831726074,-0.6269195079803467,-0.7525426745414734,1.0140362977981567,-1.4234685897827148,-1.2424999475479126,4.1508331298828125,33.981292724609375,-20.65185546875
4.381,7.785048007965088,-0.47976091504096985,-0.18305093050003052,1.1244500875473022,-1.9995146989822388,-1.592678427696228,4.1800642013549805,34.31745147705078,-22.47880744934082
4.384,4.453042984008789,0.6508477926254272,-1.3028918504714966,1.1386528015136719,-2.2563834190368652,-2.3128886222839355,4.340836048126221,34.726688385009766,-23.28266716003418
4.391,4.092923164367676,0.937986433506012,-0.9128617644309998,1.144303321838379,-2.394744634628296,-2.610685348510742,4.530838966369629,35.311309814453125,-23.50189971923828
4.401,3.0388846397399902,-2.025524377822876,0.7118647694587708,1.0248790979385376,-2.4179575443267822,-2.8929049968719482,4.457760810852051,35.910552978515625,-25.065771102905273
4.411,1.798206090927124,-3.13938307762146,0.7836494445800781,0.9425650835037231,-2.236224889755249,-3.010038375854492,3.639286756515503,36.93364715576172,-26.220401763916016
4.421,-1.1437692642211914,-0.9308079481124878,1.1928220987319946,0.9934195876121521,-2.4181101322174072,-3.0940322875976562,3.3762056827545166,38.00058364868164,-27.740427017211914
4.441,-4.326223373413086,-0.12801600992679596,2.122433662414551,0.9954048991203308,-2.4048237800598145,-3.2756121158599854,2.2069568634033203,39.47676086425781,-30.298158645629883
4.444,-5.698506832122803,-3.080759048461914,2.8977081775665283,0.8781187534332275,-1.7218763828277588,-3.4164164066314697,1.856182336807251,40.03215408325195,-30.63431739807129
4.451,-7.791029930114746,-2.359323024749756,2.513659954071045,0.8319984078407288,-1.4657710790634155,-3.3870949745178223,1.388482928276062,39.91522979736328,-31.613563537597656
4.461,-9.754341125488281,-0.4821537435054779,2.0721843242645264,0.7938193678855896,-1.1386528015136719,-3.4048101902008057,0.2776965796947479,40.8652458190918,-32.28588104248047
4.471,-10.12881851196289,-0.6017948985099792,1.9932211637496948,0.7241807579994202,-0.781754732131958,-3.349679470062256,-1.0669395923614502,41.946800231933594,-32.75358200073242
4.481,-11.893524169921875,-1.3483555316925049,1.5840485095977783,0.664315938949585,-0.47540587186813354,-3.1974213123321533,-1.7538732290267944,42.312191009521484,-33.83513641357422
4.501,-13.5361967086792,-1.3028918504714966,0.9128617644309998,0.5177083015441895,0.0858265683054924,-2.766303062438965,-4.516223430633545,43.496055603027344,-34.2443733215332
4.505,-14.23011589050293,-1.3196415901184082,0.6436693072319031,0.48426342010498047,0.18188512325286865,-2.6264150142669678,-4.750072956085205,43.59836196899414,-34.47822189331055
4.511,-13.922637939453125,-1.9441683292388916,0.48693937063217163,0.4237877428531647,0.31383201479911804,-2.384512424468994,-5.217772483825684,43.65682601928711,-35.25284957885742
4.521,-14.115260124206543,-2.3389840126037598,0.31824538111686707,0.35521814227104187,0.43799036741256714,-1.979508876800537,-6.153171539306641,44.256065368652344,-35.51593017578125
4.531,-14.595022201538086,-2.4526431560516357,0.06939185410737991,0.2678644061088562,0.5375614166259766,-1.5946637392044067,-7.512423515319824,44.32914352416992,-35.44285202026367
4.541,-14.824732780456543,-2.702692985534668,0.22612173855304718,0.18845191597938538,0.5377141237258911,-1.1956160068511963,-7.892428874969482,44.562992095947266,-35.39900588989258
4.561,-15.483955383300781,-3.06999135017395,-0.24167509377002716,0.08338310569524765,0.46593746542930603,-0.7483099102973938,-8.623209953308105,44.82607650756836,-35.895938873291016
4.565,-12.874582290649414,-4.2245283126831055,-0.017946168780326843,-0.021074850112199783,0.3321579694747925,-0.3119994103908539,-9.134756088256836,45.26454162597656,-35.852088928222656
4.571,-11.972487449645996,-3.751945734024048,-0.39481574296951294,-0.07528913766145706,0.1875356286764145,-0.04153883829712868,-8.813212394714355,45.162235260009766,-35.42823791503906
4.581,-12.252447128295898,-1.093519926071167,0.7238287925720215,0.0377209298312664,-0.1336267739534378,0.33735033869743347,-8.71090316772461,44.811458587646484,-34.726688385009766
4.591,-16.132410049438477,-4.139583110809326,3.8775689601898193,0.2324342280626297,-0.5503895878791809,0.7440338730812073,-8.75475025177002,44.75299835205078,-35.80824279785156
4.601,-15.145371437072754,-10.920842170715332,5.38624382019043,0.09468411654233932,-0.0832303911447525,0.8361217975616455,-8.287050247192383,44.72376251220703,-36.21747970581055
4.62,-5.905486106872559,-11.726027488708496,4.862215518951416,0.13988813757896423,0.5012149214744568,0.3649919927120209,-8.257820129394531,44.88453674316406,-36.21747970581055
4.624,7.600800514221191,-9.728019714355469,5.367100715637207,0.1976149082183838,0.5740606188774109,0.14034628868103027,-8.023969650268555,44.606842041015625,-35.44285202026367
4.631,10.036694526672363,-9.20279598236084,6.203392505645752,0.2768746614456177,0.44348815083503723,0.2422080636024475,-8.374743461608887,44.47529983520508,-35.720550537109375
4.641,-0.13160523772239685,-12.313465118408203,8.134400367736816,0.3260492980480194,-0.36392295360565186,0.403323769569397,-8.330897331237793,44.446067810058594,-36.20286560058594
4.651,-10.430314064025879,-11.808579444885254,6.296712398529053,0.4184426963329315,-0.3784310221672058,0.21410825848579407,-8.082432746887207,44.928382873535156,-35.74978256225586
4.661,-19.53021812438965,-8.900103569030762,2.8247268199920654,0.38209620118141174,0.5882632732391357,0.23716843128204346,-7.863198280334473,45.35223388671875,-36.01285934448242
4.682,-16.311870574951172,-10.313065528869629,-2.968296527862549,0.2522873282432556,1.4275920391082764,-0.11698068678379059,-8.330897331237793,45.01607894897461,-35.77901077270508
4.687,-5.124229431152344,-14.054243087768555,-9.90867805480957,-0.3017674386501312,1.637576937675476,-0.2376265674829483,-8.842443466186523,45.191463470458984,-36.115169525146484
4.691,0.4749752879142761,-13.362717628479004,-9.940980911254883,-0.43478330969810486,1.3607022762298584,-0.26114487648010254,-8.886290550231934,44.79684066772461,-36.30517578125
4.701,6.124429225921631,-11.886346817016602,-1.7670994997024536,-0.5100724697113037,-0.13347405195236206,0.07131851464509964,-9.017830848693848,44.70914840698242,-36.30517578125
4.711,-3.775874137878418,-9.753144264221191,6.573083400726318,-0.4398229718208313,-0.9952521920204163,0.355981707572937,-8.608593940734863,44.86991882324219,-35.6036262512207
4.721,-12.744173049926758,-7.354340076446533,7.721638202667236,-0.28588491678237915,-0.432034432888031,0.21853703260421753,-8.170125961303711,44.41683578491211,-35.559776306152344
4.741,-10.693524360656738,-7.532605171203613,3.9050865173339844,-0.16249015927314758,0.5224425196647644,-0.10903944075107574,-8.418591499328613,44.38760757446289,-35.23823165893555
4.745,-4.05703067779541,-6.987041473388672,0.1782652735710144,-0.08781187981367111,0.608421802520752,-0.2542726695537567,-8.389359474182129,44.41683578491211,-35.50131607055664
4.751,-4.107280254364014,-7.4632134437561035,0.18903298676013947,-0.05772676318883896,0.37033703923225403,-0.2741257846355438,-8.769365310668945,44.65068435668945,-35.545162200927734
4.761,-4.6301116943359375,-9.499505043029785,1.0205388069152832,-0.01038470957428217,0.2321287989616394,-0.2967277765274048,-8.79859733581543,44.50453186035156,-35.04823303222656
4.771,-5.501099109649658,-10.248458862304688,1.9501503705978394,0.02672535367310047,0.05955936014652252,-0.4251622259616852,-8.579362869262695,45.01607894897461,-34.69745635986328
4.781,-5.989234924316406,-9.212367057800293,1.5445669889450073,0.07483098655939102,0.005497787147760391,-0.5175555348396301,-8.871675491333008,45.24992752075195,-34.49283981323242
4.8,-5.675775051116943,-7.696513652801514,1.6689937114715576,0.1267545372247696,0.023365594446659088,-0.6495024561882019,-9.923998832702637,44.91376876831055,-34.81438064575195
4.804,-5.245067119598389,-8.197810173034668,2.2301106452941895,0.13179416954517365,-0.008246680721640587,-0.6717990040779114,-9.660917282104492,44.85530471801758,-34.09821701049805
4.811,-6.16989278793335,-8.915657043457031,1.9836498498916626,0.1264491081237793,0.00015271631127689034,-0.7263187766075134,-9.880152702331543,45.0599250793457,-34.785152435302734
4.821,-6.193820953369141,-8.72064208984375,2.1439690589904785,0.14004085958003998,0.13377948105335236,-0.8042040467262268,-9.982461929321289,45.60070037841797,-34.755916595458984
4.831,-5.245067119598389,-8.159524917602539,2.313859462738037,0.15302173793315887,0.21288654208183289,-0.8585711121559143,-10.420929908752441,45.39608383178711,-34.65361022949219
4.841,-5.119443893432617,-8.702695846557617,2.3258235454559326,0.12782354652881622,0.2197587788105011,-0.8874344229698181,-11.283249855041504,45.615318298339844,-35.559776306152344
4.861,-4.845465660095215,-9.121438980102539,2.124826431274414,0.10262536257505417,0.23747386038303375,-0.9306531548500061,-11.590178489685059,45.51300811767578,-34.87284469604492
4.865,-4.719842433929443,-8.671588897705078,2.754138708114624,0.04932736977934837,0.15164729952812195,-0.9847147464752197,-11.882491111755371,45.93686294555664,-34.49283981323242
4.871,-4.989035129547119,-8.724230766296387,2.68953275680542,0.019089538604021072,0.11972958594560623,-1.0346529483795166,-12.730195999145508,46.02455520629883,-34.200523376464844
4.881,-5.072783946990967,-8.718249320983887,3.014956474304199,-0.02428189292550087,0.16722436249256134,-1.0971139669418335,-12.993276596069336,45.83454895019531,-34.82899475097656
4.891,-4.916053771972656,-8.940781593322754,2.775674343109131,-0.07651086896657944,0.16065755486488342,-1.1659890413284302,-13.124817848205566,46.21455764770508,-34.755916595458984
4.901,-4.767699241638184,-9.300901412963867,1.9178473949432373,-0.13179416954517365,0.13439035415649414,-1.2455542087554932,-13.753289222717285,46.50687026977539,-34.77053451538086
4.921,-4.552344799041748,-9.256633758544922,2.1296122074127197,-0.16814064979553223,0.12034045159816742,-1.3219122886657715,-15.01023006439209,46.726104736328125,-34.9459228515625
4.924,-4.1623148918151855,-8.721837997436523,2.1846470832824707,-0.16325373947620392,0.11820242553949356,-1.3698652982711792,-14.995615005493164,46.8430290222168,-35.12131118774414
4.931,-4.116851329803467,-8.681159973144531,2.0267207622528076,-0.1569923609495163,0.1287398487329483,-1.3944525718688965,-15.697164535522461,47.13534164428711,-34.96053695678711
4.941,-3.954139232635498,-8.927620887756348,2.148754596710205,-0.14767667651176453,0.20433442294597626,-1.4077389240264893,-16.2525577545166,47.25226593017578,-34.40514373779297
4.951,-3.458824872970581,-9.29491901397705,2.007578134536743,-0.13759739696979523,0.2402227520942688,-1.41384756565094,-16.778718948364258,47.80765914916992,-34.712074279785156
4.961,-2.8211376667022705,-9.248259544372559,2.172683000564575,-0.10995574295520782,0.2779436707496643,-1.4106405973434448,-17.275650024414062,47.544578552246094,-33.805904388427734
4.981,-2.6009981632232666,-8.608179092407227,2.251646041870117,-0.07101307809352875,0.22968532145023346,-1.408502459526062,-17.947969436645508,47.57380676269531,-34.02513885498047
4.985,-2.9551358222961426,-8.39162826538086,1.7682960033416748,-0.031154125928878784,0.1742493212223053,-1.3857477903366089,-19.16106414794922,47.89535140991211,-34.30283737182617
4.992,-2.981456995010376,-8.61176872253418,1.9058831930160522,-0.033597588539123535,0.21532998979091644,-1.3616186380386353,-19.511838912963867,48.12919998168945,-33.67436599731445
5.001,-2.3461625576019287,-8.555537223815918,2.589033842086792,-0.012828170321881771,0.32238414883613586,-1.320690631866455,-20.491085052490234,48.099971771240234,-34.127445220947266
5.011,-1.9070795774459839,-8.773283958435059,2.4945175647735596,-0.0029016099870204926,0.32360586524009705,-1.2316570281982422,-20.154926300048828,48.12919998168945,-33.30897521972656
5.021,-1.2287143468856812,-9.196813583374023,2.080559253692627,0.02474004216492176,0.44165557622909546,-1.1482739448547363,-20.82724380493164,48.465362548828125,-33.805904388427734
5.041,-0.5156532526016235,-9.09152889251709,2.7840490341186523,0.04917465150356293,0.5196936130523682,-1.0589349269866943,-21.894182205200195,48.23151397705078,-33.8643684387207
5.045,-0.2392822504043579,-8.870193481445312,2.334198474884033,0.04245513305068016,0.32391127943992615,-0.8770498037338257,-22.405729293823242,48.50920867919922,-33.732826232910156
5.051,0.0729810893535614,-8.599804878234863,2.3605194091796875,0.03649919852614403,0.28619036078453064,-0.8048149347305298,-22.025724411010742,48.1584358215332,-33.76205825805664
5.061,0.27278175950050354,-8.490930557250977,2.4370899200439453,-0.01114829070866108,0.15424346923828125,-0.6041457653045654,-22.902660369873047,47.851505279541016,-33.65974807739258
5.071,0.39003005623817444,-8.483752250671387,2.803191661834717,-0.007788531482219696,-0.008399397134780884,-0.4317289888858795,-22.66880989074707,48.216896057128906,-33.71821212768555
5.081,-0.34576284885406494,-8.914461135864258,2.8390841484069824,-0.04566217586398125,-0.13347405195236206,-0.2802344262599945,-23.238819122314453,48.085357666015625,-32.70973205566406
5.101,-1.4201401472091675,-9.533004760742188,1.95852530002594,-0.09117163717746735,-0.19074267148971558,-0.16768251359462738,-23.194971084594727,48.30459213256836,-33.41128158569336
5.104,-1.0061818361282349,-9.702895164489746,2.451446771621704,-0.11545352637767792,-0.0962112694978714,0.012828170321881771,-23.253435134887695,48.90382766723633,-33.2651252746582
5.111,-0.019142581149935722,-9.535398483276367,2.772084951400757,-0.14523321390151978,-0.11713340878486633,0.10018189251422882,-23.326513290405273,48.55305480957031,-32.82666015625
5.121,0.9451649785041809,-9.781858444213867,2.586641311645508,-0.20784689486026764,-0.2811506986618042,0.2269364297389984,-23.38497543334961,48.289974212646484,-34.01052474975586
5.131,-0.05742774158716202,-10.146763801574707,2.7086751461029053,-0.22861631214618683,-0.5221370458602905,0.3828597962856293,-22.66880989074707,48.085357666015625,-34.01052474975586
5.141,-1.6642080545425415,-10.248458862304688,2.2372889518737793,-0.2635883390903473,-0.5539020299911499,0.5073235630989075,-22.975738525390625,48.31920623779297,-33.060508728027344
5.161,-2.117647886276245,-9.90867805480957,2.262413740158081,-0.26022857427597046,-0.3452915847301483,0.5882632732391357,-22.917274475097656,48.18766403198242,-33.2066650390625
5.165,-0.22492532432079315,-9.760323524475098,2.5710878372192383,-0.2785545587539673,-0.20647244155406952,0.7660250067710876,-21.8503360748291,47.8807373046875,-32.46126937866211
5.171,0.3409772217273712,-9.708877563476562,2.9240291118621826,-0.28557947278022766,-0.251218318939209,0.8559749126434326,-21.733409881591797,47.74919891357422,-32.417423248291016
5.181,0.4749752879142761,-9.19322395324707,3.4755747318267822,-0.30466902256011963,-0.4671592116355896,0.93095862865448,-21.28032684326172,47.909969329833984,-33.045894622802734
5.191,-1.4632110595703125,-9.174081802368164,3.016152858734131,-0.3604104816913605,-0.75105881690979,0.9941831827163696,-20.724933624267578,47.95381546020508,-32.47588348388672
5.201,-4.35972261428833,-9.672985076904297,2.128415822982788,-0.4332561492919922,-0.8084800839424133,1.0160216093063354,-20.09646224975586,47.38380432128906,-32.373573303222656
5.222,-6.137589454650879,-9.605986595153809,0.6759723424911499,-0.43218716979026794,-0.5447390675544739,0.9876163601875305,-19.55568504333496,46.88687515258789,-32.1251106262207
5.226,-3.5090742111206055,-9.372685432434082,1.1413763761520386,-0.3523165285587311,0.14676035940647125,0.9282097220420837,-19.46799087524414,47.19380569458008,-31.862030029296875
5.231,-2.0673987865448,-9.074779510498047,1.062413215637207,-0.3419318199157715,0.11239920556545258,0.9201157689094543,-18.941829681396484,47.44226837158203,-32.00818634033203
5.241,-2.200200319290161,-9.409774780273438,0.40319061279296875,-0.3504839241504669,-0.12889257073402405,0.9228646755218506,-18.3718204498291,46.43379211425781,-32.052032470703125
5.251,-4.0905303955078125,-9.66102123260498,0.794417142868042,-0.34055736660957336,-0.17363843321800232,0.8717046976089478,-17.918737411499023,46.726104736328125,-31.788951873779297
5.261,-5.771488189697266,-10.666006088256836,0.31345975399017334,-0.3500257730484009,-0.0685696229338646,0.8046622276306152,-17.670272827148438,46.62379455566406,-31.145864486694336
5.281,-5.111069202423096,-11.6183500289917,0.5826523303985596,-0.3723223805427551,0.38117989897727966,0.7354817390441895,-17.582576751708984,46.60917663574219,-31.788951873779297
5.285,-1.2574282884597778,-11.467601776123047,1.0528419017791748,-0.49037206172943115,0.36942076683044434,0.6659957766532898,-17.23180389404297,46.346099853515625,-31.438175201416016
5.292,-0.8506484627723694,-10.930414199829102,0.7022933959960938,-0.5096142888069153,0.1014036312699318,0.6762278079986572,-17.304880142211914,46.521484375,-31.49663734436035
5.301,-3.0077779293060303,-10.53081226348877,1.0193424224853516,-0.5296201705932617,-0.24938572943210602,0.6304128766059875,-16.807950973510742,46.097633361816406,-30.985092163085938
5.311,-5.574079990386963,-11.040483474731445,1.5182459354400635,-0.5703954100608826,-0.30054569244384766,0.5754350423812866,-16.807950973510742,45.77608871459961,-30.955860137939453
5.321,-6.1124653816223145,-12.05623722076416,1.345962643623352,-0.5610796809196472,0.07712173461914062,0.43936482071876526,-16.23794174194336,46.360713958740234,-30.166616439819336
5.341,-4.298705577850342,-12.193824768066406,-0.45104703307151794,-0.5792529582977295,0.15714508295059204,0.3260492980480194,-16.486408233642578,45.27915573120117,-30.692779541015625
5.345,-3.724428415298462,-11.298907279968262,3.3750762939453125,-0.44165557622909546,0.20983220636844635,0.25702154636383057,-15.901782989501953,45.51300811767578,-30.722009658813477
5.351,-4.023531436920166,-12.640085220336914,2.7493531703948975,-0.43279802799224854,0.21365012228488922,0.2096794992685318,-15.79947280883789,45.235313415527344,-29.669687271118164
5.361,-4.882554531097412,-13.944173812866211,2.3880369663238525,-0.42348232865333557,0.3640756905078888,0.12553280591964722,-16.15024757385254,45.27915573120117,-29.97661590576172
5.371,-5.411368370056152,-14.33181095123291,2.014756679534912,-0.408363401889801,0.7130324244499207,0.030695976689457893,-16.23794174194336,45.87839889526367,-29.640457153320312
5.381,-4.151546955108643,-14.611770629882812,0.9152546525001526,-0.3914119005203247,0.9766207933425903,-0.027030786499381065,-16.384098052978516,45.51300811767578,-29.275066375732422
5.401,-2.8558335304260254,-15.139388084411621,0.5730810165405273,-0.36880987882614136,1.1525499820709229,-0.0377209298312664,-16.384098052978516,45.46916198730469,-29.128910064697266
5.404,-1.6295121908187866,-15.189637184143066,0.07178467512130737,-0.3084869384765625,1.355204463005066,-0.03390302136540413,-16.515640258789062,45.761470794677734,-28.52967071533203
5.411,-0.8542376756668091,-14.846267700195312,0.0263210479170084,-0.3032945990562439,1.426675796508789,-0.003512475173920393,-16.530254364013672,45.42531204223633,-29.406606674194336
5.421,0.3397807776927948,-14.075778007507324,-0.2632104754447937,-0.2822197377681732,1.5674800872802734,0.03176499158143997,-16.9541072845459,45.39608383178711,-28.71967315673828
5.431,1.6546367406845093,-13.415359497070312,-0.4283152222633362,-0.2480112910270691,1.6655240058898926,0.11163561791181564,-17.187957763671875,45.08915710449219,-28.398128509521484
5.441,1.743171215057373,-13.305289268493652,0.004785645287483931,-0.21884246170520782,1.5954272747039795,0.09483683109283447,-17.26103401184082,45.32300567626953,-27.72580909729004
5.461,2.2636101245880127,-13.286148071289062,0.3349951505661011,-0.1872301995754242,1.4787520170211792,0.03741549327969551,-17.451038360595703,45.132999420166016,-28.208127975463867
5.465,2.891726016998291,-13.883155822753906,1.3507484197616577,-0.2701551616191864,0.7951937913894653,0.022143863141536713,-17.87489128112793,45.0599250793457,-27.63811683654785
5.471,3.166900634765625,-14.715858459472656,2.853440999984741,-0.4415028393268585,0.11652254313230515,0.3730859160423279,-17.085647583007812,44.446067810058594,-28.06197166442871
5.481,0.3038884699344635,-16.51406478881836,3.0759735107421875,-0.6702718734741211,-0.8668177723884583,1.006095051765442,-16.98333740234375,44.16836929321289,-27.331188201904297
5.491,-6.599404811859131,-17.948562622070312,3.5736804008483887,-0.6944010853767395,-1.5845844745635986,1.6615533828735352,-15.770242691040039,44.09529113769531,-28.091201782226562
5.501,-12.098111152648926,-18.30270004272461,3.1381869316101074,-0.698066234588623,-1.7760906219482422,2.174680233001709,-14.820228576660156,43.422977447509766,-27.331188201904297
5.521,-14.572288513183594,-17.210376739501953,3.036491870880127,-0.6183483004570007,-1.8964310884475708,2.7180447578430176,-12.116340637207031,42.37065124511719,-28.193510055541992
5.525,-16.4913330078125,-17.923437118530273,4.34536600112915,-0.5659666657447815,-1.679268479347229,3.704745054244995,-11.166325569152832,42.58988571166992,-27.97427749633789
5.531,-16.735401153564453,-18.27996826171875,4.348955154418945,-0.5438227653503418,-1.2111929655075073,3.920074939727783,-9.54399299621582,41.84449005126953,-27.667348861694336
5.541,-14.69671630859375,-18.08495330810547,3.159722089767456,-0.48059821128845215,-0.45066583156585693,4.014606475830078,-7.658579349517822,40.8652458190918,-27.988893508911133
5.551,-13.217950820922852,-16.9603271484375,2.95393967628479,-0.43997567892074585,0.2690861225128174,4.053548812866211,-6.752411365509033,40.41215896606445,-28.018123626708984
5.561,-11.536993980407715,-16.14198112487793,2.8522443771362305,-0.47342056035995483,0.8739954233169556,4.017813205718994,-5.261619567871094,39.47676086425781,-27.755043029785156
5.581,-9.416953086853027,-15.985250473022461,2.709871768951416,-0.5406157374382019,1.1133018732070923,3.9035816192626953,-3.610055446624756,38.760597229003906,-26.42502212524414
5.585,-7.221538543701172,-14.775679588317871,1.8819550275802612,-0.6140722632408142,1.1155925989151,3.877925157546997,-1.8415666818618774,37.591346740722656,-26.585792541503906
5.591,-6.033502578735352,-13.721640586853027,1.6809579133987427,-0.6305656433105469,0.9628763198852539,3.7763688564300537,-0.8477053642272949,37.401344299316406,-26.32271385192871
5.601,-3.6011979579925537,-12.019147872924805,1.5912269353866577,-0.5960517525672913,0.6470589637756348,3.4750595092773438,0.029231218621134758,35.720550537109375,-26.366558074951172
5.611,-0.7956134676933289,-10.301101684570312,1.5840485095977783,-0.5265658497810364,0.29413163661956787,3.1532862186431885,0.5553931593894958,34.87284469604492,-25.7088565826416
5.621,1.5816556215286255,-8.831908226013184,1.2789636850357056,-0.4308127164840698,-0.04108068719506264,2.852740526199341,2.1192634105682373,34.229759216308594,-25.942707061767578
5.641,2.854637384414673,-7.563712120056152,1.2275179624557495,-0.2750420570373535,-0.456163614988327,2.559372663497925,2.703887701034546,33.74744415283203,-25.913476943969727
5.645,2.355733871459961,-5.314458847045898,1.4057832956314087,-0.14278973639011383,-0.7695375084877014,2.2650883197784424,3.639286756515503,32.183570861816406,-26.907337188720703
5.651,1.94297194480896,-4.130012035369873,1.605583906173706,-0.08918632566928864,-0.834747314453125,1.981799602508545,4.647763729095459,31.905874252319336,-26.746564865112305
5.661,2.5591237545013428,-2.74337100982666,1.4799607992172241,-0.029932396486401558,-0.7968736886978149,1.4821116924285889,5.305466175079346,31.71587371826172,-26.278865814208984
5.671,4.025923728942871,-1.624726414680481,1.293320655822754,0.027183502912521362,-0.6805039048194885,1.0045678615570068,6.313942909240723,31.511253356933594,-27.57965660095215
5.681,5.101497650146484,-0.6400800943374634,0.9942178130149841,0.13790282607078552,-0.6969972848892212,0.49724429845809937,7.234726905822754,31.20432472229004,-27.565038681030273
5.701,5.423332214355469,0.20937196910381317,0.8099704384803772,0.24144448339939117,-0.8402451872825623,0.08506298810243607,7.746273040771484,31.13124656677246,-28.63197898864746
5.705,4.998606204986572,0.33738797903060913,0.8446664214134216,0.33292156457901,-1.034500241279602,-0.45585817098617554,7.541654109954834,31.05817222595215,-28.368898391723633
5.711,5.008177757263184,0.17946170270442963,0.7824530005455017,0.3891211450099945,-1.1539243459701538,-0.7913758754730225,7.527039051055908,31.11663246154785,-28.70505714416504
5.721,5.185246467590332,-0.18065811693668365,0.5970092415809631,0.4576907753944397,-1.324508547782898,-1.2110402584075928,7.658579349517822,31.55510139465332,-29.275066375732422
5.731,5.03449821472168,-0.064606212079525,0.2823530435562134,0.5786421298980713,-1.6351335048675537,-1.641700267791748,7.965507507324219,32.11049270629883,-30.63431739807129
5.741,3.4671998023986816,-0.2799602448940277,0.5826523303985596,0.6391177773475647,-1.8588628768920898,-1.9249889850616455,8.462437629699707,32.943580627441406,-31.540485382080078
5.761,2.021935224533081,-0.3038884699344635,0.4893321990966797,0.6895141005516052,-1.9811886548995972,-2.1865921020507812,8.301666259765625,33.48435974121094,-32.85588836669922
5.765,-1.0277173519134521,0.10767702013254166,1.2969098091125488,0.7771733403205872,-2.004554271697998,-2.5474607944488525,7.585501670837402,34.40514373779297,-33.981292724609375
5.771,-2.4562323093414307,-0.10289137810468674,1.7850456237792969,0.7687739133834839,-1.8674150705337524,-2.7064385414123535,6.810873985290527,35.03361511230469,-35.04823303222656
5.781,-2.730210542678833,-0.7070790529251099,1.7180465459823608,0.7286095023155212,-1.455997347831726,-2.99003267288208,6.270096302032471,35.9836311340332,-36.58287048339844
5.791,-3.13220477104187,-0.8422735333442688,1.6749757528305054,0.7654141187667847,-1.1757628917694092,-3.0666961669921875,5.568547248840332,36.275943756103516,-38.24905014038086
5.801,-3.4612178802490234,-1.0432707071304321,1.8400804996490479,0.7724390625953674,-1.0680978298187256,-3.142901659011841,4.750072956085205,37.591346740722656,-38.263668060302734
5.821,-3.8500516414642334,-1.3698909282684326,1.7156537771224976,0.763428807258606,-1.0577131509780884,-3.1442761421203613,3.0838937759399414,38.4244384765625,-39.228294372558594
5.825,-5.998805999755859,-1.7682960033416748,1.5326027870178223,0.7481572031974792,-1.092837929725647,-3.0437889099121094,2.586962938308716,38.62905502319336,-40.149078369140625
5.831,-7.070790767669678,-2.076970100402832,1.3591231107711792,0.7267768979072571,-1.0677924156188965,-3.0104966163635254,2.5285003185272217,39.35983657836914,-40.38292694091797
5.842,-7.7276201248168945,-2.748156785964966,1.7623138427734375,0.6831000447273254,-1.0102183818817139,-2.8965702056884766,1.1107863187789917,39.91522979736328,-41.639869689941406
5.851,-9.213563919067383,-2.6943180561065674,1.887937068939209,0.6412557363510132,-0.9356928467750549,-2.772106409072876,-0.2776965796947479,40.80678176879883,-41.46448516845703
5.861,-10.37527847290039,-2.458625316619873,1.9549360275268555,0.594524621963501,-0.7745771408081055,-2.6334400177001953,-0.8330897688865662,41.02601623535156,-42.64834976196289
5.881,-11.892328262329102,-2.1990039348602295,2.155933141708374,0.5560400485992432,-0.5222897529602051,-2.4579689502716064,-1.6807950735092163,41.43525314331055,-42.619117736816406
5.885,-13.635499000549316,-1.9310078620910645,2.586641311645508,0.5067126750946045,-0.027488935738801956,-2.1644482612609863,-3.3762056827545166,42.312191009521484,-42.54603958129883
5.891,-13.75394344329834,-2.090130567550659,2.455035924911499,0.4914410710334778,0.17302757501602173,-1.995696783065796,-3.756211757659912,42.3414192199707,-42.38526916503906
5.901,-13.055240631103516,-2.4646072387695312,2.1643080711364746,0.4836525619029999,0.3286454975605011,-1.712713360786438,-4.881613731384277,42.619117736816406,-42.79450607299805
5.911,-13.13420295715332,-3.4157540798187256,1.8939191102981567,0.4508185386657715,0.43020185828208923,-1.3742940425872803,-5.641624927520752,43.10143280029297,-42.633731842041016
5.921,-13.246665954589844,-3.867997646331787,1.246660590171814,0.4036291837692261,0.4856378734111786,-1.0231993198394775,-6.518562316894531,42.98450469970703,-42.77988815307617
5.941,-13.106685638427734,-3.393022298812866,0.9332008361816406,0.4008803069591522,0.4392121136188507,-0.6527094841003418,-7.0447235107421875,42.999122619628906,-43.422977447509766
5.945,-20.114065170288086,-4.497309684753418,5.92223596572876,0.7547240257263184,-0.14935654401779175,0.3413209319114685,-7.0008769035339355,42.619117736816406,-44.10990905761719
5.951,-25.61516571044922,-10.518848419189453,6.124429225921631,0.5833762884140015,0.09773843735456467,0.6800457239151001,-7.0301079750061035,42.6629638671875,-43.817596435546875
5.961,-24.08136558532715,-12.458230018615723,1.5278172492980957,0.3494149148464203,1.0103710889816284,0.7834346890449524,-6.723180294036865,42.77988815307617,-44.29991149902344
5.971,-13.970494270324707,-11.685348510742188,0.24526430666446686,0.2857322096824646,1.8461873531341553,0.6696610450744629,-6.927798748016357,42.502193450927734,-44.051448822021484
5.981,-0.0933200791478157,-10.386046409606934,0.09092725813388824,0.20570887625217438,1.9937113523483276,0.40714165568351746,-6.781642913818359,42.79450607299805,-43.7445182800293
6.001,9.418149948120117,-11.327622413635254,-0.6747759580612183,0.07590001076459885,1.874592661857605,0.1941024363040924,-7.234726905822754,42.03449249267578,-42.12218475341797
6.005,13.591232299804688,-11.49272632598877,-1.4141581058502197,-0.1342376321554184,1.056644082069397,0.12003502249717712,-6.986261367797852,42.6629638671875,-43.20374298095703
6.011,7.41416072845459,-10.760523796081543,1.1222338676452637,-0.04108068719506264,-0.46043968200683594,0.3599523603916168,-6.664718151092529,42.268341064453125,-42.18064880371094
6.021,-4.682753562927246,-9.92423152923584,2.641676187515259,-0.08720101416110992,-1.4737123250961304,0.4795292019844055,-6.869336128234863,42.18064880371094,-42.823734283447266
6.031,-15.817753791809082,-9.476773262023926,2.840280294418335,-0.14584407210350037,-1.2776246070861816,0.565203070640564,-6.562408924102783,42.326805114746094,-41.639869689941406
6.041,-22.112071990966797,-9.322437286376953,1.384247899055481,-0.2883284091949463,-0.09544768929481506,0.48517972230911255,-6.0654778480529785,41.9614143371582,-42.6045036315918
6.061,-10.570293426513672,-8.629714965820312,0.665204644203186,-0.30115655064582825,0.9561567902565002,0.024129178375005722,-5.977784156799316,41.888336181640625,-42.67757797241211
6.065,1.0121638774871826,-10.560722351074219,2.310270071029663,-0.3396410644054413,0.9456194043159485,0.024129178375005722,-6.620871067047119,42.049110412597656,-42.15141677856445
6.071,0.8279166221618652,-13.569696426391602,3.014956474304199,-0.31291571259498596,0.5143485069274902,0.12599095702171326,-6.299327373504639,42.09295654296875,-41.508331298828125
6.081,-4.183850288391113,-13.939387321472168,1.1066803932189941,-0.28359419107437134,0.005803219974040985,0.2028072625398636,-6.430868148803711,41.91756820678711,-41.698333740234375
6.091,-6.588636875152588,-8.257630348205566,-1.3710873126983643,-0.266642689704895,0.25274547934532166,0.10613783448934555,-6.387021541595459,42.12218475341797,-41.888336181640625
6.101,-5.560919761657715,-6.248856067657471,0.4941178560256958,-0.2099849283695221,0.1362229436635971,0.007177666295319796,-6.270096302032471,41.946800231933594,-41.36217498779297
6.121,-5.517848968505859,-8.437091827392578,2.7290141582489014,-0.14385876059532166,-0.06352998316287994,-0.0429132841527462,-6.942414283752441,41.9029541015625,-41.332942962646484
6.125,-7.560122966766357,-8.766105651855469,3.2243285179138184,-0.07620543986558914,0.04306599870324135,-0.26832255721092224,-6.372405529022217,41.85910415649414,-42.063724517822266
6.131,-6.736991882324219,-9.483952522277832,1.6941183805465698,-0.054367005825042725,0.13469578325748444,-0.39813143014907837,-6.284712314605713,41.85910415649414,-41.66910171508789
6.141,-5.883951187133789,-8.944371223449707,-0.16031910479068756,-0.02519819140434265,0.15332716703414917,-0.48029276728630066,-6.8985676765441895,42.282955169677734,-40.90909194946289
6.151,-4.2209391593933105,-8.778069496154785,0.12083754688501358,0.02382374368607998,-0.033597588539123535,-0.5797110795974731,-7.103186130523682,42.3414192199707,-41.37678909301758
6.161,-4.325026512145996,-8.189435005187988,2.4155545234680176,0.05604688450694084,-0.19379699230194092,-0.5774204134941101,-6.767026901245117,42.56065368652344,-41.46448516845703
6.181,-5.830111980438232,-8.266005516052246,2.6045873165130615,0.07651086896657944,-0.2165517359972,-0.6053674817085266,-7.103186130523682,42.37065124511719,-41.522945404052734
6.185,-5.6315083503723145,-8.512466430664062,2.035095691680908,0.09117163717746735,-0.0429132841527462,-0.6901249885559082,-7.746273040771484,42.516807556152344,-41.42063903808594
6.191,-4.936392784118652,-8.636893272399902,2.132004976272583,0.09392052888870239,-0.06185010448098183,-0.7200573682785034,-7.907044887542725,43.04296875,-41.2452507019043
6.201,-4.418346881866455,-8.469395637512207,2.313859462738037,0.10445795953273773,-0.13530665636062622,-0.7747297883033752,-7.8485822677612305,43.11604690551758,-41.186790466308594
6.211,-5.26181697845459,-8.870193481445312,2.087737560272217,0.08216137439012527,-0.15836679935455322,-0.8176431059837341,-8.506284713745117,43.34989929199219,-41.01139831542969
6.221,-5.624329566955566,-8.858229637145996,2.4251255989074707,0.060475654900074005,-0.08567384630441666,-0.8614726662635803,-9.047061920166016,42.76527404785156,-41.5814094543457
6.241,-5.764309883117676,-8.4502534866333,2.6739792823791504,0.04077525436878204,0.0010690141934901476,-0.903164267539978,-8.98859977722168,43.189125061035156,-40.967552185058594
6.244,-5.857629776000977,-8.805586814880371,1.9417754411697388,0.005650503095239401,0.21303924918174744,-1.0155634880065918,-10.05553913116455,43.876060485839844,-41.53756332397461
6.251,-5.1565327644348145,-8.993423461914062,2.4023938179016113,0.004734205547720194,0.2814561426639557,-1.0716103315353394,-9.73399543762207,44.19760513305664,-40.952938079833984
6.261,-3.5461630821228027,-9.029315948486328,2.306680917739868,0.010690141469240189,0.25824329257011414,-1.1146763563156128,-10.859397888183594,44.372989654541016,-41.157554626464844
6.271,-3.2745776176452637,-8.930013656616211,2.283949136734009,0.0029016099870204926,0.19089537858963013,-1.1325441598892212,-10.552470207214355,43.65682601928711,-41.756797790527344
6.281,-3.988835334777832,-9.047262191772461,2.3533408641815186,-0.019394971430301666,0.1062905564904213,-1.1464413404464722,-11.707103729248047,44.4022216796875,-41.449867248535156
6.301,-4.816751956939697,-9.05563735961914,1.8891334533691406,-0.03833179175853729,0.11407908797264099,-1.1632400751113892,-12.408652305603027,44.89915466308594,-41.59602355957031
6.305,-4.734199523925781,-8.98265552520752,1.8987046480178833,-0.04138611629605293,0.28008171916007996,-1.2272282838821411,-12.291727066040039,44.986846923828125,-41.712947845458984
6.311,-3.834498167037964,-9.260223388671875,2.3294126987457275,-0.044745877385139465,0.26969701051712036,-1.2977831363677979,-12.934814453125,45.176849365234375,-41.28909683227539
6.321,-2.421536445617676,-9.083154678344727,2.196611166000366,-0.02886338159441948,0.21700987219810486,-1.3205379247665405,-13.285589218139648,45.206077575683594,-41.80064392089844
6.331,-2.1511476039886475,-8.368897438049316,2.7086751461029053,-0.0073303827084600925,0.14782939851284027,-1.2820534706115723,-14.557147026062012,45.87839889526367,-41.6252555847168
6.341,-3.1692936420440674,-8.498109817504883,2.5878376960754395,-0.02275473065674305,0.08246680349111557,-1.2628111839294434,-14.410990715026855,45.761470794677734,-40.967552185058594
6.361,-4.4303107261657715,-9.17886734008789,2.1786649227142334,-0.055894169956445694,0.21670444309711456,-1.2678508758544922,-14.849458694458008,46.06840133666992,-41.59602355957031
6.365,-4.052245140075684,-9.384650230407715,1.9573287963867188,-0.08048149198293686,0.5126686692237854,-1.2912163734436035,-15.667933464050293,45.805320739746094,-41.81526184082031
6.371,-2.24566388130188,-8.847461700439453,2.7565317153930664,-0.07773260027170181,0.6785185933113098,-1.2877038717269897,-15.960245132446289,46.302249908447266,-41.186790466308594
6.381,-0.1052841916680336,-8.263612747192383,3.597608804702759,-0.054367005825042725,0.6721044778823853,-1.2525792121887207,-16.486408233642578,46.57994842529297,-40.48523712158203
6.391,0.11126624792814255,-8.609375,3.125026226043701,-0.07406741380691528,0.4001167118549347,-1.2096657752990723,-17.129493713378906,46.02455520629883,-41.25986862182617
6.401,-1.153340458869934,-9.074779510498047,2.66560435295105,-0.09147706627845764,0.06108652427792549,-1.2043209075927734,-17.53873062133789,46.33148193359375,-40.17831039428711
6.421,-2.702692985534668,-8.837889671325684,1.939382791519165,-0.04795292019844055,-0.07895433157682419,-1.2260066270828247,-18.56182289123535,46.740718841552734,-40.572933197021484
6.424,-3.242274522781372,-8.554340362548828,1.0205388069152832,-0.0012217304902151227,0.025503622367978096,-1.2011137008666992,-18.70798110961914,46.667640686035156,-41.084476470947266
6.431,-2.853440999984741,-9.195616722106934,1.4428720474243164,0.017867807298898697,0.11056660860776901,-1.1959214210510254,-18.72259521484375,46.682254791259766,-40.397544860839844
6.441,-1.514656662940979,-9.91585636138916,1.490728497505188,0.04596760869026184,0.10903944075107574,-1.244027018547058,-19.307220458984375,46.44840621948242,-40.70447540283203
6.451,-0.2751745879650116,-9.826126098632812,0.8303093910217285,0.10995574295520782,0.08170322328805923,-1.144608736038208,-19.891843795776367,46.857643127441406,-40.82139587402344
6.461,0.2464607208967209,-9.601200103759766,0.9427720904350281,0.15256358683109283,0.04214970022439957,-0.9480628371238708,-20.62262535095215,46.682254791259766,-39.87138366699219
6.481,1.219143033027649,-9.401399612426758,2.8043882846832275,0.15913039445877075,-0.04718933627009392,-0.8104654550552368,-20.724933624267578,46.945335388183594,-41.04063034057617
6.484,0.7310072779655457,-9.611968040466309,2.957528829574585,0.10293079167604446,-0.17959438264369965,-0.5879577994346619,-21.134170532226562,47.16456985473633,-40.514469146728516
6.491,0.15912269055843353,-9.7064847946167,3.0652055740356445,0.09422595798969269,-0.22082778811454773,-0.4896084666252136,-21.19263458251953,46.740718841552734,-41.43525314331055
6.501,-0.2955136001110077,-9.54496955871582,3.5437703132629395,0.07498370856046677,-0.15012012422084808,-0.39874228835105896,-21.426483154296875,47.237648010253906,-41.04063034057617
6.511,-0.4929214417934418,-9.022137641906738,2.6979076862335205,0.04260785132646561,-0.06948591768741608,-0.19868391752243042,-21.426483154296875,47.36919021606445,-40.8652458190918
6.521,0.4007977545261383,-9.05563735961914,2.715853691101074,0.011759155429899693,-0.03527746722102165,-0.0177150908857584,-21.689563751220703,47.03303146362305,-40.42677688598633
6.541,1.3411771059036255,-9.547362327575684,3.3583264350891113,-0.03130684420466423,-0.09605855494737625,0.1576032191514969,-21.309558868408203,47.25226593017578,-41.21601867675781
6.545,1.7934205532073975,-9.834501266479492,3.950549840927124,-0.0959058403968811,-0.27458393573760986,0.4306599795818329,-20.681087493896484,46.59456253051758,-41.42063903808594
6.551,1.5098711252212524,-9.66102123260498,4.064208984375,-0.11988230049610138,-0.32039880752563477,0.5091561675071716,-20.90032196044922,46.974571228027344,-41.888336181640625
6.561,1.239482045173645,-9.363115310668945,4.707878589630127,-0.1589776873588562,-0.3871358335018158,0.6618725061416626,-21.148786544799805,47.44226837158203,-40.952938079833984
6.571,1.039681315422058,-9.018548011779785,4.2245283126831055,-0.18478672206401825,-0.46273043751716614,0.7536550164222717,-20.82724380493164,46.63841247558594,-41.84449005126953
6.581,0.6999006271362305,-9.549755096435547,3.9361932277679443,-0.2370157092809677,-0.6328563690185547,0.8547531962394714,-20.067232131958008,46.63841247558594,-41.6252555847168
6.601,-2.5986053943634033,-10.06421184539795,2.258824348449707,-0.37751469016075134,-0.7580837607383728,0.9804387092590332,-18.941829681396484,46.81379699707031,-40.2221565246582
6.605,-4.475774765014648,-9.627521514892578,1.2562319040298462,-0.3127630054950714,-0.23839014768600464,0.9095783829689026,-18.89798355102539,46.59456253051758,-40.06138610839844
6.611,-3.809373378753662,-9.358328819274902,1.077966570854187,-0.2838996350765228,0.03176499158143997,0.9091201424598694,-18.956445693969727,46.53609848022461,-40.73370361328125
6.621,-1.8352948427200317,-9.524630546569824,0.27397817373275757,-0.28237244486808777,0.05757404863834381,0.8888089060783386,-18.196434020996094,46.53609848022461,-41.128326416015625
6.631,-1.6666009426116943,-9.723234176635742,0.2967100143432617,-0.2428189367055893,-0.1667662113904953,0.8772024512290955,-17.53873062133789,46.346099853515625,-40.93832015991211
