time,accel_x,accel_y,accel_z,gyro_x,gyro_y,gyro_z,mag_x,mag_y,mag_z
0.0,77.64875030517578,-10.84094524383545,10.917559623718262,-6.794793128967285,-0.39969372749328613,-5.329249382019043,-31.80000114440918,-25.500001907348633,-14.700000762939453
0.01,77.34229278564453,-11.683704376220703,11.262324333190918,-5.462480545043945,6.261868000030518,-6.794793128967285,-32.55000305175781,-23.55000114440918,-14.700000762939453
0.02,77.7253646850586,-11.60708999633789,10.496180534362793,0.1332312375307083,-3.4640121459960938,-3.3307809829711914,-33.75,-23.850000381469727,-14.700000762939453
0.03,76.69107055664062,-11.070788383483887,10.266336441040039,1.0658499002456665,-3.9969370365142822,5.062787055969238,-33.75,-23.850000381469727,-14.700000762939453
0.04,76.84429931640625,-11.530475616455078,10.304644584655762,-4.529861927032471,3.197549819946289,-6.261868000030518,-34.95000076293945,-25.650001525878906,-15.15000057220459
0.059,77.03583526611328,-11.492168426513672,11.645397186279297,-5.196018218994141,5.8621745109558105,-2.398162364959717,-32.70000076293945,-24.450000762939453,-14.100000381469727
0.063,78.3382797241211,-10.342951774597168,11.377246856689453,-2.6646246910095215,2.9310872554779053,-2.131699800491333,-32.400001525878906,-23.700000762939453,-15.15000057220459
0.07,77.95520782470703,-10.994174003601074,11.377246856689453,-0.9326186776161194,9.059723854064941,-4.130168437957764,-32.400001525878906,-23.700000762939453,-15.15000057220459
0.08,76.76768493652344,-11.185709953308105,11.60708999633789,-5.8621745109558105,4.130168437957764,-7.327718257904053,-32.400001525878906,-23.700000762939453,-15.15000057220459
0.09,76.95922088623047,-11.262324333190918,10.687716484069824,3.9969370365142822,-5.595712184906006,0.6661561727523804,-31.950000762939453,-23.700000762939453,-15.600000381469727
0.1,76.72937774658203,-12.756306648254395,10.228029251098633,-12.790199279785156,6.661561965942383,-9.592649459838867,-31.80000114440918,-25.200000762939453,-13.65000057220459
0.119,77.1890640258789,-11.645397186279297,11.262324333190918,-6.5283308029174805,4.396630764007568,-3.597243309020996,-32.55000305175781,-23.850000381469727,-15.000000953674316
0.123,76.26969146728516,-11.530475616455078,11.41555404663086,-7.860642910003662,4.929555892944336,-0.9326186776161194,-32.55000305175781,-23.850000381469727,-15.000000953674316
0.13,77.03583526611328,-10.496180534362793,11.60708999633789,1.3323123455047607,-3.4640121459960938,-0.7993874549865723,-32.55000305175781,-23.850000381469727,-15.000000953674316
0.14,77.1507568359375,-12.02846908569336,9.921571731567383,0.2664624750614166,-2.398162364959717,-6.128636837005615,-33.150001525878906,-24.900001525878906,-14.850000381469727
0.15,77.38059997558594,-12.22000503540039,12.411541938781738,-5.062787055969238,-3.597243309020996,-1.8652373552322388,-33.900001525878906,-24.900001525878906,-13.65000057220459
0.16,76.5761489868164,-11.760318756103516,11.683704376220703,3.7304747104644775,0.1332312375307083,1.8652373552322388,-33.0,-24.750001907348633,-13.200000762939453
0.179,77.41890716552734,-11.41555404663086,11.262324333190918,1.5987749099731445,-1.7320060729980469,0.0,-33.0,-24.750001907348633,-13.200000762939453
0.183,77.1124496459961,-10.113107681274414,11.453861236572266,-2.9310872554779053,1.5987749099731445,-1.8652373552322388,-33.0,-25.05000114440918,-15.750000953674316
0.19,77.41890716552734,-11.568782806396484,11.185709953308105,-3.3307809829711914,4.929555892944336,0.7993874549865723,-33.45000076293945,-24.150001525878906,-16.650001525878906
0.204,76.69107055664062,-10.955866813659668,11.951854705810547,2.9310872554779053,-2.131699800491333,0.1332312375307083,-33.150001525878906,-26.400001525878906,-15.600000381469727
0.21,76.69107055664062,-11.530475616455078,11.91354751586914,1.4655436277389526,-0.6661561727523804,4.663093090057373,-32.70000076293945,-24.150001525878906,-13.65000057220459
0.22,77.34229278564453,-11.530475616455078,11.760318756103516,-7.194486618041992,5.595712184906006,-0.7993874549865723,-32.70000076293945,-24.150001525878906,-13.65000057220459
0.23,77.7253646850586,-12.02846908569336,12.334927558898926,-3.4640121459960938,-3.9969370365142822,1.1990811824798584,-34.05000305175781,-25.80000114440918,-15.000000953674316
0.24,77.03583526611328,-11.990161895751953,12.066776275634766,2.531393527984619,1.3323123455047607,4.529861927032471,-32.70000076293945,-24.150001525878906,-16.650001525878906
0.25,77.49552154541016,-11.683704376220703,11.41555404663086,-7.860642910003662,3.597243309020996,-10.125574111938477,-33.45000076293945,-24.900001525878906,-14.100000381469727
0.269,77.34229278564453,-12.143390655517578,11.338939666748047,2.531393527984619,0.9326186776161194,5.329249382019043,-33.45000076293945,-24.900001525878906,-14.100000381469727
0.273,76.80599212646484,-11.377246856689453,11.1474027633667,4.396630764007568,-7.194486618041992,2.2649309635162354,-33.45000076293945,-24.900001525878906,-14.100000381469727
0.28,77.26567840576172,-10.15141487121582,10.917559623718262,3.3307809829711914,-1.1990811824798584,-4.796324729919434,-33.0,-24.750001907348633,-14.700000762939453
0.29,76.65276336669922,-10.572794914245605,10.879252433776855,-4.663093090057373,9.059723854064941,-1.9984685182571411,-33.150001525878906,-23.25,-14.100000381469727
0.3,77.61044311523438,-11.530475616455078,10.955866813659668,-2.531393527984619,-1.1990811824798584,-4.529861927032471,-31.950000762939453,-24.450000762939453,-14.40000057220459
0.319,77.1124496459961,-10.994174003601074,11.1474027633667,2.2649309635162354,-4.263399600982666,4.396630764007568,-31.950000762939453,-24.450000762939453,-14.40000057220459
0.323,76.92091369628906,-11.224017143249512,11.683704376220703,-9.859111785888672,5.329249382019043,2.2649309635162354,-32.55000305175781,-23.100000381469727,-15.450000762939453
0.33,76.46122741699219,-11.03248119354248,10.994174003601074,-5.995405673980713,6.261868000030518,-4.529861927032471,-31.950000762939453,-25.200000762939453,-13.350000381469727
0.34,77.22737121582031,-12.105083465576172,11.262324333190918,-5.728943347930908,-1.8652373552322388,-2.9310872554779053,-33.75,-26.250001907348633,-14.250000953674316
0.35,77.34229278564453,-10.342951774597168,11.60708999633789,2.131699800491333,2.2649309635162354,5.329249382019043,-33.75,-23.850000381469727,-16.05000114440918
0.36,77.61044311523438,-12.449849128723145,10.955866813659668,-7.460949420928955,6.794793128967285,1.1990811824798584,-33.75,-23.850000381469727,-16.05000114440918
0.37,76.80599212646484,-12.22000503540039,10.955866813659668,-1.5987749099731445,-1.1990811824798584,2.9310872554779053,-33.45000076293945,-25.200000762939453,-15.90000057220459
0.387,76.88260650634766,-11.72201156616211,12.105083465576172,-5.728943347930908,4.929555892944336,-7.06125545501709,-33.45000076293945,-23.700000762939453,-14.850000381469727
0.39,76.5761489868164,-10.917559623718262,11.836933135986328,-8.793261528015137,6.9280242919921875,-8.39356803894043,-31.80000114440918,-25.80000114440918,-15.450000762939453
0.4,76.80599212646484,-10.5344877243042,11.798625946044922,-9.326186180114746,5.595712184906006,-1.8652373552322388,-33.900001525878906,-24.450000762939453,-14.40000057220459
0.41,76.30799865722656,-11.070788383483887,11.338939666748047,4.396630764007568,-5.995405673980713,4.529861927032471,-33.900001525878906,-24.450000762939453,-14.40000057220459
0.42,76.69107055664062,-11.1474027633667,11.60708999633789,3.0643184185028076,-1.8652373552322388,2.131699800491333,-33.30000305175781,-24.750001907348633,-15.000000953674316
0.439,76.69107055664062,-11.30063247680664,11.070788383483887,-3.86370587348938,7.327718257904053,-8.526799201965332,-33.30000305175781,-24.30000114440918,-15.450000762939453
0.443,76.95922088623047,-11.41555404663086,11.03248119354248,0.7993874549865723,-1.0658499002456665,-1.3323123455047607,-32.25,-22.80000114440918,-15.450000762939453
0.45,77.26567840576172,-11.262324333190918,11.645397186279297,0.1332312375307083,-9.992342948913574,0.0,-32.70000076293945,-24.150001525878906,-15.15000057220459
0.46,77.22737121582031,-12.105083465576172,11.492168426513672,-7.06125545501709,7.594180583953857,-5.196018218994141,-32.70000076293945,-24.150001525878906,-15.15000057220459
0.47,75.9632339477539,-12.411541938781738,12.334927558898926,-6.9280242919921875,-0.9326186776161194,-15.321592330932617,-32.25,-24.30000114440918,-15.750000953674316
0.48,77.03583526611328,-10.72602367401123,11.30063247680664,3.0643184185028076,-2.398162364959717,1.3323123455047607,-32.70000076293945,-24.450000762939453,-15.90000057220459
0.49,76.19307708740234,-11.683704376220703,11.109095573425293,-1.8652373552322388,-3.0643184185028076,4.529861927032471,-33.0,-23.55000114440918,-15.450000762939453
0.504,78.26166534423828,-11.185709953308105,10.879252433776855,-2.797856092453003,-6.128636837005615,1.3323123455047607,-33.0,-23.850000381469727,-16.5
0.51,77.34229278564453,-11.338939666748047,11.185709953308105,6.5283308029174805,0.0,-6.794793128967285,-33.0,-23.850000381469727,-16.5
0.52,77.763671875,-11.453861236572266,11.185709953308105,0.39969372749328613,-5.8621745109558105,-3.597243309020996,-33.45000076293945,-25.200000762939453,-15.15000057220459
0.53,77.22737121582031,-12.22000503540039,10.342951774597168,-7.327718257904053,5.062787055969238,-9.592649459838867,-34.5,-25.05000114440918,-15.750000953674316
0.54,77.26567840576172,-11.453861236572266,11.72201156616211,-7.594180583953857,7.460949420928955,-12.124042510986328,-32.400001525878906,-24.450000762939453,-14.40000057220459
0.56,76.19307708740234,-10.917559623718262,10.611102104187012,1.1990811824798584,-4.529861927032471,0.39969372749328613,-32.70000076293945,-23.700000762939453,-16.350000381469727
0.564,77.57213592529297,-10.72602367401123,11.836933135986328,1.3323123455047607,-3.0643184185028076,-0.1332312375307083,-32.70000076293945,-23.700000762939453,-16.350000381469727
0.57,77.49552154541016,-11.798625946044922,11.03248119354248,-9.192955017089844,8.127105712890625,-9.326186180114746,-33.0,-25.500001907348633,-16.05000114440918
0.58,76.99752807617188,-10.917559623718262,12.181697845458984,-7.9938740730285645,4.130168437957764,-1.0658499002456665,-33.150001525878906,-25.200000762939453,-15.600000381469727
0.59,78.45320129394531,-10.266336441040039,10.84094524383545,0.39969372749328613,-6.261868000030518,0.5329249501228333,-32.25,-24.30000114440918,-14.700000762939453
0.6,76.4995346069336,-10.342951774597168,11.03248119354248,-7.06125545501709,1.8652373552322388,3.597243309020996,-33.0,-24.750001907348633,-14.250000953674316
0.62,77.26567840576172,-11.453861236572266,11.91354751586914,-4.663093090057373,8.526799201965332,-9.326186180114746,-33.0,-24.750001907348633,-14.250000953674316
0.623,77.1124496459961,-11.798625946044922,10.687716484069824,-0.6661561727523804,2.2649309635162354,-5.062787055969238,-33.0,-23.55000114440918,-15.000000953674316
0.63,76.19307708740234,-11.377246856689453,10.764330863952637,-0.6661561727523804,-4.929555892944336,0.39969372749328613,-32.70000076293945,-24.450000762939453,-14.850000381469727
0.64,76.88260650634766,-10.879252433776855,11.224017143249512,-1.7320060729980469,1.4655436277389526,-3.9969370365142822,-32.70000076293945,-23.700000762939453,-15.15000057220459
0.65,76.34630584716797,-11.1474027633667,11.224017143249512,-6.794793128967285,1.9984685182571411,-11.591117858886719,-33.0,-26.250001907348633,-16.5
0.66,77.30398559570312,-11.41555404663086,11.41555404663086,1.0658499002456665,-1.4655436277389526,-3.86370587348938,-33.0,-26.250001907348633,-16.5
0.68,77.53382873535156,-10.611102104187012,11.530475616455078,-3.3307809829711914,6.661561965942383,-2.9310872554779053,-33.150001525878906,-25.200000762939453,-14.850000381469727
0.684,77.26567840576172,-11.338939666748047,11.377246856689453,-0.5329249501228333,-2.9310872554779053,7.327718257904053,-32.55000305175781,-25.500001907348633,-15.450000762939453
0.69,77.26567840576172,-12.105083465576172,12.411541938781738,-0.39969372749328613,0.9326186776161194,1.3323123455047607,-31.950000762939453,-24.150001525878906,-15.15000057220459
0.7,76.76768493652344,-11.30063247680664,11.530475616455078,-8.793261528015137,7.72741174697876,-3.4640121459960938,-33.150001525878906,-24.150001525878906,-15.600000381469727
0.71,77.64875030517578,-12.258312225341797,10.72602367401123,-8.260336875915527,3.86370587348938,-11.591117858886719,-33.150001525878906,-24.150001525878906,-15.600000381469727
0.72,77.26567840576172,-12.22000503540039,11.760318756103516,-7.06125545501709,5.196018218994141,-5.728943347930908,-32.55000305175781,-25.500001907348633,-14.700000762939453
0.74,77.1124496459961,-11.875240325927734,10.304644584655762,-1.9984685182571411,0.1332312375307083,2.6646246910095215,-32.70000076293945,-24.450000762939453,-15.15000057220459
0.743,77.1124496459961,-12.258312225341797,10.994174003601074,0.0,-2.2649309635162354,-5.462480545043945,-31.950000762939453,-24.900001525878906,-15.600000381469727
0.75,76.80599212646484,-10.917559623718262,10.457873344421387,-5.462480545043945,3.4640121459960938,-7.594180583953857,-31.950000762939453,-24.900001525878906,-15.600000381469727
0.76,77.49552154541016,-10.764330863952637,11.377246856689453,-13.58958625793457,0.2664624750614166,-33.57427215576172,-33.0,-25.05000114440918,-14.700000762939453
0.77,76.92091369628906,-12.066776275634766,11.568782806396484,-1.9984685182571411,-4.529861927032471,4.396630764007568,-32.55000305175781,-23.850000381469727,-14.250000953674316
0.78,77.1890640258789,-11.568782806396484,10.917559623718262,-1.3323123455047607,3.7304747104644775,-3.86370587348938,-33.0,-25.500001907348633,-15.450000762939453
0.8,76.99752807617188,-11.492168426513672,11.03248119354248,-3.9969370365142822,2.398162364959717,-5.196018218994141,-32.400001525878906,-25.200000762939453,-15.15000057220459
1.049,77.57213592529297,-11.60708999633789,11.262324333190918,-0.9326186776161194,-4.663093090057373,2.398162364959717,-33.75,-24.750001907348633,-15.000000953674316
1.059,76.84429931640625,-11.875240325927734,10.611102104187012,-4.929555892944336,3.197549819946289,-7.860642910003662,-31.500001907348633,-25.500001907348633,-15.450000762939453
1.069,76.61445617675781,-12.143390655517578,11.03248119354248,-7.72741174697876,6.9280242919921875,-9.459418296813965,-32.400001525878906,-24.900001525878906,-14.100000381469727
1.079,76.80599212646484,-11.109095573425293,11.377246856689453,0.39969372749328613,-0.7993874549865723,3.4640121459960938,-34.5,-24.750001907348633,-16.5
1.089,77.34229278564453,-11.109095573425293,11.72201156616211,0.9326186776161194,-5.462480545043945,2.531393527984619,-31.650001525878906,-25.200000762939453,-14.40000057220459
1.108,76.537841796875,-11.070788383483887,11.185709953308105,5.329249382019043,-3.0643184185028076,-1.1990811824798584,-31.80000114440918,-24.750001907348633,-16.05000114440918
1.112,75.58016204833984,-11.30063247680664,10.457873344421387,-4.929555892944336,7.06125545501709,-1.1990811824798584,-33.150001525878906,-24.150001525878906,-16.650001525878906
1.119,77.45721435546875,-11.836933135986328,11.683704376220703,3.4640121459960938,-3.86370587348938,-11.591117858886719,-33.150001525878906,-24.150001525878906,-16.650001525878906
1.129,77.34229278564453,-11.262324333190918,11.760318756103516,-5.8621745109558105,2.398162364959717,-11.324655532836914,-34.05000305175781,-23.850000381469727,-13.950000762939453
1.139,76.76768493652344,-11.070788383483887,11.91354751586914,-4.263399600982666,6.794793128967285,-0.5329249501228333,-33.900001525878906,-24.450000762939453,-15.15000057220459
1.149,76.72937774658203,-10.611102104187012,10.879252433776855,-8.39356803894043,1.3323123455047607,-9.992342948913574,-33.900001525878906,-24.450000762939453,-15.15000057220459
1.164,77.1890640258789,-11.836933135986328,11.41555404663086,-1.9984685182571411,7.860642910003662,-5.062787055969238,-33.0,-24.750001907348633,-14.700000762939453
1.17,76.72937774658203,-12.449849128723145,10.764330863952637,-2.398162364959717,3.7304747104644775,-6.261868000030518,-35.25,-24.30000114440918,-14.250000953674316
1.179,76.72937774658203,-12.60307788848877,11.72201156616211,-0.1332312375307083,-4.396630764007568,-4.396630764007568,-33.30000305175781,-24.750001907348633,-14.700000762939453
1.189,77.1507568359375,-11.530475616455078,11.224017143249512,0.5329249501228333,-3.0643184185028076,0.7993874549865723,-33.30000305175781,-24.750001907348633,-14.700000762939453
1.199,77.45721435546875,-10.228029251098633,11.109095573425293,-4.929555892944336,7.594180583953857,-2.9310872554779053,-34.5,-24.30000114440918,-15.750000953674316
1.209,77.41890716552734,-10.764330863952637,10.764330863952637,-1.7320060729980469,7.594180583953857,-2.2649309635162354,-32.70000076293945,-25.200000762939453,-15.600000381469727
1.229,76.42292022705078,-12.02846908569336,11.185709953308105,2.2649309635162354,-5.462480545043945,-2.398162364959717,-31.950000762939453,-24.450000762939453,-15.15000057220459
1.233,75.8866195678711,-11.453861236572266,11.070788383483887,3.0643184185028076,-1.3323123455047607,9.326186180114746,-31.950000762939453,-24.450000762939453,-15.15000057220459
1.239,76.65276336669922,-11.224017143249512,10.687716484069824,-4.529861927032471,9.859111785888672,-10.125574111938477,-31.950000762939453,-24.450000762939453,-15.15000057220459
1.249,76.99752807617188,-11.453861236572266,11.530475616455078,0.0,-3.0643184185028076,-0.9326186776161194,-34.5,-24.750001907348633,-15.750000953674316
1.259,77.07414245605469,-11.798625946044922,10.41956615447998,4.130168437957764,0.9326186776161194,-1.3323123455047607,-34.05000305175781,-25.500001907348633,-16.05000114440918
1.269,77.41890716552734,-11.185709953308105,11.72201156616211,3.0643184185028076,-3.597243309020996,1.5987749099731445,-33.45000076293945,-24.450000762939453,-15.15000057220459
1.285,77.30398559570312,-11.30063247680664,12.373234748840332,-7.460949420928955,1.3323123455047607,-0.1332312375307083,-33.45000076293945,-24.450000762939453,-15.15000057220459
1.29,78.26166534423828,-11.60708999633789,11.03248119354248,-3.4640121459960938,8.926492691040039,-5.196018218994141,-32.55000305175781,-25.500001907348633,-14.250000953674316
1.299,77.38059997558594,-11.568782806396484,10.457873344421387,-7.460949420928955,-0.6661561727523804,-1.5987749099731445,-32.55000305175781,-24.750001907348633,-14.250000953674316
1.309,77.53382873535156,-10.879252433776855,11.185709953308105,-5.462480545043945,4.929555892944336,-5.329249382019043,-33.30000305175781,-24.30000114440918,-15.450000762939453
1.319,77.95520782470703,-11.377246856689453,11.683704376220703,-3.9969370365142822,6.261868000030518,-6.395099639892578,-31.950000762939453,-24.900001525878906,-14.40000057220459
1.329,77.68705749511719,-11.91354751586914,10.649409294128418,2.6646246910095215,-4.796324729919434,1.8652373552322388,-31.950000762939453,-24.900001525878906,-14.40000057220459
1.349,76.38461303710938,-12.48815631866455,10.496180534362793,1.1990811824798584,-5.595712184906006,3.9969370365142822,-33.30000305175781,-26.250001907348633,-14.40000057220459
1.449,80.06210327148438,-7.354987621307373,14.135366439819336,10.125574111938477,-22.116384506225586,31.709033966064453,-33.150001525878906,-24.900001525878906,-16.650001525878906
1.464,73.24341583251953,-9.078812599182129,8.465897560119629,10.92496109008789,-20.91730499267578,40.102603912353516,-32.400001525878906,-25.650001525878906,-17.700000762939453
1.47,73.54987335205078,-16.203956604003906,3.907337188720703,14.12251091003418,-17.852985382080078,45.56508255004883,-32.70000076293945,-25.650001525878906,-16.650001525878906
1.479,74.6607894897461,-16.318878173828125,3.44765043258667,-1.7320060729980469,-10.791729927062988,31.042879104614258,-32.70000076293945,-25.650001525878906,-16.650001525878906
1.489,76.00154113769531,-17.276559829711914,3.064578056335449,3.597243309020996,-2.531393527984619,30.110260009765625,-32.25,-26.55000114440918,-15.750000953674316
1.499,76.30799865722656,-17.00840950012207,2.298433542251587,12.523736000061035,-5.329249382019043,33.04134750366211,-31.650001525878906,-26.850000381469727,-15.600000381469727
1.509,76.46122741699219,-17.92778205871582,1.5705963373184204,12.124042510986328,-2.2649309635162354,33.30780792236328,-31.650001525878906,-25.200000762939453,-15.600000381469727
1.529,76.72937774658203,-19.115306854248047,3.6391866207122803,12.390504837036133,10.125574111938477,15.188361167907715,-32.70000076293945,-26.850000381469727,-14.850000381469727
1.533,74.7374038696289,-17.50640296936035,2.873042106628418,19.45176124572754,14.655436515808105,15.987748146057129,-32.70000076293945,-26.850000381469727,-14.850000381469727
1.539,75.84831237792969,-17.73624610900879,2.7964274883270264,25.04747200012207,9.859111785888672,29.31087303161621,-32.55000305175781,-27.000001907348633,-16.80000114440918
1.549,75.61846923828125,-17.085023880004883,2.298433542251587,14.92189884185791,20.38437843322754,12.656967163085938,-32.55000305175781,-25.80000114440918,-15.750000953674316
1.559,76.19307708740234,-16.242263793945312,4.405331134796143,22.249616622924805,21.45022964477539,16.25421142578125,-32.25,-26.250001907348633,-16.80000114440918
1.569,76.23138427734375,-15.782577514648438,5.746084213256836,27.17917251586914,23.182235717773438,14.788667678833008,-31.650001525878906,-27.900001525878906,-15.90000057220459
1.586,75.46524047851562,-14.441824913024902,9.27034854888916,18.519142150878906,33.57427215576172,16.25421142578125,-32.55000305175781,-27.750001907348633,-15.450000762939453
1.59,75.3503189086914,-15.016432762145996,13.407529830932617,24.11485481262207,26.912710189819336,16.520673751831055,-32.55000305175781,-27.750001907348633,-15.450000762939453
1.599,76.84429931640625,-16.931795120239258,13.867216110229492,13.58958625793457,28.111791610717773,13.189892768859863,-31.650001525878906,-27.150001525878906,-14.40000057220459
1.609,76.42292022705078,-20.072986602783203,13.254301071166992,10.92496109008789,23.581928253173828,17.986217498779297,-32.55000305175781,-28.200000762939453,-16.05000114440918
1.619,75.50354766845703,-18.004396438598633,9.615114212036133,0.6661561727523804,25.447166442871094,13.989279747009277,-32.55000305175781,-26.55000114440918,-15.450000762939453
1.629,75.42693328857422,-21.26051139831543,14.288596153259277,-10.658498764038086,31.44257164001465,21.183767318725586,-32.55000305175781,-26.55000114440918,-15.450000762939453
1.649,75.54185485839844,-16.395492553710938,8.734047889709473,-13.189892768859863,32.90811538696289,10.125574111938477,-32.55000305175781,-27.750001907348633,-14.700000762939453
1.653,75.73339080810547,-12.60307788848877,13.407529830932617,3.9969370365142822,29.177640914916992,7.860642910003662,-32.55000305175781,-28.950000762939453,-14.250000953674316
1.659,76.65276336669922,-13.21599292755127,11.1474027633667,2.9310872554779053,34.10719680786133,23.448698043823242,-31.80000114440918,-27.450000762939453,-15.000000953674316
1.669,76.46122741699219,-17.085023880004883,11.760318756103516,5.062787055969238,31.176109313964844,11.857580184936523,-32.25,-27.450000762939453,-14.700000762939453
1.679,75.8866195678711,-19.68991470336914,12.066776275634766,6.395099639892578,27.31240463256836,15.055130004882812,-32.25,-27.450000762939453,-14.700000762939453
1.689,76.42292022705078,-18.004396438598633,14.556746482849121,11.990811347961426,20.38437843322754,9.859111785888672,-33.30000305175781,-27.450000762939453,-13.200000762939453
1.709,77.34229278564453,-16.395492553710938,16.89348793029785,3.86370587348938,28.111791610717773,5.462480545043945,-31.80000114440918,-29.250001907348633,-14.700000762939453
1.713,76.34630584716797,-13.79060173034668,21.796812057495117,18.2526798248291,12.923430442810059,2.131699800491333,-31.80000114440918,-29.250001907348633,-14.700000762939453
1.719,76.4995346069336,-14.556746482849121,18.808849334716797,17.986217498779297,11.857580184936523,10.92496109008789,-33.0,-27.750001907348633,-13.950000762939453
1.729,75.65677642822266,-17.42978858947754,16.28057098388672,5.728943347930908,17.719755172729492,-0.6661561727523804,-33.0,-27.750001907348633,-13.950000762939453
1.739,76.23138427734375,-19.038692474365234,15.782577514648438,6.5283308029174805,18.91883659362793,2.797856092453003,-34.05000305175781,-27.450000762939453,-13.950000762939453
1.749,77.30398559570312,-14.595053672790527,13.10107135772705,10.791729927062988,13.056661605834961,10.658498764038086,-33.0,-29.250001907348633,-15.000000953674316
1.765,76.5761489868164,-10.84094524383545,15.744270324707031,29.044410705566406,8.660030364990234,29.044410705566406,-33.30000305175781,-29.250001907348633,-14.250000953674316
1.769,76.34630584716797,-15.514427185058594,14.824896812438965,24.914241790771484,17.852985382080078,1.0658499002456665,-33.30000305175781,-29.250001907348633,-14.250000953674316
1.779,75.73339080810547,-17.92778205871582,14.173673629760742,23.715160369873047,6.661561965942383,5.595712184906006,-32.55000305175781,-28.950000762939453,-12.750000953674316
1.789,76.61445617675781,-23.252487182617188,14.135366439819336,13.989279747009277,2.398162364959717,5.462480545043945,-32.25,-28.200000762939453,-13.200000762939453
1.799,76.537841796875,-23.558944702148438,13.062764167785645,-1.5987749099731445,15.987748146057129,-3.3307809829711914,-34.05000305175781,-28.500001907348633,-13.500000953674316
1.809,74.77571105957031,-19.613300323486328,12.756306648254395,-1.9984685182571411,13.722817420959473,-9.192955017089844,-32.400001525878906,-28.80000114440918,-13.050000190734863
1.829,75.73339080810547,-15.629348754882812,14.09705924987793,4.263399600982666,3.197549819946289,3.197549819946289,-32.400001525878906,-28.80000114440918,-13.050000190734863
1.833,74.16278839111328,-12.449849128723145,15.744270324707031,22.382848739624023,5.595712184906006,3.7304747104644775,-33.45000076293945,-27.150001525878906,-13.050000190734863
1.839,76.72937774658203,-13.713987350463867,15.744270324707031,25.580398559570312,12.124042510986328,-1.0658499002456665,-33.45000076293945,-27.150001525878906,-13.050000190734863
1.849,76.03984832763672,-16.778566360473633,15.284584045410156,28.77794647216797,4.663093090057373,15.987748146057129,-33.0,-28.200000762939453,-13.500000953674316
1.859,74.46924591064453,-16.970102310180664,13.177685737609863,28.77794647216797,5.995405673980713,3.86370587348938,-33.75,-29.250001907348633,-13.950000762939453
1.869,73.74140930175781,-15.131354331970215,14.135366439819336,17.186830520629883,15.721285820007324,4.929555892944336,-33.75,-29.250001907348633,-13.950000762939453
1.887,76.69107055664062,-16.47210693359375,13.024456977844238,17.986217498779297,18.519142150878906,5.329249382019043,-32.55000305175781,-28.500001907348633,-12.750000953674316
1.89,75.04386138916016,-15.974113464355469,13.10107135772705,19.185298919677734,14.522205352783203,8.660030364990234,-32.55000305175781,-28.500001907348633,-12.750000953674316
1.899,75.61846923828125,-15.629348754882812,13.675680160522461,27.445634841918945,4.130168437957764,12.923430442810059,-32.25,-30.150001525878906,-13.200000762939453
1.909,76.4995346069336,-18.579004287719727,13.828908920288086,15.321592330932617,9.992342948913574,7.9938740730285645,-32.400001525878906,-29.55000114440918,-12.300000190734863
1.919,80.33025360107422,-25.665842056274414,10.457873344421387,-8.660030364990234,8.793261528015137,5.595712184906006,-32.400001525878906,-29.55000114440918,-12.300000190734863
1.929,77.95520782470703,-24.9763126373291,13.675680160522461,-21.45022964477539,1.5987749099731445,7.06125545501709,-32.70000076293945,-29.100000381469727,-12.300000190734863
1.948,75.50354766845703,-16.28057098388672,11.109095573425293,-25.04747200012207,16.12097930908203,3.597243309020996,-32.400001525878906,-30.30000114440918,-13.350000381469727
1.953,76.92091369628906,-14.901511192321777,16.35718536376953,-23.715160369873047,12.25727367401123,16.78713607788086,-33.0,-28.500001907348633,-12.750000953674316
1.959,77.03583526611328,-16.81687355041504,14.748282432556152,-17.186830520629883,2.398162364959717,16.387441635131836,-33.0,-28.500001907348633,-12.750000953674316
1.969,75.54185485839844,-16.66364288330078,14.824896812438965,-23.315465927124023,6.794793128967285,21.316997528076172,-33.0,-28.500001907348633,-12.750000953674316
1.979,75.84831237792969,-13.445837020874023,16.510414123535156,-27.578866958618164,17.053598403930664,13.58958625793457,-31.650001525878906,-27.900001525878906,-13.65000057220459
1.989,76.76768493652344,-16.127342224121094,17.8128604888916,-29.31087303161621,19.31852912902832,17.053598403930664,-33.150001525878906,-29.100000381469727,-12.600000381469727
2.009,75.8866195678711,-22.83110809326172,12.679692268371582,-45.96477508544922,8.39356803894043,25.846860885620117,-32.70000076293945,-29.55000114440918,-12.300000190734863
2.013,76.80599212646484,-21.14558982849121,16.433799743652344,-80.33843994140625,15.987748146057129,22.116384506225586,-32.70000076293945,-29.55000114440918,-12.300000190734863
2.02,77.7253646850586,-18.579004287719727,15.361198425292969,-87.39968872070312,14.788667678833008,12.124042510986328,-32.70000076293945,-29.55000114440918,-12.300000190734863
2.029,76.99752807617188,-13.10107135772705,17.92778205871582,-74.47626495361328,10.525267601013184,30.509952545166016,-34.20000076293945,-29.55000114440918,-13.050000190734863
2.039,76.72937774658203,-12.22000503540039,16.625335693359375,-60.62021255493164,2.131699800491333,41.434913635253906,-33.30000305175781,-30.150001525878906,-12.0
2.049,74.3160171508789,-12.449849128723145,16.81687355041504,-58.4885139465332,7.594180583953857,41.967838287353516,-34.05000305175781,-28.500001907348633,-12.450000762939453
2.062,74.08617401123047,-13.330915451049805,15.437812805175781,-57.955589294433594,7.860642910003662,53.95865249633789,-31.650001525878906,-29.100000381469727,-13.350000381469727
2.069,75.42693328857422,-13.560758590698242,16.510414123535156,-43.30015182495117,0.0,67.28177642822266,-31.650001525878906,-29.100000381469727,-13.350000381469727
2.079,75.84831237792969,-14.939818382263184,16.318878173828125,-45.298622131347656,8.793261528015137,63.81776428222656,-31.80000114440918,-28.950000762939453,-13.500000953674316
2.089,76.38461303710938,-17.774553298950195,16.970102310180664,-45.298622131347656,0.1332312375307083,69.81317138671875,-31.80000114440918,-29.250001907348633,-14.250000953674316
2.099,76.03984832763672,-20.64759635925293,17.697938919067383,-47.56355285644531,-8.660030364990234,73.27718353271484,-32.55000305175781,-29.250001907348633,-12.600000381469727
2.109,76.07815551757812,-21.030668258666992,17.544710159301758,-45.831546783447266,-5.8621745109558105,75.94180297851562,-32.55000305175781,-29.250001907348633,-13.950000762939453
2.128,75.9249267578125,-20.30282974243164,16.70195198059082,-42.36753463745117,-11.857580184936523,78.47319793701172,-32.400001525878906,-29.100000381469727,-14.100000381469727
2.132,76.99752807617188,-21.45204734802246,16.855180740356445,-44.89892578125,-8.793261528015137,79.2725830078125,-32.25,-31.650001525878906,-13.950000762939453
2.139,77.7253646850586,-22.83110809326172,15.514427185058594,-46.764163970947266,-17.986217498779297,86.3338394165039,-31.950000762939453,-31.500001907348633,-15.15000057220459
2.149,77.763671875,-24.554933547973633,14.403517723083496,-57.15620040893555,-13.58958625793457,78.07350158691406,-30.900001525878906,-31.80000114440918,-13.65000057220459
2.159,78.64473724365234,-26.087221145629883,9.691728591918945,-61.68606185913086,-17.053598403930664,83.13629150390625,-30.900001525878906,-31.80000114440918,-13.65000057220459
2.169,81.13470458984375,-25.5892276763916,9.959878921508789,-57.289432525634766,-25.04747200012207,94.19448852539062,-31.05000114440918,-31.200000762939453,-13.950000762939453
2.182,80.44517517089844,-23.558944702148438,12.564770698547363,-57.955589294433594,-29.7105655670166,99.12403869628906,-31.950000762939453,-31.500001907348633,-12.600000381469727
2.189,82.74361419677734,-21.643583297729492,19.345149993896484,-55.95711898803711,-24.51454734802246,87.39968872070312,-31.500001907348633,-31.950000762939453,-13.950000762939453
2.199,83.20330047607422,-24.516624450683594,17.468095779418945,-62.75191116333008,-31.309341430664062,90.86370086669922,-30.900001525878906,-31.80000114440918,-15.15000057220459
2.209,87.26386260986328,-30.224401473999023,18.157625198364258,-66.74884796142578,-42.76722717285156,97.25880432128906,-30.900001525878906,-31.80000114440918,-15.15000057220459
2.219,95.27007293701172,-30.875625610351562,14.97812557220459,-68.74732208251953,-54.89126968383789,117.24349212646484,-29.55000114440918,-31.650001525878906,-15.000000953674316
2.229,103.85089111328125,-43.32547378540039,21.107282638549805,-117.9096450805664,-48.09647750854492,81.13782501220703,-29.55000114440918,-31.650001525878906,-16.5
2.248,86.8041763305664,-7.1251444816589355,12.717999458312988,-95.79325866699219,-52.89280319213867,106.58499145507812,-29.250001907348633,-31.950000762939453,-16.5
2.253,97.37696838378906,-23.865402221679688,12.373234748840332,-84.20214080810547,-65.949462890625,118.04287719726562,-29.250001907348633,-31.950000762939453,-16.5
2.259,96.49590301513672,-26.54690933227539,12.334927558898926,-81.93721008300781,-65.28330993652344,117.11026000976562,-29.250001907348633,-31.950000762939453,-16.5
2.269,90.48167419433594,-24.44001007080078,9.883264541625977,-92.72894287109375,-67.14854431152344,121.77335357666016,-28.650001525878906,-33.0,-15.90000057220459
2.279,88.83445739746094,-22.984336853027344,12.947842597961426,-89.5313949584961,-84.60183715820312,139.6263427734375,-29.55000114440918,-32.400001525878906,-16.5
2.289,93.9676284790039,-20.149600982666016,15.782577514648438,-94.46094512939453,-89.93108367919922,152.81622314453125,-29.250001907348633,-34.35000228881836,-16.5
2.306,98.37296295166016,-19.958065032958984,15.514427185058594,-119.24195861816406,-90.4640121459961,157.612548828125,-29.250001907348633,-34.35000228881836,-16.5
2.309,104.08073425292969,-15.897499084472656,16.81687355041504,-112.98008728027344,-99.79019927978516,174.66615295410156,-28.80000114440918,-33.60000228881836,-16.80000114440918
2.319,104.50211334228516,-15.782577514648438,17.00840950012207,-126.5696792602539,-112.58039855957031,202.3782501220703,-26.700000762939453,-33.45000076293945,-17.700000762939453
2.329,107.71992492675781,-12.181697845458984,14.67166805267334,-146.0214385986328,-115.51148223876953,186.5237274169922,-29.55000114440918,-32.85000228881836,-19.05000114440918
2.339,110.89942169189453,-6.780379295349121,11.990161895751953,-156.5467071533203,-115.2450180053711,215.16844177246094,-26.55000114440918,-35.55000305175781,-19.05000114440918
2.358,113.58092498779297,1.5322890281677246,9.768342971801758,-169.0704345703125,-122.43950653076172,218.76568603515625,-26.55000114440918,-35.55000305175781,-19.05000114440918
2.362,115.9942855834961,6.780379295349121,9.232041358947754,-162.27565002441406,-121.3736572265625,260.7335205078125,-25.650001525878906,-33.75,-20.400001525878906
2.369,118.06287384033203,12.066776275634766,8.772355079650879,-170.4027557373047,-127.5022964477539,272.9908142089844,-24.0,-35.10000228881836,-19.80000114440918
2.379,116.99027252197266,15.437812805175781,7.354987621307373,-167.33843994140625,-133.23123168945312,292.309326171875,-24.450000762939453,-35.70000076293945,-20.400001525878906
2.389,118.29271697998047,20.41775131225586,6.512228488922119,-178.39662170410156,-136.69525146484375,287.9126892089844,-22.80000114440918,-36.60000228881836,-22.05000114440918
2.399,119.59516143798828,26.43198585510254,8.274360656738281,-197.848388671875,-142.4241943359375,295.7733459472656,-22.80000114440918,-36.60000228881836,-22.05000114440918
2.409,117.18180847167969,27.313053131103516,9.155426979064941,-231.02296447753906,-158.14547729492188,276.7212829589844,-21.0,-35.55000305175781,-22.05000114440918
2.428,107.37516021728516,20.072986602783203,14.748282432556152,-28.77794647216797,-129.76722717285156,290.57733154296875,-19.80000114440918,-35.85000228881836,-23.100000381469727
2.432,80.02379608154297,34.09343338012695,24.938005447387695,66.08269500732422,-129.6339874267578,321.0872802734375,-19.80000114440918,-35.85000228881836,-23.100000381469727
2.439,79.37257385253906,26.470293045043945,22.218191146850586,229.95712280273438,-107.65084075927734,353.9953918457031,-19.5,-36.60000228881836,-23.55000114440918
2.449,77.1890640258789,2.4133553504943848,25.435998916625977,367.98468017578125,-70.07962799072266,373.1806945800781,-19.5,-36.60000228881836,-23.55000114440918
2.459,69.45100402832031,-42.061336517333984,39.533058166503906,354.2618713378906,-37.03828430175781,325.3506774902344,-18.150001525878906,-39.150001525878906,-24.0
2.469,56.618080139160156,-68.30178833007812,37.656005859375,218.36599731445312,-23.315465927124023,236.48544311523438,-17.55000114440918,-40.20000076293945,-23.100000381469727
2.482,44.206539154052734,-78.03182220458984,35.817256927490234,70.47932434082031,3.597243309020996,107.91730499267578,-16.05000114440918,-41.70000076293945,-20.850000381469727
2.489,32.10145568847656,-42.94240188598633,26.163835525512695,26.246553421020508,1.7320060729980469,62.21898651123047,-16.05000114440918,-40.95000076293945,-21.30000114440918
2.499,36.8132438659668,-14.058752059936523,18.157625198364258,30.24349021911621,24.64777946472168,-13.056661605834961,-16.05000114440918,-40.95000076293945,-21.30000114440918
2.509,36.08540725708008,12.29662036895752,20.149600982666016,51.160797119140625,50.36140823364258,-75.27565002441406,-16.80000114440918,-42.150001525878906,-21.30000114440918
2.519,30.91393280029297,24.631547927856445,22.256498336791992,80.8713607788086,61.41960144042969,-119.10872650146484,-18.150001525878906,-41.85000228881836,-20.700000762939453
2.529,25.550920486450195,19.919757843017578,16.740259170532227,107.65084075927734,68.61408996582031,-154.14854431152344,-16.650001525878906,-39.150001525878906,-21.150001525878906
2.548,23.52063751220703,8.274360656738281,13.024456977844238,123.9050521850586,81.13782501220703,-253.93873596191406,-18.900001525878906,-39.60000228881836,-18.900001525878906
2.553,25.972299575805664,-5.822698593139648,12.105083465576172,120.04134368896484,90.86370086669922,-272.8575744628906,-18.900001525878906,-39.60000228881836,-18.900001525878906
2.559,26.01060676574707,-7.393294811248779,11.645397186279297,121.3736572265625,88.19908142089844,-296.17303466796875,-19.5,-40.20000076293945,-18.75
2.569,27.696125030517578,-7.2783732414245605,9.27034854888916,126.16998291015625,85.26799011230469,-355.1944885253906,-21.75,-39.0,-18.0
2.579,30.37763023376465,-7.010222434997559,9.615114212036133,127.5022964477539,90.33078002929688,-400.8927917480469,-21.150001525878906,-40.650001525878906,-17.700000762939453
2.589,35.24264907836914,-11.185709953308105,10.764330863952637,102.8545150756836,87.26646423339844,-442.0612487792969,-21.450000762939453,-37.650001525878906,-18.150001525878906
2.603,43.05732345581055,-21.643583297729492,14.709975242614746,51.027565002441406,81.00459289550781,-482.69677734375,-21.450000762939453,-37.650001525878906,-18.150001525878906
2.609,51.52322006225586,-27.27474594116211,12.947842597961426,27.978559494018555,86.73353576660156,-509.6094970703125,-25.650001525878906,-34.95000076293945,-15.600000381469727
2.619,55.009178161621094,-27.351360321044922,12.258312225341797,6.261868000030518,90.4640121459961,-530.7932739257812,-25.500001907348633,-35.10000228881836,-16.5
2.629,60.065731048583984,-26.01060676574707,13.254301071166992,5.728943347930908,79.40581512451172,-556.64013671875,-28.05000114440918,-33.150001525878906,-16.05000114440918
2.639,65.35212707519531,-25.89568519592285,12.29662036895752,13.189892768859863,87.79938507080078,-579.6890869140625,-27.750001907348633,-30.150001525878906,-15.750000953674316
2.658,71.74943542480469,-27.58120346069336,12.526463508605957,11.591117858886719,95.39356231689453,-596.4762573242188,-27.750001907348633,-30.150001525878906,-15.750000953674316
2.662,81.59439086914062,-29.95625114440918,12.373234748840332,3.9969370365142822,107.25114440917969,-605.9356689453125,-29.55000114440918,-28.200000762939453,-14.700000762939453
2.669,91.5159683227539,-31.258697509765625,8.580819129943848,3.4640121459960938,121.10719299316406,-603.6707153320312,-31.200000762939453,-25.200000762939453,-14.850000381469727
2.679,93.66117095947266,-31.335311889648438,7.240066051483154,10.525267601013184,134.5635528564453,-604.3369140625,-31.80000114440918,-23.55000114440918,-13.200000762939453
2.689,97.87496185302734,-31.258697509765625,2.719813108444214,20.650842666625977,145.75497436523438,-602.3384399414062,-33.0,-22.80000114440918,-13.500000953674316
2.699,105.4214859008789,-37.15800857543945,0.3447650372982025,40.102603912353516,150.6845245361328,-584.0857543945312,-33.0,-22.80000114440918,-13.500000953674316
2.709,110.6695785522461,-43.13393783569336,-1.0342950820922852,48.49617004394531,149.88514709472656,-572.6278686523438,-33.150001525878906,-15.600000381469727,-12.300000190734863
2.726,114.30876922607422,-46.96466064453125,-1.7621324062347412,33.17457962036133,160.6768798828125,-541.8514404296875,-34.650001525878906,-12.90000057220459,-10.800000190734863
2.729,118.98224639892578,-46.35174560546875,-3.8307228088378906,36.771820068359375,146.42112731933594,-522.9326171875,-34.650001525878906,-12.90000057220459,-10.800000190734863
2.739,120.16976928710938,-46.926353454589844,-4.290409564971924,35.439510345458984,127.10260009765625,-511.4747314453125,-34.20000076293945,-11.40000057220459,-10.800000190734863
2.749,119.32701110839844,-45.892059326171875,-11.453861236572266,35.57273864746094,124.8376693725586,-491.4900207519531,-34.20000076293945,-11.40000057220459,-10.800000190734863
2.759,121.28067779541016,-53.93657684326172,-10.189722061157227,26.912710189819336,106.85145568847656,-453.78558349609375,-33.30000305175781,-8.40000057220459,-9.15000057220459
2.778,124.00049591064453,-63.589996337890625,-8.734047889709473,30.509952545166016,82.7365951538086,-407.1546630859375,-33.150001525878906,-7.050000190734863,-10.050000190734863
2.782,114.73014831542969,-61.5980224609375,-10.496180534362793,27.71209716796875,65.54976654052734,-348.6661376953125,-34.20000076293945,-5.100000381469727,-9.0
2.789,103.08474731445312,-56.311622619628906,-10.266336441040039,38.50382614135742,63.950992584228516,-310.2955627441406,-32.70000076293945,-3.1500000953674316,-9.0
2.799,97.79834747314453,-61.48310089111328,-8.35097599029541,41.967838287353516,69.14701080322266,-259.6676940917969,-32.70000076293945,-3.1500000953674316,-9.0
2.809,94.31239318847656,-70.0256118774414,-7.201758861541748,23.182235717773438,52.75957107543945,-196.51608276367188,-31.05000114440918,-1.8000000715255737,-8.40000057220459
2.819,93.2780990600586,-74.81401824951172,-10.802638053894043,0.2664624750614166,45.56508255004883,-140.29249572753906,-31.950000762939453,-0.9000000357627869,-8.25
2.829,94.04424285888672,-73.54987335205078,-15.897499084472656,-18.91883659362793,36.771820068359375,-79.2725830078125,-33.75,2.25,-8.40000057220459
2.845,94.69546508789062,-68.99131774902344,-17.92778205871582,-17.053598403930664,-0.7993874549865723,10.258805274963379,-32.70000076293945,0.15000000596046448,-8.550000190734863
2.849,93.31640625,-53.63011932373047,-16.28057098388672,-19.718223571777344,1.7320060729980469,18.652372360229492,-32.70000076293945,0.15000000596046448,-8.550000190734863
2.859,92.93333435058594,-53.28535461425781,-15.207969665527344,-3.86370587348938,-13.722817420959473,76.34149932861328,-31.950000762939453,1.6500000953674316,-9.75
2.869,87.9533920288086,-51.52322006225586,-11.185709953308105,3.4640121459960938,-27.445634841918945,122.9724349975586,-32.400001525878906,0.15000000596046448,-9.0
2.879,87.45539855957031,-51.561527252197266,-7.7763671875,6.9280242919921875,-33.4410400390625,154.0153045654297,-31.950000762939453,-0.45000001788139343,-9.0
2.898,87.76185607910156,-46.006980895996094,-5.439626216888428,17.852985382080078,-34.373661041259766,189.0551300048828,-31.950000762939453,-0.45000001788139343,-9.0
2.902,81.51777648925781,-43.05732345581055,3.9456443786621094,7.194486618041992,-1.9984685182571411,197.58192443847656,-31.650001525878906,-1.6500000953674316,-9.0
2.909,72.20912170410156,-37.73262023925781,39.72459411621094,-45.831546783447266,13.323123931884766,173.0673828125,-31.650001525878906,-1.6500000953674316,-9.0
2.919,81.36454772949219,-19.230228424072266,71.7877426147461,-169.8698272705078,-20.117916107177734,112.58039855957031,-31.80000114440918,-2.700000047683716,-7.950000286102295
2.929,128.21429443359375,30.339323043823242,72.17081451416016,-249.1424102783203,-66.61561584472656,111.38131713867188,-32.55000305175781,-3.450000047683716,-8.40000057220459
2.939,142.3496551513672,87.03401947021484,-14.288596153259277,-116.57733154296875,-20.251148223876953,162.27565002441406,-32.55000305175781,-3.450000047683716,-8.40000057220459
2.959,77.57213592529297,74.39263153076172,-18.4257755279541,35.03981399536133,-5.595712184906006,181.06124877929688,-32.400001525878906,-2.4000000953674316,-8.25
2.963,51.63814163208008,26.31706428527832,12.48815631866455,86.3338394165039,-25.846860885620117,180.5283203125,-33.0,-1.8000000715255737,-7.950000286102295
2.969,66.23319244384766,-39.07337188720703,14.863204002380371,56.756507873535156,-18.119447708129883,156.679931640625,-33.0,-1.8000000715255737,-7.950000286102295
2.979,71.97927856445312,-49.64616775512695,18.004396438598633,3.4640121459960938,-25.980091094970703,140.82542419433594,-31.80000114440918,-3.750000238418579,-8.700000762939453
2.989,77.57213592529297,-39.954437255859375,14.556746482849121,-34.64012145996094,-28.378253936767578,125.50382232666016,-31.80000114440918,-3.750000238418579,-8.700000762939453
2.999,80.10041046142578,-18.081010818481445,5.1331682205200195,-33.97396469116211,-8.793261528015137,104.7197494506836,-33.0,-5.700000286102295,-8.700000762939453
3.009,75.58016204833984,-2.7964274883270264,7.4316020011901855,-1.4655436277389526,7.06125545501709,116.57733154296875,-33.150001525878906,-3.6000001430511475,-10.350000381469727
3.025,75.84831237792969,-6.282385349273682,12.29662036895752,-12.390504837036133,15.854516983032227,108.3169937133789,-33.45000076293945,-4.050000190734863,-9.75
3.03,86.61264038085938,-38.537071228027344,6.550535678863525,-35.17304611206055,16.25421142578125,112.4471664428711,-33.45000076293945,-4.050000190734863,-9.75
3.039,80.98147583007812,-37.311241149902344,7.738059997558594,-65.54976654052734,21.050535202026367,93.39509582519531,-33.45000076293945,-4.050000190734863,-9.75
3.049,75.69508361816406,-25.550920486450195,16.548721313476562,-70.87902069091797,23.182235717773438,90.73047637939453,-33.900001525878906,-5.850000381469727,-9.75
3.059,77.84028625488281,-8.887276649475098,18.732234954833984,-73.67687225341797,19.31852912902832,79.67227935791016,-32.70000076293945,-7.050000190734863,-9.300000190734863
3.078,79.71733856201172,-9.653421401977539,23.482330322265625,-87.26646423339844,17.852985382080078,69.67993927001953,-32.70000076293945,-7.500000476837158,-9.0
3.082,80.56009674072266,-17.659631729125977,19.881450653076172,-109.38284301757812,11.457886695861816,63.684532165527344,-32.70000076293945,-7.500000476837158,-9.0
3.089,78.03182220458984,-12.22000503540039,11.72201156616211,-103.25421142578125,10.525267601013184,69.67993927001953,-32.70000076293945,-7.500000476837158,-9.0
3.099,76.92091369628906,-0.07661445438861847,6.933608055114746,-79.53904724121094,19.718223571777344,72.74425506591797,-33.30000305175781,-9.15000057220459,-8.40000057220459
3.109,77.45721435546875,15.437812805175781,11.492168426513672,-32.108726501464844,33.84073257446289,80.07197570800781,-33.45000076293945,-8.700000762939453,-8.25
3.119,79.37257385253906,11.530475616455078,13.522451400756836,-2.398162364959717,31.44257164001465,77.00765228271484,-33.30000305175781,-7.200000286102295,-7.650000095367432
3.129,80.02379608154297,-7.2783732414245605,19.115306854248047,-5.062787055969238,30.643184661865234,91.52986145019531,-33.30000305175781,-7.200000286102295,-7.650000095367432
3.148,79.90887451171875,-19.99637222290039,15.897499084472656,-45.831546783447266,18.385910034179688,54.75803756713867,-34.5,-8.40000057220459,-6.900000095367432
3.152,77.1507568359375,-18.195932388305664,21.75850486755371,-53.558956146240234,19.98468589782715,53.42572784423828,-34.20000076293945,-8.700000762939453,-7.050000190734863
3.159,75.2737045288086,-16.127342224121094,22.83110809326172,-51.027565002441406,21.050535202026367,50.22817611694336,-35.55000305175781,-8.850000381469727,-6.600000381469727
3.169,74.08617401123047,-12.756306648254395,23.865402221679688,-44.36600112915039,18.2526798248291,32.37519073486328,-36.75,-8.100000381469727,-7.350000381469727
3.179,76.88260650634766,-10.84094524383545,18.310853958129883,-49.16232681274414,22.51607894897461,26.379785537719727,-36.75,-8.100000381469727,-7.350000381469727
3.189,77.7253646850586,-10.994174003601074,15.85919189453125,-44.63246536254883,25.447166442871094,17.719755172729492,-32.70000076293945,-9.0,-7.800000190734863
3.202,79.18103790283203,-12.871228218078613,16.510414123535156,-55.02450180053711,25.580398559570312,11.324655532836914,-35.400001525878906,-9.450000762939453,-7.050000190734863
3.209,77.1124496459961,-16.1656494140625,16.66364288330078,-62.8851432800293,26.246553421020508,6.261868000030518,-35.400001525878906,-9.75,-6.300000190734863
3.219,76.99752807617188,-15.131354331970215,16.395492553710938,-67.5482406616211,18.2526798248291,5.462480545043945,-34.20000076293945,-9.450000762939453,-7.500000476837158
3.229,78.989501953125,-13.062764167785645,17.12333106994629,-64.48391723632812,11.591117858886719,3.86370587348938,-34.20000076293945,-9.450000762939453,-7.500000476837158
3.239,78.49150848388672,-10.457873344421387,20.532672882080078,-63.418067932128906,3.4640121459960938,2.531393527984619,-35.70000076293945,-9.0,-6.300000190734863
3.259,75.08216857910156,-12.449849128723145,23.21417999267578,-71.41194152832031,12.25727367401123,-7.460949420928955,-36.30000305175781,-10.050000190734863,-6.900000095367432
3.262,74.39263153076172,-14.939818382263184,21.98834800720215,-78.07350158691406,1.9984685182571411,-4.529861927032471,-34.05000305175781,-10.800000190734863,-6.900000095367432
3.269,74.3160171508789,-9.308655738830566,25.014619827270508,-71.41194152832031,2.2649309635162354,-11.724349021911621,-33.0,-8.850000381469727,-7.950000286102295
3.279,74.7374038696289,-6.282385349273682,25.933992385864258,-62.21898651123047,4.663093090057373,-5.728943347930908,-33.0,-8.850000381469727,-7.950000286102295
3.289,74.43093872070312,-5.822698593139648,26.66183090209961,-71.14547729492188,-5.728943347930908,-7.860642910003662,-36.0,-9.15000057220459,-6.900000095367432
3.299,76.07815551757812,-13.867216110229492,23.02264404296875,-81.00459289550781,-7.327718257904053,-2.797856092453003,-33.0,-8.850000381469727,-6.900000095367432
3.309,77.1507568359375,-10.764330863952637,22.409727096557617,-83.26952362060547,-7.327718257904053,0.1332312375307083,-34.650001525878906,-8.700000762939453,-7.800000190734863
3.322,77.49552154541016,-0.5746083855628967,22.524648666381836,-64.75038146972656,-12.25727367401123,2.131699800491333,-34.20000076293945,-10.200000762939453,-6.750000476837158
3.329,78.3382797241211,2.145204782485962,21.45204734802246,-55.82388687133789,1.4655436277389526,7.9938740730285645,-34.20000076293945,-10.200000762939453,-6.750000476837158
3.339,78.72135162353516,-5.937620162963867,21.413740158081055,-54.75803756713867,-7.194486618041992,5.462480545043945,-34.95000076293945,-7.050000190734863,-6.300000190734863
3.349,74.77571105957031,-13.21599292755127,22.48634147644043,-72.47779083251953,-4.796324729919434,5.462480545043945,-34.05000305175781,-8.100000381469727,-6.600000381469727
3.359,77.38059997558594,-8.695740699768066,23.02264404296875,-74.74272155761719,-3.86370587348938,3.4640121459960938,-34.05000305175781,-8.850000381469727,-5.400000095367432
3.379,74.62248229980469,-2.7964274883270264,22.946029663085938,-48.49617004394531,-13.856048583984375,19.45176124572754,-34.95000076293945,-8.700000762939453,-6.300000190734863
3.383,72.97526550292969,2.6815059185028076,25.167848587036133,-17.053598403930664,-8.39356803894043,29.84379768371582,-34.95000076293945,-8.700000762939453,-6.300000190734863
3.389,71.213134765625,2.3750481605529785,26.240449905395508,-11.591117858886719,-10.258805274963379,36.63859176635742,-36.45000076293945,-7.800000190734863,-7.050000190734863
3.399,69.75746154785156,0.0,26.623523712158203,-1.0658499002456665,-16.387441635131836,35.439510345458984,-35.25,-7.200000286102295,-6.900000095367432
3.409,71.51959228515625,-5.51624059677124,23.482330322265625,4.263399600982666,-23.315465927124023,53.69218826293945,-33.75,-9.15000057220459,-7.350000381469727
3.419,70.90667724609375,-9.040505409240723,24.938005447387695,8.260336875915527,-22.51607894897461,49.96171569824219,-33.45000076293945,-8.700000762939453,-7.500000476837158
3.429,71.02159881591797,-7.393294811248779,22.984336853027344,6.794793128967285,-23.581928253173828,59.15467071533203,-33.45000076293945,-8.700000762939453,-7.500000476837158
3.441,71.63451385498047,-7.546523571014404,23.865402221679688,15.987748146057129,-26.113323211669922,77.94027709960938,-34.05000305175781,-10.350000381469727,-6.600000381469727
3.45,71.213134765625,-5.937620162963867,21.183897018432617,22.382848739624023,-33.97396469116211,74.74272155761719,-35.55000305175781,-10.350000381469727,-7.950000286102295
3.459,71.40467071533203,-2.451662540435791,22.06496238708496,23.448698043823242,-32.5084228515625,117.64318084716797,-34.650001525878906,-10.200000762939453,-7.800000190734863
3.469,72.78372955322266,-5.592854976654053,20.30282974243164,9.992342948913574,-25.18070411682129,87.26646423339844,-35.70000076293945,-10.5,-8.25
3.479,75.00555419921875,-8.35097599029541,22.792800903320312,27.045940399169922,-24.64777946472168,93.12863159179688,-35.70000076293945,-10.5,-8.25
3.498,72.32404327392578,-7.086836814880371,23.3291015625,49.42878723144531,-24.381317138671875,99.25727081298828,-34.05000305175781,-10.050000190734863,-7.650000095367432
3.502,70.75344848632812,-6.090848922729492,20.149600982666016,66.74884796142578,-30.509952545166016,103.25421142578125,-34.80000305175781,-10.050000190734863,-6.150000095367432
3.509,70.98329162597656,-17.583017349243164,15.399505615234375,64.21745300292969,-22.51607894897461,94.59417724609375,-34.20000076293945,-10.5,-8.550000190734863
3.519,70.33206939697266,-24.708162307739258,10.72602367401123,43.69984436035156,-29.84379768371582,105.38591003417969,-34.20000076293945,-10.5,-8.550000190734863
3.529,70.10222625732422,-22.639572143554688,9.385271072387695,43.96630859375,-19.31852912902832,95.39356231689453,-34.05000305175781,-12.750000953674316,-7.950000286102295
3.539,71.09821319580078,-7.661445617675781,10.572794914245605,70.47932434082031,-21.050535202026367,106.85145568847656,-34.5,-11.850000381469727,-8.700000762939453
3.559,72.32404327392578,-1.723825216293335,13.024456977844238,111.91423797607422,-26.113323211669922,108.58345794677734,-34.5,-13.800000190734863,-7.950000286102295
3.562,73.39664459228516,-3.2561142444610596,12.90953540802002,127.36906433105469,-51.4272575378418,136.0290985107422,-34.80000305175781,-14.250000953674316,-7.950000286102295
3.569,81.90084838867188,-53.28535461425781,1.9919757843017578,71.81163787841797,-36.5053596496582,114.71209716796875,-34.80000305175781,-14.250000953674316,-7.950000286102295
3.579,84.46743774414062,-58.226985931396484,-0.5363011956214905,0.5329249501228333,-37.304744720458984,101.2557373046875,-34.650001525878906,-14.850000381469727,-9.0
3.589,83.6629867553711,-27.427974700927734,3.9456443786621094,27.045940399169922,-42.23430252075195,105.38591003417969,-35.55000305175781,-13.050000190734863,-8.700000762939453
3.599,84.42913055419922,-8.006210327148438,4.32871675491333,48.09647750854492,-32.5084228515625,106.05206298828125,-34.650001525878906,-16.350000381469727,-9.0
3.618,84.58235931396484,-25.81907081604004,7.5848307609558105,39.30321502685547,-29.577335357666016,99.25727081298828,-35.400001525878906,-16.350000381469727,-8.550000190734863
3.622,83.6629867553711,-36.621707916259766,6.244078159332275,14.788667678833008,-45.16539001464844,99.12403869628906,-35.400001525878906,-16.350000381469727,-8.550000190734863
3.629,90.94136047363281,-34.476505279541016,8.772355079650879,-3.86370587348938,-46.764163970947266,90.99693298339844,-34.20000076293945,-15.90000057220459,-9.75
3.639,90.55828857421875,-25.09123420715332,18.732234954833984,-11.457886695861816,-44.89892578125,72.74425506591797,-35.400001525878906,-16.80000114440918,-7.500000476837158
3.649,88.68122863769531,-14.058752059936523,21.911733627319336,9.992342948913574,-50.36140823364258,93.79479217529297,-35.70000076293945,-18.30000114440918,-10.050000190734863
3.659,90.09859466552734,-20.456058502197266,22.218191146850586,3.86370587348938,-58.4885139465332,78.3399658203125,-34.650001525878906,-17.850000381469727,-10.050000190734863
3.679,93.66117095947266,-33.557132720947266,18.732234954833984,-36.771820068359375,-58.08882141113281,72.87748718261719,-34.650001525878906,-17.850000381469727,-10.050000190734863
3.682,100.09678649902344,-35.77894973754883,18.808849334716797,-86.20060729980469,-70.47932434082031,64.3506851196289,-34.5,-17.400001525878906,-10.65000057220459
3.689,110.7078857421875,-22.06496238708496,15.974113464355469,-90.59724426269531,-80.33843994140625,75.94180297851562,-33.30000305175781,-20.100000381469727,-11.40000057220459
3.699,111.47402954101562,-13.79060173034668,14.901511192321777,-93.66156005859375,-82.86982727050781,81.00459289550781,-33.150001525878906,-18.30000114440918,-10.050000190734863
3.709,111.3591079711914,-7.7763671875,14.09705924987793,-84.4686050415039,-75.27565002441406,73.67687225341797,-32.55000305175781,-18.150001525878906,-11.700000762939453
3.719,114.07892608642578,-13.675680160522461,10.802638053894043,-89.66461944580078,-82.47013854980469,72.47779083251953,-32.55000305175781,-18.150001525878906,-11.700000762939453
3.738,113.42769622802734,-24.861391067504883,5.2480902671813965,-114.3124008178711,-89.93108367919922,82.86982727050781,-33.900001525878906,-17.55000114440918,-11.850000381469727
3.742,112.04863739013672,-27.121517181396484,2.145204782485962,-161.6094970703125,-81.93721008300781,65.54976654052734,-33.900001525878906,-19.5,-11.550000190734863
3.749,113.84908294677734,-15.820884704589844,-2.75812029838562,-187.4563446044922,-75.14241790771484,59.55436325073242,-33.75,-18.900001525878906,-13.500000953674316
3.759,114.69184112548828,-7.4316020011901855,-1.7621324062347412,-194.6508331298828,-86.73353576660156,56.49004364013672,-34.5,-18.900001525878906,-13.200000762939453
3.769,115.419677734375,5.477933406829834,-0.038307227194309235,-196.51608276367188,-70.74578857421875,79.13935852050781,-34.5,-18.900001525878906,-13.200000762939453
3.779,118.4842529296875,11.453861236572266,0.0,-202.511474609375,-64.88361358642578,70.87902069091797,-31.650001525878906,-19.5,-14.40000057220459
3.799,118.10118103027344,16.855180740356445,1.37906014919281,-203.17764282226562,-55.82388687133789,73.14395141601562,-32.400001525878906,-19.5,-14.40000057220459
3.803,109.06067657470703,23.252487182617188,5.669469833374023,-170.0030517578125,-53.82542037963867,67.28177642822266,-31.650001525878906,-17.850000381469727,-14.40000057220459
3.809,95.23176574707031,29.381643295288086,6.665457725524902,-132.6983184814453,-47.297088623046875,73.14395141601562,-31.650001525878906,-17.850000381469727,-14.40000057220459
3.819,95.49991607666016,26.12552833557129,11.683704376220703,-32.108726501464844,-38.23736572265625,103.65390014648438,-31.650001525878906,-17.850000381469727,-14.40000057220459
3.829,112.77647399902344,0.3447650372982025,20.724210739135742,49.16232681274414,-50.4946403503418,149.08575439453125,-31.950000762939453,-19.05000114440918,-13.65000057220459
3.839,142.00489807128906,-30.37763023376465,26.776752471923828,106.18529510498047,-62.485450744628906,175.9984588623047,-31.05000114440918,-17.700000762939453,-14.700000762939453
3.859,147.90420532226562,-40.41412353515625,42.59763717651367,147.22052001953125,-97.5252685546875,218.23277282714844,-31.650001525878906,-21.450000762939453,-15.600000381469727
3.863,134.42005920410156,-35.24264907836914,31.41192626953125,272.4578857421875,-95.52679443359375,329.3476257324219,-30.30000114440918,-20.100000381469727,-15.750000953674316
3.869,129.8231964111328,-81.01978302001953,25.20615577697754,291.6431884765625,-89.39816284179688,397.56201171875,-30.30000114440918,-20.100000381469727,-15.750000953674316
3.879,132.1216278076172,-129.59335327148438,18.502389907836914,220.8973846435547,-68.08116149902344,479.2327575683594,-30.750001907348633,-21.900001525878906,-13.500000953674316
3.889,128.099365234375,-178.9713592529297,23.099258422851562,78.20673370361328,-59.287899017333984,522.7993774414062,-30.150001525878906,-24.900001525878906,-15.90000057220459
3.899,132.9260711669922,-191.38290405273438,24.861391067504883,-72.61102294921875,-65.949462890625,527.7289428710938,-29.700000762939453,-26.850000381469727,-15.90000057220459
3.918,137.67617797851562,-161.77142333984375,27.77273941040039,-175.33230590820312,-71.01225280761719,517.2036743164062,-28.950000762939453,-27.900001525878906,-15.90000057220459
3.922,130.93409729003906,-114.7684555053711,22.103269577026367,-201.17916870117188,-73.0107192993164,505.2128601074219,-27.000001907348633,-29.700000762939453,-16.5
3.929,116.56889343261719,-72.51557922363281,15.24627685546875,-188.38897705078125,-61.552833557128906,499.4839172363281,-27.000001907348633,-29.700000762939453,-16.5
3.939,109.94174194335938,-59.644351959228516,12.947842597961426,-137.3614044189453,-76.4747314453125,493.88818359375,-25.80000114440918,-30.450000762939453,-16.05000114440918
3.949,105.95779418945312,-49.79939651489258,10.381258964538574,-94.86064147949219,-76.60796356201172,485.0949401855469,-26.400001525878906,-32.55000305175781,-17.100000381469727
3.959,98.02819061279297,-39.57136535644531,7.201758861541748,-48.362937927246094,-66.74884796142578,441.5283203125,-23.700000762939453,-34.20000076293945,-18.900001525878906
3.979,85.96141815185547,-30.60747528076172,6.550535678863525,4.396630764007568,-60.08728790283203,393.4318542480469,-23.700000762939453,-34.20000076293945,-18.900001525878906
3.982,71.67282104492188,-17.73624610900879,2.75812029838562,23.715160369873047,-36.10566711425781,329.4808654785156,-22.05000114440918,-36.60000228881836,-17.55000114440918
3.989,56.19670104980469,-5.20978307723999,5.822698593139648,39.03675079345703,-34.24042892456055,295.3736572265625,-22.05000114440918,-36.60000228881836,-17.55000114440918
3.999,47.76911163330078,1.072602391242981,6.090848922729492,55.4241943359375,-19.185298919677734,236.48544311523438,-21.900001525878906,-37.05000305175781,-19.80000114440918
4.009,34.05512619018555,14.633360862731934,3.754108190536499,85.13475799560547,-23.715160369873047,183.05972290039062,-21.900001525878906,-38.400001525878906,-19.950000762939453
4.019,21.490354537963867,26.508602142333984,2.75812029838562,120.4410400390625,-8.926492691040039,126.30321502685547,-21.900001525878906,-38.400001525878906,-19.950000762939453
4.038,9.232041358947754,32.82929229736328,-2.911349296569824,135.22970581054688,13.323123931884766,54.091880798339844,-22.05000114440918,-39.75,-19.80000114440918
4.042,2.030282974243164,35.47249221801758,0.6512228846549988,146.42112731933594,15.987748146057129,-16.12097930908203,-21.75,-40.5,-20.55000114440918
4.049,3.4093432426452637,45.20252990722656,0.07661445438861847,177.19754028320312,17.719755172729492,-41.568145751953125,-21.75,-40.5,-20.55000114440918
4.059,2.183511972427368,47.57757568359375,-5.439626216888428,207.97396850585938,42.500762939453125,-117.37671661376953,-21.75,-40.5,-20.55000114440918
4.069,0.3064578175544739,42.559329986572266,3.600879430770874,228.6248016357422,40.36906433105469,-170.8024444580078,-21.0,-40.95000076293945,-19.80000114440918
4.079,5.592854976654053,48.30541229248047,5.631162166595459,263.7978515625,32.108726501464844,-224.22817993164062,-22.650001525878906,-41.55000305175781,-18.450000762939453
4.098,5.4013190269470215,50.642154693603516,-1.3024457693099976,310.8284912109375,36.905052185058594,-242.21438598632812,-22.80000114440918,-41.70000076293945,-18.75
4.102,-4.711789131164551,26.393678665161133,-4.137180328369141,324.95098876953125,33.57427215576172,-329.61407470703125,-22.80000114440918,-41.70000076293945,-18.75
4.109,-2.451662540435791,20.570980072021484,3.754108190536499,328.68145751953125,32.37519073486328,-347.86676025390625,-26.250001907348633,-40.5,-15.750000953674316
4.119,1.647210717201233,15.131354331970215,2.451662540435791,324.5513000488281,36.63859176635742,-380.241943359375,-25.500001907348633,-40.5,-17.25
4.129,4.060565948486328,6.742072105407715,9.385271072387695,306.2986145019531,37.83767318725586,-414.3491516113281,-26.55000114440918,-40.95000076293945,-17.25
4.139,1.9536685943603516,-8.887276649475098,14.020444869995117,270.5926513671875,35.705970764160156,-438.59722900390625,-28.500001907348633,-40.95000076293945,-16.05000114440918
4.159,4.098873138427734,-21.490354537963867,18.157625198364258,227.82540893554688,37.97090148925781,-449.7886657714844,-28.500001907348633,-40.95000076293945,-16.05000114440918
4.162,6.358999729156494,-38.07738494873047,20.76251792907715,154.0153045654297,43.03369140625,-477.2342834472656,-28.950000762939453,-37.20000076293945,-13.65000057220459
4.169,11.645397186279297,-43.55531692504883,21.183897018432617,129.76722717285156,37.304744720458984,-471.905029296875,-31.80000114440918,-39.0,-12.450000762939453
4.179,12.449849128723145,-46.27513122558594,16.58702850341797,117.9096450805664,36.63859176635742,-466.9754943847656,-32.25,-36.60000228881836,-13.500000953674316
4.189,13.254301071166992,-56.15839385986328,14.595053672790527,111.64777374267578,23.315465927124023,-455.7840576171875,-32.400001525878906,-34.5,-13.050000190734863
4.199,20.95405387878418,-68.45501708984375,14.135366439819336,96.45941925048828,28.644716262817383,-427.13934326171875,-32.400001525878906,-34.5,-13.050000190734863
4.218,21.56696891784668,-85.38681030273438,16.127342224121094,70.87902069091797,27.045940399169922,-402.35833740234375,-33.45000076293945,-32.55000305175781,-13.350000381469727
4.222,20.264522552490234,-98.18142700195312,16.1656494140625,66.74884796142578,24.64777946472168,-348.9326171875,-35.25,-33.60000228881836,-12.0
4.229,23.367408752441406,-104.23396301269531,18.195932388305664,51.027565002441406,17.453292846679688,-314.42572021484375,-35.55000305175781,-31.200000762939453,-10.200000762939453
4.239,30.952239990234375,-115.53459930419922,21.14558982849121,23.848390579223633,25.04747200012207,-273.6569519042969,-34.5,-31.200000762939453,-10.950000762939453
4.249,38.49876403808594,-123.96218872070312,21.030668258666992,9.859111785888672,20.650842666625977,-225.69371032714844,-34.5,-31.200000762939453,-10.950000762939453
4.259,42.94240188598633,-133.9603729248047,23.52063751220703,-21.983154296875,13.856048583984375,-161.47625732421875,-36.0,-28.200000762939453,-11.700000762939453
4.279,46.619895935058594,-136.33541870117188,22.869415283203125,-64.21745300292969,33.84073257446289,-124.17151641845703,-34.95000076293945,-27.900001525878906,-11.850000381469727
4.283,45.50898742675781,-126.9118423461914,24.13355255126953,-92.99540710449219,32.5084228515625,-48.49617004394531,-38.55000305175781,-27.750001907348633,-11.700000762939453
4.289,54.51118469238281,-104.88518524169922,18.195932388305664,-83.40275573730469,32.77488327026367,-24.11485481262207,-35.25,-28.200000762939453,-10.65000057220459
4.299,52.51920700073242,-104.770263671875,14.595053672790527,-88.46553802490234,36.905052185058594,-3.7304747104644775,-35.25,-28.200000762939453,-10.65000057220459
4.309,55.27732849121094,-88.91107177734375,16.05072784423828,-108.45022583007812,38.90352249145508,14.655436515808105,-35.55000305175781,-27.750001907348633,-10.65000057220459
4.319,57.46084213256836,-65.16059112548828,12.22000503540039,-96.99234008789062,35.17304611206055,27.045940399169922,-38.25,-26.250001907348633,-10.950000762939453
4.338,39.57136535644531,-51.90629196166992,9.768342971801758,-60.88667678833008,32.5084228515625,30.24349021911621,-36.75,-27.000001907348633,-8.40000057220459
4.342,62.90046691894531,-34.05512619018555,17.544710159301758,-54.22511291503906,29.7105655670166,30.643184661865234,-37.05000305175781,-27.000001907348633,-8.700000762939453
4.349,101.62907409667969,-26.54690933227539,39.035064697265625,-30.509952545166016,22.649311065673828,38.63705825805664,-37.05000305175781,-27.000001907348633,-8.700000762939453
4.359,109.67359161376953,-33.978511810302734,34.32327651977539,13.456355094909668,1.9984685182571411,61.81929397583008,-36.30000305175781,-28.200000762939453,-10.200000762939453
4.369,134.34344482421875,-41.48672866821289,35.089420318603516,28.911178588867188,-19.45176124572754,75.5421142578125,-34.95000076293945,-26.100000381469727,-10.050000190734863
4.379,148.40219116210938,-67.80379486083984,12.832921028137207,-17.32006072998047,-38.77029037475586,60.75344467163086,-36.45000076293945,-27.900001525878906,-10.350000381469727
4.399,117.18180847167969,-53.51519775390625,-15.016432762145996,-13.189892768859863,-55.55742645263672,51.693721771240234,-36.30000305175781,-29.250001907348633,-9.450000762939453
4.402,71.94097137451172,-5.669469833374023,-19.153614044189453,69.28024291992188,-50.89433288574219,61.41960144042969,-36.30000305175781,-29.250001907348633,-9.450000762939453
4.409,39.37982940673828,-7.393294811248779,5.592854976654053,82.33690643310547,-35.17304611206055,45.16539001464844,-34.95000076293945,-29.55000114440918,-11.550000190734863
4.419,30.645782470703125,-33.44221115112305,19.651607513427734,55.29096221923828,-11.324655532836914,36.238895416259766,-34.05000305175781,-30.150001525878906,-10.65000057220459
4.429,36.35355758666992,-69.10623931884766,46.84973907470703,6.5283308029174805,-7.327718257904053,33.04134750366211,-35.400001525878906,-29.100000381469727,-10.800000190734863
4.439,56.04347229003906,-84.39082336425781,53.93657684326172,-61.15313720703125,-8.926492691040039,11.724349021911621,-36.150001525878906,-29.850000381469727,-10.800000190734863
4.459,70.17884063720703,-56.57977294921875,31.794998168945312,-91.92955017089844,-9.72588062286377,-3.197549819946289,-36.150001525878906,-29.850000381469727,-10.800000190734863
4.463,83.24160766601562,-33.557132720947266,8.389283180236816,-51.4272575378418,-24.64777946472168,-1.7320060729980469,-34.5,-29.700000762939453,-11.700000762939453
4.469,83.08837890625,-33.13574981689453,-1.8770540952682495,-34.50688934326172,-18.119447708129883,4.396630764007568,-33.30000305175781,-28.200000762939453,-11.700000762939453
4.479,73.6264877319336,-34.01681900024414,3.2178070545196533,-21.983154296875,-18.119447708129883,-15.854516983032227,-35.55000305175781,-29.250001907348633,-10.950000762939453
4.489,70.86837005615234,-43.55531692504883,14.824896812438965,-20.117916107177734,-17.453292846679688,-23.848390579223633,-34.05000305175781,-29.250001907348633,-11.40000057220459
4.499,72.97526550292969,-48.535255432128906,17.161638259887695,-17.986217498779297,-27.045940399169922,-25.846860885620117,-34.05000305175781,-29.250001907348633,-11.40000057220459
4.518,69.29777526855469,-40.567352294921875,17.544710159301758,-5.728943347930908,-24.381317138671875,-30.37672233581543,-34.5,-28.200000762939453,-10.950000762939453
4.522,64.73921203613281,-34.591426849365234,18.464082717895508,2.131699800491333,-25.04747200012207,-38.63705825805664,-38.25,-28.500001907348633,-12.0
4.529,74.2777099609375,-42.1762580871582,13.522451400756836,4.663093090057373,-27.17917251586914,-45.831546783447266,-35.25,-27.750001907348633,-10.950000762939453
4.539,74.2394027709961,-44.0150032043457,8.65743350982666,14.255742073059082,-27.578866958618164,-45.831546783447266,-34.5,-28.950000762939453,-10.200000762939453
4.549,69.91069030761719,-35.702335357666016,11.568782806396484,21.983154296875,-17.32006072998047,-52.626338958740234,-34.5,-28.950000762939453,-10.200000762939453
4.559,67.45903015136719,-31.067161560058594,13.905523300170898,24.11485481262207,-19.052066802978516,-53.026031494140625,-35.400001525878906,-27.900001525878906,-11.850000381469727
4.579,71.48128509521484,-34.85957717895508,21.950040817260742,29.577335357666016,-27.17917251586914,-46.63093185424805,-35.400001525878906,-27.150001525878906,-12.600000381469727
4.583,68.1868667602539,-33.212364196777344,23.597251892089844,12.390504837036133,-27.978559494018555,-58.355281829833984,-34.20000076293945,-26.400001525878906,-11.550000190734863
4.589,66.38642120361328,-37.043087005615234,19.99637222290039,11.990811347961426,-23.315465927124023,-63.81776428222656,-34.650001525878906,-27.900001525878906,-11.100000381469727
4.599,70.21714782714844,-39.4947509765625,15.552734375,7.72741174697876,-19.718223571777344,-73.9433364868164,-34.650001525878906,-27.900001525878906,-11.100000381469727
4.609,74.00955963134766,-38.99675750732422,17.085023880004883,22.382848739624023,-37.83767318725586,-75.67534637451172,-34.80000305175781,-27.000001907348633,-11.40000057220459
4.619,72.28573608398438,-29.22841453552246,25.89568519592285,23.448698043823242,-42.633995056152344,-78.07350158691406,-36.75,-26.250001907348633,-12.450000762939453
4.638,70.98329162597656,-23.02264404296875,22.946029663085938,33.17457962036133,-43.56661605834961,-82.07044219970703,-34.650001525878906,-28.80000114440918,-13.050000190734863
4.642,71.7877426147461,-35.204341888427734,16.89348793029785,42.36753463745117,-62.485450744628906,-89.7978515625,-34.80000305175781,-27.450000762939453,-12.750000953674316
4.649,73.0901870727539,-51.71475601196289,8.580819129943848,29.31087303161621,-51.160797119140625,-92.72894287109375,-34.80000305175781,-27.450000762939453,-12.750000953674316
4.659,69.9873046875,-49.109867095947266,8.925583839416504,-1.0658499002456665,-45.56508255004883,-107.91730499267578,-36.0,-25.80000114440918,-11.700000762939453
4.669,69.79576873779297,-34.782962799072266,13.828908920288086,-1.0658499002456665,-37.83767318725586,-108.3169937133789,-35.55000305175781,-25.80000114440918,-12.750000953674316
4.679,72.05589294433594,-25.933992385864258,12.258312225341797,17.453292846679688,-38.37059783935547,-103.38744354248047,-34.650001525878906,-24.150001525878906,-12.300000190734863
4.699,71.51959228515625,-28.347347259521484,12.564770698547363,20.650842666625977,-38.90352249145508,-106.4517593383789,-34.650001525878906,-24.150001525878906,-12.300000190734863
4.702,72.70711517333984,-33.672054290771484,9.078812599182129,-3.597243309020996,-24.914241790771484,-126.03675079345703,-37.650001525878906,-24.150001525878906,-13.350000381469727
4.709,72.78372955322266,-32.982521057128906,10.074800491333008,-9.326186180114746,-26.912710189819336,-109.915771484375,-34.95000076293945,-25.200000762939453,-12.600000381469727
4.719,74.92893981933594,-28.500577926635742,13.599065780639648,-5.995405673980713,-28.111791610717773,-121.3736572265625,-33.900001525878906,-22.950000762939453,-13.350000381469727
4.729,76.42292022705078,-23.52063751220703,17.697938919067383,-2.2649309635162354,-21.583459854125977,-129.36753845214844,-35.25,-24.750001907348633,-14.250000953674316
4.739,73.58818054199219,-22.17988395690918,17.046716690063477,10.392036437988281,-24.248085021972656,-135.4961700439453,-35.25,-24.750001907348633,-14.250000953674316
4.759,72.36235046386719,-26.54690933227539,17.42978858947754,13.58958625793457,-33.17457962036133,-130.83306884765625,-34.650001525878906,-22.200000762939453,-13.350000381469727
4.763,73.89463806152344,-30.952239990234375,14.863204002380371,-11.058192253112793,-24.51454734802246,-134.29708862304688,-35.400001525878906,-20.25,-15.600000381469727
4.769,72.86034393310547,-25.244462966918945,15.514427185058594,-26.113323211669922,-22.649311065673828,-125.37059783935547,-35.400001525878906,-20.25,-15.600000381469727
4.78,73.7031021118164,-21.14558982849121,16.58702850341797,-20.251148223876953,-32.90811538696289,-131.7657012939453,-34.20000076293945,-20.55000114440918,-13.350000381469727
4.789,72.82203674316406,-13.867216110229492,15.093047142028809,-8.660030364990234,-22.116384506225586,-115.2450180053711,-34.20000076293945,-20.55000114440918,-13.350000381469727
4.799,70.98329162597656,-12.22000503540039,12.449849128723145,-3.3307809829711914,-12.25727367401123,-120.84072875976562,-34.20000076293945,-19.05000114440918,-13.050000190734863
4.818,71.71112823486328,-16.66364288330078,7.086836814880371,-7.06125545501709,-8.39356803894043,-117.77641296386719,-36.0,-18.900001525878906,-13.500000953674316
4.822,75.15878295898438,-16.089035034179688,3.3710360527038574,-6.128636837005615,-1.1990811824798584,-107.65084075927734,-35.25,-19.200000762939453,-12.0
4.829,74.89063262939453,-14.786589622497559,5.018246650695801,0.39969372749328613,-4.130168437957764,-92.19601440429688,-35.25,-19.200000762939453,-12.0
4.839,73.664794921875,-11.070788383483887,10.228029251098633,1.9984685182571411,2.398162364959717,-85.00152587890625,-35.25,-19.200000762939453,-12.0
4.849,71.28974914550781,-4.481945514678955,16.203956604003906,18.119447708129883,0.1332312375307083,-65.68299865722656,-35.55000305175781,-19.200000762939453,-14.250000953674316
4.859,71.74943542480469,2.298433542251587,19.421764373779297,34.373661041259766,-2.6646246910095215,-55.82388687133789,-35.25,-18.450000762939453,-15.000000953674316
4.879,73.51156616210938,1.455674648284912,23.52063751220703,42.36753463745117,0.9326186776161194,-36.905052185058594,-36.45000076293945,-17.55000114440918,-14.100000381469727
4.883,73.7031021118164,-2.9879636764526367,22.754493713378906,42.36753463745117,-2.6646246910095215,-33.97396469116211,-35.400001525878906,-17.100000381469727,-13.350000381469727
4.889,72.4772720336914,-7.393294811248779,21.183897018432617,54.091880798339844,-8.793261528015137,-10.258805274963379,-35.400001525878906,-17.100000381469727,-13.350000381469727
4.899,73.35833740234375,-5.056553840637207,19.153614044189453,46.897396087646484,-0.6661561727523804,-0.6661561727523804,-35.55000305175781,-17.400001525878906,-14.250000953674316
4.909,75.12047576904297,-5.4013190269470215,17.92778205871582,56.62327575683594,-3.7304747104644775,11.324655532836914,-35.70000076293945,-18.30000114440918,-13.65000057220459
4.919,77.53382873535156,-3.907337188720703,12.832921028137207,62.21898651123047,-9.592649459838867,16.520673751831055,-36.45000076293945,-18.30000114440918,-14.100000381469727
4.938,77.763671875,-6.435614109039307,11.72201156616211,69.54670715332031,-5.329249382019043,31.709033966064453,-35.70000076293945,-16.80000114440918,-12.600000381469727
4.942,79.52580261230469,-4.903325080871582,10.189722061157227,67.28177642822266,-11.857580184936523,56.22358322143555,-35.25,-18.150001525878906,-14.250000953674316
4.949,77.95520782470703,-5.477933406829834,14.633360862731934,61.15313720703125,-7.194486618041992,63.81776428222656,-35.25,-18.150001525878906,-14.250000953674316
4.96,76.88260650634766,-9.806650161743164,13.982137680053711,63.151607513427734,-19.052066802978516,91.3966293334961,-35.55000305175781,-18.450000762939453,-13.200000762939453
4.969,74.04786682128906,-14.09705924987793,17.085023880004883,53.95865249633789,-24.11485481262207,78.3399658203125,-35.25,-20.100000381469727,-14.700000762939453
4.979,73.93294525146484,-19.19192123413086,16.203956604003906,35.972434997558594,-20.38437843322754,90.33078002929688,-35.25,-20.100000381469727,-14.700000762939453
4.999,76.95922088623047,-16.05072784423828,12.90953540802002,31.176109313964844,-16.65390396118164,100.85604858398438,-35.25,-20.100000381469727,-14.700000762939453
5.003,76.26969146728516,-12.258312225341797,16.05072784423828,37.304744720458984,-27.445634841918945,123.10566711425781,-35.55000305175781,-21.150001525878906,-13.950000762939453
5.009,78.91288757324219,-15.476119995117188,13.637372970581055,32.108726501464844,-20.251148223876953,100.9892807006836,-34.95000076293945,-21.0,-14.40000057220459
5.019,77.64875030517578,-22.60126495361328,7.661445617675781,30.90964698791504,-15.45482349395752,101.38896942138672,-34.5,-22.350000381469727,-15.000000953674316
5.029,73.32003021240234,-31.29700469970703,9.615114212036133,39.03675079345703,-26.64624786376953,106.05206298828125,-34.5,-22.350000381469727,-15.000000953674316
5.039,72.93695831298828,-31.067161560058594,9.730035781860352,34.773353576660156,-21.983154296875,88.99846649169922,-35.25,-23.100000381469727,-13.500000953674316
5.059,75.73339080810547,-25.665842056274414,12.22000503540039,29.444103240966797,-25.7136287689209,88.59877014160156,-34.05000305175781,-22.80000114440918,-15.000000953674316
5.063,80.94316864013672,-23.405715942382812,7.508216381072998,5.8621745109558105,-20.784072875976562,91.26339721679688,-33.0,-23.100000381469727,-14.250000953674316
5.069,79.67903137207031,-18.34916114807129,8.734047889709473,12.390504837036133,-13.722817420959473,100.18988800048828,-33.45000076293945,-22.5,-14.40000057220459
5.079,74.43093872070312,-18.310853958129883,11.91354751586914,15.721285820007324,-19.45176124572754,83.26952362060547,-33.45000076293945,-22.5,-14.40000057220459
5.089,72.93695831298828,-32.10145568847656,12.22000503540039,4.396630764007568,-14.388973236083984,71.81163787841797,-33.900001525878906,-25.200000762939453,-15.600000381469727
5.099,76.15476989746094,-42.367794036865234,9.691728591918945,-13.189892768859863,-28.111791610717773,67.01531219482422,-34.20000076293945,-23.700000762939453,-14.850000381469727
5.118,80.33025360107422,-40.41412353515625,5.899312973022461,-23.182235717773438,-30.90964698791504,64.61714935302734,-33.150001525878906,-22.950000762939453,-13.65000057220459
5.122,84.8888168334961,-30.91393280029297,5.1331682205200195,-21.050535202026367,-29.84379768371582,46.897396087646484,-33.150001525878906,-22.950000762939453,-13.65000057220459
5.129,88.06831359863281,-28.61549949645996,9.806650161743164,-23.581928253173828,-20.117916107177734,39.70290756225586,-33.150001525878906,-22.950000762939453,-13.65000057220459
5.139,87.53201293945312,-29.266721725463867,9.998186111450195,-18.78560447692871,-30.90964698791504,37.57120895385742,-32.55000305175781,-25.500001907348633,-15.450000762939453
5.149,88.94937896728516,-32.40791320800781,14.135366439819336,-31.575803756713867,-31.575803756713867,15.721285820007324,-31.950000762939453,-26.100000381469727,-15.600000381469727
5.159,95.1168441772461,-34.13174057006836,20.83913230895996,-44.09954071044922,-31.44257164001465,22.649311065673828,-34.80000305175781,-25.05000114440918,-16.5
5.179,108.67760467529297,-37.46446990966797,18.195932388305664,-74.47626495361328,-40.502296447753906,24.381317138671875,-34.80000305175781,-25.05000114440918,-16.5
5.183,119.90161895751953,-28.155811309814453,15.322891235351562,-120.17457580566406,-20.784072875976562,19.31852912902832,-33.45000076293945,-26.850000381469727,-16.650001525878906
5.189,113.42769622802734,-22.562957763671875,23.75048065185547,-125.90351867675781,-19.052066802978516,21.45022964477539,-33.900001525878906,-24.450000762939453,-15.600000381469727
5.199,117.06688690185547,-24.823083877563477,11.41555404663086,-142.15773010253906,-12.25727367401123,14.255742073059082,-33.30000305175781,-25.80000114440918,-16.80000114440918
5.209,117.79472351074219,-27.542896270751953,7.661445617675781,-153.7488555908203,-20.784072875976562,12.790199279785156,-33.45000076293945,-24.450000762939453,-16.350000381469727
5.219,113.69584655761719,-24.24847412109375,3.294421434402466,-183.99234008789062,-18.78560447692871,7.327718257904053,-33.45000076293945,-24.450000762939453,-16.350000381469727
5.238,110.40142822265625,-22.984336853027344,-3.5242648124694824,-221.83001708984375,-14.788667678833008,-4.263399600982666,-32.55000305175781,-24.30000114440918,-17.55000114440918
5.242,109.90343475341797,-17.085023880004883,-3.5625722408294678,-243.679931640625,-5.196018218994141,-9.192955017089844,-32.400001525878906,-23.700000762939453,-17.700000762939453
5.249,110.17158508300781,0.07661445438861847,-5.324704647064209,-233.82081604003906,-15.987748146057129,5.595712184906006,-31.80000114440918,-23.55000114440918,-17.25
5.259,110.094970703125,8.312667846679688,-4.022258758544922,-234.0872802734375,-4.529861927032471,11.857580184936523,-31.80000114440918,-22.350000381469727,-18.0
5.269,107.52838897705078,11.990161895751953,-0.7661445140838623,-229.69065856933594,-9.992342948913574,11.857580184936523,-31.80000114440918,-22.350000381469727,-18.0
5.279,103.08474731445312,12.60307788848877,-1.37906014919281,-224.62786865234375,-10.791729927062988,22.382848739624023,-33.45000076293945,-22.200000762939453,-19.650001525878906
5.299,99.71371459960938,14.326903343200684,0.2298433631658554,-197.9816131591797,-14.522205352783203,24.51454734802246,-33.150001525878906,-21.450000762939453,-18.150001525878906
5.302,101.0544662475586,15.24627685546875,2.2218191623687744,-141.89126586914062,-12.656967163085938,32.24195861816406,-31.950000762939453,-22.200000762939453,-18.450000762939453
5.309,102.73998260498047,6.320692539215088,10.304644584655762,-79.67227935791016,-28.24502182006836,63.684532165527344,-32.55000305175781,-20.400001525878906,-19.05000114440918
5.319,112.96800994873047,-3.907337188720703,19.268535614013672,-16.78713607788086,-51.027565002441406,113.64624786376953,-32.55000305175781,-20.400001525878906,-19.05000114440918
5.329,130.8957977294922,-19.651607513427734,26.85336685180664,45.96477508544922,-63.018375396728516,139.49310302734375,-31.950000762939453,-21.75,-19.950000762939453
5.339,140.12783813476562,-22.17988395690918,36.88985824584961,153.61561584472656,-80.20520782470703,195.84991455078125,-32.400001525878906,-21.75,-19.950000762939453
5.359,126.8352279663086,-32.905906677246094,12.564770698547363,240.61561584472656,-77.27411651611328,302.03521728515625,-31.650001525878906,-23.700000762939453,-20.700000762939453
5.363,116.87535095214844,-76.11646270751953,12.756306648254395,251.5405731201172,-58.888206481933594,427.938720703125,-33.150001525878906,-25.200000762939453,-18.900001525878906
5.369,123.196044921875,-145.60577392578125,28.423961639404297,203.44410705566406,-53.69218826293945,453.78558349609375,-33.150001525878906,-25.200000762939453,-18.900001525878906
5.379,124.95817565917969,-152.96075439453125,28.92195701599121,96.8591079711914,-41.168453216552734,500.2832946777344,-30.150001525878906,-28.80000114440918,-19.200000762939453
5.389,128.21429443359375,-136.02896118164062,24.66985511779785,18.385910034179688,-27.978559494018555,502.5482177734375,-30.150001525878906,-31.500001907348633,-20.700000762939453
5.399,128.82720947265625,-107.91146087646484,19.651607513427734,-26.912710189819336,-15.854516983032227,490.0245056152344,-28.80000114440918,-31.950000762939453,-21.30000114440918
5.418,124.91986846923828,-82.20730590820312,22.754493713378906,-59.287899017333984,-14.655436515808105,485.2281799316406,-28.650001525878906,-34.20000076293945,-21.150001525878906
5.422,117.60318756103516,-68.83808898925781,19.460071563720703,-75.00918579101562,-9.992342948913574,453.3858947753906,-28.650001525878906,-34.20000076293945,-21.150001525878906
5.429,105.84286499023438,-56.235008239746094,15.591041564941406,-75.8085708618164,-12.923430442810059,459.5145263671875,-26.400001525878906,-37.20000076293945,-21.450000762939453
5.439,100.55647277832031,-54.281341552734375,16.58702850341797,-79.9387435913086,-11.191424369812012,431.5359802246094,-24.750001907348633,-37.05000305175781,-22.05000114440918
5.449,96.30436706542969,-46.390052795410156,16.28057098388672,-46.897396087646484,-15.45482349395752,438.4639892578125,-26.250001907348633,-37.80000305175781,-20.850000381469727
5.459,87.03401947021484,-41.5250358581543,13.752294540405273,-15.987748146057129,-17.852985382080078,423.5421142578125,-23.700000762939453,-39.150001525878906,-21.450000762939453
5.479,77.03583526611328,-45.24083709716797,14.020444869995117,-3.197549819946289,-1.5987749099731445,391.96630859375,-23.700000762939453,-39.150001525878906,-21.450000762939453
5.483,71.97927856445312,-45.12591552734375,10.189722061157227,-39.9693717956543,-0.9326186776161194,308.9632263183594,-21.900001525878906,-41.85000228881836,-22.950000762939453
5.489,66.5396499633789,-29.76471519470215,12.258312225341797,-57.822357177734375,-6.661561965942383,270.8591003417969,-19.5,-42.150001525878906,-23.100000381469727
5.499,61.21495056152344,-15.744270324707031,8.504204750061035,-71.41194152832031,-0.7993874549865723,200.37977600097656,-19.950000762939453,-41.10000228881836,-22.200000762939453
5.509,47.615882873535156,8.619126319885254,0.8044517636299133,-54.89126968383789,19.718223571777344,162.80857849121094,-18.75,-43.95000076293945,-23.55000114440918
5.519,32.82929229736328,23.44402313232422,-3.1028854846954346,-21.050535202026367,19.584991455078125,118.44257354736328,-18.75,-43.95000076293945,-23.55000114440918
5.538,22.60126495361328,29.803022384643555,-3.6774938106536865,39.30321502685547,15.721285820007324,87.13323211669922,-18.900001525878906,-44.55000305175781,-24.0
5.542,14.135366439819336,30.569168090820312,-4.8267107009887695,94.86064147949219,37.17151641845703,39.16998291015625,-18.30000114440918,-42.900001525878906,-24.150001525878906
5.549,8.35097599029541,26.240449905395508,-0.5746083855628967,114.17916870117188,44.63246536254883,-12.25727367401123,-18.30000114440918,-43.20000076293945,-22.80000114440918
5.559,8.65743350982666,28.155811309814453,0.7661445140838623,123.50535583496094,51.693721771240234,-67.94792938232422,-18.30000114440918,-42.900001525878906,-22.80000114440918
5.569,9.615114212036133,36.46847915649414,0.6129156351089478,147.8866729736328,72.0781021118164,-116.9770278930664,-18.30000114440918,-42.900001525878906,-22.80000114440918
5.579,7.623138427734375,37.15800857543945,-2.719813108444214,179.72894287109375,89.93108367919922,-148.0198974609375,-18.0,-45.150001525878906,-21.600000381469727
5.599,2.3750481605529785,30.837318420410156,-4.596867084503174,189.85450744628906,94.59417724609375,-206.6416473388672,-19.200000762939453,-45.0,-21.450000762939453
5.603,2.5665841102600098,29.64979362487793,0.9576807022094727,167.2052001953125,79.13935852050781,-255.1378173828125,-18.900001525878906,-44.55000305175781,-21.150001525878906
5.609,10.72602367401123,34.24666213989258,0.727837324142456,181.99386596679688,89.7978515625,-282.050537109375,-19.80000114440918,-43.20000076293945,-19.5
5.619,8.504204750061035,25.39769172668457,-4.367023944854736,198.38131713867188,92.99540710449219,-311.49462890625,-19.80000114440918,-43.20000076293945,-19.5
5.629,-3.5625722408294678,8.580819129943848,1.1492167711257935,201.84532165527344,86.20060729980469,-355.9938659667969,-20.55000114440918,-44.400001525878906,-18.30000114440918
5.639,-1.8770540952682495,8.542511940002441,6.244078159332275,185.4578857421875,77.14088439941406,-370.1163635253906,-20.55000114440918,-43.650001525878906,-16.80000114440918
5.659,7.354987621307373,7.546523571014404,5.822698593139648,181.59417724609375,91.3966293334961,-386.3705749511719,-22.200000762939453,-44.25,-15.90000057220459
5.663,7.738059997558594,-16.433799743652344,7.738059997558594,156.94639587402344,83.5359878540039,-426.6064147949219,-22.200000762939453,-44.25,-15.90000057220459
5.669,8.734047889709473,-34.09343338012695,15.207969665527344,128.56814575195312,81.13782501220703,-425.0076599121094,-22.200000762939453,-44.25,-15.90000057220459
5.679,16.012420654296875,-44.05331039428711,15.284584045410156,81.93721008300781,91.79632568359375,-431.2695007324219,-25.650001525878906,-41.55000305175781,-14.850000381469727
5.689,16.931795120239258,-65.00736236572266,20.226215362548828,30.110260009765625,81.27105712890625,-429.27105712890625,-27.30000114440918,-39.75,-11.700000762939453
5.699,20.877439498901367,-72.74542236328125,22.524648666381836,-13.323123931884766,74.34303283691406,-413.949462890625,-27.30000114440918,-38.55000305175781,-11.700000762939453
5.718,23.252487182617188,-73.35833740234375,17.774553298950195,-25.7136287689209,77.27411651611328,-387.5696716308594,-27.30000114440918,-38.55000305175781,-11.700000762939453
5.722,21.911733627319336,-89.7921371459961,20.149600982666016,-70.87902069091797,67.41500854492188,-351.9969177246094,-28.950000762939453,-33.45000076293945,-10.350000381469727
5.729,34.74465560913086,-99.56048583984375,15.399505615234375,-92.19601440429688,63.151607513427734,-340.40582275390625,-28.950000762939453,-33.45000076293945,-10.350000381469727
5.739,38.80522155761719,-101.82061004638672,11.836933135986328,-71.14547729492188,47.430320739746094,-289.2450256347656,-28.80000114440918,-31.950000762939453,-11.40000057220459
5.749,39.839515686035156,-95.95960235595703,4.596867084503174,-33.30780792236328,57.289432525634766,-230.4900360107422,-30.900001525878906,-34.20000076293945,-12.300000190734863
5.759,42.865787506103516,-102.05045318603516,3.026270866394043,-9.326186180114746,54.22511291503906,-172.00152587890625,-30.900001525878906,-34.20000076293945,-12.300000190734863
5.779,45.892059326171875,-112.35509490966797,6.473921298980713,5.196018218994141,43.43338394165039,-103.38744354248047,-31.200000762939453,-31.05000114440918,-10.350000381469727
5.783,43.4020881652832,-114.46199798583984,10.764330863952637,-3.197549819946289,51.027565002441406,-58.355281829833984,-30.30000114440918,-30.450000762939453,-10.200000762939453
5.79,37.54108428955078,-110.59296417236328,10.5344877243042,-10.258805274963379,47.696781158447266,-62.35221862792969,-30.30000114440918,-30.450000762939453,-10.200000762939453
5.799,37.46446990966797,-99.2540283203125,8.772355079650879,-26.64624786376953,35.439510345458984,8.39356803894043,-31.05000114440918,-30.450000762939453,-9.15000057220459
5.809,36.46847915649414,-92.85671997070312,4.213795185089111,-12.523736000061035,34.64012145996094,47.56355285644531,-31.05000114440918,-30.450000762939453,-9.15000057220459
5.819,21.45204734802246,-94.73377227783203,4.63517427444458,-4.796324729919434,23.04900360107422,86.73353576660156,-32.25,-31.650001525878906,-10.200000762939453
5.838,51.59983444213867,-115.3813705444336,10.41956615447998,-70.07962799072266,9.326186180114746,61.41960144042969,-31.650001525878906,-29.850000381469727,-8.550000190734863
5.842,95.92129516601562,-96.3426742553711,6.167463779449463,-72.74425506591797,-8.526799201965332,34.373661041259766,-30.450000762939453,-29.850000381469727,-9.300000190734863
5.849,97.26204681396484,-18.23423957824707,6.933608055114746,-44.09954071044922,-21.983154296875,29.444103240966797,-30.450000762939453,-29.850000381469727,-9.300000190734863
5.859,103.35289764404297,26.355371475219727,17.659631729125977,25.980091094970703,-9.859111785888672,59.287899017333984,-30.450000762939453,-29.850000381469727,-9.300000190734863
5.869,108.79252624511719,22.83110809326172,26.929981231689453,73.9433364868164,-9.326186180114746,49.96171569824219,-31.650001525878906,-30.600000381469727,-10.350000381469727
5.879,98.83264923095703,-19.843143463134766,35.05111312866211,70.61255645751953,-11.724349021911621,57.689125061035156,-30.450000762939453,-30.600000381469727,-8.25
5.899,86.61264038085938,-56.04347229003906,44.97268295288086,28.378253936767578,-5.462480545043945,42.500762939453125,-30.150001525878906,-30.600000381469727,-8.550000190734863
5.903,85.15696716308594,-70.5619125366211,43.67023849487305,-55.29096221923828,-7.72741174697876,18.2526798248291,-30.750001907348633,-30.900001525878906,-8.700000762939453
5.909,87.14894104003906,-62.364166259765625,15.629348754882812,-84.4686050415039,-15.588054656982422,16.387441635131836,-30.750001907348633,-30.900001525878906,-8.700000762939453
5.919,78.64473724365234,-45.66221618652344,4.941632270812988,-62.618682861328125,-24.64777946472168,21.983154296875,-33.30000305175781,-31.950000762939453,-10.65000057220459
5.929,67.88040924072266,-38.80522155761719,-2.8347349166870117,-30.643184661865234,-22.915773391723633,27.71209716796875,-30.900001525878906,-29.55000114440918,-10.050000190734863
5.939,61.67463684082031,-53.32366180419922,-3.907337188720703,-14.12251091003418,-27.445634841918945,11.990811347961426,-32.25,-30.450000762939453,-9.450000762939453
5.959,59.06974411010742,-55.58378601074219,4.481945514678955,-21.583459854125977,-27.31240463256836,14.92189884185791,-32.25,-30.450000762939453,-9.450000762939453
5.963,61.5980224609375,-50.06754684448242,18.11931800842285,-20.38437843322754,-27.84532928466797,-3.197549819946289,-30.450000762939453,-31.05000114440918,-11.550000190734863
5.969,79.98548889160156,-36.315250396728516,27.696125030517578,-16.920366287231445,-21.583459854125977,-18.652372360229492,-30.750001907348633,-30.900001525878906,-10.200000762939453
5.979,84.65897369384766,-39.035064697265625,21.950040817260742,-7.327718257904053,-28.378253936767578,-22.249616622924805,-29.55000114440918,-31.200000762939453,-11.700000762939453
5.989,71.05990600585938,-47.69249725341797,7.891288757324219,3.4640121459960938,-21.183767318725586,-33.57427215576172,-31.650001525878906,-31.500001907348633,-10.050000190734863
5.999,64.0879898071289,-50.98691940307617,5.669469833374023,8.526799201965332,-16.78713607788086,-44.09954071044922,-31.650001525878906,-31.500001907348633,-10.050000190734863
6.019,71.05990600585938,-45.12591552734375,13.21599292755127,18.385910034179688,-16.65390396118164,-57.55589294433594,-31.650001525878906,-31.05000114440918,-10.800000190734863
6.022,72.28573608398438,-42.52102279663086,16.510414123535156,19.31852912902832,-16.920366287231445,-66.48238372802734,-30.450000762939453,-31.500001907348633,-11.100000381469727
6.029,70.83006286621094,-38.8818359375,17.42978858947754,24.914241790771484,-29.044410705566406,-56.756507873535156,-30.750001907348633,-30.450000762939453,-9.450000762939453
6.039,68.49332427978516,-41.448421478271484,15.744270324707031,15.854516983032227,-16.78713607788086,-73.81010437011719,-29.700000762939453,-29.100000381469727,-11.100000381469727
6.049,66.57795715332031,-40.49073791503906,16.012420654296875,13.989279747009277,-22.782541275024414,-80.47166442871094,-29.700000762939453,-29.100000381469727,-11.100000381469727
6.059,70.75344848632812,-40.83550262451172,16.35718536376953,11.990811347961426,-21.716691970825195,-80.60489654541016,-30.750001907348633,-28.950000762939453,-9.450000762939453
6.079,71.02159881591797,-35.31926345825195,15.629348754882812,4.663093090057373,-14.255742073059082,-93.12863159179688,-30.450000762939453,-29.100000381469727,-9.300000190734863
6.083,71.13652038574219,-38.537071228027344,14.211980819702148,8.926492691040039,-12.25727367401123,-96.05972290039062,-32.55000305175781,-29.250001907348633,-10.950000762939453
6.089,68.07194519042969,-41.333499908447266,14.058752059936523,3.0643184185028076,-13.056661605834961,-109.24961853027344,-29.700000762939453,-26.400001525878906,-10.050000190734863
6.099,68.41670989990234,-45.54729461669922,14.709975242614746,6.661561965942383,-13.58958625793457,-114.57886505126953,-29.700000762939453,-26.400001525878906,-10.050000190734863
6.109,71.51959228515625,-40.91211700439453,12.832921028137207,-3.86370587348938,-9.192955017089844,-127.76875305175781,-31.650001525878906,-28.350000381469727,-11.100000381469727
6.119,72.17081451416016,-40.60565948486328,14.595053672790527,6.395099639892578,-2.531393527984619,-141.6248016357422,-31.200000762939453,-27.900001525878906,-10.050000190734863
6.138,73.20510864257812,-35.817256927490234,13.675680160522461,21.316997528076172,-13.856048583984375,-139.7595672607422,-31.80000114440918,-28.500001907348633,-10.65000057220459
6.142,72.70711517333984,-33.82528305053711,17.62132453918457,18.78560447692871,-6.661561965942383,-150.01837158203125,-32.400001525878906,-27.900001525878906,-11.850000381469727
6.149,69.22116088867188,-37.77092742919922,17.353174209594727,5.595712184906006,-3.197549819946289,-157.21286010742188,-32.400001525878906,-27.900001525878906,-11.850000381469727
6.159,69.9489974975586,-40.873809814453125,13.560758590698242,-21.183767318725586,-5.462480545043945,-161.87594604492188,-32.70000076293945,-26.100000381469727,-10.800000190734863
6.169,71.1748275756836,-36.58340072631836,14.901511192321777,-27.578866958618164,-16.25421142578125,-166.93873596191406,-32.400001525878906,-25.200000762939453,-10.050000190734863
6.179,71.67282104492188,-29.76471519470215,14.97812557220459,-38.23736572265625,-3.7304747104644775,-172.53445434570312,-31.80000114440918,-25.500001907348633,-11.40000057220459
6.199,71.74943542480469,-27.044902801513672,16.70195198059082,-41.434913635253906,-6.395099639892578,-172.80091857910156,-33.30000305175781,-24.30000114440918,-11.40000057220459
6.203,70.79175567626953,-26.163835525512695,16.855180740356445,-48.362937927246094,-3.3307809829711914,-170.53598022460938,-33.30000305175781,-24.30000114440918,-11.40000057220459
6.209,71.51959228515625,-23.099258422851562,19.574993133544922,-49.96171569824219,-11.857580184936523,-161.07656860351562,-33.45000076293945,-22.5,-11.100000381469727
6.219,71.67282104492188,-22.2948055267334,21.605276107788086,-49.69525146484375,-10.92496109008789,-165.3399658203125,-33.0,-23.100000381469727,-10.950000762939453
6.229,72.78372955322266,-24.861391067504883,24.095245361328125,-43.83307647705078,-19.45176124572754,-159.8774871826172,-34.5,-24.750001907348633,-12.0
6.239,71.94097137451172,-28.347347259521484,18.195932388305664,-50.89433288574219,-25.18070411682129,-171.46859741210938,-33.45000076293945,-22.200000762939453,-11.550000190734863
6.259,71.94097137451172,-26.929981231689453,14.135366439819336,-71.81163787841797,-13.056661605834961,-171.60183715820312,-33.45000076293945,-22.200000762939453,-11.550000190734863
6.262,70.17884063720703,-21.222204208374023,15.399505615234375,-77.67381286621094,-6.5283308029174805,-161.47625732421875,-32.55000305175781,-20.100000381469727,-11.40000057220459
6.269,72.01758575439453,-6.244078159332275,17.851167678833008,-68.21439361572266,-13.189892768859863,-146.82083129882812,-34.20000076293945,-19.80000114440918,-11.100000381469727
6.279,74.39263153076172,-3.5625722408294678,15.322891235351562,-61.552833557128906,-1.5987749099731445,-142.82388305664062,-34.20000076293945,-19.80000114440918,-10.800000190734863
6.289,75.81000518798828,0.5363011956214905,11.41555404663086,-46.63093185424805,8.526799201965332,-129.50076293945312,-34.20000076293945,-19.80000114440918,-10.800000190734863
6.299,74.7374038696289,1.2258312702178955,13.79060173034668,-31.176109313964844,8.526799201965332,-109.51607513427734,-34.5,-17.400001525878906,-10.200000762939453
6.319,72.28573608398438,1.2641384601593018,15.24627685546875,-16.920366287231445,10.658498764038086,-97.25880432128906,-33.75,-16.5,-10.65000057220459
6.322,72.4772720336914,-1.1109095811843872,13.905523300170898,-7.9938740730285645,12.25727367401123,-84.60183715820312,-33.150001525878906,-19.05000114440918,-11.550000190734863
6.329,72.89865112304688,-3.5625722408294678,19.153614044189453,-6.661561965942383,17.453292846679688,-78.07350158691406,-32.400001525878906,-17.100000381469727,-12.600000381469727
6.339,73.0901870727539,-0.8427590131759644,17.468095779418945,9.192955017089844,3.197549819946289,-54.091880798339844,-32.400001525878906,-17.100000381469727,-12.600000381469727
6.349,77.07414245605469,-0.4596867263317108,17.889474868774414,3.0643184185028076,3.9969370365142822,-45.03215789794922,-34.20000076293945,-17.55000114440918,-11.100000381469727
6.359,80.1770248413086,-6.282385349273682,13.713987350463867,-15.321592330932617,10.125574111938477,-33.4410400390625,-33.0,-16.5,-9.90000057220459
6.379,76.76768493652344,-1.5322890281677246,12.871228218078613,-13.189892768859863,4.796324729919434,-12.923430442810059,-33.45000076293945,-16.80000114440918,-12.300000190734863
6.383,76.19307708740234,0.8044517636299133,19.345149993896484,3.86370587348938,-2.398162364959717,6.261868000030518,-33.900001525878906,-16.80000114440918,-12.300000190734863
6.389,76.00154113769531,-0.1149216815829277,20.072986602783203,13.323123931884766,4.130168437957764,6.9280242919921875,-33.900001525878906,-16.80000114440918,-12.300000190734863
6.399,76.38461303710938,1.7621324062347412,19.881450653076172,29.31087303161621,4.663093090057373,31.042879104614258,-31.200000762939453,-15.90000057220459,-11.550000190734863
6.409,76.46122741699219,2.719813108444214,23.02264404296875,37.17151641845703,-11.457886695861816,50.09494400024414,-33.0,-16.200000762939453,-11.700000762939453
6.419,76.80599212646484,-0.689530074596405,23.21417999267578,33.97396469116211,-17.453292846679688,65.15007781982422,-32.400001525878906,-15.90000057220459,-11.100000381469727
6.438,76.07815551757812,-0.7661445140838623,28.117504119873047,33.97396469116211,-21.583459854125977,61.01990509033203,-34.20000076293945,-16.80000114440918,-10.050000190734863
6.442,75.50354766845703,-4.558559894561768,26.776752471923828,53.69218826293945,-27.31240463256836,74.34303283691406,-34.20000076293945,-16.80000114440918,-10.050000190734863
6.449,76.00154113769531,-6.090848922729492,17.391481399536133,59.287899017333984,-25.7136287689209,89.13169860839844,-33.45000076293945,-16.80000114440918,-13.050000190734863
6.459,74.92893981933594,-3.3710360527038574,17.851167678833008,70.3460922241211,-30.37672233581543,118.70903015136719,-33.900001525878906,-17.100000381469727,-12.300000190734863
6.469,72.4772720336914,10.5344877243042,26.355371475219727,86.3338394165039,-30.24349021911621,132.43185424804688,-33.45000076293945,-17.850000381469727,-11.550000190734863
6.479,76.88260650634766,19.19192123413086,35.089420318603516,129.50076293945312,-48.8958625793457,163.74119567871094,-34.5,-18.450000762939453,-11.700000762939453
6.499,79.48749542236328,14.633360862731934,29.075185775756836,142.5574188232422,-43.83307647705078,178.13015747070312,-34.5,-18.450000762939453,-11.700000762939453
6.503,72.97526550292969,8.236053466796875,31.182083129882812,143.75650024414062,-72.47779083251953,201.71209716796875,-31.500001907348633,-20.100000381469727,-10.950000762939453
6.509,72.89865112304688,-29.879636764526367,22.409727096557617,132.43185424804688,-62.35221862792969,200.646240234375,-33.0,-21.150001525878906,-11.40000057220459
6.519,74.58417510986328,-54.01319122314453,0.15322890877723694,47.430320739746094,-41.168453216552734,178.26339721679688,-32.25,-22.350000381469727,-12.750000953674316
6.529,68.99131774902344,-70.83006286621094,3.4093432426452637,-16.387441635131836,-43.30015182495117,161.2097930908203,-31.05000114440918,-22.350000381469727,-12.0
6.539,71.02159881591797,-62.13432312011719,-10.41956615447998,-51.160797119140625,-29.31087303161621,144.1562042236328,-31.05000114440918,-22.350000381469727,-12.0
6.559,70.21714782714844,-34.476505279541016,-8.35097599029541,-8.660030364990234,-29.577335357666016,150.41806030273438,-30.900001525878906,-23.25,-13.050000190734863
6.562,72.4006576538086,-21.14558982849121,-2.8347349166870117,24.248085021972656,-21.45022964477539,156.81317138671875,-31.500001907348633,-22.80000114440918,-12.0
6.569,79.25765228271484,-18.272546768188477,4.137180328369141,11.058192253112793,-19.45176124572754,138.8269500732422,-30.450000762939453,-24.900001525878906,-11.850000381469727
6.579,80.29194641113281,-25.5892276763916,13.10107135772705,10.258805274963379,-22.51607894897461,140.1592559814453,-31.80000114440918,-25.05000114440918,-12.750000953674316
6.589,75.9632339477539,-33.05913543701172,24.554933547973633,15.721285820007324,-26.113323211669922,112.71363067626953,-31.80000114440918,-25.05000114440918,-12.750000953674316
6.599,64.89244079589844,-45.54729461669922,18.081010818481445,4.929555892944336,-26.513015747070312,88.73200225830078,-30.450000762939453,-23.700000762939453,-12.600000381469727
6.619,69.75746154785156,-55.813629150390625,7.891288757324219,-23.848390579223633,-29.044410705566406,73.41041564941406,-31.650001525878906,-26.100000381469727,-13.350000381469727
6.622,79.10442352294922,-50.29738998413086,7.508216381072998,-42.500762939453125,-26.513015747070312,38.10413360595703,-30.900001525878906,-25.650001525878906,-12.300000190734863
6.629,81.97746276855469,-33.672054290771484,10.687716484069824,-29.444103240966797,-31.042879104614258,38.90352249145508,-30.900001525878906,-25.650001525878906,-12.300000190734863
6.639,80.7899398803711,-32.331298828125,10.457873344421387,-33.97396469116211,-17.453292846679688,22.51607894897461,-30.900001525878906,-25.650001525878906,-12.300000190734863
6.649,81.63269805908203,-40.22258758544922,10.113107681274414,-31.975496292114258,-31.975496292114258,-1.4655436277389526,-31.05000114440918,-28.200000762939453,-13.200000762939453
6.659,85.99972534179688,-45.31745147705078,9.576807022094727,-45.298622131347656,-42.23430252075195,-3.4640121459960938,-31.650001525878906,-25.650001525878906,-14.100000381469727
6.679,92.93333435058594,-39.57136535644531,11.990161895751953,-46.497703552246094,-36.5053596496582,-28.24502182006836,-31.05000114440918,-27.000001907348633,-13.200000762939453
6.683,101.16938781738281,-35.93217849731445,12.717999458312988,-47.430320739746094,-43.03369140625,-26.64624786376953,-32.400001525878906,-27.600000381469727,-13.350000381469727
6.689,114.46199798583984,-35.395877838134766,13.177685737609863,-63.551300048828125,-52.75957107543945,-26.779478073120117,-32.400001525878906,-27.600000381469727,-13.350000381469727
6.699,118.63748168945312,-32.75267791748047,11.645397186279297,-81.00459289550781,-45.69831466674805,-26.912710189819336,-31.80000114440918,-26.250001907348633,-14.250000953674316
6.709,117.71810913085938,-25.5892276763916,10.84094524383545,-107.3843765258789,-45.03215789794922,-22.382848739624023,-29.55000114440918,-24.750001907348633,-14.700000762939453
6.719,124.15372467041016,-22.026655197143555,8.159439086914062,-117.24349212646484,-42.36753463745117,-34.10719680786133,-30.000001907348633,-26.250001907348633,-13.950000762939453
6.738,124.91986846923828,-20.685903549194336,-0.26815059781074524,-123.50535583496094,-48.62940216064453,-15.987748146057129,-30.000001907348633,-25.80000114440918,-13.200000762939453
6.742,125.95416259765625,-16.740259170532227,0.8810662031173706,-157.612548828125,-39.70290756225586,-7.860642910003662,-30.000001907348633,-25.80000114440918,-16.05000114440918
6.749,128.520751953125,-7.201758861541748,-6.320692539215088,-192.65237426757812,-35.839202880859375,-9.192955017089844,-30.000001907348633,-25.80000114440918,-16.05000114440918
6.759,131.77685546875,-5.4013190269470215,-2.6431987285614014,-212.9035186767578,-36.238895416259766,20.38437843322754,-30.150001525878906,-26.100000381469727,-14.850000381469727
6.769,132.3131561279297,-0.6129156351089478,-3.9456443786621094,-219.43185424804688,-31.176109313964844,10.125574111938477,-29.700000762939453,-24.900001525878906,-15.15000057220459
6.779,121.24237060546875,8.427590370178223,-2.6431987285614014,-230.3568115234375,-8.127105712890625,-3.9969370365142822,-29.700000762939453,-24.900001525878906,-15.15000057220459
6.8,111.39741516113281,18.004396438598633,1.3024457693099976,-218.49923706054688,-2.531393527984619,-6.395099639892578,-28.500001907348633,-24.750001907348633,-16.05000114440918
6.804,102.47183227539062,25.321077346801758,5.171475887298584,-146.9540557861328,-4.663093090057373,-12.25727367401123,-29.400001525878906,-24.900001525878906,-15.600000381469727
6.81,98.21973419189453,26.96828842163086,14.863204002380371,-70.07962799072266,-16.65390396118164,-0.2664624750614166,-29.400001525878906,-24.900001525878906,-15.600000381469727
6.819,106.11102294921875,19.19192123413086,24.9763126373291,53.026031494140625,-34.64012145996094,55.55742645263672,-28.500001907348633,-22.350000381469727,-15.450000762939453
6.829,129.89981079101562,-12.105083465576172,25.167848587036133,157.87901306152344,-56.22358322143555,156.5467071533203,-28.500001907348633,-22.350000381469727,-15.450000762939453
6.839,147.44451904296875,-60.64033889770508,32.75267791748047,187.1898956298828,-66.74884796142578,228.35833740234375,-28.950000762939453,-24.150001525878906,-14.40000057220459
6.859,142.5028839111328,-93.31640625,29.95625114440918,181.59417724609375,-42.101070404052734,314.6921691894531,-28.200000762939453,-25.650001525878906,-14.40000057220459
6.863,118.90563201904297,-107.26023864746094,33.672054290771484,149.48544311523438,-26.912710189819336,413.2832946777344,-28.80000114440918,-27.750001907348633,-14.700000762939453
6.869,117.06688690185547,-119.02055358886719,39.26490783691406,109.11638641357422,-13.989279747009277,436.0658264160156,-28.80000114440918,-27.750001907348633,-14.700000762939453
6.879,127.4481430053711,-119.44193267822266,37.311241149902344,21.983154296875,7.06125545501709,453.78558349609375,-28.80000114440918,-27.750001907348633,-14.700000762939453
6.889,135.10958862304688,-108.02638244628906,26.891674041748047,-51.560489654541016,9.326186180114746,468.7074890136719,-27.150001525878906,-30.600000381469727,-15.15000057220459
6.899,131.6619415283203,-95.30838012695312,19.49837875366211,-119.37519073486328,6.794793128967285,472.30474853515625,-25.80000114440918,-34.35000228881836,-13.950000762939453
6.918,122.12344360351562,-82.20730590820312,16.625335693359375,-171.46859741210938,0.9326186776161194,460.58038330078125,-25.05000114440918,-35.10000228881836,-13.950000762939453
6.922,115.419677734375,-65.50535583496094,12.066776275634766,-186.79019165039062,-10.258805274963379,443.6600341796875,-25.05000114440918,-35.10000228881836,-13.950000762939453
6.929,107.0303955078125,-46.390052795410156,9.730035781860352,-178.39662170410156,-12.923430442810059,424.7411804199219,-24.450000762939453,-35.10000228881836,-13.950000762939453
6.939,99.2923355102539,-35.6257209777832,11.224017143249512,-142.5574188232422,-31.309341430664062,423.1424255371094,-23.55000114440918,-37.5,-16.80000114440918
6.949,91.24781799316406,-25.321077346801758,10.764330863952637,-76.34149932861328,-22.249616622924805,397.0290832519531,-23.55000114440918,-38.55000305175781,-15.000000953674316
6.959,83.0500717163086,-16.89348793029785,13.10107135772705,-9.72588062286377,-20.91730499267578,369.1837463378906,-21.450000762939453,-38.400001525878906,-16.350000381469727
6.979,68.07194519042969,-15.552734375,8.08282470703125,35.705970764160156,-26.64624786376953,364.6539001464844,-21.450000762939453,-38.400001525878906,-16.350000381469727
6.982,57.1160774230957,-19.766529083251953,8.695740699768066,53.69218826293945,-15.721285820007324,298.5711975097656,-21.30000114440918,-41.70000076293945,-16.5
6.989,50.79538345336914,-16.70195198059082,9.883264541625977,47.830013275146484,3.597243309020996,248.60948181152344,-20.25,-40.5,-16.05000114440918
6.999,44.05331039428711,-6.282385349273682,9.921571731567383,39.43644714355469,-1.4655436277389526,211.43797302246094,-18.30000114440918,-42.45000076293945,-16.05000114440918
7.009,32.484527587890625,10.074800491333008,9.730035781860352,29.577335357666016,7.9938740730285645,150.151611328125,-19.5,-43.650001525878906,-15.750000953674316
7.019,21.183897018432617,28.500577926635742,6.665457725524902,35.03981399536133,14.388973236083984,90.33078002929688,-19.5,-43.650001525878906,-15.750000953674316
7.038,15.667655944824219,46.006980895996094,4.865017890930176,59.95405578613281,32.90811538696289,54.4915771484375,-17.700000762939453,-44.55000305175781,-14.850000381469727
7.042,12.258312225341797,49.416324615478516,8.006210327148438,116.71056365966797,39.30321502685547,6.5283308029174805,-19.05000114440918,-44.85000228881836,-15.000000953674316
7.049,10.228029251098633,36.2003288269043,1.5322890281677246,144.82235717773438,51.560489654541016,-19.185298919677734,-18.450000762939453,-45.30000305175781,-15.15000057220459
7.059,6.742072105407715,29.305028915405273,5.056553840637207,144.02296447753906,63.950992584228516,-68.21439361572266,-18.0,-45.60000228881836,-14.700000762939453
7.069,7.891288757324219,18.579004287719727,6.167463779449463,143.88973999023438,72.47779083251953,-131.0995330810547,-18.0,-45.60000228881836,-14.700000762939453
7.079,8.887276649475098,19.230228424072266,4.520252704620361,146.82083129882812,71.2787094116211,-175.46554565429688,-19.200000762939453,-46.20000076293945,-12.600000381469727
7.099,9.959878921508789,19.19192123413086,5.70777702331543,142.69065856933594,85.80091857910156,-211.43797302246094,-20.55000114440918,-45.60000228881836,-12.0
7.103,10.036493301391602,14.250288963317871,2.1068975925445557,143.75650024414062,100.85604858398438,-273.7901916503906,-18.900001525878906,-46.20000076293945,-11.850000381469727
7.109,5.20978307723999,0.6129156351089478,7.929595947265625,126.96936798095703,96.32618713378906,-272.0581970214844,-21.75,-46.35000228881836,-10.200000762939453
7.119,5.631162166595459,-5.20978307723999,8.848969459533691,99.52373504638672,88.865234375,-326.2832946777344,-21.75,-46.35000228881836,-10.200000762939453
7.129,7.891288757324219,-2.8347349166870117,3.907337188720703,90.19754791259766,108.45022583007812,-350.3981628417969,-22.950000762939453,-43.5,-9.300000190734863
7.139,9.002198219299316,-6.550535678863525,5.286397457122803,100.18988800048828,105.5191421508789,-362.9219055175781,-23.55000114440918,-43.20000076293945,-9.15000057220459
7.159,9.576807022094727,-11.798625946044922,6.320692539215088,122.3062744140625,98.05818939208984,-385.5711975097656,-22.950000762939453,-41.85000228881836,-7.500000476837158
7.162,10.074800491333008,-20.30282974243164,2.873042106628418,131.0995330810547,102.18836212158203,-375.1791687011719,-24.750001907348633,-40.95000076293945,-8.40000057220459
7.169,10.917559623718262,-46.42835998535156,10.189722061157227,103.38744354248047,100.3231201171875,-393.69830322265625,-24.750001907348633,-40.95000076293945,-8.40000057220459
7.179,19.000385284423828,-55.58378601074219,13.713987350463867,70.87902069091797,84.33537292480469,-373.9800720214844,-25.650001525878906,-40.35000228881836,-6.0
7.189,29.190107345581055,-63.55168914794922,11.492168426513672,55.55742645263672,83.40275573730469,-356.6600341796875,-26.250001907348633,-38.25,-5.850000381469727
7.199,28.07919692993164,-70.40868377685547,13.177685737609863,32.90811538696289,86.0673828125,-353.1960144042969,-27.150001525878906,-35.70000076293945,-5.700000286102295
7.219,24.78477668762207,-77.03583526611328,11.683704376220703,19.85145378112793,76.87442779541016,-324.95098876953125,-27.450000762939453,-38.400001525878906,-4.200000286102295
7.223,26.43198585510254,-83.27991485595703,9.998186111450195,4.529861927032471,61.41960144042969,-272.32464599609375,-27.450000762939453,-38.400001525878906,-4.200000286102295
7.229,31.488540649414062,-102.9698257446289,7.048529624938965,-11.191424369812012,61.81929397583008,-256.4701232910156,-28.80000114440918,-35.55000305175781,-4.350000381469727
7.239,29.113492965698242,-113.46600341796875,7.2783732414245605,-46.897396087646484,64.75038146972656,-223.69525146484375,-28.500001907348633,-34.35000228881836,-3.9000000953674316
7.249,29.190107345581055,-110.43973541259766,2.873042106628418,-63.551300048828125,47.430320739746094,-176.9310760498047,-30.000001907348633,-33.150001525878906,-3.9000000953674316
7.259,32.52283477783203,-101.39923095703125,-1.9919757843017578,-40.36906433105469,36.372127532958984,-130.30015563964844,-30.150001525878906,-33.0,-4.5
7.279,37.57939147949219,-99.33064270019531,-5.822698593139648,-40.9019889831543,33.84073257446289,-88.59877014160156,-30.150001525878906,-33.0,-4.5
7.283,40.64396667480469,-107.94976806640625,-5.171475887298584,-29.84379768371582,27.71209716796875,-13.856048583984375,-30.000001907348633,-30.900001525878906,-2.8500001430511475
7.289,35.817256927490234,-111.9720230102539,1.5705963373184204,-11.591117858886719,43.16691970825195,32.37519073486328,-29.250001907348633,-31.950000762939453,-2.8500001430511475
7.299,32.331298828125,-129.89981079101562,18.081010818481445,-27.17917251586914,40.635528564453125,100.85604858398438,-29.400001525878906,-31.80000114440918,-1.9500000476837158
