time,accel_x,accel_y,accel_z,gyro_x,gyro_y,gyro_z,mag_x,mag_y,mag_z
0.0,84.16098022460938,-24.631547927856445,14.173673629760742,-3.597243309020996,6.395099639892578,-8.39356803894043,-37.80000305175781,-5.400000095367432,-9.15000057220459
0.01,76.99752807617188,-13.062764167785645,8.96389102935791,-4.263399600982666,6.9280242919921875,-10.392036437988281,-37.20000076293945,-5.850000381469727,-7.500000476837158
0.02,77.1507568359375,-13.599065780639648,9.806650161743164,0.1332312375307083,-8.260336875915527,1.9984685182571411,-36.30000305175781,-6.450000286102295,-7.650000095367432
0.04,76.88260650634766,-12.871228218078613,9.500192642211914,0.39969372749328613,1.4655436277389526,-5.728943347930908,-36.30000305175781,-6.450000286102295,-7.650000095367432
0.043,76.34630584716797,-12.066776275634766,8.887276649475098,-4.663093090057373,6.128636837005615,-10.658498764038086,-36.30000305175781,-5.400000095367432,-7.650000095367432
0.05,77.45721435546875,-12.449849128723145,9.921571731567383,-4.929555892944336,1.3323123455047607,-6.794793128967285,-38.400001525878906,-6.750000476837158,-7.500000476837158
0.06,76.69107055664062,-12.564770698547363,9.193734169006348,0.0,0.7993874549865723,-3.597243309020996,-36.150001525878906,-5.850000381469727,-8.550000190734863
0.07,77.45721435546875,-12.832921028137207,9.615114212036133,-4.663093090057373,-0.39969372749328613,0.7993874549865723,-36.45000076293945,-5.850000381469727,-8.25
0.08,77.53382873535156,-12.756306648254395,9.883264541625977,-4.263399600982666,1.3323123455047607,-12.25727367401123,-36.45000076293945,-5.850000381469727,-8.25
0.1,76.30799865722656,-13.177685737609863,9.078812599182129,-1.8652373552322388,-1.8652373552322388,3.3307809829711914,-36.30000305175781,-5.700000286102295,-7.650000095367432
0.104,77.1124496459961,-12.947842597961426,9.308655738830566,-7.194486618041992,1.5987749099731445,-5.595712184906006,-37.650001525878906,-5.550000190734863,-9.300000190734863
0.11,77.34229278564453,-11.951854705810547,8.504204750061035,-5.462480545043945,2.6646246910095215,-11.591117858886719,-37.20000076293945,-5.550000190734863,-9.300000190734863
0.12,76.76768493652344,-12.871228218078613,9.27034854888916,1.4655436277389526,-1.9984685182571411,2.131699800491333,-36.45000076293945,-5.850000381469727,-9.300000190734863
0.13,76.65276336669922,-13.10107135772705,9.27034854888916,1.7320060729980469,-1.5987749099731445,-3.0643184185028076,-36.45000076293945,-5.850000381469727,-9.300000190734863
0.14,77.03583526611328,-12.641385078430176,8.96389102935791,-5.995405673980713,6.9280242919921875,-9.326186180114746,-37.20000076293945,-4.050000190734863,-8.550000190734863
0.161,76.537841796875,-12.02846908569336,9.806650161743164,-2.6646246910095215,4.263399600982666,-7.194486618041992,-37.5,-6.900000095367432,-7.950000286102295
0.164,78.56812286376953,-12.066776275634766,9.691728591918945,-5.8621745109558105,6.128636837005615,-12.390504837036133,-36.75,-5.400000095367432,-8.40000057220459
0.17,77.38059997558594,-13.445837020874023,9.423578262329102,4.396630764007568,-2.131699800491333,-3.7304747104644775,-36.75,-5.400000095367432,-8.40000057220459
0.18,78.18505096435547,-12.986149787902832,8.35097599029541,-8.926492691040039,1.5987749099731445,-9.059723854064941,-36.75,-5.400000095367432,-8.40000057220459
0.19,75.69508361816406,-11.836933135986328,9.959878921508789,-4.396630764007568,3.7304747104644775,-8.526799201965332,-36.900001525878906,-6.300000190734863,-7.050000190734863
0.2,77.07414245605469,-11.875240325927734,10.189722061157227,-8.127105712890625,4.529861927032471,-6.395099639892578,-36.900001525878906,-5.550000190734863,-8.550000190734863
0.219,78.03182220458984,-11.875240325927734,9.232041358947754,-3.9969370365142822,5.8621745109558105,-6.9280242919921875,-36.900001525878906,-5.850000381469727,-8.25
0.223,77.57213592529297,-13.024456977844238,9.883264541625977,-7.327718257904053,5.062787055969238,-7.594180583953857,-36.30000305175781,-5.700000286102295,-8.40000057220459
0.23,76.07815551757812,-11.683704376220703,8.925583839416504,-0.9326186776161194,-9.326186180114746,-0.2664624750614166,-36.30000305175781,-5.700000286102295,-8.40000057220459
0.24,77.1890640258789,-12.60307788848877,9.193734169006348,2.131699800491333,0.6661561727523804,-4.263399600982666,-36.75,-5.400000095367432,-7.950000286102295
0.25,76.92091369628906,-12.29662036895752,9.155426979064941,1.9984685182571411,-1.8652373552322388,2.398162364959717,-36.150001525878906,-5.850000381469727,-8.550000190734863
0.26,77.68705749511719,-12.717999458312988,8.580819129943848,3.3307809829711914,-8.926492691040039,0.9326186776161194,-35.25,-4.950000286102295,-8.700000762939453
0.279,77.61044311523438,-13.48414421081543,9.346963882446289,-1.5987749099731445,-6.261868000030518,-1.5987749099731445,-37.80000305175781,-6.150000095367432,-8.40000057220459
0.283,76.34630584716797,-12.334927558898926,8.08282470703125,0.9326186776161194,-1.5987749099731445,0.7993874549865723,-37.05000305175781,-5.700000286102295,-9.15000057220459
0.29,78.4148941040039,-10.381258964538574,9.53849983215332,0.2664624750614166,2.398162364959717,3.197549819946289,-37.05000305175781,-5.700000286102295,-9.15000057220459
0.3,77.61044311523438,-12.105083465576172,10.036493301391602,1.9984685182571411,-5.8621745109558105,1.8652373552322388,-36.45000076293945,-5.100000381469727,-8.25
0.31,76.69107055664062,-14.518439292907715,9.040505409240723,1.0658499002456665,-5.196018218994141,-4.396630764007568,-37.05000305175781,-5.700000286102295,-8.40000057220459
0.32,76.34630584716797,-13.330915451049805,7.967903137207031,-3.86370587348938,6.395099639892578,-6.395099639892578,-36.0,-6.450000286102295,-9.15000057220459
0.339,77.68705749511719,-12.48815631866455,8.619126319885254,-2.9310872554779053,-3.86370587348938,3.0643184185028076,-36.900001525878906,-7.050000190734863,-7.800000190734863
0.342,76.61445617675781,-11.836933135986328,7.661445617675781,3.0643184185028076,-2.398162364959717,-4.663093090057373,-35.70000076293945,-6.300000190734863,-7.800000190734863
0.35,76.84429931640625,-13.522451400756836,8.427590370178223,-2.2649309635162354,4.130168437957764,-1.3323123455047607,-35.70000076293945,-6.300000190734863,-7.800000190734863
0.36,77.34229278564453,-13.522451400756836,9.155426979064941,-1.5987749099731445,6.128636837005615,-6.395099639892578,-37.80000305175781,-5.700000286102295,-8.40000057220459
0.37,77.1890640258789,-11.60708999633789,9.461885452270508,-4.130168437957764,2.797856092453003,-11.457886695861816,-38.70000076293945,-5.100000381469727,-7.800000190734863
0.38,77.1124496459961,-12.449849128723145,9.385271072387695,-1.1990811824798584,-0.6661561727523804,-0.7993874549865723,-36.75,-4.950000286102295,-7.350000381469727
0.401,77.1890640258789,-13.48414421081543,8.35097599029541,-0.9326186776161194,3.197549819946289,-12.25727367401123,-36.75,-4.950000286102295,-7.350000381469727
0.405,76.84429931640625,-13.522451400756836,9.308655738830566,-1.0658499002456665,-1.1990811824798584,-3.7304747104644775,-38.25,-5.700000286102295,-6.600000381469727
0.41,77.38059997558594,-12.947842597961426,9.959878921508789,-5.8621745109558105,5.329249382019043,-4.529861927032471,-38.25,-5.700000286102295,-6.600000381469727
0.42,77.45721435546875,-12.641385078430176,8.35097599029541,-7.327718257904053,4.929555892944336,-6.128636837005615,-36.0,-7.200000286102295,-8.700000762939453
0.43,76.80599212646484,-11.951854705810547,9.53849983215332,-0.5329249501228333,5.329249382019043,-3.597243309020996,-36.75,-4.5,-9.450000762939453
0.44,77.87859344482422,-11.760318756103516,9.921571731567383,-3.86370587348938,4.663093090057373,-3.0643184185028076,-36.75,-4.5,-9.450000762939453
0.459,76.30799865722656,-11.262324333190918,10.113107681274414,6.5283308029174805,-1.1990811824798584,-3.197549819946289,-37.20000076293945,-7.050000190734863,-7.050000190734863
0.462,77.34229278564453,-11.568782806396484,8.121131896972656,-1.3323123455047607,6.794793128967285,4.929555892944336,-36.900001525878906,-5.850000381469727,-9.300000190734863
0.47,76.95922088623047,-11.836933135986328,10.036493301391602,2.9310872554779053,0.7993874549865723,6.661561965942383,-37.05000305175781,-5.700000286102295,-7.350000381469727
0.48,78.3765869140625,-11.990161895751953,9.615114212036133,5.196018218994141,-1.1990811824798584,-0.9326186776161194,-37.05000305175781,-5.700000286102295,-7.350000381469727
0.49,77.57213592529297,-13.177685737609863,9.768342971801758,-5.062787055969238,1.3323123455047607,-0.39969372749328613,-36.75,-5.700000286102295,-7.350000381469727
0.5,77.7253646850586,-12.90953540802002,9.385271072387695,-4.929555892944336,9.459418296813965,-9.72588062286377,-35.70000076293945,-6.300000190734863,-8.25
0.519,78.52981567382812,-12.679692268371582,9.040505409240723,5.062787055969238,-7.860642910003662,0.0,-38.25,-5.400000095367432,-8.40000057220459
0.523,76.4995346069336,-11.798625946044922,11.338939666748047,1.0658499002456665,1.9984685182571411,1.7320060729980469,-37.20000076293945,-6.750000476837158,-6.750000476837158
0.53,77.763671875,-11.683704376220703,10.764330863952637,1.5987749099731445,-0.6661561727523804,-0.5329249501228333,-35.70000076293945,-7.050000190734863,-9.300000190734863
0.54,78.3382797241211,-11.798625946044922,11.645397186279297,7.460949420928955,-7.460949420928955,10.525267601013184,-35.70000076293945,-7.050000190734863,-9.300000190734863
0.55,78.72135162353516,-11.1474027633667,12.60307788848877,13.722817420959473,-13.856048583984375,1.3323123455047607,-37.20000076293945,-6.750000476837158,-7.800000190734863
0.56,79.5641098022461,-12.22000503540039,13.560758590698242,24.381317138671875,-6.9280242919921875,-8.793261528015137,-37.650001525878906,-6.300000190734863,-10.050000190734863
0.58,81.32624053955078,-12.181697845458984,14.441824913024902,64.21745300292969,-16.920366287231445,-26.513015747070312,-37.20000076293945,-5.850000381469727,-10.350000381469727
0.583,84.3525161743164,-6.550535678863525,11.338939666748047,32.77488327026367,-9.326186180114746,11.058192253112793,-36.900001525878906,-8.700000762939453,-9.0
0.59,64.81582641601562,-18.77054214477539,5.2480902671813965,18.2526798248291,-23.182235717773438,21.983154296875,-36.900001525878906,-8.700000762939453,-9.0
0.6,70.6385269165039,-21.950040817260742,5.324704647064209,-7.72741174697876,-8.260336875915527,21.983154296875,-36.150001525878906,-6.750000476837158,-7.800000190734863
0.61,78.83627319335938,-14.403517723083496,6.856993675231934,-5.462480545043945,-12.790199279785156,21.45022964477539,-36.30000305175781,-7.650000095367432,-10.200000762939453
0.62,80.67501831054688,-9.883264541625977,7.393294811248779,5.196018218994141,-12.923430442810059,30.110260009765625,-37.80000305175781,-7.200000286102295,-10.200000762939453
0.64,79.41088104248047,-12.60307788848877,4.213795185089111,12.390504837036133,-6.395099639892578,34.64012145996094,-35.70000076293945,-7.050000190734863,-10.800000190734863
0.644,75.00555419921875,-20.341136932373047,2.2601263523101807,-18.78560447692871,1.0658499002456665,20.117916107177734,-35.70000076293945,-7.050000190734863,-10.800000190734863
0.651,75.9249267578125,-19.000385284423828,4.750096321105957,-10.658498764038086,0.1332312375307083,19.584991455078125,-38.25,-6.900000095367432,-10.65000057220459
0.66,75.73339080810547,-16.395492553710938,5.4013190269470215,-12.523736000061035,8.127105712890625,34.50688934326172,-38.25,-7.200000286102295,-10.200000762939453
0.67,76.72937774658203,-10.764330863952637,4.63517427444458,-12.923430442810059,9.326186180114746,16.12097930908203,-37.650001525878906,-6.750000476837158,-9.0
0.68,75.9632339477539,-12.29662036895752,3.9839515686035156,7.594180583953857,8.926492691040039,28.111791610717773,-37.650001525878906,-6.750000476837158,-10.050000190734863
0.699,76.03984832763672,-14.326903343200684,5.018246650695801,10.125574111938477,12.124042510986328,21.84992218017578,-37.650001525878906,-6.750000476837158,-10.050000190734863
0.703,75.81000518798828,-16.625335693359375,3.8307228088378906,4.929555892944336,16.65390396118164,18.519142150878906,-37.20000076293945,-7.500000476837158,-8.25
0.71,76.4995346069336,-17.353174209594727,4.596867084503174,5.462480545043945,19.185298919677734,17.586523056030273,-37.05000305175781,-7.650000095367432,-9.450000762939453
0.72,75.12047576904297,-14.058752059936523,5.477933406829834,15.721285820007324,14.655436515808105,15.854516983032227,-36.30000305175781,-7.650000095367432,-9.450000762939453
0.73,75.12047576904297,-9.27034854888916,6.512228488922119,26.379785537719727,17.586523056030273,15.854516983032227,-37.20000076293945,-7.500000476837158,-9.0
0.74,76.07815551757812,-8.65743350982666,7.5848307609558105,25.18070411682129,25.7136287689209,9.326186180114746,-37.20000076293945,-7.500000476837158,-9.0
0.759,76.34630584716797,-14.211980819702148,6.473921298980713,31.842266082763672,19.45176124572754,20.650842666625977,-36.900001525878906,-8.25,-10.800000190734863
0.763,75.9632339477539,-21.14558982849121,7.316680431365967,15.721285820007324,33.97396469116211,14.788667678833008,-36.75,-6.900000095367432,-8.700000762939453
0.77,75.50354766845703,-20.570980072021484,7.5848307609558105,9.459418296813965,31.176109313964844,10.392036437988281,-37.20000076293945,-7.050000190734863,-9.0
0.78,75.8866195678711,-15.935806274414062,9.423578262329102,6.794793128967285,34.50688934326172,10.258805274963379,-38.70000076293945,-7.500000476837158,-9.300000190734863
0.79,75.8866195678711,-12.832921028137207,10.189722061157227,4.130168437957764,28.24502182006836,16.520673751831055,-38.70000076293945,-7.500000476837158,-9.300000190734863
0.8,76.99752807617188,-9.576807022094727,12.526463508605957,17.186830520629883,31.176109313964844,7.194486618041992,-38.70000076293945,-7.500000476837158,-9.300000190734863
0.819,76.92091369628906,-9.117119789123535,14.173673629760742,23.315465927124023,26.64624786376953,18.385910034179688,-37.20000076293945,-8.700000762939453,-9.300000190734863
0.823,77.1507568359375,-14.595053672790527,16.740259170532227,15.588054656982422,28.911178588867188,12.923430442810059,-37.20000076293945,-8.700000762939453,-9.300000190734863
0.83,77.30398559570312,-14.403517723083496,16.089035034179688,27.978559494018555,14.12251091003418,24.64777946472168,-37.5,-8.40000057220459,-8.40000057220459
0.84,77.45721435546875,-12.947842597961426,16.28057098388672,19.584991455078125,24.914241790771484,13.989279747009277,-35.400001525878906,-10.5,-9.300000190734863
0.85,76.38461303710938,-12.258312225341797,17.353174209594727,13.323123931884766,19.052066802978516,14.522205352783203,-35.400001525878906,-10.5,-9.300000190734863
0.86,76.34630584716797,-12.411541938781738,18.502389907836914,36.63859176635742,10.525267601013184,21.183767318725586,-37.5,-8.100000381469727,-6.900000095367432
0.879,75.9249267578125,-9.768342971801758,17.889474868774414,37.57120895385742,8.260336875915527,18.78560447692871,-37.650001525878906,-9.75,-9.300000190734863
0.883,76.76768493652344,-10.879252433776855,15.437812805175781,46.764163970947266,10.92496109008789,31.842266082763672,-37.95000076293945,-8.25,-8.550000190734863
0.89,76.38461303710938,-13.062764167785645,15.399505615234375,52.093414306640625,10.125574111938477,33.04134750366211,-37.95000076293945,-10.5,-8.25
0.9,75.9632339477539,-13.79060173034668,12.29662036895752,46.09800720214844,17.719755172729492,27.84532928466797,-37.95000076293945,-10.5,-8.25
0.91,76.38461303710938,-13.177685737609863,13.407529830932617,46.63093185424805,16.78713607788086,23.98162269592285,-37.80000305175781,-10.050000190734863,-9.15000057220459
0.92,75.9249267578125,-10.266336441040039,8.887276649475098,42.633995056152344,25.447166442871094,23.04900360107422,-35.55000305175781,-10.350000381469727,-7.950000286102295
0.938,75.9249267578125,-9.998186111450195,18.732234954833984,43.56661605834961,16.65390396118164,17.986217498779297,-38.400001525878906,-10.200000762939453,-8.550000190734863
0.941,76.5761489868164,-21.45204734802246,16.70195198059082,39.70290756225586,16.520673751831055,14.255742073059082,-38.400001525878906,-10.200000762939453,-8.550000190734863
0.95,75.19709014892578,-22.792800903320312,16.931795120239258,44.09954071044922,9.72588062286377,17.186830520629883,-38.400001525878906,-10.200000762939453,-8.550000190734863
0.96,75.15878295898438,-25.742456436157227,14.901511192321777,37.83767318725586,2.398162364959717,13.989279747009277,-38.400001525878906,-10.200000762939453,-8.550000190734863
0.97,76.537841796875,-24.478317260742188,11.875240325927734,30.24349021911621,8.526799201965332,17.053598403930664,-37.5,-11.100000381469727,-7.650000095367432
0.98,75.12047576904297,-15.935806274414062,12.90953540802002,26.64624786376953,11.591117858886719,11.058192253112793,-38.70000076293945,-10.5,-7.800000190734863
0.999,76.30799865722656,-12.871228218078613,13.79060173034668,32.24195861816406,17.586523056030273,15.45482349395752,-39.0,-11.550000190734863,-7.650000095367432
1.004,76.23138427734375,-15.054739952087402,14.67166805267334,45.16539001464844,10.658498764038086,27.31240463256836,-39.0,-11.550000190734863,-7.650000095367432
1.01,76.23138427734375,-14.67166805267334,10.917559623718262,35.972434997558594,18.385910034179688,27.71209716796875,-39.0,-11.550000190734863,-7.650000095367432
1.02,76.46122741699219,-10.457873344421387,14.441824913024902,46.497703552246094,0.2664624750614166,28.511484146118164,-36.900001525878906,-10.200000762939453,-7.500000476837158
1.03,76.15476989746094,-8.925583839416504,19.038692474365234,44.09954071044922,-3.86370587348938,47.0306282043457,-38.70000076293945,-10.5,-7.050000190734863
1.04,74.6607894897461,-12.143390655517578,18.54069709777832,33.97396469116211,2.398162364959717,47.56355285644531,-37.5,-11.100000381469727,-8.700000762939453
1.053,74.89063262939453,-16.433799743652344,18.310853958129883,33.97396469116211,-4.663093090057373,48.8958625793457,-37.5,-11.100000381469727,-8.40000057220459
1.06,75.73339080810547,-20.915746688842773,16.05072784423828,23.04900360107422,-1.0658499002456665,44.09954071044922,-37.5,-11.100000381469727,-8.40000057220459
1.07,74.85232543945312,-21.298818588256836,14.36521053314209,20.650842666625977,-6.395099639892578,57.02296829223633,-39.0,-12.300000190734863,-8.40000057220459
1.08,76.19307708740234,-19.115306854248047,11.1474027633667,7.06125545501709,-0.39969372749328613,52.75957107543945,-37.650001525878906,-12.15000057220459,-7.800000190734863
1.09,77.41890716552734,-15.820884704589844,10.764330863952637,6.661561965942383,1.1990811824798584,61.15313720703125,-39.150001525878906,-13.65000057220459,-7.050000190734863
1.109,75.58016204833984,-13.637372970581055,12.679692268371582,11.191424369812012,1.5987749099731445,74.20980072021484,-38.70000076293945,-14.100000381469727,-7.800000190734863
1.113,76.69107055664062,-19.19192123413086,10.41956615447998,10.791729927062988,-9.859111785888672,79.40581512451172,-38.25,-13.050000190734863,-8.700000762939453
1.12,74.3160171508789,-24.631547927856445,7.929595947265625,-7.327718257904053,0.2664624750614166,66.34915924072266,-38.25,-13.050000190734863,-8.700000762939453
1.13,75.15878295898438,-24.36339569091797,10.266336441040039,-11.724349021911621,1.9984685182571411,73.9433364868164,-37.5,-13.050000190734863,-8.40000057220459
1.14,75.31201171875,-21.87342643737793,9.691728591918945,-10.525267601013184,-2.6646246910095215,75.67534637451172,-38.25,-13.800000190734863,-8.40000057220459
1.15,75.73339080810547,-24.708162307739258,9.193734169006348,-25.7136287689209,0.2664624750614166,58.4885139465332,-37.650001525878906,-15.15000057220459,-7.500000476837158
1.168,76.88260650634766,-27.619510650634766,9.423578262329102,-26.379785537719727,-0.2664624750614166,75.00918579101562,-37.650001525878906,-15.15000057220459,-7.500000476837158
1.173,75.81000518798828,-28.53888511657715,6.358999729156494,-41.035221099853516,7.860642910003662,68.88054656982422,-39.0,-15.450000762939453,-9.450000762939453
1.18,76.07815551757812,-26.01060676574707,4.903325080871582,-45.16539001464844,10.125574111938477,70.07962799072266,-39.0,-15.450000762939453,-9.450000762939453
1.19,75.15878295898438,-23.63555908203125,10.228029251098633,-41.035221099853516,16.920366287231445,69.81317138671875,-39.150001525878906,-14.40000057220459,-9.300000190734863
1.2,73.97125244140625,-19.268535614013672,14.748282432556152,-27.578866958618164,9.192955017089844,57.955589294433594,-37.650001525878906,-15.15000057220459,-7.800000190734863
1.21,75.73339080810547,-25.742456436157227,12.756306648254395,-28.378253936767578,-0.5329249501228333,80.33843994140625,-37.650001525878906,-15.15000057220459,-7.800000190734863
1.229,74.6607894897461,-25.51261329650879,15.514427185058594,-33.84073257446289,-3.597243309020996,78.3399658203125,-37.650001525878906,-15.15000057220459,-7.800000190734863
1.233,75.46524047851562,-23.788787841796875,17.8128604888916,-38.23736572265625,-1.3323123455047607,74.07656860351562,-37.95000076293945,-18.30000114440918,-8.550000190734863
1.24,73.20510864257812,-29.95625114440918,20.532672882080078,-48.8958625793457,-11.058192253112793,83.40275573730469,-37.95000076293945,-18.30000114440918,-8.550000190734863
1.25,73.16680145263672,-30.91393280029297,18.11931800842285,-56.09035110473633,-11.058192253112793,79.9387435913086,-39.75,-16.950000762939453,-9.90000057220459
1.26,75.81000518798828,-28.960264205932617,17.966089248657227,-64.48391723632812,-13.856048583984375,72.21133422851562,-38.400001525878906,-16.350000381469727,-9.300000190734863
1.27,76.07815551757812,-24.554933547973633,16.395492553710938,-56.889739990234375,-11.457886695861816,81.27105712890625,-38.400001525878906,-16.350000381469727,-9.300000190734863
1.288,78.22335815429688,-24.746469497680664,19.07699966430664,-51.29402542114258,-25.447166442871094,82.86982727050781,-38.55000305175781,-18.450000762939453,-9.90000057220459
1.293,78.3765869140625,-25.933992385864258,19.574993133544922,-50.4946403503418,-33.17457962036133,85.80091857910156,-38.25,-17.400001525878906,-8.40000057220459
1.3,78.10843658447266,-32.52283477783203,16.47210693359375,-62.21898651123047,-17.586523056030273,81.40428924560547,-38.400001525878906,-18.30000114440918,-8.40000057220459
1.31,78.14674377441406,-35.0128059387207,14.135366439819336,-61.552833557128906,-33.84073257446289,99.92343139648438,-38.400001525878906,-18.30000114440918,-9.300000190734863
1.32,80.29194641113281,-44.97268295288086,12.105083465576172,-79.9387435913086,-41.568145751953125,82.86982727050781,-38.400001525878906,-18.30000114440918,-9.300000190734863
1.33,85.96141815185547,-28.61549949645996,8.236053466796875,-90.33078002929688,-32.24195861816406,82.7365951538086,-38.25,-18.150001525878906,-6.750000476837158
1.349,92.28211212158203,-21.298818588256836,13.943830490112305,-74.47626495361328,-50.09494400024414,100.45635223388672,-39.150001525878906,-20.25,-7.050000190734863
1.353,101.7056884765625,-22.48634147644043,18.693927764892578,-77.54058074951172,-42.500762939453125,98.19142150878906,-37.650001525878906,-18.75,-9.0
1.36,92.81841278076172,-27.849353790283203,13.867216110229492,-90.06431579589844,-42.36753463745117,98.4578857421875,-37.650001525878906,-18.75,-9.0
1.37,88.33646392822266,-31.182083129882812,12.02846908569336,-106.71822357177734,-42.500762939453125,106.71822357177734,-37.650001525878906,-20.55000114440918,-9.0
1.38,93.43132781982422,-29.305028915405273,8.08282470703125,-95.39356231689453,-63.151607513427734,117.50994873046875,-37.80000305175781,-20.100000381469727,-8.700000762939453
1.39,93.81439971923828,-26.623523712158203,7.7763671875,-100.85604858398438,-67.41500854492188,126.96936798095703,-37.5,-20.100000381469727,-9.450000762939453
1.41,95.1168441772461,-26.355371475219727,10.15141487121582,-121.3736572265625,-67.94792938232422,134.83001708984375,-38.25,-20.850000381469727,-7.950000286102295
1.414,98.6794204711914,-27.734432220458984,15.207969665527344,-136.69525146484375,-78.3399658203125,145.2220458984375,-38.25,-20.850000381469727,-7.950000286102295
1.42,105.99610137939453,-23.52063751220703,23.82709503173828,-137.76109313964844,-88.73200225830078,166.40582275390625,-37.05000305175781,-21.900001525878906,-10.65000057220459
1.43,107.6816177368164,-22.256498336791992,27.542896270751953,-170.93568420410156,-93.2618637084961,161.6094970703125,-37.650001525878906,-21.450000762939453,-9.75
1.44,110.78450012207031,-23.405715942382812,26.96828842163086,-197.71514892578125,-92.06278228759766,167.0719757080078,-37.95000076293945,-22.200000762939453,-9.75
1.45,115.49629211425781,-23.558944702148438,23.13756561279297,-221.69677734375,-106.85145568847656,185.99081420898438,-38.55000305175781,-22.80000114440918,-9.90000057220459
1.469,116.22412872314453,-15.24627685546875,16.242263793945312,-242.21438598632812,-102.32159423828125,198.9142303466797,-38.55000305175781,-22.80000114440918,-9.90000057220459
1.473,114.53861236572266,-4.788403511047363,10.228029251098633,-233.68759155273438,-127.36906433105469,225.69371032714844,-38.55000305175781,-22.80000114440918,-9.90000057220459
1.48,117.2201156616211,9.806650161743164,5.5545477867126465,-229.95712280273438,-134.03062438964844,237.95098876953125,-36.75,-23.850000381469727,-12.0
1.49,119.09716796875,17.774553298950195,3.7158010005950928,-201.71209716796875,-137.49464416503906,255.53750610351562,-37.80000305175781,-23.55000114440918,-10.65000057220459
1.5,119.7100830078125,27.006595611572266,3.5242648124694824,-160.94332885742188,-138.16079711914062,292.309326171875,-36.75,-25.500001907348633,-10.200000762939453
1.51,115.57290649414062,33.978511810302734,6.473921298980713,-174.66615295410156,-129.10107421875,281.3843688964844,-35.55000305175781,-25.80000114440918,-13.200000762939453
1.529,107.83484649658203,35.28095626831055,8.810662269592285,-161.7427215576172,-135.36293029785156,284.4486999511719,-35.55000305175781,-25.80000114440918,-13.200000762939453
1.533,107.0687026977539,33.05913543701172,13.943830490112305,-148.68606567382812,-139.2266387939453,280.185302734375,-35.70000076293945,-27.150001525878906,-12.600000381469727
1.54,97.83665466308594,18.77054214477539,2.719813108444214,-123.77182006835938,-136.69525146484375,284.4486999511719,-34.5,-30.150001525878906,-12.750000953674316
1.55,90.71151733398438,-3.2561142444610596,-1.9536685943603516,-15.321592330932617,-146.42112731933594,302.3016662597656,-35.70000076293945,-28.80000114440918,-13.350000381469727
1.56,88.91107177734375,-20.64759635925293,2.2218191623687744,105.65237426757812,-131.0995330810547,318.5558776855469,-34.5,-31.200000762939453,-13.200000762939453
1.57,93.81439971923828,-17.00840950012207,20.724210739135742,221.43031311035156,-110.18223571777344,327.4823913574219,-34.5,-31.200000762939453,-13.200000762939453
1.589,89.56229400634766,-17.276559829711914,23.44402313232422,290.31085205078125,-83.13629150390625,326.5497741699219,-36.45000076293945,-33.75,-13.050000190734863
1.593,64.16460418701172,-31.756690979003906,35.16603469848633,180.79478454589844,-48.362937927246094,237.2848358154297,-33.900001525878906,-36.900001525878906,-13.050000190734863
1.6,43.900081634521484,-54.81764221191406,28.232425689697266,140.02603149414062,-23.715160369873047,173.6002960205078,-35.400001525878906,-36.45000076293945,-10.800000190734863
1.61,36.69832229614258,-50.87199783325195,24.78477668762207,54.22511291503906,2.6646246910095215,94.0612564086914,-35.70000076293945,-37.20000076293945,-10.800000190734863
1.62,45.164222717285156,-24.018630981445312,24.516624450683594,0.1332312375307083,25.04747200012207,25.980091094970703,-35.70000076293945,-37.20000076293945,-10.800000190734863
1.63,45.54729461669922,-6.435614109039307,20.877439498901367,-19.85145378112793,41.035221099853516,-26.379785537719727,-36.0,-38.55000305175781,-9.15000057220459
1.65,36.621707916259766,5.669469833374023,23.558944702148438,-27.31240463256836,49.56201934814453,-86.3338394165039,-36.0,-39.0,-8.700000762939453
1.653,28.462270736694336,12.334927558898926,18.847156524658203,-5.062787055969238,78.20673370361328,-154.814697265625,-37.05000305175781,-37.80000305175781,-8.40000057220459
1.66,28.462270736694336,10.342951774597168,10.457873344421387,36.905052185058594,84.73506927490234,-196.1163787841797,-37.95000076293945,-37.650001525878906,-7.800000190734863
1.67,28.270732879638672,1.723825216293335,7.623138427734375,45.03215789794922,105.25267791748047,-236.7519073486328,-37.95000076293945,-37.650001525878906,-7.800000190734863
1.68,26.85336685180664,-14.748282432556152,9.078812599182129,73.54364013671875,121.90658569335938,-275.12249755859375,-37.95000076293945,-37.650001525878906,-7.800000190734863
1.69,26.738445281982422,-20.226215362548828,12.258312225341797,62.085758209228516,120.4410400390625,-338.0076599121094,-42.150001525878906,-35.25,-4.950000286102295
1.71,28.500577926635742,-9.691728591918945,14.403517723083496,44.89892578125,130.30015563964844,-360.1240234375,-42.0,-34.35000228881836,-5.100000381469727
1.713,34.32327651977539,-1.1492167711257935,15.476119995117188,43.30015182495117,132.16539001464844,-384.9050598144531,-43.5,-31.650001525878906,-2.8500001430511475
1.72,43.01901626586914,-3.869029998779297,9.002198219299316,43.83307647705078,142.02450561523438,-412.084228515625,-42.900001525878906,-30.600000381469727,-1.2000000476837158
1.73,46.390052795410156,-11.60708999633789,8.006210327148438,68.61408996582031,146.28790283203125,-415.5482177734375,-42.900001525878906,-30.600000381469727,-1.2000000476837158
1.74,48.88002014160156,-28.38565444946289,10.917559623718262,47.830013275146484,149.7519073486328,-458.848388671875,-46.05000305175781,-26.55000114440918,-0.30000001192092896
1.75,53.208740234375,-36.46847915649414,13.177685737609863,25.980091094970703,155.21438598632812,-485.8943176269531,-45.75,-24.30000114440918,0.6000000238418579
1.769,57.23099899291992,-35.817256927490234,11.41555404663086,13.989279747009277,145.2220458984375,-508.0107116699219,-45.900001525878906,-22.5,1.6500000953674316
1.773,65.2372055053711,-29.879636764526367,8.848969459533691,12.124042510986328,151.35069274902344,-520.4011840820312,-48.0,-19.200000762939453,1.8000000715255737
1.78,78.56812286376953,-28.73042106628418,3.3710360527038574,6.261868000030518,156.5467071533203,-526.9295654296875,-48.0,-19.200000762939453,1.8000000715255737
1.79,85.31019592285156,-30.68408966064453,3.2178070545196533,26.513015747070312,146.0214385986328,-537.7212524414062,-48.150001525878906,-12.90000057220459,4.5
1.8,91.70750427246094,-34.05512619018555,2.451662540435791,45.831546783447266,142.02450561523438,-535.4563598632812,-48.750003814697266,-10.350000381469727,7.350000381469727
1.81,94.88700103759766,-36.2386360168457,1.6089035272598267,51.4272575378418,143.4900360107422,-525.8637084960938,-47.25,-7.650000095367432,6.150000095367432
1.83,97.72173309326172,-36.77493667602539,2.75812029838562,55.15773391723633,150.151611328125,-522.7993774414062,-47.70000076293945,-5.550000190734863,7.800000190734863
1.833,98.48788452148438,-34.66804122924805,2.2218191623687744,67.28177642822266,145.48851013183594,-503.747314453125,-47.70000076293945,-5.550000190734863,7.800000190734863
1.84,99.9052505493164,-32.63775634765625,3.294421434402466,78.07350158691406,143.75650024414062,-494.6875915527344,-47.70000076293945,-5.550000190734863,7.800000190734863
1.85,100.63308715820312,-32.292991638183594,3.5625722408294678,83.13629150390625,151.6171417236328,-485.36138916015625,-43.95000076293945,2.4000000953674316,10.350000381469727
1.86,100.4415512084961,-34.897884368896484,4.941632270812988,72.61102294921875,148.8192901611328,-475.3690490722656,-42.0,5.400000095367432,10.950000762939453
1.87,99.10079956054688,-35.35757064819336,5.937620162963867,72.0781021118164,145.6217498779297,-466.7090148925781,-40.650001525878906,7.800000190734863,10.800000190734863
1.89,96.15113830566406,-35.0128059387207,4.9799394607543945,47.830013275146484,149.3522186279297,-463.64471435546875,-39.45000076293945,9.0,11.100000381469727
1.894,94.35070037841797,-36.8132438659668,4.060565948486328,9.859111785888672,151.6171417236328,-464.444091796875,-37.20000076293945,14.100000381469727,13.350000381469727
1.9,92.43534088134766,-39.035064697265625,0.727837324142456,-5.595712184906006,146.68759155273438,-458.98162841796875,-37.20000076293945,14.100000381469727,13.350000381469727
1.91,94.08255004882812,-34.782962799072266,-4.137180328369141,-8.660030364990234,140.82542419433594,-459.3813171386719,-36.0,13.800000190734863,15.450000762939453
1.92,96.3426742553711,-27.27474594116211,-6.320692539215088,-5.062787055969238,143.75650024414062,-457.2496032714844,-33.0,15.000000953674316,15.450000762939453
1.93,100.09678649902344,-24.708162307739258,-8.848969459533691,4.130168437957764,136.29556274414062,-466.44256591796875,-33.0,17.700000762939453,14.700000762939453
1.95,103.16136169433594,-29.266721725463867,-7.048529624938965,5.462480545043945,121.90658569335938,-457.1163635253906,-33.0,17.700000762939453,14.700000762939453
1.954,104.42549896240234,-30.875625610351562,-2.2218191623687744,-6.9280242919921875,119.64165496826172,-430.7366027832031,-26.700000762939453,20.25,17.100000381469727
1.96,101.28430938720703,-21.413740158081055,-3.9456443786621094,-10.125574111938477,129.90045166015625,-410.75189208984375,-26.700000762939453,20.25,17.100000381469727
1.97,99.17741394042969,-22.026655197143555,-4.558559894561768,-2.6646246910095215,129.36753845214844,-373.9800720214844,-24.150001525878906,20.55000114440918,18.450000762939453
1.98,96.61082458496094,-27.619510650634766,-3.2561142444610596,-11.591117858886719,125.10413360595703,-331.0796203613281,-22.05000114440918,21.600000381469727,18.30000114440918
1.99,101.62907409667969,-34.782962799072266,-6.742072105407715,-22.249616622924805,112.98008728027344,-296.17303466796875,-22.05000114440918,21.600000381469727,18.30000114440918
2.009,104.61703491210938,-37.19631576538086,-11.30063247680664,-10.658498764038086,83.40275573730469,-231.68911743164062,-22.05000114440918,21.600000381469727,18.30000114440918
2.013,107.33685302734375,-37.96246337890625,-13.292608261108398,5.462480545043945,55.95711898803711,-159.07809448242188,-18.0,21.150001525878906,19.05000114440918
2.02,100.28832244873047,-37.27293395996094,-12.02846908569336,21.84992218017578,41.035221099853516,-103.92036437988281,-18.0,21.150001525878906,19.05000114440918
2.03,95.53822326660156,-41.29519271850586,-12.717999458312988,23.04900360107422,17.053598403930664,-43.83307647705078,-16.200000762939453,22.5,16.650001525878906
2.04,90.48167419433594,-48.26710510253906,-8.542511940002441,9.859111785888672,2.2649309635162354,29.31087303161621,-17.25,22.350000381469727,18.30000114440918
2.05,90.2901382446289,-51.1401481628418,-7.469909191131592,-2.531393527984619,-34.50688934326172,99.79019927978516,-17.25,22.350000381469727,18.30000114440918
2.069,91.86073303222656,-47.539268493652344,-6.3973069190979,1.5987749099731445,-53.558956146240234,155.08116149902344,-16.80000114440918,21.900001525878906,18.75
2.073,91.55427551269531,-37.54108428955078,-5.2480902671813965,28.644716262817383,-69.01377868652344,209.57273864746094,-17.55000114440918,22.80000114440918,18.30000114440918
2.08,92.7417984008789,-27.657817840576172,-4.596867084503174,58.888206481933594,-80.33843994140625,244.07962036132812,-17.55000114440918,22.80000114440918,18.30000114440918
2.09,92.090576171875,-25.665842056274414,-3.3710360527038574,73.41041564941406,-81.93721008300781,274.056640625,-18.30000114440918,21.150001525878906,19.80000114440918
2.1,90.17520904541016,-23.02264404296875,1.2641384601593018,88.865234375,-52.3598747253418,283.6492919921875,-18.30000114440918,21.150001525878906,19.80000114440918
2.11,73.43495178222656,-22.448034286499023,36.16202163696289,13.989279747009277,-1.5987749099731445,232.0888214111328,-20.25,20.400001525878906,16.80000114440918
2.129,81.55608367919922,10.304644584655762,132.96438598632812,-332.9448547363281,-132.43185424804688,73.81010437011719,-21.150001525878906,18.75,15.90000057220459
2.132,157.8640899658203,142.08151245117188,-82.74361419677734,-134.03062438964844,-118.30934143066406,283.11639404296875,-20.700000762939453,18.30000114440918,17.100000381469727
2.14,114.69184112548828,106.68563079833984,-87.30216979980469,68.34762573242188,-42.76722717285156,357.326171875,-20.700000762939453,18.30000114440918,17.100000381469727
2.15,61.636329650878906,40.375816345214844,-22.17988395690918,205.04287719726562,-50.09494400024414,364.25421142578125,-20.700000762939453,18.30000114440918,17.100000381469727
2.16,55.928550720214844,-33.13574981689453,19.000385284423828,143.62327575683594,-62.618682861328125,313.8927917480469,-23.400001525878906,15.15000057220459,16.350000381469727
2.17,57.6906852722168,-72.43896484375,20.992361068725586,25.846860885620117,-48.62940216064453,230.22357177734375,-22.950000762939453,16.350000381469727,18.150001525878906
2.189,55.12409973144531,-41.10365295410156,28.960264205932617,15.188361167907715,-69.4134750366211,216.10107421875,-23.700000762939453,14.100000381469727,15.600000381469727
2.193,67.68887329101562,-0.038307227194309235,25.51261329650879,134.29708862304688,-47.56355285644531,222.36293029785156,-23.700000762939453,14.100000381469727,15.600000381469727
2.2,68.761474609375,-4.9799394607543945,24.05693817138672,178.5298614501953,-25.04747200012207,221.5635528564453,-23.700000762939453,14.100000381469727,15.600000381469727
2.21,80.52178955078125,-29.419950485229492,32.63775634765625,129.36753845214844,-42.76722717285156,207.97396850585938,-25.500001907348633,11.850000381469727,16.80000114440918
2.22,88.6429214477539,-56.46485137939453,24.286781311035156,45.56508255004883,-39.70290756225586,184.92495727539062,-26.250001907348633,11.550000190734863,15.000000953674316
2.23,70.48529815673828,-50.5655403137207,13.292608261108398,6.5283308029174805,-33.97396469116211,165.87289428710938,-27.30000114440918,11.100000381469727,15.000000953674316
2.249,75.54185485839844,-24.631547927856445,12.066776275634766,-3.9969370365142822,-23.715160369873047,140.29249572753906,-25.950000762939453,9.75,15.600000381469727
2.252,80.29194641113281,-0.689530074596405,-3.5625722408294678,1.3323123455047607,-14.255742073059082,150.151611328125,-25.950000762939453,9.75,15.600000381469727
2.26,77.53382873535156,-4.558559894561768,-2.4899697303771973,-1.0658499002456665,-10.125574111938477,149.48544311523438,-28.650001525878906,8.700000762939453,15.15000057220459
2.27,73.664794921875,-9.730035781860352,5.1331682205200195,-23.182235717773438,0.0,148.68606567382812,-27.900001525878906,9.450000762939453,14.850000381469727
2.28,78.56812286376953,-12.90953540802002,11.530475616455078,-34.10719680786133,-2.2649309635162354,141.35833740234375,-27.900001525878906,7.800000190734863,15.600000381469727
2.29,80.63671112060547,-15.667655944824219,18.77054214477539,-24.914241790771484,-19.45176124572754,121.10719299316406,-28.80000114440918,8.100000381469727,14.700000762939453
2.309,76.95922088623047,-21.605276107788086,13.943830490112305,-25.313934326171875,-5.8621745109558105,92.46247863769531,-28.950000762939453,5.850000381469727,14.40000057220459
2.312,74.85232543945312,-1.4173674583435059,14.173673629760742,-6.5283308029174805,-11.857580184936523,106.58499145507812,-28.950000762939453,5.850000381469727,14.40000057220459
2.32,75.84831237792969,1.800439715385437,13.21599292755127,9.592649459838867,-7.194486618041992,100.85604858398438,-28.200000762939453,5.100000381469727,14.850000381469727
2.33,76.69107055664062,2.2601263523101807,10.84094524383545,42.633995056152344,-8.926492691040039,104.45329284667969,-28.500001907348633,7.200000286102295,15.750000953674316
2.34,77.03583526611328,-8.772355079650879,5.018246650695801,49.29555892944336,3.4640121459960938,94.46094512939453,-30.30000114440918,5.700000286102295,13.950000762939453
2.35,76.65276336669922,-18.310853958129883,10.917559623718262,42.23430252075195,-1.1990811824798584,82.07044219970703,-30.30000114440918,5.700000286102295,13.950000762939453
2.369,76.07815551757812,-21.0689754486084,16.81687355041504,31.842266082763672,1.0658499002456665,74.60948944091797,-30.150001525878906,5.550000190734863,14.100000381469727
2.373,74.43093872070312,-12.871228218078613,15.629348754882812,35.439510345458984,4.796324729919434,63.81776428222656,-29.250001907348633,4.5,13.950000762939453
2.38,74.16278839111328,-12.7946138381958,15.016432762145996,34.24042892456055,8.39356803894043,54.75803756713867,-29.700000762939453,5.100000381469727,14.100000381469727
2.39,75.84831237792969,-12.7946138381958,11.41555404663086,43.69984436035156,4.796324729919434,60.08728790283203,-29.55000114440918,5.700000286102295,13.500000953674316
2.4,76.72937774658203,-15.629348754882812,10.84094524383545,45.03215789794922,4.663093090057373,52.89280319213867,-29.55000114440918,5.700000286102295,13.500000953674316
2.41,75.9632339477539,-12.066776275634766,12.48815631866455,35.57273864746094,12.390504837036133,45.96477508544922,-30.900001525878906,5.100000381469727,15.600000381469727
2.428,75.31201171875,-9.461885452270508,12.60307788848877,48.362937927246094,17.186830520629883,51.960182189941406,-30.30000114440918,3.450000047683716,14.250000953674316
2.431,75.77169799804688,-12.181697845458984,14.441824913024902,48.62940216064453,20.517610549926758,52.3598747253418,-30.30000114440918,3.450000047683716,14.250000953674316
2.44,74.85232543945312,-13.21599292755127,13.254301071166992,53.69218826293945,11.457886695861816,59.4211311340332,-31.05000114440918,3.750000238418579,14.700000762939453
2.45,76.76768493652344,-15.322891235351562,16.242263793945312,33.57427215576172,14.788667678833008,63.418067932128906,-31.05000114440918,3.750000238418579,14.700000762939453
2.46,77.30398559570312,-15.24627685546875,13.79060173034668,30.37672233581543,11.857580184936523,54.22511291503906,-31.05000114440918,3.750000238418579,14.700000762939453
2.47,76.92091369628906,-8.887276649475098,14.135366439819336,40.635528564453125,8.660030364990234,67.814697265625,-30.000001907348633,3.0,13.950000762939453
2.489,75.73339080810547,-5.746084213256836,16.625335693359375,41.83460998535156,13.456355094909668,65.949462890625,-31.80000114440918,2.25,13.950000762939453
2.493,76.5761489868164,-19.421764373779297,15.24627685546875,39.569679260253906,0.2664624750614166,73.9433364868164,-31.80000114440918,2.25,13.950000762939453
2.5,77.49552154541016,-21.183897018432617,15.016432762145996,25.313934326171875,3.9969370365142822,69.81317138671875,-31.200000762939453,2.1000001430511475,13.65000057220459
2.51,77.49552154541016,-22.218191146850586,15.552734375,1.7320060729980469,11.990811347961426,62.75191116333008,-31.200000762939453,2.1000001430511475,13.65000057220459
2.52,78.79796600341797,-19.038692474365234,13.752294540405273,-16.12097930908203,13.989279747009277,60.62021255493164,-31.500001907348633,1.8000000715255737,14.700000762939453
2.53,77.763671875,-12.181697845458984,13.445837020874023,-17.852985382080078,11.324655532836914,63.950992584228516,-30.450000762939453,2.1000001430511475,13.050000190734863
2.543,75.50354766845703,-10.649409294128418,14.403517723083496,-16.12097930908203,7.9938740730285645,72.21133422851562,-31.650001525878906,2.1000001430511475,14.100000381469727
2.55,77.87859344482422,-14.824896812438965,16.089035034179688,-23.98162269592285,9.592649459838867,69.4134750366211,-31.05000114440918,1.5,14.250000953674316
2.56,77.34229278564453,-17.353174209594727,10.304644584655762,-39.70290756225586,18.78560447692871,79.2725830078125,-31.05000114440918,1.5,14.250000953674316
2.57,76.88260650634766,-13.254301071166992,12.143390655517578,-36.905052185058594,3.86370587348938,101.2557373046875,-31.200000762939453,2.4000000953674316,14.100000381469727
2.58,78.07012939453125,-3.869029998779297,14.09705924987793,-27.445634841918945,4.130168437957764,114.44563293457031,-30.30000114440918,0.75,13.200000762939453
2.59,79.52580261230469,-2.9496564865112305,16.47210693359375,-38.10413360595703,10.125574111938477,131.49923706054688,-31.500001907348633,1.8000000715255737,15.000000953674316
2.603,75.81000518798828,-11.951854705810547,19.268535614013672,-45.69831466674805,0.1332312375307083,141.35833740234375,-31.650001525878906,-0.15000000596046448,13.050000190734863
2.61,77.763671875,-22.2948055267334,19.38345718383789,-60.88667678833008,-9.72588062286377,151.48391723632812,-31.650001525878906,-0.15000000596046448,13.050000190734863
2.62,79.06611633300781,-26.355371475219727,17.31486701965332,-99.92343139648438,0.7993874549865723,144.42266845703125,-31.500001907348633,0.0,14.700000762939453
2.63,78.9511947631836,-27.657817840576172,16.66364288330078,-115.64471435546875,-23.182235717773438,154.41500854492188,-33.0,-0.30000001192092896,14.250000953674316
2.64,79.06611633300781,-17.659631729125977,31.90991973876953,-104.85298156738281,-32.37519073486328,160.94332885742188,-32.25,-3.0,14.250000953674316
2.65,76.30799865722656,3.294421434402466,32.44622039794922,-54.35834503173828,-20.117916107177734,165.87289428710938,-31.950000762939453,-1.6500000953674316,15.15000057220459
2.662,73.93294525146484,-5.2480902671813965,25.321077346801758,-40.36906433105469,-30.37672233581543,168.9372100830078,-31.950000762939453,-1.6500000953674316,15.15000057220459
2.67,75.23539733886719,-35.05111312866211,13.599065780639648,-55.82388687133789,-40.635528564453125,168.80397033691406,-33.900001525878906,-5.100000381469727,13.65000057220459
2.68,76.19307708740234,-42.48271560668945,14.441824913024902,-99.79019927978516,-32.5084228515625,164.00765991210938,-31.80000114440918,-4.5,15.000000953674316
2.69,80.98147583007812,-37.08139419555664,11.1474027633667,-112.31393432617188,-31.842266082763672,165.3399658203125,-31.80000114440918,-5.400000095367432,13.200000762939453
2.7,82.28392028808594,-27.313053131103516,13.752294540405273,-98.85757446289062,-42.633995056152344,157.612548828125,-31.650001525878906,-7.800000190734863,14.850000381469727
2.719,84.77389526367188,-26.815059661865234,12.871228218078613,-97.92495727539062,-43.03369140625,160.8101043701172,-31.650001525878906,-7.800000190734863,14.850000381469727
2.723,87.14894104003906,-33.05913543701172,19.460071563720703,-125.50382232666016,-50.09494400024414,163.34149169921875,-32.70000076293945,-6.300000190734863,13.350000381469727
2.73,98.6028060913086,-33.7486686706543,14.67166805267334,-134.43031311035156,-56.09035110473633,157.74578857421875,-33.900001525878906,-7.800000190734863,13.050000190734863
2.74,101.01615905761719,-29.994558334350586,11.60708999633789,-149.21897888183594,-70.3460922241211,168.0045928955078,-34.5,-8.100000381469727,14.700000762939453
2.75,97.76004028320312,-23.980323791503906,17.468095779418945,-136.0290985107422,-79.0061264038086,179.86216735839844,-34.5,-8.40000057220459,12.750000953674316
2.76,100.02017211914062,-16.433799743652344,18.54069709777832,-117.37671661376953,-75.27565002441406,182.6600341796875,-33.150001525878906,-10.200000762939453,13.65000057220459
2.77,102.8932113647461,-20.724210739135742,15.322891235351562,-108.45022583007812,-91.13016510009766,201.84532165527344,-33.150001525878906,-10.200000762939453,13.65000057220459
2.782,102.01214599609375,-29.113492965698242,12.564770698547363,-135.0964813232422,-89.26493072509766,198.6477813720703,-33.30000305175781,-11.100000381469727,13.950000762939453
2.79,107.33685302734375,-33.288978576660156,9.653421401977539,-134.29708862304688,-112.98008728027344,202.9111785888672,-34.80000305175781,-13.050000190734863,12.450000762939453
2.8,114.95999145507812,-28.653806686401367,8.887276649475098,-135.76263427734375,-118.97549438476562,213.8361358642578,-35.55000305175781,-13.800000190734863,12.450000762939453
2.81,118.59917449951172,-19.99637222290039,11.91354751586914,-133.89739990234375,-113.51301574707031,226.89279174804688,-34.650001525878906,-14.100000381469727,13.050000190734863
2.82,109.90343475341797,-21.98834800720215,8.465897560119629,-168.0045928955078,-120.57427215576172,226.09341430664062,-34.650001525878906,-14.100000381469727,13.050000190734863
2.839,108.9074478149414,-25.435998916625977,7.661445617675781,-211.9709014892578,-119.90811157226562,235.4196014404297,-35.55000305175781,-17.400001525878906,10.950000762939453
2.843,115.84105682373047,-17.851167678833008,4.750096321105957,-240.48239135742188,-131.23277282714844,245.27870178222656,-34.5,-18.150001525878906,10.65000057220459
2.85,119.90161895751953,2.5665841102600098,9.346963882446289,-245.0122528076172,-128.43490600585938,253.1393585205078,-34.5,-18.150001525878906,10.65000057220459
2.86,121.70206451416016,12.105083465576172,11.645397186279297,-252.3399658203125,-135.4961700439453,259.134765625,-33.0,-18.900001525878906,10.200000762939453
2.87,131.93008422851562,22.83110809326172,15.322891235351562,-246.21133422851562,-138.56048583984375,255.1378173828125,-33.0,-18.900001525878906,10.200000762939453
2.88,139.51492309570312,41.71657180786133,20.187908172607422,-232.48851013183594,-132.9647674560547,289.64471435546875,-34.05000305175781,-21.150001525878906,9.450000762939453
2.89,132.1982421875,59.91250228881836,21.337125778198242,-219.16539001464844,-124.97090148925781,304.03369140625,-33.900001525878906,-22.5,9.300000190734863
2.903,123.2343521118164,57.57576370239258,19.881450653076172,-168.1378173828125,-111.38131713867188,315.35833740234375,-32.70000076293945,-26.400001525878906,8.25
2.91,101.0927734375,30.032865524291992,-0.5746083855628967,-87.79938507080078,-124.70443725585938,327.2159118652344,-32.70000076293945,-26.400001525878906,8.25
2.92,92.89502716064453,-4.213795185089111,-2.3750481605529785,9.059723854064941,-131.7657012939453,318.5558776855469,-32.70000076293945,-26.400001525878906,8.25
2.93,97.22373962402344,-25.550920486450195,17.889474868774414,127.36906433105469,-137.76109313964844,330.0137634277344,-31.80000114440918,-30.150001525878906,5.400000095367432
2.94,103.96581268310547,-16.28057098388672,30.569168090820312,240.34915161132812,-121.50688934326172,351.1975402832031,-32.400001525878906,-29.850000381469727,6.300000190734863
2.959,85.42511749267578,-14.480132102966309,36.50678634643555,251.27410888671875,-93.66156005859375,356.26031494140625,-30.900001525878906,-31.500001907348633,6.750000476837158
2.963,57.99714279174805,-38.95845031738281,33.82528305053711,126.43644714355469,-70.3460922241211,230.75650024414062,-30.150001525878906,-33.45000076293945,6.750000476837158
2.97,46.198516845703125,-64.12629699707031,23.482330322265625,62.085758209228516,-34.773353576660156,160.01071166992188,-30.150001525878906,-33.45000076293945,6.750000476837158
2.98,44.12992477416992,-46.88804626464844,19.843143463134766,19.31852912902832,-36.10566711425781,95.39356231689453,-29.250001907348633,-37.05000305175781,7.950000286102295
2.99,56.80961608886719,-11.070788383483887,19.38345718383789,18.91883659362793,-13.58958625793457,42.23430252075195,-27.750001907348633,-35.85000228881836,6.900000095367432
3.0,53.59181213378906,13.445837020874023,19.613300323486328,60.08728790283203,-6.5283308029174805,-14.655436515808105,-29.250001907348633,-38.25,8.40000057220459
3.019,41.79318618774414,29.381643295288086,21.796812057495117,122.83920288085938,12.923430442810059,-66.74884796142578,-27.750001907348633,-37.80000305175781,7.350000381469727
3.023,34.82126998901367,28.577192306518555,16.931795120239258,211.70443725585938,26.779478073120117,-114.84532928466797,-27.750001907348633,-37.80000305175781,7.350000381469727
3.03,23.060951232910156,1.3407529592514038,16.35718536376953,230.62327575683594,31.042879104614258,-152.949462890625,-27.750001907348633,-37.80000305175781,7.350000381469727
3.04,20.494365692138672,-12.526463508605957,18.923770904541016,213.56967163085938,49.69525146484375,-229.5574188232422,-30.30000114440918,-37.05000305175781,6.750000476837158
3.05,18.34916114807129,-23.3291015625,18.847156524658203,175.7320098876953,43.69984436035156,-284.1822204589844,-31.200000762939453,-37.650001525878906,10.350000381469727
3.06,19.728221893310547,-21.222204208374023,19.38345718383789,127.90198516845703,57.822357177734375,-329.2143859863281,-30.900001525878906,-36.900001525878906,11.100000381469727
3.079,22.677879333496094,-17.238252639770508,18.11931800842285,91.66309356689453,74.8759536743164,-384.9050598144531,-30.900001525878906,-36.900001525878906,11.100000381469727
3.083,25.244462966918945,-21.37543296813965,18.310853958129883,65.68299865722656,71.54517364501953,-429.5375061035156,-31.950000762939453,-34.95000076293945,12.600000381469727
3.09,29.803022384643555,-26.776752471923828,15.514427185058594,44.63246536254883,80.8713607788086,-452.7197570800781,-33.45000076293945,-33.45000076293945,12.600000381469727
3.1,32.676063537597656,-27.121517181396484,15.782577514648438,31.309341430664062,90.4640121459961,-477.90045166015625,-34.80000305175781,-32.85000228881836,12.0
3.11,38.57537841796875,-26.85336685180664,14.595053672790527,27.17917251586914,105.91883087158203,-522.0,-34.5,-30.150001525878906,12.750000953674316
3.12,44.93437576293945,-26.776752471923828,13.445837020874023,19.584991455078125,104.05359649658203,-540.3859252929688,-34.5,-30.150001525878906,12.750000953674316
3.139,51.82967758178711,-29.15180015563965,12.90953540802002,10.791729927062988,111.24808502197266,-568.231201171875,-35.55000305175781,-26.55000114440918,15.000000953674316
3.143,59.031436920166016,-33.672054290771484,9.423578262329102,-0.9326186776161194,119.24195861816406,-590.21435546875,-37.20000076293945,-27.150001525878906,16.350000381469727
3.15,71.40467071533203,-39.341522216796875,6.856993675231934,-14.255742073059082,130.56661987304688,-603.5374755859375,-39.0,-23.55000114440918,17.25
3.16,76.72937774658203,-38.920143127441406,3.8307228088378906,-6.661561965942383,128.7013702392578,-603.6707153320312,-37.95000076293945,-21.0,17.700000762939453
3.17,82.20730590820312,-37.311241149902344,2.8347349166870117,5.595712184906006,130.56661987304688,-606.3353881835938,-37.95000076293945,-21.0,17.700000762939453
3.18,88.37477111816406,-36.8515510559082,3.869029998779297,19.31852912902832,134.5635528564453,-606.4685668945312,-37.95000076293945,-21.0,17.700000762939453
3.199,93.54624938964844,-38.38384246826172,4.443638324737549,40.502296447753906,135.0964813232422,-596.2097778320312,-39.900001525878906,-13.65000057220459,20.400001525878906
3.204,98.44957733154297,-40.567352294921875,5.937620162963867,39.43644714355469,142.02450561523438,-589.1485595703125,-38.55000305175781,-12.300000190734863,20.850000381469727
3.21,100.78631591796875,-36.77493667602539,7.929595947265625,46.364471435546875,139.6263427734375,-584.4854125976562,-38.55000305175781,-11.100000381469727,23.100000381469727
3.22,101.0927734375,-35.05111312866211,6.780379295349121,49.82848358154297,155.08116149902344,-561.5696411132812,-38.55000305175781,-7.650000095367432,24.150001525878906
3.23,99.44556427001953,-35.54910659790039,5.094861030578613,50.76110076904297,145.0888214111328,-542.6508178710938,-38.55000305175781,-7.650000095367432,24.150001525878906
3.24,99.36894989013672,-38.19230651855469,4.63517427444458,33.04134750366211,158.4119415283203,-539.0535888671875,-36.75,-1.5,25.650001525878906
3.259,99.06249237060547,-40.145973205566406,6.244078159332275,9.72588062286377,157.87901306152344,-529.8606567382812,-36.75,1.0500000715255737,27.450000762939453
3.263,97.45358276367188,-42.1762580871582,7.240066051483154,-30.90964698791504,168.1378173828125,-526.9295654296875,-34.05000305175781,3.450000047683716,28.650001525878906
3.27,97.07051086425781,-41.180267333984375,6.320692539215088,-41.701377868652344,164.27410888671875,-524.9310913085938,-33.45000076293945,5.550000190734863,28.80000114440918
3.28,97.14712524414062,-41.71657180786133,4.060565948486328,-65.54976654052734,183.05972290039062,-531.9923095703125,-33.45000076293945,5.550000190734863,28.80000114440918
3.29,100.02017211914062,-40.7205810546875,9.040505409240723,-100.45635223388672,188.2557373046875,-526.9295654296875,-29.55000114440918,10.350000381469727,33.75
3.3,108.52437591552734,-38.230613708496094,9.385271072387695,-104.7197494506836,184.25880432128906,-498.2848205566406,-28.200000762939453,10.950000762939453,32.85000228881836
3.321,110.47804260253906,-36.88985824584961,5.1331682205200195,-134.69677734375,177.06431579589844,-490.4241943359375,-25.80000114440918,12.300000190734863,34.5
3.324,112.66155242919922,-36.928165435791016,-0.19153612852096558,-135.22970581054688,154.54823303222656,-433.5344543457031,-22.05000114440918,13.500000953674316,34.5
3.33,110.93772888183594,-22.562957763671875,-10.304644584655762,-116.71056365966797,154.14854431152344,-417.679931640625,-22.05000114440918,13.500000953674316,34.5
3.34,109.75020599365234,-19.038692474365234,-13.21599292755127,-64.61714935302734,129.36753845214844,-351.0643005371094,-22.05000114440918,13.500000953674316,34.5
3.35,107.643310546875,-15.85919189453125,-16.318878173828125,-11.058192253112793,113.24655151367188,-283.915771484375,-16.650001525878906,16.350000381469727,37.95000076293945
3.36,105.07672119140625,-27.427974700927734,-12.986149787902832,-3.7304747104644775,103.12097930908203,-220.8973846435547,-18.75,15.750000953674316,40.35000228881836
3.38,105.11502838134766,-46.658203125,-12.449849128723145,-17.32006072998047,93.2618637084961,-157.87901306152344,-16.650001525878906,15.90000057220459,40.20000076293945
3.383,103.92750549316406,-59.452816009521484,-14.824896812438965,-37.57120895385742,39.83613967895508,-58.355281829833984,-13.050000190734863,16.200000762939453,39.60000228881836
3.39,103.54443359375,-50.335697174072266,-21.222204208374023,-26.912710189819336,24.64777946472168,-19.85145378112793,-13.050000190734863,16.200000762939453,39.60000228881836
3.4,102.47183227539062,-39.99274444580078,-22.562957763671875,27.578866958618164,-9.059723854064941,66.08269500732422,-13.200000762939453,16.350000381469727,42.0
3.41,98.87095642089844,-28.960264205932617,-17.851167678833008,71.14547729492188,-40.635528564453125,120.84072875976562,-11.40000057220459,15.15000057220459,41.70000076293945
3.42,94.23577880859375,-30.109479904174805,-12.181697845458984,88.06584930419922,-43.43338394165039,175.33230590820312,-11.550000190734863,16.200000762939453,41.85000228881836
3.439,90.51998138427734,-37.88584899902344,-6.129156112670898,84.73506927490234,-57.422664642333984,211.0382843017578,-11.550000190734863,15.450000762939453,41.55000305175781
3.443,89.63890838623047,-35.47249221801758,2.183511972427368,97.5252685546875,-45.69831466674805,262.06585693359375,-11.550000190734863,15.450000762939453,41.55000305175781
3.45,90.8264389038086,-16.012420654296875,52.787357330322266,57.422664642333984,-46.231239318847656,252.4731903076172,-12.90000057220459,14.40000057220459,40.95000076293945
3.46,130.6276397705078,4.750096321105957,133.88375854492188,-210.63858032226562,-217.1669158935547,208.64012145996094,-11.700000762939453,15.600000381469727,42.45000076293945
3.47,242.4847412109375,67.11426544189453,-33.82528305053711,23.04900360107422,-117.11026000976562,391.5666198730469,-12.0,14.550000190734863,42.30000305175781
3.48,118.36933135986328,41.065345764160156,-76.92091369628906,107.91730499267578,-10.258805274963379,406.8882141113281,-13.800000190734863,12.750000953674316,40.05000305175781
3.499,51.63814163208008,1.5322890281677246,19.421764373779297,82.86982727050781,-51.82695007324219,403.9571228027344,-13.800000190734863,12.750000953674316,40.05000305175781
3.504,46.926353454589844,-29.305028915405273,23.9420166015625,-43.43338394165039,-43.96630859375,312.56048583984375,-17.25,9.600000381469727,40.35000228881836
3.51,38.99675750732422,-26.355371475219727,19.843143463134766,-69.94640350341797,-44.09954071044922,261.13323974609375,-16.950000762939453,10.5,41.25
3.52,43.44039535522461,-6.435614109039307,34.66804122924805,-20.117916107177734,-44.76569747924805,236.21897888183594,-17.55000114440918,9.15000057220459,40.35000228881836
3.53,58.18867874145508,-3.7158010005950928,38.46045684814453,116.44409942626953,-50.76110076904297,263.66461181640625,-17.400001525878906,7.050000190734863,42.0
3.54,77.1507568359375,-37.46446990966797,35.5874137878418,194.51760864257812,-57.422664642333984,243.81317138671875,-18.0,8.850000381469727,41.55000305175781
3.559,87.60862731933594,-60.1806526184082,42.29117965698242,153.882080078125,-75.40888214111328,194.38436889648438,-18.0,8.850000381469727,41.55000305175781
3.563,79.90887451171875,-39.68628692626953,31.143775939941406,72.47779083251953,-76.60796356201172,182.2603302001953,-19.950000762939453,6.300000190734863,42.45000076293945
3.57,74.85232543945312,-28.807035446166992,1.1492167711257935,27.445634841918945,-54.091880798339844,167.87135314941406,-20.25,8.40000057220459,39.30000305175781
3.58,81.74761962890625,-23.558944702148438,-11.338939666748047,-13.722817420959473,-44.63246536254883,168.27105712890625,-21.150001525878906,7.800000190734863,40.95000076293945
3.59,83.01176452636719,-10.687716484069824,-12.334927558898926,-28.911178588867188,-24.64777946472168,182.7932586669922,-19.5,8.850000381469727,40.35000228881836
3.6,77.8019790649414,-4.903325080871582,-9.155426979064941,-17.852985382080078,-12.124042510986328,172.6676788330078,-19.5,8.850000381469727,40.35000228881836
3.619,73.77971649169922,0.9959878921508789,-0.4596867263317108,-8.926492691040039,0.0,159.61102294921875,-20.25,5.700000286102295,40.35000228881836
3.622,72.24742889404297,1.8770540952682495,18.464082717895508,0.39969372749328613,-7.460949420928955,137.76109313964844,-21.900001525878906,5.850000381469727,39.900001525878906
3.63,76.30799865722656,-11.990161895751953,14.863204002380371,1.8652373552322388,-2.398162364959717,128.7013702392578,-20.400001525878906,5.550000190734863,39.900001525878906
3.64,76.46122741699219,-13.330915451049805,14.97812557220459,8.39356803894043,-12.656967163085938,135.4961700439453,-21.150001525878906,4.050000190734863,40.650001525878906
3.65,73.93294525146484,-16.089035034179688,20.187908172607422,13.189892768859863,-24.781009674072266,113.51301574707031,-21.150001525878906,4.050000190734863,40.650001525878906
3.66,71.97927856445312,-11.72201156616211,23.75048065185547,20.517610549926758,-12.790199279785156,89.13169860839844,-20.25,4.200000286102295,39.60000228881836
3.68,72.55388641357422,-6.665457725524902,10.41956615447998,31.709033966064453,-19.85145378112793,97.92495727539062,-22.5,3.450000047683716,40.80000305175781
3.684,75.77169799804688,-12.48815631866455,13.79060173034668,26.246553421020508,-5.062787055969238,78.87289428710938,-22.950000762939453,3.1500000953674316,41.25
3.69,75.42693328857422,-11.185709953308105,7.240066051483154,32.5084228515625,-2.531393527984619,89.5313949584961,-22.950000762939453,3.1500000953674316,41.25
3.7,73.81802368164062,-11.875240325927734,18.34916114807129,33.30780792236328,-6.794793128967285,92.59571075439453,-22.950000762939453,3.1500000953674316,41.25
3.71,74.77571105957031,-11.185709953308105,13.445837020874023,31.975496292114258,3.0643184185028076,83.93567657470703,-22.05000114440918,3.0,41.10000228881836
3.72,76.30799865722656,-12.564770698547363,9.385271072387695,48.362937927246094,-1.1990811824798584,87.53292083740234,-21.30000114440918,3.750000238418579,40.80000305175781
3.739,74.89063262939453,-18.4257755279541,13.407529830932617,38.50382614135742,5.329249382019043,71.54517364501953,-22.80000114440918,4.200000286102295,41.55000305175781
3.743,75.81000518798828,-19.038692474365234,13.254301071166992,32.24195861816406,3.197549819946289,74.20980072021484,-22.80000114440918,4.200000286102295,39.60000228881836
3.75,76.5761489868164,-15.399505615234375,8.236053466796875,25.7136287689209,0.2664624750614166,75.5421142578125,-22.80000114440918,4.200000286102295,39.60000228881836
3.76,77.8019790649414,-17.50640296936035,11.262324333190918,24.914241790771484,-0.1332312375307083,71.54517364501953,-22.80000114440918,4.200000286102295,39.60000228881836
3.77,79.33426666259766,-19.728221893310547,7.891288757324219,-7.860642910003662,8.260336875915527,57.289432525634766,-24.30000114440918,3.0,40.05000305175781
3.78,77.34229278564453,-17.161638259887695,15.054739952087402,-1.9984685182571411,-2.398162364959717,62.085758209228516,-24.150001525878906,3.1500000953674316,40.650001525878906
3.799,77.91690063476562,-11.91354751586914,13.713987350463867,2.131699800491333,2.398162364959717,58.754974365234375,-21.900001525878906,2.4000000953674316,40.20000076293945
3.804,76.26969146728516,-11.60708999633789,17.851167678833008,5.8621745109558105,6.661561965942383,54.4915771484375,-24.150001525878906,2.4000000953674316,40.95000076293945
3.81,77.1890640258789,-11.41555404663086,16.778566360473633,6.9280242919921875,0.7993874549865723,63.151607513427734,-24.150001525878906,2.4000000953674316,40.95000076293945
3.82,76.38461303710938,-10.84094524383545,17.697938919067383,5.329249382019043,-0.2664624750614166,58.222049713134766,-22.650001525878906,3.1500000953674316,40.650001525878906
3.83,76.15476989746094,-13.062764167785645,13.905523300170898,6.261868000030518,-1.0658499002456665,67.94792938232422,-22.5,2.25,40.05000305175781
3.84,75.9632339477539,-18.847156524658203,16.778566360473633,-3.86370587348938,1.7320060729980469,62.21898651123047,-23.25,2.25,40.80000305175781
3.859,76.46122741699219,-16.70195198059082,15.514427185058594,-11.457886695861816,9.592649459838867,56.49004364013672,-22.650001525878906,2.1000001430511475,40.20000076293945
3.862,76.34630584716797,-16.433799743652344,14.135366439819336,-14.92189884185791,5.062787055969238,64.61714935302734,-24.0,1.5,39.0
3.87,78.18505096435547,-18.502389907836914,16.203956604003906,-26.64624786376953,7.327718257904053,57.822357177734375,-24.0,1.5,39.0
3.88,78.64473724365234,-20.30282974243164,14.135366439819336,-42.90045928955078,18.652372360229492,90.19754791259766,-22.80000114440918,1.5,40.650001525878906
3.89,77.41890716552734,-18.04270362854004,14.67166805267334,-43.56661605834961,10.125574111938477,63.81776428222656,-22.5,0.75,40.35000228881836
3.9,76.65276336669922,-11.568782806396484,15.016432762145996,-46.231239318847656,15.321592330932617,72.74425506591797,-22.5,0.75,40.35000228881836
3.919,78.10843658447266,-11.568782806396484,15.782577514648438,-42.101070404052734,6.9280242919921875,101.38896942138672,-22.650001525878906,-0.45000001788139343,41.25
3.923,77.30398559570312,-14.709975242614746,14.288596153259277,-44.23276901245117,12.923430442810059,102.8545150756836,-22.950000762939453,-0.45000001788139343,39.900001525878906
3.93,76.5761489868164,-15.24627685546875,15.24627685546875,-55.29096221923828,10.791729927062988,106.4517593383789,-24.0,0.0,40.35000228881836
3.94,76.88260650634766,-18.732234954833984,15.820884704589844,-93.52832794189453,10.92496109008789,114.17916870117188,-23.55000114440918,0.0,41.10000228881836
3.95,78.22335815429688,-17.50640296936035,25.70414924621582,-91.52986145019531,-8.127105712890625,132.16539001464844,-23.55000114440918,0.0,41.10000228881836
3.96,76.19307708740234,-1.9919757843017578,30.645782470703125,-60.88667678833008,-8.526799201965332,144.55589294433594,-24.30000114440918,-2.700000047683716,40.80000305175781
3.979,72.63050079345703,0.689530074596405,23.405715942382812,-33.17457962036133,-15.854516983032227,161.2097930908203,-22.950000762939453,-2.1000001430511475,41.25
3.982,78.83627319335938,-28.692113876342773,18.4257755279541,-54.091880798339844,-27.71209716796875,157.21286010742188,-23.55000114440918,-3.0,42.30000305175781
3.99,81.441162109375,-32.484527587890625,17.1999454498291,-71.67840576171875,-32.77488327026367,165.2067413330078,-24.30000114440918,-4.200000286102295,41.55000305175781
4.0,80.29194641113281,-32.484527587890625,16.1656494140625,-107.78407287597656,-24.11485481262207,144.68911743164062,-23.700000762939453,-4.800000190734863,40.20000076293945
4.01,81.74761962890625,-29.573179244995117,19.536685943603516,-109.38284301757812,-30.643184661865234,156.41346740722656,-23.700000762939453,-4.800000190734863,40.20000076293945
4.02,82.32222747802734,-21.720197677612305,18.847156524658203,-88.46553802490234,-41.434913635253906,158.27871704101562,-24.900001525878906,-7.050000190734863,40.95000076293945
4.039,87.3404769897461,-21.911733627319336,14.97812557220459,-87.9326171875,-57.822357177734375,178.6630859375,-24.30000114440918,-7.200000286102295,42.60000228881836
4.042,91.32443237304688,-29.84132957458496,9.576807022094727,-100.58958435058594,-50.89433288574219,166.00611877441406,-24.30000114440918,-7.200000286102295,42.60000228881836
4.05,90.40505981445312,-29.22841453552246,11.492168426513672,-109.24961853027344,-60.62021255493164,181.06124877929688,-25.200000762939453,-7.050000190734863,40.95000076293945
4.06,93.3547134399414,-24.9763126373291,14.135366439819336,-104.7197494506836,-77.00765228271484,187.85604858398438,-25.200000762939453,-7.050000190734863,40.95000076293945
4.07,95.84468078613281,-17.00840950012207,20.264522552490234,-89.7978515625,-90.4640121459961,194.2511444091797,-24.750001907348633,-10.350000381469727,41.10000228881836
4.08,96.3809814453125,-15.054739952087402,21.56696891784668,-85.53445434570312,-88.865234375,202.11178588867188,-26.250001907348633,-10.800000190734863,41.10000228881836
4.1,97.18543243408203,-22.256498336791992,17.73624610900879,-88.99846649169922,-103.7871322631836,204.90963745117188,-25.650001525878906,-12.90000057220459,39.45000076293945
4.104,99.17741394042969,-36.69832229614258,15.24627685546875,-133.49769592285156,-99.3905029296875,213.4364471435547,-25.650001525878906,-12.90000057220459,39.45000076293945
4.11,101.1310806274414,-33.672054290771484,15.093047142028809,-147.75344848632812,-98.99080657958984,220.76416015625,-25.650001525878906,-12.90000057220459,39.45000076293945
4.12,100.93954467773438,-30.530860900878906,14.97812557220459,-153.882080078125,-106.71822357177734,222.62939453125,-27.000001907348633,-15.000000953674316,39.0
4.13,102.9698257446289,-20.570980072021484,12.7946138381958,-136.56201171875,-115.91117858886719,239.016845703125,-25.80000114440918,-16.950000762939453,38.55000305175781
4.14,101.51415252685547,-17.659631729125977,9.998186111450195,-132.29861450195312,-125.23736572265625,242.34762573242188,-26.400001525878906,-17.100000381469727,37.95000076293945
4.156,104.57872772216797,-22.103269577026367,9.691728591918945,-134.29708862304688,-148.95252990722656,252.4731903076172,-25.80000114440918,-19.650001525878906,39.30000305175781
4.16,117.14350128173828,-14.403517723083496,12.258312225341797,-146.42112731933594,-131.36599731445312,245.14547729492188,-25.80000114440918,-19.650001525878906,39.30000305175781
4.17,117.33503723144531,-11.224017143249512,11.1474027633667,-167.6049041748047,-129.90045166015625,250.34149169921875,-25.650001525878906,-21.75,36.900001525878906
4.18,112.5849380493164,-13.254301071166992,11.645397186279297,-220.49769592285156,-124.03828430175781,254.33843994140625,-25.80000114440918,-22.80000114440918,38.25
4.19,114.34707641601562,-12.066776275634766,12.48815631866455,-274.9892883300781,-119.5084228515625,260.7335205078125,-27.150001525878906,-25.650001525878906,36.150001525878906
4.209,120.47622680664062,5.477933406829834,12.717999458312988,-301.23583984375,-122.83920288085938,246.477783203125,-26.55000114440918,-25.500001907348633,35.55000305175781
4.213,117.48826599121094,32.21637725830078,11.836933135986328,-306.4318542480469,-129.90045166015625,288.1791687011719,-26.55000114440918,-25.500001907348633,35.55000305175781
4.22,116.6072006225586,40.7205810546875,5.937620162963867,-312.6937255859375,-121.64012145996094,282.983154296875,-26.55000114440918,-25.500001907348633,35.55000305175781
4.23,118.59917449951172,46.313438415527344,7.7763671875,-248.7427215576172,-124.8376693725586,305.2327575683594,-27.750001907348633,-30.900001525878906,33.45000076293945
4.24,115.26644897460938,33.863590240478516,-9.998186111450195,-106.31852722167969,-127.23583221435547,340.006103515625,-25.80000114440918,-33.900001525878906,33.75
4.25,109.5203628540039,2.8347349166870117,-5.822698593139648,-0.1332312375307083,-141.75804138183594,363.4548034667969,-25.650001525878906,-34.20000076293945,31.80000114440918
4.26,120.82099151611328,-9.078812599182129,4.788403511047363,67.814697265625,-134.16384887695312,335.47625732421875,-25.500001907348633,-35.85000228881836,31.200000762939453
4.273,117.56488037109375,-10.074800491333008,21.030668258666992,149.88514709472656,-119.5084228515625,294.57427978515625,-25.500001907348633,-35.85000228881836,31.200000762939453
4.28,91.59258270263672,-4.022258758544922,41.065345764160156,230.4900360107422,-121.24042510986328,297.10565185546875,-24.750001907348633,-39.75,29.400001525878906
4.29,78.45320129394531,-0.3064578175544739,48.61186981201172,281.2511291503906,-85.13475799560547,297.10565185546875,-22.950000762939453,-39.60000228881836,29.850000381469727
4.3,52.67243576049805,-11.836933135986328,41.60165023803711,264.59722900390625,-67.68146514892578,307.4977111816406,-24.750001907348633,-42.150001525878906,31.200000762939453
4.31,38.537071228027344,-63.589996337890625,50.029239654541016,171.06890869140625,-48.8958625793457,201.31239318847656,-22.650001525878906,-42.30000305175781,31.05000114440918
4.329,40.22258758544922,-90.67321014404297,39.91613006591797,39.16998291015625,-28.911178588867188,83.13629150390625,-22.650001525878906,-42.30000305175781,31.05000114440918
4.333,59.452816009521484,-43.24885940551758,36.16202163696289,-53.026031494140625,-27.31240463256836,-21.84992218017578,-20.55000114440918,-43.650001525878906,30.900001525878906
4.34,56.80961608886719,13.79060173034668,18.693927764892578,-42.36753463745117,-16.25421142578125,-68.21439361572266,-21.900001525878906,-43.5,33.60000228881836
4.35,45.50898742675781,31.182083129882812,16.740259170532227,6.5283308029174805,-1.8652373552322388,-99.12403869628906,-21.450000762939453,-43.5,31.05000114440918
4.36,38.15399932861328,36.2003288269043,12.7946138381958,88.99846649169922,7.9938740730285645,-131.63246154785156,-21.450000762939453,-42.60000228881836,30.30000114440918
4.37,33.17405700683594,24.861391067504883,5.5545477867126465,147.4869842529297,26.912710189819336,-175.33230590820312,-21.450000762939453,-42.60000228881836,30.30000114440918
4.38,29.573179244995117,4.175487995147705,5.477933406829834,168.9372100830078,40.102603912353516,-237.6845245361328,-22.80000114440918,-46.35000228881836,31.500001907348633
4.394,27.236438751220703,-14.173673629760742,11.60708999633789,140.82542419433594,56.889739990234375,-356.26031494140625,-24.0,-43.95000076293945,32.25
4.4,24.44001007080078,-16.242263793945312,13.407529830932617,132.0321502685547,55.15773391723633,-334.6768798828125,-23.700000762939453,-44.25,33.30000305175781
4.41,24.325088500976562,-10.611102104187012,11.224017143249512,129.90045166015625,70.47932434082031,-406.6217346191406,-24.750001907348633,-42.45000076293945,32.25
4.42,25.70414924621582,-6.244078159332275,13.139378547668457,138.42726135253906,81.8039779663086,-439.1301574707031,-24.750001907348633,-42.45000076293945,32.25
4.43,31.182083129882812,-11.760318756103516,17.1999454498291,134.16384887695312,92.72894287109375,-485.8943176269531,-26.400001525878906,-41.55000305175781,33.60000228881836
4.449,37.387855529785156,-24.823083877563477,21.14558982849121,111.64777374267578,105.11944580078125,-508.9433288574219,-27.900001525878906,-40.650001525878906,34.650001525878906
4.453,43.09563064575195,-36.16202163696289,23.75048065185547,65.41653442382812,118.70903015136719,-552.376708984375,-29.250001907348633,-36.30000305175781,35.25
4.46,48.152183532714844,-37.043087005615234,22.792800903320312,46.09800720214844,125.7702865600586,-581.6875610351562,-30.450000762939453,-36.45000076293945,36.900001525878906
4.47,52.02121353149414,-34.74465560913086,19.536685943603516,27.578866958618164,128.96783447265625,-601.006103515625,-30.30000114440918,-33.60000228881836,34.95000076293945
4.48,60.678646087646484,-30.91393280029297,15.169661521911621,36.10566711425781,138.2940216064453,-600.6064453125,-30.30000114440918,-33.60000228881836,34.95000076293945
4.49,68.56993865966797,-32.52283477783203,12.29662036895752,29.577335357666016,150.41806030273438,-608.6002807617188,-33.150001525878906,-31.05000114440918,38.400001525878906
4.509,78.79796600341797,-37.57939147949219,10.036493301391602,12.390504837036133,156.81317138671875,-627.9188232421875,-34.80000305175781,-27.450000762939453,38.55000305175781
4.513,84.81220245361328,-42.82748031616211,6.703764915466309,-2.9310872554779053,156.14700317382812,-623.2557373046875,-34.20000076293945,-22.200000762939453,40.20000076293945
4.52,90.13690185546875,-42.21456527709961,5.2480902671813965,-4.796324729919434,151.75038146972656,-623.7886352539062,-34.20000076293945,-22.200000762939453,40.20000076293945
4.53,91.93734741210938,-39.37982940673828,2.1068975925445557,-8.660030364990234,154.9479217529297,-622.7227783203125,-34.20000076293945,-22.200000762939453,40.20000076293945
4.54,96.3809814453125,-32.75267791748047,2.75812029838562,13.056661605834961,165.87289428710938,-615.5283203125,-34.5,-15.000000953674316,42.60000228881836
4.55,99.06249237060547,-28.117504119873047,1.6855180263519287,41.434913635253906,150.2848358154297,-600.2067260742188,-33.900001525878906,-14.40000057220459,41.25
4.569,102.8932113647461,-27.619510650634766,2.298433542251587,58.754974365234375,161.6094970703125,-601.1393432617188,-33.150001525878906,-10.950000762939453,42.0
4.573,105.91948699951172,-30.722396850585938,3.485957622528076,65.016845703125,170.13629150390625,-605.0030517578125,-32.55000305175781,-6.900000095367432,41.55000305175781
4.58,106.95378112792969,-34.66804122924805,4.558559894561768,56.49004364013672,167.0719757080078,-600.073486328125,-32.55000305175781,-6.900000095367432,41.55000305175781
4.59,107.18362426757812,-34.476505279541016,4.175487995147705,55.95711898803711,161.34303283691406,-599.0076293945312,-28.500001907348633,-1.8000000715255737,43.650001525878906
4.6,109.75020599365234,-32.9442138671875,2.75812029838562,39.569679260253906,163.6079559326172,-607.2680053710938,-25.500001907348633,-0.30000001192092896,43.35000228881836
4.61,111.58895111083984,-34.284969329833984,0.1149216815829277,23.581928253173828,168.80397033691406,-597.6753540039062,-23.700000762939453,1.350000023841858,42.45000076293945
4.629,112.81478118896484,-39.68628692626953,-0.8427590131759644,10.125574111938477,158.4119415283203,-581.6875610351562,-22.5,2.25,45.150001525878906
4.633,118.13948822021484,-44.819454193115234,1.4173674583435059,-45.831546783447266,153.21592712402344,-571.4287719726562,-16.950000762939453,5.850000381469727,44.25
4.64,124.421875,-46.27513122558594,1.5322890281677246,-84.06890869140625,154.14854431152344,-561.9693603515625,-16.950000762939453,5.850000381469727,44.25
4.65,124.00049591064453,-44.74283981323242,-1.723825216293335,-111.91423797607422,151.084228515625,-533.0581665039062,-15.750000953674316,5.700000286102295,45.60000228881836
4.66,121.5871353149414,-45.08760452270508,-6.627150535583496,-117.50994873046875,146.1546630859375,-472.8376770019531,-13.65000057220459,6.750000476837158,45.30000305175781
4.67,119.32701110839844,-53.59181213378906,-8.197746276855469,-116.17764282226562,145.75497436523438,-387.4364318847656,-12.0,6.900000095367432,45.900001525878906
4.69,117.56488037109375,-66.34811401367188,-11.91354751586914,-102.98774719238281,109.24961853027344,-291.7763977050781,-12.0,6.900000095367432,45.900001525878906
4.694,117.79472351074219,-76.07815551757812,-20.494365692138672,-89.93108367919922,66.34915924072266,-151.6171417236328,-6.900000095367432,5.850000381469727,45.30000305175781
4.7,111.47402954101562,-69.18285369873047,-29.03687858581543,-52.093414306640625,31.842266082763672,-68.88054656982422,-6.900000095367432,5.850000381469727,45.30000305175781
4.71,109.21390533447266,-62.09601593017578,-30.37763023376465,10.392036437988281,-6.794793128967285,35.439510345458984,-7.800000190734863,5.400000095367432,43.650001525878906
4.72,107.0687026977539,-56.541465759277344,-29.266721725463867,64.88361358642578,-42.36753463745117,137.22817993164062,-7.800000190734863,4.200000286102295,46.35000228881836
4.73,102.3569107055664,-56.96284866333008,-23.21417999267578,98.32465362548828,-68.4808578491211,221.16384887695312,-7.800000190734863,4.200000286102295,46.35000228881836
4.75,98.21973419189453,-58.80159378051758,-15.131354331970215,95.26033782958984,-78.73966217041016,264.9969177246094,-7.800000190734863,4.200000286102295,46.35000228881836
4.753,99.63710021972656,-48.956634521484375,-7.1251444816589355,103.7871322631836,-88.99846649169922,310.69525146484375,-8.25,3.750000238418579,42.60000228881836
4.76,98.71772766113281,-23.9420166015625,5.861005783081055,133.36447143554688,-73.54364013671875,339.7396545410156,-8.40000057220459,3.1500000953674316,45.0
4.77,84.04605865478516,-14.595053672790527,36.2003288269043,105.65237426757812,-30.110260009765625,304.3001403808594,-11.25,3.450000047683716,43.650001525878906
4.78,101.43753814697266,14.058752059936523,157.0979461669922,-226.7595672607422,-181.19448852539062,205.97549438476562,-11.25,3.450000047683716,43.650001525878906
4.79,212.68173217773438,87.68524169921875,11.224017143249512,-51.29402542114258,-151.48391723632812,406.2220458984375,-10.800000190734863,3.0,44.10000228881836
4.81,134.15191650390625,45.279144287109375,-104.84687805175781,82.33690643310547,-28.111791610717773,427.13934326171875,-11.700000762939453,0.45000001788139343,43.20000076293945
4.813,59.37620162963867,0.5363011956214905,-28.92195701599121,120.4410400390625,-37.304744720458984,372.64776611328125,-14.550000190734863,0.0,43.35000228881836
4.82,35.16603469848633,-28.653806686401367,25.89568519592285,89.26493072509766,-47.56355285644531,330.54669189453125,-14.700000762939453,0.15000000596046448,42.45000076293945
4.83,30.415939331054688,-39.26490783691406,32.331298828125,83.5359878540039,-55.55742645263672,280.7182312011719,-14.700000762939453,0.15000000596046448,42.45000076293945
4.84,41.5250358581543,-34.05512619018555,36.8515510559082,122.70597076416016,-43.69984436035156,263.5314025878906,-14.550000190734863,-1.5,43.35000228881836
4.85,65.73519897460938,-40.41412353515625,47.002967834472656,155.6140899658203,-47.0306282043457,259.00152587890625,-15.750000953674316,-0.75,41.55000305175781
4.869,98.87095642089844,-57.03946304321289,48.11387634277344,122.57273864746094,-72.74425506591797,220.49769592285156,-16.650001525878906,-1.6500000953674316,40.95000076293945
4.873,96.9555892944336,-48.57356262207031,22.333112716674805,80.47166442871094,-58.355281829833984,211.5712127685547,-17.700000762939453,-1.350000023841858,41.25
4.88,70.29376220703125,-26.240449905395508,9.998186111450195,59.4211311340332,-57.15620040893555,201.71209716796875,-17.700000762939453,-1.350000023841858,41.25
4.89,77.26567840576172,-24.05693817138672,6.473921298980713,27.578866958618164,-55.55742645263672,184.1255645751953,-17.55000114440918,-2.25,40.35000228881836
4.9,81.90084838867188,-18.34916114807129,-3.907337188720703,15.188361167907715,-45.298622131347656,183.7258758544922,-17.700000762939453,-1.6500000953674316,42.0
4.91,81.24962615966797,-19.268535614013672,-4.788403511047363,-11.191424369812012,-21.716691970825195,174.79937744140625,-18.450000762939453,-1.6500000953674316,39.45000076293945
4.93,78.56812286376953,-15.974113464355469,-12.373234748840332,-38.90352249145508,-5.462480545043945,161.7427215576172,-17.400001525878906,-3.6000001430511475,41.70000076293945
4.933,71.48128509521484,-13.943830490112305,1.3024457693099976,-65.949462890625,-1.9984685182571411,138.02755737304688,-17.400001525878906,-3.6000001430511475,41.70000076293945
4.94,73.28172302246094,-19.460071563720703,2.6431987285614014,-51.4272575378418,-5.8621745109558105,135.4961700439453,-17.400001525878906,-3.6000001430511475,41.70000076293945
4.95,76.88260650634766,-15.629348754882812,5.784391403198242,-38.50382614135742,4.663093090057373,124.70443725585938,-17.55000114440918,-5.400000095367432,40.35000228881836
4.96,75.84831237792969,0.1149216815829277,15.552734375,-0.2664624750614166,-4.263399600982666,119.90811157226562,-18.450000762939453,-4.800000190734863,40.20000076293945
4.97,80.33025360107422,9.653421401977539,18.464082717895508,57.955589294433594,-16.78713607788086,131.89892578125,-18.450000762939453,-5.100000381469727,39.45000076293945
4.989,76.26969146728516,-3.485957622528076,24.286781311035156,80.73812866210938,-17.986217498779297,121.10719299316406,-18.900001525878906,-4.800000190734863,40.20000076293945
4.993,78.68304443359375,-22.17988395690918,24.36339569091797,52.3598747253418,-20.650842666625977,104.5865249633789,-18.900001525878906,-4.800000190734863,40.20000076293945
5.0,79.10442352294922,-18.34916114807129,12.258312225341797,53.558956146240234,-9.859111785888672,95.39356231689453,-19.5,-5.700000286102295,38.55000305175781
5.01,77.8019790649414,-17.697938919067383,13.943830490112305,73.0107192993164,-3.7304747104644775,109.24961853027344,-19.950000762939453,-5.100000381469727,38.70000076293945
5.02,79.79395294189453,-16.931795120239258,11.03248119354248,69.67993927001953,-0.2664624750614166,88.59877014160156,-19.80000114440918,-5.400000095367432,38.55000305175781
5.03,74.92893981933594,-20.685903549194336,14.595053672790527,59.82082748413086,3.0643184185028076,81.8039779663086,-20.25,-6.150000095367432,39.30000305175781
5.049,76.76768493652344,-35.43418502807617,11.492168426513672,18.119447708129883,-9.992342948913574,73.9433364868164,-20.25,-6.150000095367432,39.30000305175781
5.053,80.7899398803711,-32.21637725830078,-1.9919757843017578,4.263399600982666,-1.7320060729980469,69.4134750366211,-20.700000762939453,-6.750000476837158,39.45000076293945
5.06,80.67501831054688,-21.835119247436523,8.619126319885254,-7.194486618041992,5.062787055969238,43.03369140625,-20.25,-6.450000286102295,39.0
5.07,77.1507568359375,-9.385271072387695,-0.3447650372982025,11.058192253112793,1.0658499002456665,62.485450744628906,-20.25,-6.900000095367432,38.25
5.08,80.71332550048828,-15.782577514648438,22.141576766967773,7.194486618041992,22.249616622924805,54.89126968383789,-19.950000762939453,-6.750000476837158,40.20000076293945
5.09,74.20109558105469,-19.843143463134766,18.157625198364258,-6.261868000030518,11.457886695861816,52.3598747253418,-19.950000762939453,-6.750000476837158,40.20000076293945
5.109,77.64875030517578,-21.98834800720215,6.129156112670898,-27.445634841918945,14.522205352783203,49.96171569824219,-20.25,-5.400000095367432,39.60000228881836
5.112,77.57213592529297,-23.3291015625,18.23423957824707,-33.97396469116211,14.92189884185791,46.09800720214844,-20.25,-6.450000286102295,40.35000228881836
5.12,77.1124496459961,-6.933608055114746,11.530475616455078,-23.581928253173828,10.125574111938477,55.02450180053711,-19.650001525878906,-6.750000476837158,41.25
5.13,78.989501953125,-11.377246856689453,16.242263793945312,-30.90964698791504,26.513015747070312,51.027565002441406,-19.5,-6.900000095367432,41.10000228881836
5.14,77.91690063476562,-12.7946138381958,14.173673629760742,-19.185298919677734,16.520673751831055,48.8958625793457,-19.5,-6.900000095367432,41.10000228881836
5.15,77.87859344482422,-15.284584045410156,13.560758590698242,-19.45176124572754,19.052066802978516,49.82848358154297,-19.80000114440918,-8.100000381469727,40.80000305175781
5.17,75.38862609863281,-16.395492553710938,16.1656494140625,-36.5053596496582,29.977027893066406,59.82082748413086,-18.75,-8.100000381469727,39.60000228881836
5.173,71.02159881591797,-23.9420166015625,14.633360862731934,-52.226646423339844,33.70750427246094,56.09035110473633,-19.200000762939453,-7.800000190734863,39.900001525878906
5.18,76.11646270751953,-21.490354537963867,15.782577514648438,-61.28636932373047,35.306278228759766,51.29402542114258,-18.30000114440918,-6.450000286102295,41.10000228881836
5.19,78.989501953125,-19.68991470336914,15.399505615234375,-74.47626495361328,29.31087303161621,62.35221862792969,-19.80000114440918,-9.15000057220459,41.55000305175781
5.2,77.41890716552734,-17.161638259887695,17.238252639770508,-72.21133422851562,21.716691970825195,52.3598747253418,-19.80000114440918,-9.15000057220459,41.55000305175781
5.21,75.81000518798828,-12.373234748840332,21.45204734802246,-69.67993927001953,18.91883659362793,76.07503509521484,-19.5,-10.350000381469727,41.10000228881836
5.229,74.08617401123047,-4.137180328369141,21.413740158081055,-56.09035110473633,12.656967163085938,84.20214080810547,-18.0,-10.050000190734863,40.05000305175781
5.232,74.35432434082031,-7.010222434997559,22.754493713378906,-46.764163970947266,12.390504837036133,93.52832794189453,-20.25,-10.350000381469727,41.10000228881836
5.24,75.9249267578125,-20.494365692138672,22.677879333496094,-58.754974365234375,10.791729927062988,95.39356231689453,-19.5,-10.350000381469727,40.35000228881836
5.25,75.8866195678711,-24.018630981445312,21.183897018432617,-83.26952362060547,-0.5329249501228333,107.78407287597656,-19.5,-10.350000381469727,40.35000228881836
5.26,77.49552154541016,-21.643583297729492,20.379444122314453,-98.32465362548828,0.7993874549865723,117.37671661376953,-18.0,-12.300000190734863,41.55000305175781
5.27,79.87056732177734,-13.752294540405273,21.222204208374023,-97.92495727539062,-7.594180583953857,123.2388916015625,-18.30000114440918,-12.750000953674316,40.80000305175781
5.291,80.90486145019531,-2.6815059185028076,19.38345718383789,-67.14854431152344,-18.91883659362793,147.22052001953125,-19.5,-11.550000190734863,40.05000305175781
5.295,81.36454772949219,-4.8267107009887695,13.369222640991211,-46.364471435546875,-22.249616622924805,156.94639587402344,-19.05000114440918,-13.050000190734863,40.80000305175781
5.3,84.46743774414062,-23.482330322265625,9.002198219299316,-48.22970962524414,-34.10719680786133,171.7350616455078,-19.05000114440918,-13.050000190734863,40.80000305175781
5.31,86.45941162109375,-27.696125030517578,4.903325080871582,-72.47779083251953,-37.70444107055664,169.4701385498047,-21.0,-14.550000190734863,39.30000305175781
5.32,85.27188873291016,-24.13355255126953,10.074800491333008,-72.61102294921875,-49.82848358154297,177.46400451660156,-19.80000114440918,-16.200000762939453,40.35000228881836
5.33,82.85853576660156,-15.705963134765625,15.284584045410156,-43.03369140625,-61.01990509033203,186.65696716308594,-19.950000762939453,-16.350000381469727,39.900001525878906
5.349,84.65897369384766,-12.334927558898926,14.556746482849121,-25.04747200012207,-63.418067932128906,190.5206756591797,-20.25,-15.000000953674316,40.35000228881836
5.352,88.06831359863281,-26.240449905395508,12.717999458312988,-44.09954071044922,-72.61102294921875,191.32005310058594,-20.25,-15.000000953674316,40.35000228881836
5.36,88.98768615722656,-38.38384246826172,14.173673629760742,-62.485450744628906,-83.26952362060547,194.91729736328125,-21.30000114440918,-18.150001525878906,39.30000305175781
5.37,93.62286376953125,-36.2386360168457,15.169661521911621,-95.26033782958984,-80.33843994140625,194.91729736328125,-21.150001525878906,-17.850000381469727,39.900001525878906
5.38,97.98988342285156,-27.58120346069336,20.11129379272461,-94.86064147949219,-88.33231353759766,207.4410400390625,-21.150001525878906,-19.05000114440918,39.150001525878906
5.39,98.33465576171875,-21.87342643737793,20.915746688842773,-94.0612564086914,-101.38896942138672,217.03369140625,-21.450000762939453,-17.55000114440918,38.400001525878906
5.409,98.83264923095703,-24.823083877563477,18.272546768188477,-101.52220153808594,-99.12403869628906,225.16079711914062,-21.450000762939453,-17.55000114440918,38.400001525878906
5.413,101.1310806274414,-33.863590240478516,7.086836814880371,-131.36599731445312,-94.0612564086914,227.1592559814453,-22.05000114440918,-20.850000381469727,36.0
5.42,98.75603485107422,-34.51481246948242,14.901511192321777,-142.4241943359375,-109.51607513427734,228.4915771484375,-22.05000114440918,-20.850000381469727,36.0
5.43,100.09678649902344,-29.075185775756836,11.492168426513672,-158.67840576171875,-110.71515655517578,230.75650024414062,-22.200000762939453,-22.200000762939453,36.900001525878906
5.44,102.70167541503906,-24.746469497680664,10.189722061157227,-158.81163024902344,-110.98162078857422,238.084228515625,-21.0,-22.350000381469727,35.55000305175781
5.45,104.31057739257812,-20.609289169311523,7.048529624938965,-166.40582275390625,-110.98162078857422,231.95558166503906,-22.5,-22.80000114440918,33.45000076293945
5.469,105.99610137939453,-20.800825119018555,6.742072105407715,-172.40121459960938,-132.16539001464844,236.21897888183594,-22.5,-22.80000114440918,33.45000076293945
5.473,113.54261779785156,-17.583017349243164,7.469909191131592,-194.117919921875,-135.36293029785156,229.29095458984375,-23.700000762939453,-26.850000381469727,33.30000305175781
5.48,123.57911682128906,-9.155426979064941,9.002198219299316,-208.90658569335938,-131.23277282714844,234.8866729736328,-23.700000762939453,-26.850000381469727,33.30000305175781
5.49,124.80494689941406,-4.213795185089111,11.185709953308105,-247.14395141601562,-132.29861450195312,241.814697265625,-25.05000114440918,-27.750001907348633,31.950000762939453
5.5,122.27667236328125,5.1331682205200195,12.373234748840332,-294.8407287597656,-126.96936798095703,257.0030517578125,-24.30000114440918,-28.500001907348633,29.400001525878906
5.51,124.88156127929688,15.85919189453125,12.143390655517578,-341.6048889160156,-121.64012145996094,262.1990661621094,-24.30000114440918,-28.500001907348633,29.400001525878906
5.53,126.72030639648438,32.82929229736328,9.308655738830566,-338.0076599121094,-130.43338012695312,273.7901916503906,-24.150001525878906,-31.500001907348633,29.250001907348633
5.534,114.69184112548828,47.232810974121094,-2.6815059185028076,-164.94027709960938,-146.5543670654297,321.7534484863281,-24.30000114440918,-33.60000228881836,26.400001525878906
5.54,112.35509490966797,36.8132438659668,-2.2601263523101807,-42.76722717285156,-142.15773010253906,349.4655456542969,-24.30000114440918,-33.60000228881836,26.400001525878906
5.55,118.79071044921875,22.639572143554688,1.7621324062347412,92.06278228759766,-139.49310302734375,375.1791687011719,-25.650001525878906,-37.20000076293945,25.200000762939453
5.56,125.76262664794922,2.183511972427368,28.002582550048828,141.89126586914062,-135.76263427734375,333.34454345703125,-25.650001525878906,-37.20000076293945,25.200000762939453
5.57,119.48023986816406,-2.183511972427368,32.063148498535156,179.19601440429688,-133.09800720214844,302.4349060058594,-23.400001525878906,-37.95000076293945,24.450000762939453
5.589,89.10260772705078,-2.298433542251587,50.948612213134766,241.814697265625,-109.38284301757812,306.4318542480469,-22.200000762939453,-38.400001525878906,22.950000762939453
5.593,65.39043426513672,-6.358999729156494,52.82566452026367,263.66461181640625,-73.67687225341797,318.5558776855469,-22.950000762939453,-39.900001525878906,24.450000762939453
5.6,41.5250358581543,-34.476505279541016,52.51920700073242,208.10719299316406,-64.48391723632812,260.2005920410156,-22.05000114440918,-40.20000076293945,22.350000381469727
5.61,39.533058166503906,-70.98329162597656,45.20252990722656,116.84379577636719,-15.721285820007324,123.50535583496094,-22.05000114440918,-40.20000076293945,22.350000381469727
5.62,43.51700973510742,-55.89024353027344,46.313438415527344,16.12097930908203,-24.64777946472168,25.980091094970703,-22.05000114440918,-43.95000076293945,22.05000114440918
5.63,67.76548767089844,-8.159439086914062,35.089420318603516,1.5987749099731445,-7.860642910003662,-54.35834503173828,-21.30000114440918,-41.25,21.600000381469727
5.65,57.65237808227539,28.002582550048828,22.103269577026367,39.70290756225586,15.45482349395752,-79.9387435913086,-21.0,-43.20000076293945,21.30000114440918
5.653,37.57939147949219,15.897499084472656,16.510414123535156,94.86064147949219,29.31087303161621,-150.6845245361328,-21.900001525878906,-41.85000228881836,21.450000762939453
5.66,34.782962799072266,8.734047889709473,13.599065780639648,112.31393432617188,43.56661605834961,-176.9310760498047,-21.900001525878906,-41.85000228881836,21.450000762939453
5.67,32.9442138671875,-4.941632270812988,16.740259170532227,96.8591079711914,45.56508255004883,-228.89126586914062,-20.25,-42.150001525878906,22.05000114440918
5.68,31.756690979003906,-16.66364288330078,18.923770904541016,58.08882141113281,57.15620040893555,-298.7044372558594,-22.650001525878906,-41.10000228881836,21.75
5.691,31.373619079589844,-11.645397186279297,21.337125778198242,32.77488327026367,75.94180297851562,-336.0091857910156,-22.5,-42.45000076293945,21.600000381469727
5.707,30.37763023376465,-0.9576807022094727,17.00840950012207,58.888206481933594,88.33231353759766,-390.3675231933594,-22.950000762939453,-39.900001525878906,21.75
5.71,34.55311965942383,-3.7158010005950928,15.016432762145996,60.62021255493164,109.64930725097656,-399.8269348144531,-22.950000762939453,-39.900001525878906,21.75
5.72,35.89387130737305,-7.891288757324219,14.748282432556152,92.19601440429688,121.90658569335938,-435.6661376953125,-24.900001525878906,-39.900001525878906,22.5
5.73,38.38384246826172,-19.19192123413086,17.085023880004883,96.32618713378906,134.29708862304688,-473.90350341796875,-24.900001525878906,-38.85000228881836,22.950000762939453
5.74,40.60565948486328,-30.952239990234375,18.4257755279541,82.47013854980469,138.6937255859375,-500.81622314453125,-24.450000762939453,-38.400001525878906,24.750001907348633
5.75,43.01901626586914,-36.928165435791016,19.80483627319336,53.558956146240234,152.81622314453125,-537.8544921875,-26.400001525878906,-39.150001525878906,21.75
5.769,48.228797912597656,-31.565155029296875,16.47210693359375,31.709033966064453,169.4701385498047,-571.8284912109375,-27.450000762939453,-38.85000228881836,23.25
5.773,62.90046691894531,-30.301015853881836,11.91354751586914,43.56661605834961,175.0658416748047,-582.2205200195312,-27.450000762939453,-38.85000228881836,23.25
5.78,67.99533081054688,-31.794998168945312,13.062764167785645,43.03369140625,185.4578857421875,-598.208251953125,-30.000001907348633,-36.30000305175781,26.100000381469727
5.79,73.28172302246094,-35.0128059387207,13.21599292755127,33.57427215576172,192.91883850097656,-616.3276977539062,-31.500001907348633,-34.35000228881836,25.650001525878906
5.8,80.02379608154297,-40.41412353515625,12.526463508605957,26.246553421020508,201.17916870117188,-620.0581665039062,-31.500001907348633,-32.85000228881836,27.150001525878906
5.81,85.5783462524414,-41.98472213745117,10.649409294128418,29.177640914916992,194.38436889648438,-615.2618408203125,-33.900001525878906,-31.500001907348633,27.000001907348633
5.823,90.97966766357422,-41.90810775756836,9.576807022094727,30.776416778564453,205.84225463867188,-617.3935546875,-33.900001525878906,-31.500001907348633,27.000001907348633
5.83,96.11283111572266,-36.77493667602539,7.1251444816589355,35.03981399536133,205.84225463867188,-615.2618408203125,-34.80000305175781,-28.950000762939453,27.450000762939453
5.84,96.84066772460938,-35.6257209777832,6.742072105407715,49.42878723144531,203.57733154296875,-603.404296875,-37.5,-27.450000762939453,28.950000762939453
5.85,101.97383880615234,-37.694313049316406,4.367023944854736,32.108726501464844,211.5712127685547,-602.871337890625,-38.55000305175781,-26.55000114440918,28.950000762939453
5.86,106.18763732910156,-44.32146072387695,2.4133553504943848,3.9969370365142822,208.90658569335938,-601.2725830078125,-39.150001525878906,-22.200000762939453,31.05000114440918
5.87,108.37114715576172,-45.432373046875,0.3064578175544739,-11.990811347961426,194.91729736328125,-603.6707153320312,-39.150001525878906,-22.200000762939453,31.05000114440918
5.886,109.25221252441406,-37.617698669433594,-3.141192674636841,-17.32006072998047,180.26187133789062,-591.14697265625,-41.55000305175781,-19.200000762939453,31.500001907348633
5.89,114.7684555053711,-20.034679412841797,-11.60708999633789,-8.39356803894043,177.46400451660156,-572.0949096679688,-42.30000305175781,-17.700000762939453,31.950000762939453
5.9,118.33102416992188,-16.395492553710938,-13.21599292755127,25.846860885620117,170.8024444580078,-588.2159423828125,-42.45000076293945,-14.850000381469727,33.30000305175781
5.91,119.63346862792969,-19.38345718383789,-14.556746482849121,61.01990509033203,156.679931640625,-566.89892578125,-44.70000076293945,-13.65000057220459,32.55000305175781
5.92,125.76262664794922,-28.653806686401367,-12.181697845458984,63.151607513427734,146.9540557861328,-544.915771484375,-44.70000076293945,-13.65000057220459,32.55000305175781
5.939,127.4864501953125,-33.7486686706543,-10.917559623718262,68.88054656982422,129.90045166015625,-519.8682861328125,-46.80000305175781,-7.200000286102295,33.45000076293945
5.943,126.95014953613281,-33.7486686706543,-13.637372970581055,75.67534637451172,128.96783447265625,-478.1669006347656,-47.25,-3.750000238418579,32.70000076293945
5.95,121.62545013427734,-38.46045684814453,-17.085023880004883,91.3966293334961,116.9770278930664,-434.3338317871094,-50.400001525878906,0.15000000596046448,34.35000228881836
5.96,119.32701110839844,-46.27513122558594,-14.786589622497559,84.73506927490234,124.43797302246094,-375.3124084472656,-49.05000305175781,3.0,36.75
5.97,116.76042938232422,-60.44880294799805,-13.292608261108398,69.28024291992188,107.78407287597656,-293.37518310546875,-49.05000305175781,3.0,36.75
5.98,113.69584655761719,-76.34630584716797,-17.31486701965332,33.70750427246094,70.74578857421875,-203.57733154296875,-47.55000305175781,8.850000381469727,37.80000305175781
5.99,110.89942169189453,-88.37477111816406,-19.460071563720703,-5.196018218994141,30.24349021911621,-118.17610931396484,-49.650001525878906,11.40000057220459,37.20000076293945
6.003,108.56268310546875,-86.49771881103516,-20.915746688842773,-8.260336875915527,-12.390504837036133,-6.794793128967285,-49.650001525878906,11.700000762939453,37.95000076293945
6.01,105.68963623046875,-62.90046691894531,-21.490354537963867,20.38437843322754,-31.975496292114258,51.4272575378418,-49.95000076293945,13.65000057220459,37.650001525878906
6.02,105.03841400146484,-55.58378601074219,-18.387468338012695,53.558956146240234,-57.955589294433594,134.96324157714844,-51.30000305175781,14.550000190734863,37.80000305175781
6.03,103.27628326416016,-54.894256591796875,-10.649409294128418,58.08882141113281,-68.74732208251953,209.70596313476562,-51.30000305175781,14.550000190734863,37.80000305175781
6.04,99.48387145996094,-55.622093200683594,-4.6734819412231445,57.822357177734375,-84.60183715820312,231.1562042236328,-53.55000305175781,15.450000762939453,37.05000305175781
6.05,95.23176574707031,-48.343719482421875,0.4213795065879822,88.19908142089844,-91.79632568359375,274.8560485839844,-54.45000076293945,14.100000381469727,36.900001525878906
6.062,93.43132781982422,-33.978511810302734,9.653421401977539,122.43950653076172,-45.298622131347656,314.29248046875,-55.20000076293945,12.450000762939453,36.900001525878906
6.07,70.29376220703125,-19.881450653076172,62.364166259765625,81.40428924560547,10.258805274963379,287.9126892089844,-56.400001525878906,14.100000381469727,37.20000076293945
6.08,91.59258270263672,-4.903325080871582,160.5072784423828,-226.89279174804688,-154.6814727783203,204.7764129638672,-56.400001525878906,14.100000381469727,37.20000076293945
6.09,208.9276123046875,48.80340576171875,23.865402221679688,-120.30780792236328,-137.3614044189453,349.3323059082031,-58.500003814697266,11.550000190734863,36.30000305175781
6.1,147.6743621826172,39.4947509765625,-114.46199798583984,41.30168533325195,-29.977027893066406,368.2511291503906,-58.80000305175781,10.050000190734863,35.55000305175781
6.12,54.24303436279297,21.298818588256836,-20.226215362548828,117.64318084716797,-25.447166442871094,344.0030517578125,-60.30000305175781,8.100000381469727,34.5
6.123,40.988731384277344,3.9839515686035156,31.028854370117188,130.1669158935547,-55.82388687133789,295.7733459472656,-61.500003814697266,7.200000286102295,35.55000305175781
6.13,41.14196014404297,-39.18829345703125,28.768728256225586,99.92343139648438,-57.689125061035156,274.8560485839844,-61.500003814697266,7.200000286102295,35.55000305175781
6.14,55.085792541503906,-39.11167907714844,23.252487182617188,83.40275573730469,-42.101070404052734,255.53750610351562,-62.400001525878906,5.550000190734863,33.900001525878906
6.15,67.91871643066406,-39.37982940673828,25.244462966918945,112.18070220947266,-27.71209716796875,260.7335205078125,-63.45000076293945,5.100000381469727,32.55000305175781
6.16,93.66117095947266,-49.837703704833984,38.69029998779297,64.61714935302734,-38.10413360595703,242.08116149902344,-64.95000457763672,3.1500000953674316,32.55000305175781
6.178,100.32662963867188,-53.055511474609375,27.58120346069336,15.055130004882812,-31.176109313964844,208.90658569335938,-63.30000305175781,2.25,32.25
6.183,63.93476104736328,-28.232425689697266,18.23423957824707,-17.186830520629883,-33.57427215576172,197.0489959716797,-63.30000305175781,2.25,32.25
6.19,75.42693328857422,-8.96389102935791,6.205770969390869,-10.392036437988281,-32.77488327026367,204.7764129638672,-65.25,0.30000001192092896,32.25
6.2,80.67501831054688,-6.512228488922119,-1.1492167711257935,3.9969370365142822,-16.25421142578125,190.9203643798828,-64.95000457763672,-0.15000000596046448,32.10000228881836
6.21,81.93915557861328,-10.72602367401123,-5.822698593139648,-7.06125545501709,6.661561965942383,173.6002960205078,-66.30000305175781,-1.8000000715255737,31.200000762939453
6.22,74.43093872070312,-13.139378547668457,4.252102375030518,-7.194486618041992,3.86370587348938,156.679931640625,-66.1500015258789,-2.8500001430511475,31.05000114440918
6.239,72.59219360351562,-14.67166805267334,18.502389907836914,1.5987749099731445,-12.523736000061035,155.747314453125,-66.1500015258789,-2.8500001430511475,31.05000114440918
6.243,76.84429931640625,-14.595053672790527,12.02846908569336,2.9310872554779053,-17.32006072998047,138.8269500732422,-66.75,-3.0,31.950000762939453
6.25,78.4148941040039,-9.883264541625977,14.09705924987793,13.856048583984375,-5.8621745109558105,129.50076293945312,-66.75,-3.0,31.950000762939453
6.26,75.31201171875,-14.441824913024902,16.47210693359375,39.569679260253906,-11.324655532836914,119.24195861816406,-67.20000457763672,-5.550000190734863,31.80000114440918
6.27,69.3743896484375,-15.284584045410156,15.935806274414062,42.36753463745117,-33.97396469116211,112.58039855957031,-67.6500015258789,-4.800000190734863,31.80000114440918
6.28,80.44517517089844,-14.824896812438965,4.098873138427734,39.03675079345703,2.797856092453003,106.98468017578125,-67.20000457763672,-5.850000381469727,32.85000228881836
6.29,73.81802368164062,-15.552734375,13.982137680053711,34.373661041259766,-24.64777946472168,95.79325866699219,-67.20000457763672,-5.850000381469727,32.85000228881836
6.303,81.05809020996094,-16.089035034179688,-5.746084213256836,30.24349021911621,-7.594180583953857,100.45635223388672,-67.05000305175781,-8.100000381469727,31.200000762939453
6.31,83.54806518554688,-26.776752471923828,10.342951774597168,8.127105712890625,2.6646246910095215,70.07962799072266,-67.05000305175781,-8.100000381469727,31.200000762939453
6.32,77.763671875,-27.58120346069336,9.155426979064941,-10.658498764038086,16.520673751831055,65.54976654052734,-66.75,-8.40000057220459,29.700000762939453
6.33,71.1748275756836,-11.683704376220703,19.000385284423828,4.396630764007568,-5.329249382019043,72.87748718261719,-69.0,-10.050000190734863,30.450000762939453
6.34,80.48348236083984,-15.054739952087402,6.818686485290527,13.58958625793457,10.125574111938477,76.20826721191406,-69.0,-10.050000190734863,30.450000762939453
6.359,75.73339080810547,-13.062764167785645,26.393678665161133,4.929555892944336,7.72741174697876,55.82388687133789,-68.25,-10.800000190734863,31.500001907348633
6.363,79.83226013183594,-26.087221145629883,6.3973069190979,-19.718223571777344,7.860642910003662,57.55589294433594,-66.9000015258789,-11.40000057220459,31.05000114440918
6.37,74.92893981933594,-17.73624610900879,22.026655197143555,-11.457886695861816,4.263399600982666,59.55436325073242,-66.9000015258789,-11.40000057220459,31.05000114440918
6.38,78.22335815429688,-17.161638259887695,7.240066051483154,-35.57273864746094,14.522205352783203,45.03215789794922,-67.6500015258789,-9.75,30.600000381469727
6.39,76.61445617675781,-9.155426979064941,13.943830490112305,-6.661561965942383,11.591117858886719,53.95865249633789,-67.6500015258789,-9.75,30.600000381469727
6.4,74.7374038696289,-10.994174003601074,22.60126495361328,-4.396630764007568,15.721285820007324,35.17304611206055,-68.70000457763672,-9.450000762939453,30.600000381469727
6.419,76.11646270751953,-17.42978858947754,14.020444869995117,-7.327718257904053,11.058192253112793,51.4272575378418,-67.20000457763672,-11.700000762939453,32.55000305175781
6.423,78.56812286376953,-22.103269577026367,15.284584045410156,-27.045940399169922,5.329249382019043,52.75957107543945,-68.4000015258789,-12.15000057220459,31.05000114440918
6.43,77.87859344482422,-13.254301071166992,14.135366439819336,-26.64624786376953,10.658498764038086,46.231239318847656,-68.4000015258789,-12.15000057220459,31.05000114440918
6.44,77.1124496459961,-10.228029251098633,15.705963134765625,-24.781009674072266,18.385910034179688,60.75344467163086,-68.4000015258789,-12.15000057220459,31.05000114440918
6.45,77.22737121582031,-7.048529624938965,15.705963134765625,-17.586523056030273,13.722817420959473,52.89280319213867,-68.25,-11.550000190734863,31.500001907348633
6.46,76.84429931640625,-14.441824913024902,17.1999454498291,-26.113323211669922,31.176109313964844,50.4946403503418,-67.20000457763672,-13.65000057220459,31.200000762939453
6.479,75.31201171875,-16.58702850341797,16.05072784423828,-29.84379768371582,16.25421142578125,57.689125061035156,-67.80000305175781,-15.000000953674316,31.950000762939453
6.483,74.81401824951172,-17.161638259887695,16.012420654296875,-39.569679260253906,22.649311065673828,59.287899017333984,-67.80000305175781,-15.000000953674316,31.950000762939453
6.49,76.61445617675781,-10.113107681274414,12.564770698547363,-27.445634841918945,18.2526798248291,73.9433364868164,-66.1500015258789,-14.40000057220459,31.950000762939453
6.5,77.22737121582031,-6.473921298980713,17.238252639770508,-14.12251091003418,9.326186180114746,94.9938735961914,-69.75,-14.550000190734863,31.200000762939453
6.51,73.7031021118164,-1.0342950820922852,24.823083877563477,-2.2649309635162354,0.0,105.78560638427734,-68.25,-15.750000953674316,31.950000762939453
6.52,72.97526550292969,-4.137180328369141,27.044902801513672,-4.263399600982666,3.3307809829711914,106.4517593383789,-68.25,-16.5,33.45000076293945
6.539,72.43896484375,-5.784391403198242,28.040889739990234,-9.192955017089844,5.995405673980713,122.03981018066406,-67.20000457763672,-17.55000114440918,32.85000228881836
6.543,71.32805633544922,-15.207969665527344,26.12552833557129,-33.57427215576172,-3.0643184185028076,128.96783447265625,-67.20000457763672,-17.55000114440918,32.85000228881836
6.55,75.42693328857422,-22.754493713378906,29.879636764526367,-53.558956146240234,-18.519142150878906,130.96630859375,-67.20000457763672,-17.55000114440918,33.30000305175781
6.56,80.75163269042969,-26.54690933227539,26.96828842163086,-83.93567657470703,-0.9326186776161194,137.49464416503906,-67.5,-19.650001525878906,33.45000076293945
6.57,80.94316864013672,-27.198131561279297,24.746469497680664,-102.05513000488281,-15.854516983032227,139.7595672607422,-67.95000457763672,-20.25,32.55000305175781
6.58,81.74761962890625,-21.337125778198242,16.970102310180664,-98.19142150878906,-27.445634841918945,153.48239135742188,-67.6500015258789,-21.450000762939453,33.30000305175781
6.599,85.04204559326172,-13.369222640991211,10.15141487121582,-87.79938507080078,-27.978559494018555,158.4119415283203,-67.6500015258789,-21.450000762939453,33.30000305175781
6.604,86.99571228027344,-14.67166805267334,6.665457725524902,-61.81929397583008,-45.16539001464844,176.7978515625,-66.9000015258789,-23.700000762939453,32.55000305175781
6.61,87.07232666015625,-20.456058502197266,11.530475616455078,-67.814697265625,-55.29096221923828,180.3950958251953,-66.45000457763672,-24.450000762939453,30.30000114440918
6.62,88.6046142578125,-20.264522552490234,13.407529830932617,-81.00459289550781,-54.62480926513672,190.9203643798828,-67.80000305175781,-25.05000114440918,31.500001907348633
6.63,89.98367309570312,-18.579004287719727,18.310853958129883,-73.54364013671875,-62.085758209228516,184.6584930419922,-68.4000015258789,-24.450000762939453,31.05000114440918
6.64,92.55026245117188,-20.41775131225586,17.583017349243164,-72.61102294921875,-70.47932434082031,195.5834503173828,-68.4000015258789,-24.450000762939453,31.05000114440918
6.66,93.69947814941406,-26.048913955688477,18.655620574951172,-82.7365951538086,-83.80245208740234,207.97396850585938,-68.4000015258789,-27.900001525878906,29.55000114440918
6.663,96.4192886352539,-31.90991973876953,13.292608261108398,-113.64624786376953,-93.12863159179688,208.24041748046875,-66.0,-29.700000762939453,27.900001525878906
6.67,100.40324401855469,-29.53487205505371,14.709975242614746,-130.69984436035156,-91.52986145019531,213.30320739746094,-67.6500015258789,-29.850000381469727,27.000001907348633
6.68,101.55245971679688,-22.984336853027344,18.004396438598633,-122.57273864746094,-108.050537109375,231.68911743164062,-66.0,-31.950000762939453,27.150001525878906
6.69,102.66336822509766,-13.177685737609863,20.034679412841797,-111.64777374267578,-105.91883087158203,230.3568115234375,-66.0,-31.950000762939453,27.150001525878906
6.701,103.12305450439453,-14.67166805267334,16.35718536376953,-101.12251281738281,-106.18529510498047,246.21133422851562,-66.1500015258789,-33.75,26.55000114440918
6.72,100.36493682861328,-28.07919692993164,14.020444869995117,-114.97856140136719,-116.84379577636719,247.54364013671875,-66.30000305175781,-35.10000228881836,24.900001525878906
6.723,101.89722442626953,-35.89387130737305,11.568782806396484,-146.9540557861328,-124.03828430175781,251.67381286621094,-66.0,-36.60000228881836,23.55000114440918
6.73,105.45979309082031,-25.81907081604004,6.742072105407715,-167.6049041748047,-120.4410400390625,254.2052001953125,-64.95000457763672,-36.45000076293945,23.25
6.74,108.33283996582031,-18.04270362854004,10.228029251098633,-154.28176879882812,-139.7595672607422,247.54364013671875,-64.95000457763672,-36.45000076293945,23.25
6.75,118.29271697998047,-9.883264541625977,8.504204750061035,-137.76109313964844,-151.35069274902344,274.8560485839844,-66.0,-40.95000076293945,20.850000381469727
6.76,122.73635864257812,-5.746084213256836,12.90953540802002,-157.87901306152344,-132.43185424804688,265.6630859375,-63.45000076293945,-41.10000228881836,19.650001525878906
6.78,118.63748168945312,-7.1251444816589355,13.79060173034668,-186.79019165039062,-130.69984436035156,272.19140625,-61.95000076293945,-42.60000228881836,19.950000762939453
6.783,119.51854705810547,-2.1068975925445557,16.58702850341797,-246.07809448242188,-133.49769592285156,270.0597229003906,-63.000003814697266,-43.95000076293945,16.5
6.79,123.92388153076172,24.095245361328125,13.828908920288086,-271.65850830078125,-130.96630859375,280.05206298828125,-63.000003814697266,-43.95000076293945,16.5
6.8,121.28067779541016,35.85556411743164,17.966089248657227,-277.5206604003906,-127.63552856445312,286.58038330078125,-63.000003814697266,-43.95000076293945,16.5
6.81,120.43791961669922,48.4969482421875,17.12333106994629,-258.2021484375,-121.90658569335938,312.9601745605469,-61.80000305175781,-47.10000228881836,13.200000762939453
6.82,117.79472351074219,43.44039535522461,7.546523571014404,-179.86216735839844,-124.43797302246094,339.47320556640625,-59.70000076293945,-46.95000076293945,12.300000190734863
6.839,108.79252624511719,18.923770904541016,-4.175487995147705,-45.96477508544922,-104.5865249633789,362.12249755859375,-60.750003814697266,-47.55000305175781,9.15000057220459
6.843,103.31459045410156,-10.955866813659668,15.782577514648438,75.5421142578125,-122.70597076416016,342.1378173828125,-59.400001525878906,-49.20000076293945,11.100000381469727
6.85,120.43791961669922,-23.44402313232422,22.218191146850586,118.70903015136719,-124.70443725585938,309.62939453125,-59.400001525878906,-49.20000076293945,11.100000381469727
6.86,111.81879425048828,-19.345149993896484,32.25468444824219,173.86676025390625,-114.57886505126953,314.5589599609375,-58.20000076293945,-52.35000228881836,9.75
6.87,86.95740509033203,-15.24627685546875,36.8515510559082,205.30934143066406,-79.53904724121094,334.27716064453125,-55.95000076293945,-51.60000228881836,8.25
6.88,55.35394287109375,-32.063148498535156,41.83149337768555,144.1562042236328,-60.08728790283203,316.55743408203125,-57.150001525878906,-51.900001525878906,8.25
6.899,47.04127502441406,-65.2755126953125,46.73481750488281,60.48698043823242,-41.30168533325195,183.32618713378906,-56.400001525878906,-50.85000228881836,9.75
6.904,42.7891731262207,-61.36817932128906,31.143775939941406,-40.502296447753906,-18.119447708129883,57.955589294433594,-56.400001525878906,-50.85000228881836,9.75
6.91,57.499149322509766,-0.19153612852096558,23.060951232910156,-41.168453216552734,-7.594180583953857,0.6661561727523804,-52.20000076293945,-51.150001525878906,9.0
6.92,53.63011932373047,16.58702850341797,18.11931800842285,13.056661605834961,3.7304747104644775,-32.24195861816406,-52.95000076293945,-50.400001525878906,9.300000190734863
6.93,42.865787506103516,28.19411849975586,18.923770904541016,60.22052001953125,19.052066802978516,-85.66768646240234,-52.95000076293945,-49.650001525878906,9.300000190734863
6.94,35.089420318603516,21.45204734802246,15.016432762145996,99.65696716308594,31.042879104614258,-149.3522186279297,-52.05000305175781,-49.80000305175781,9.450000762939453
6.959,29.917943954467773,10.917559623718262,10.113107681274414,106.31852722167969,48.76263427734375,-207.97396850585938,-52.05000305175781,-49.80000305175781,9.450000762939453
6.963,24.746469497680664,0.15322890877723694,10.41956615447998,98.32465362548828,60.08728790283203,-286.4471740722656,-53.55000305175781,-44.400001525878906,8.700000762939453
6.97,21.911733627319336,-10.074800491333008,11.30063247680664,72.47779083251953,76.4747314453125,-322.0198974609375,-53.250003814697266,-42.150001525878906,10.200000762939453
6.98,18.88546371459961,-10.113107681274414,9.883264541625977,55.29096221923828,92.46247863769531,-373.9800720214844,-53.250003814697266,-39.0,9.15000057220459
6.99,19.843143463134766,-7.1251444816589355,10.496180534362793,62.618682861328125,111.64777374267578,-410.08575439453125,-53.55000305175781,-36.30000305175781,11.40000057220459
7.0,23.367408752441406,-6.01423454284668,12.258312225341797,67.14854431152344,122.3062744140625,-443.3935546875,-53.55000305175781,-36.30000305175781,11.40000057220459
7.019,28.92195701599121,-10.5344877243042,14.556746482849121,77.54058074951172,132.6983184814453,-487.6263427734375,-54.45000076293945,-31.80000114440918,11.850000381469727
7.023,34.66804122924805,-18.34916114807129,15.744270324707031,78.3399658203125,139.6263427734375,-518.4027709960938,-55.650001525878906,-28.350000381469727,11.550000190734863
7.03,42.63594436645508,-29.994558334350586,16.510414123535156,57.55589294433594,144.82235717773438,-541.9846801757812,-52.95000076293945,-25.200000762939453,13.050000190734863
7.04,46.12190246582031,-29.95625114440918,15.131354331970215,35.439510345458984,163.6079559326172,-573.2940063476562,-54.000003814697266,-22.350000381469727,12.750000953674316
7.05,53.247047424316406,-29.4582576751709,11.990161895751953,36.5053596496582,165.87289428710938,-594.7442626953125,-54.000003814697266,-22.350000381469727,12.750000953674316
7.06,60.60203170776367,-25.167848587036133,9.576807022094727,43.96630859375,174.39968872070312,-607.6676635742188,-54.000003814697266,-22.350000381469727,12.750000953674316
7.079,70.37037658691406,-27.389667510986328,7.354987621307373,56.756507873535156,181.46095275878906,-618.7258911132812,-50.70000076293945,-11.700000762939453,14.850000381469727
7.083,79.33426666259766,-33.7486686706543,6.358999729156494,52.226646423339844,195.5834503173828,-629.2511596679688,-48.45000076293945,-6.300000190734863,15.15000057220459
7.09,90.13690185546875,-39.839515686035156,5.937620162963867,41.168453216552734,192.91883850097656,-636.0458984375,-48.45000076293945,-6.300000190734863,15.15000057220459
