time,accel_x,accel_y,accel_z,gyro_x,gyro_y,gyro_z,mag_x,mag_y,mag_z
0.0,71.8643569946289,13.445837020874023,-25.857378005981445,-10.658498764038086,-17.186830520629883,-11.857580184936523,-20.25,-22.80000114440918,-13.500000953674316
0.01,68.95301055908203,16.318878173828125,-31.29700469970703,-20.784072875976562,-11.591117858886719,-2.131699800491333,-19.05000114440918,-21.900001525878906,-13.500000953674316
0.02,69.06793212890625,18.387468338012695,-32.369606018066406,-26.779478073120117,0.7993874549865723,-7.9938740730285645,-19.650001525878906,-21.75,-14.100000381469727
0.03,69.52761840820312,18.923770904541016,-29.381643295288086,-30.24349021911621,-1.3323123455047607,-5.8621745109558105,-18.75,-20.100000381469727,-13.500000953674316
0.04,72.17081451416016,18.310853958129883,-29.573179244995117,-20.650842666625977,-11.591117858886719,-4.130168437957764,-18.450000762939453,-21.0,-13.350000381469727
0.05,72.55388641357422,17.8128604888916,-28.002582550048828,-17.053598403930664,-16.520673751831055,-5.196018218994141,-19.650001525878906,-20.55000114440918,-13.65000057220459
0.07,70.44699096679688,19.651607513427734,-30.032865524291992,-17.053598403930664,-12.656967163085938,-26.246553421020508,-19.650001525878906,-20.55000114440918,-13.65000057220459
0.073,70.6385269165039,19.38345718383789,-31.373619079589844,-7.9938740730285645,-5.595712184906006,-8.260336875915527,-18.900001525878906,-21.450000762939453,-14.100000381469727
0.08,70.86837005615234,20.41775131225586,-31.986534118652344,2.131699800491333,-15.188361167907715,6.261868000030518,-18.900001525878906,-21.450000762939453,-14.100000381469727
0.09,71.02159881591797,18.808849334716797,-32.331298828125,-9.992342948913574,-7.460949420928955,7.72741174697876,-18.450000762939453,-20.25,-13.050000190734863
0.1,69.52761840820312,17.92778205871582,-32.676063537597656,6.5283308029174805,-9.192955017089844,18.78560447692871,-19.80000114440918,-20.400001525878906,-13.500000953674316
0.11,67.65056610107422,17.851167678833008,-33.25067138671875,3.7304747104644775,-6.661561965942383,3.197549819946289,-19.80000114440918,-20.400001525878906,-13.500000953674316
0.13,67.68887329101562,13.522451400756836,-30.454246520996094,1.4655436277389526,0.9326186776161194,-2.131699800491333,-18.75,-20.400001525878906,-14.250000953674316
0.133,68.60824584960938,15.591041564941406,-29.573179244995117,-11.591117858886719,6.5283308029174805,-1.7320060729980469,-19.5,-20.850000381469727,-13.950000762939453
0.14,67.80379486083984,15.591041564941406,-29.305028915405273,-18.119447708129883,12.124042510986328,-9.192955017089844,-18.900001525878906,-20.25,-14.40000057220459
0.15,69.68084716796875,16.127342224121094,-28.8453426361084,-22.649311065673828,5.462480545043945,-0.6661561727523804,-19.05000114440918,-20.400001525878906,-13.200000762939453
0.16,70.67683410644531,15.629348754882812,-29.22841453552246,-37.17151641845703,4.796324729919434,-3.7304747104644775,-19.05000114440918,-20.400001525878906,-13.200000762939453
0.17,70.94498443603516,16.548721313476562,-29.266721725463867,-35.306278228759766,0.1332312375307083,-10.525267601013184,-18.450000762939453,-20.55000114440918,-13.200000762939453
0.189,71.1748275756836,20.034679412841797,-30.26270866394043,-22.116384506225586,-7.72741174697876,1.9984685182571411,-18.30000114440918,-19.650001525878906,-14.250000953674316
0.193,71.28974914550781,22.639572143554688,-31.680076599121094,-3.0643184185028076,-13.323123931884766,7.9938740730285645,-19.200000762939453,-20.55000114440918,-13.65000057220459
0.2,70.44699096679688,23.290794372558594,-32.331298828125,1.5987749099731445,-3.4640121459960938,4.529861927032471,-19.650001525878906,-21.0,-14.100000381469727
0.21,70.6002197265625,21.183897018432617,-32.13976287841797,17.453292846679688,-9.592649459838867,8.660030364990234,-19.650001525878906,-21.0,-14.100000381469727
0.22,69.14454650878906,19.000385284423828,-32.292991638183594,33.17457962036133,-9.72588062286377,2.9310872554779053,-19.05000114440918,-21.600000381469727,-15.450000762939453
0.23,68.83808898925781,17.544710159301758,-31.83330535888672,24.781009674072266,8.127105712890625,-8.127105712890625,-18.450000762939453,-19.80000114440918,-14.850000381469727
0.249,67.91871643066406,16.625335693359375,-32.82929229736328,14.92189884185791,12.390504837036133,-15.721285820007324,-19.80000114440918,-21.600000381469727,-14.250000953674316
0.253,69.60423278808594,13.982137680053711,-30.99054718017578,3.0643184185028076,20.650842666625977,-4.529861927032471,-19.80000114440918,-20.850000381469727,-14.700000762939453
0.26,69.10623931884766,12.373234748840332,-29.726408004760742,-2.531393527984619,9.192955017089844,-1.4655436277389526,-19.80000114440918,-20.850000381469727,-14.700000762939453
0.27,68.68486022949219,11.645397186279297,-29.305028915405273,-19.185298919677734,14.522205352783203,-7.860642910003662,-19.80000114440918,-20.850000381469727,-14.700000762939453
0.28,70.06391906738281,12.373234748840332,-30.569168090820312,-25.313934326171875,9.459418296813965,-7.72741174697876,-19.05000114440918,-20.100000381469727,-12.750000953674316
0.29,70.40868377685547,15.016432762145996,-30.109479904174805,-28.378253936767578,1.3323123455047607,0.0,-18.75,-20.100000381469727,-15.000000953674316
0.31,71.13652038574219,19.07699966430664,-29.95625114440918,-29.044410705566406,-7.194486618041992,10.525267601013184,-19.650001525878906,-19.5,-13.350000381469727
0.313,69.56592559814453,19.958065032958984,-31.756690979003906,-20.38437843322754,-5.062787055969238,0.7993874549865723,-19.650001525878906,-19.5,-13.350000381469727
0.32,69.18285369873047,19.766529083251953,-31.10546875,-14.12251091003418,-1.4655436277389526,6.661561965942383,-19.650001525878906,-19.5,-13.350000381469727
0.331,70.48529815673828,19.460071563720703,-31.373619079589844,-11.191424369812012,1.1990811824798584,6.661561965942383,-18.75,-20.100000381469727,-14.700000762939453
0.34,69.45100402832031,19.000385284423828,-31.41192626953125,0.5329249501228333,11.191424369812012,-5.8621745109558105,-19.05000114440918,-20.100000381469727,-14.700000762939453
0.35,70.10222625732422,19.99637222290039,-31.948226928710938,10.525267601013184,3.197549819946289,8.660030364990234,-18.900001525878906,-20.55000114440918,-13.65000057220459
0.37,70.37037658691406,19.268535614013672,-31.948226928710938,18.119447708129883,6.128636837005615,6.128636837005615,-18.30000114440918,-20.850000381469727,-14.700000762939453
0.373,69.75746154785156,18.387468338012695,-32.71437072753906,10.392036437988281,9.192955017089844,2.131699800491333,-18.30000114440918,-20.850000381469727,-14.700000762939453
0.38,69.71915435791016,15.284584045410156,-30.91393280029297,0.6661561727523804,18.652372360229492,-8.526799201965332,-18.75,-21.150001525878906,-13.500000953674316
0.39,69.60423278808594,13.752294540405273,-31.335311889648438,-2.9310872554779053,7.72741174697876,5.728943347930908,-19.650001525878906,-20.55000114440918,-13.350000381469727
0.4,70.5619125366211,13.177685737609863,-29.95625114440918,-12.523736000061035,21.583459854125977,0.5329249501228333,-19.05000114440918,-21.150001525878906,-12.750000953674316
0.41,70.10222625732422,14.326903343200684,-29.879636764526367,-19.98468589782715,15.987748146057129,-3.0643184185028076,-19.200000762939453,-21.0,-14.100000381469727
0.429,71.71112823486328,16.931795120239258,-30.4925537109375,-20.251148223876953,3.0643184185028076,3.86370587348938,-19.200000762939453,-21.450000762939453,-14.40000057220459
0.433,71.13652038574219,18.617311477661133,-31.22039031982422,-17.186830520629883,-0.6661561727523804,2.2649309635162354,-19.200000762939453,-21.450000762939453,-14.40000057220459
0.44,71.1748275756836,18.923770904541016,-32.25468444824219,-20.91730499267578,4.663093090057373,1.8652373552322388,-19.200000762939453,-21.0,-13.65000057220459
0.45,71.44297790527344,17.92778205871582,-31.52684783935547,-21.45022964477539,5.728943347930908,0.1332312375307083,-18.75,-20.100000381469727,-15.450000762939453
0.46,70.06391906738281,16.970102310180664,-31.258697509765625,-12.124042510986328,-0.9326186776161194,3.0643184185028076,-18.75,-20.850000381469727,-13.950000762939453
0.47,70.5619125366211,16.089035034179688,-32.10145568847656,-6.661561965942383,3.3307809829711914,7.860642910003662,-18.450000762939453,-20.25,-14.40000057220459
0.49,70.0256118774414,16.931795120239258,-32.25468444824219,-11.058192253112793,13.056661605834961,2.398162364959717,-18.450000762939453,-20.25,-14.40000057220459
0.493,71.32805633544922,18.54069709777832,-31.41192626953125,4.529861927032471,13.856048583984375,7.06125545501709,-19.650001525878906,-19.80000114440918,-14.40000057220459
0.5,71.40467071533203,16.70195198059082,-29.266721725463867,-0.39969372749328613,13.856048583984375,8.660030364990234,-18.75,-20.850000381469727,-15.000000953674316
0.51,71.55789947509766,15.820884704589844,-29.53487205505371,0.7993874549865723,25.04747200012207,-1.1990811824798584,-19.80000114440918,-21.600000381469727,-13.950000762939453
0.52,71.7877426147461,15.322891235351562,-28.500577926635742,0.2664624750614166,18.652372360229492,-5.995405673980713,-19.80000114440918,-19.650001525878906,-14.700000762939453
0.53,72.01758575439453,13.713987350463867,-28.462270736694336,-5.062787055969238,7.72741174697876,-0.39969372749328613,-19.80000114440918,-19.650001525878906,-14.700000762939453
0.549,74.20109558105469,12.60307788848877,-29.075185775756836,-17.719755172729492,11.324655532836914,-6.661561965942383,-19.200000762939453,-21.450000762939453,-13.350000381469727
0.553,72.51557922363281,11.760318756103516,-27.849353790283203,-21.183767318725586,-0.5329249501228333,2.531393527984619,-18.450000762939453,-19.80000114440918,-13.350000381469727
0.56,71.55789947509766,12.411541938781738,-28.040889739990234,-26.113323211669922,2.531393527984619,2.531393527984619,-21.150001525878906,-19.5,-13.050000190734863
0.57,70.71514129638672,12.832921028137207,-28.807035446166992,-31.709033966064453,9.72588062286377,12.923430442810059,-19.80000114440918,-18.900001525878906,-13.200000762939453
0.58,69.64253997802734,13.292608261108398,-27.964275360107422,-44.89892578125,14.522205352783203,4.130168437957764,-19.05000114440918,-20.400001525878906,-12.450000762939453
0.59,69.83407592773438,13.024456977844238,-28.309040069580078,-33.70750427246094,22.649311065673828,-0.1332312375307083,-19.05000114440918,-20.400001525878906,-12.450000762939453
0.61,70.67683410644531,14.173673629760742,-28.002582550048828,-32.64165496826172,23.581928253173828,6.5283308029174805,-18.0,-19.650001525878906,-12.750000953674316
0.614,71.59620666503906,14.250288963317871,-28.270732879638672,-14.388973236083984,24.64777946472168,14.522205352783203,-19.200000762939453,-21.0,-14.40000057220459
0.62,70.6002197265625,15.667655944824219,-27.849353790283203,-22.382848739624023,26.779478073120117,13.722817420959473,-20.700000762939453,-20.25,-13.050000190734863
0.63,71.8260498046875,14.480132102966309,-27.389667510986328,-15.45482349395752,30.509952545166016,22.915773391723633,-19.650001525878906,-19.80000114440918,-13.050000190734863
0.64,71.13652038574219,13.943830490112305,-26.929981231689453,-9.72588062286377,30.776416778564453,21.983154296875,-19.650001525878906,-19.80000114440918,-13.050000190734863
0.65,70.25545501708984,12.947842597961426,-27.696125030517578,-15.45482349395752,37.4379768371582,20.784072875976562,-19.80000114440918,-21.150001525878906,-12.0
0.671,69.9489974975586,13.292608261108398,-27.925968170166016,-9.859111785888672,35.439510345458984,22.782541275024414,-19.950000762939453,-20.55000114440918,-13.350000381469727
0.674,70.37037658691406,12.986149787902832,-28.768728256225586,-6.5283308029174805,35.306278228759766,34.906585693359375,-19.200000762939453,-20.25,-13.350000381469727
0.68,69.83407592773438,15.744270324707031,-29.496564865112305,-12.923430442810059,45.96477508544922,27.445634841918945,-19.200000762939453,-20.25,-13.350000381469727
0.69,69.75746154785156,16.05072784423828,-30.4925537109375,-9.72588062286377,50.22817611694336,26.246553421020508,-19.200000762939453,-20.25,-13.350000381469727
0.7,68.1485595703125,15.399505615234375,-29.53487205505371,-4.130168437957764,47.56355285644531,29.444103240966797,-19.200000762939453,-20.25,-13.350000381469727
0.71,68.68486022949219,14.403517723083496,-30.4925537109375,-6.5283308029174805,49.29555892944336,38.77029037475586,-19.650001525878906,-20.25,-13.050000190734863
0.729,69.56592559814453,16.740259170532227,-27.77273941040039,-16.12097930908203,58.222049713134766,35.972434997558594,-20.400001525878906,-21.75,-13.050000190734863
0.733,68.99131774902344,18.310853958129883,-26.96828842163086,-15.987748146057129,49.56201934814453,36.238895416259766,-19.650001525878906,-20.55000114440918,-12.750000953674316
0.74,71.32805633544922,21.030668258666992,-30.37763023376465,-4.529861927032471,39.43644714355469,53.95865249633789,-19.650001525878906,-20.55000114440918,-12.600000381469727
0.75,69.52761840820312,21.643583297729492,-33.05913543701172,1.5987749099731445,38.63705825805664,42.633995056152344,-19.650001525878906,-20.55000114440918,-12.600000381469727
0.76,65.2372055053711,20.76251792907715,-31.83330535888672,7.9938740730285645,41.568145751953125,41.568145751953125,-20.55000114440918,-20.100000381469727,-11.700000762939453
0.77,63.51338195800781,21.222204208374023,-34.85957717895508,20.91730499267578,40.102603912353516,43.16691970825195,-19.200000762939453,-20.25,-11.550000190734863
0.79,64.43275451660156,20.379444122314453,-31.450233459472656,18.385910034179688,34.10719680786133,52.093414306640625,-19.80000114440918,-21.900001525878906,-11.40000057220459
0.794,63.81983947753906,15.935806274414062,-30.301015853881836,11.591117858886719,27.445634841918945,40.76875686645508,-19.5,-21.600000381469727,-12.450000762939453
0.8,60.52541732788086,19.115306854248047,-30.26270866394043,0.2664624750614166,30.24349021911621,43.16691970825195,-19.5,-21.600000381469727,-12.450000762939453
0.81,60.48711013793945,22.409727096557617,-30.530860900878906,-14.255742073059082,22.51607894897461,45.298622131347656,-20.25,-22.350000381469727,-12.0
0.82,60.257266998291016,24.938005447387695,-31.29700469970703,-31.309341430664062,29.577335357666016,37.57120895385742,-19.80000114440918,-21.600000381469727,-10.950000762939453
0.83,62.249244689941406,24.44001007080078,-29.879636764526367,-47.9632453918457,27.978559494018555,43.03369140625,-19.80000114440918,-21.900001525878906,-9.90000057220459
0.85,64.27952575683594,24.401702880859375,-28.960264205932617,-52.493106842041016,19.31852912902832,34.50688934326172,-20.25,-22.80000114440918,-10.950000762939453
0.853,65.19889831542969,24.746469497680664,-31.22039031982422,-58.08882141113281,16.78713607788086,29.177640914916992,-19.80000114440918,-21.600000381469727,-10.65000057220459
0.86,68.26348114013672,30.0711727142334,-34.897884368896484,-56.09035110473633,19.31852912902832,31.709033966064453,-19.80000114440918,-21.600000381469727,-10.65000057220459
0.87,70.25545501708984,33.94020462036133,-34.09343338012695,-42.101070404052734,4.130168437957764,34.64012145996094,-21.75,-22.80000114440918,-11.40000057220459
0.88,74.62248229980469,37.924156188964844,-34.591426849365234,-30.90964698791504,-10.125574111938477,35.972434997558594,-20.400001525878906,-22.5,-11.100000381469727
0.89,77.03583526611328,37.88584899902344,-33.82528305053711,-42.76722717285156,-4.529861927032471,31.309341430664062,-20.25,-22.80000114440918,-10.65000057220459
0.91,79.14273071289062,38.99675750732422,-34.09343338012695,-36.372127532958984,-17.719755172729492,31.709033966064453,-19.80000114440918,-22.80000114440918,-11.40000057220459
0.913,79.10442352294922,41.83149337768555,-35.16603469848633,-27.045940399169922,-26.246553421020508,20.650842666625977,-20.55000114440918,-22.80000114440918,-11.700000762939453
0.92,76.95922088623047,42.52102279663086,-38.19230651855469,-25.580398559570312,-13.58958625793457,11.591117858886719,-20.55000114440918,-22.80000114440918,-11.700000762939453
0.93,76.65276336669922,43.24885940551758,-39.26490783691406,-23.448698043823242,-11.591117858886719,-2.797856092453003,-20.700000762939453,-22.5,-10.350000381469727
0.94,75.12047576904297,43.4020881652832,-42.674251556396484,-12.790199279785156,-19.45176124572754,-4.529861927032471,-19.650001525878906,-23.700000762939453,-11.850000381469727
0.95,74.89063262939453,44.704532623291016,-44.89606857299805,-5.329249382019043,-9.992342948913574,-26.912710189819336,-18.900001525878906,-21.75,-12.300000190734863
0.97,74.2777099609375,45.010990142822266,-43.93838882446289,-13.856048583984375,-9.326186180114746,-43.83307647705078,-18.900001525878906,-21.75,-12.300000190734863
0.973,74.81401824951172,42.1379508972168,-43.01901626586914,-21.050535202026367,-16.25421142578125,-65.016845703125,-19.80000114440918,-21.900001525878906,-11.700000762939453
0.98,73.28172302246094,40.758888244628906,-41.754878997802734,-15.987748146057129,-31.842266082763672,-79.40581512451172,-21.30000114440918,-23.100000381469727,-11.700000762939453
0.99,72.89865112304688,39.11167907714844,-39.533058166503906,-28.911178588867188,-39.16998291015625,-95.12710571289062,-18.900001525878906,-21.75,-13.050000190734863
1.0,70.0256118774414,39.37982940673828,-40.22258758544922,-39.16998291015625,-47.830013275146484,-122.70597076416016,-22.05000114440918,-23.55000114440918,-14.250000953674316
1.01,67.22918701171875,38.000770568847656,-39.91613006591797,-27.445634841918945,-66.882080078125,-129.10107421875,-22.05000114440918,-23.55000114440918,-14.250000953674316
1.03,62.785545349121094,40.22258758544922,-42.32948684692383,-21.45022964477539,-70.74578857421875,-142.4241943359375,-20.400001525878906,-18.30000114440918,-13.65000057220459
1.033,60.90849304199219,41.60165023803711,-42.865787506103516,0.0,-77.54058074951172,-162.40887451171875,-20.55000114440918,-19.650001525878906,-13.500000953674316
1.04,60.33388137817383,43.82346725463867,-43.05732345581055,13.323123931884766,-73.0107192993164,-163.74119567871094,-20.700000762939453,-19.80000114440918,-13.350000381469727
1.05,59.5294303894043,43.24885940551758,-41.83149337768555,36.905052185058594,-83.5359878540039,-170.26951599121094,-21.150001525878906,-18.75,-14.100000381469727
1.06,60.87018585205078,42.1379508972168,-42.52102279663086,51.693721771240234,-79.53904724121094,-183.32618713378906,-21.150001525878906,-18.75,-14.100000381469727
1.07,64.0113754272461,41.29519271850586,-40.069358825683594,61.552833557128906,-84.86830139160156,-193.05206298828125,-20.25,-18.450000762939453,-12.750000953674316
1.09,65.39043426513672,39.72459411621094,-38.34553527832031,72.61102294921875,-100.45635223388672,-182.39356994628906,-20.55000114440918,-17.400001525878906,-14.250000953674316
1.094,67.03765106201172,37.617698669433594,-37.19631576538086,56.22358322143555,-106.31852722167969,-192.3859100341797,-19.650001525878906,-17.55000114440918,-15.600000381469727
1.1,67.38241577148438,33.557132720947266,-34.284969329833984,43.83307647705078,-116.57733154296875,-187.05665588378906,-19.5,-17.400001525878906,-14.700000762939453
1.11,68.03363800048828,32.369606018066406,-34.93619155883789,24.51454734802246,-119.90811157226562,-178.39662170410156,-19.5,-17.400001525878906,-14.700000762939453
1.12,66.57795715332031,32.369606018066406,-36.08540725708008,12.124042510986328,-133.09800720214844,-181.99386596679688,-19.5,-17.400001525878906,-14.700000762939453
1.13,65.888427734375,30.68408966064453,-35.74064254760742,-9.059723854064941,-119.5084228515625,-180.3950958251953,-19.200000762939453,-16.350000381469727,-15.600000381469727
1.15,65.12228393554688,31.871612548828125,-36.69832229614258,-24.381317138671875,-119.37519073486328,-176.39816284179688,-20.55000114440918,-15.750000953674316,-16.80000114440918
1.153,65.3138198852539,32.9442138671875,-37.11970138549805,-36.905052185058594,-119.24195861816406,-175.59877014160156,-19.05000114440918,-15.750000953674316,-17.25
1.16,64.89244079589844,34.55311965942383,-36.66001510620117,-31.975496292114258,-122.9724349975586,-172.40121459960938,-18.30000114440918,-15.000000953674316,-15.750000953674316
1.17,66.38642120361328,36.16202163696289,-36.2003288269043,-29.577335357666016,-118.44257354736328,-170.13629150390625,-18.30000114440918,-15.000000953674316,-15.750000953674316
1.18,66.61626434326172,38.115692138671875,-35.12772750854492,-22.51607894897461,-123.2388916015625,-162.00918579101562,-19.5,-12.300000190734863,-19.80000114440918
1.19,67.26749420166016,37.27293395996094,-32.56114196777344,-17.32006072998047,-131.36599731445312,-154.6814727783203,-18.0,-12.750000953674316,-18.75
1.21,67.91871643066406,36.77493667602539,-33.212364196777344,-18.2526798248291,-124.30474090576172,-153.34915161132812,-17.400001525878906,-12.15000057220459,-18.450000762939453
1.213,67.26749420166016,37.502777099609375,-33.17405700683594,-14.522205352783203,-124.97090148925781,-149.21897888183594,-18.450000762939453,-11.700000762939453,-18.900001525878906
1.22,65.888427734375,34.55311965942383,-32.86759948730469,-15.055130004882812,-117.24349212646484,-140.5589599609375,-18.450000762939453,-11.700000762939453,-18.900001525878906
1.23,63.97306823730469,35.5874137878418,-31.565155029296875,-15.854516983032227,-111.38131713867188,-138.16079711914062,-18.0,-11.100000381469727,-20.55000114440918
1.24,63.398460388183594,35.702335357666016,-33.63374710083008,-8.526799201965332,-95.52679443359375,-142.69065856933594,-17.700000762939453,-9.75,-19.650001525878906
1.25,61.5980224609375,34.66804122924805,-33.40390396118164,7.9938740730285645,-93.52832794189453,-132.29861450195312,-16.650001525878906,-9.75,-19.650001525878906
1.27,59.68265914916992,34.74465560913086,-32.10145568847656,22.782541275024414,-81.13782501220703,-126.30321502685547,-16.80000114440918,-9.600000381469727,-21.30000114440918
1.273,59.49112319946289,34.591426849365234,-31.29700469970703,41.83460998535156,-65.28330993652344,-125.10413360595703,-16.80000114440918,-11.100000381469727,-21.30000114440918
1.28,58.38021469116211,31.90991973876953,-31.182083129882812,42.101070404052734,-60.75344467163086,-120.4410400390625,-16.80000114440918,-11.100000381469727,-21.30000114440918
1.29,58.61005783081055,30.875625610351562,-31.143775939941406,61.01990509033203,-59.55436325073242,-110.848388671875,-15.750000953674316,-8.100000381469727,-21.30000114440918
1.3,59.337894439697266,29.419950485229492,-30.224401473999023,65.81623077392578,-58.355281829833984,-90.73047637939453,-16.5,-9.15000057220459,-20.100000381469727
1.31,57.53745651245117,26.623523712158203,-31.29700469970703,66.34915924072266,-50.36140823364258,-100.45635223388672,-15.750000953674316,-8.850000381469727,-22.350000381469727
1.33,58.61005783081055,26.891674041748047,-32.063148498535156,75.67534637451172,-52.626338958740234,-73.27718353271484,-15.15000057220459,-9.0,-21.150001525878906
1.334,58.839900970458984,28.155811309814453,-32.9442138671875,66.61561584472656,-28.24502182006836,-57.55589294433594,-15.15000057220459,-9.0,-21.150001525878906
1.34,63.896453857421875,31.258697509765625,-32.44622039794922,73.27718353271484,-25.447166442871094,-30.776416778564453,-15.15000057220459,-7.500000476837158,-21.450000762939453
1.35,67.88040924072266,31.067161560058594,-31.756690979003906,65.016845703125,-16.25421142578125,-12.124042510986328,-15.000000953674316,-8.850000381469727,-23.100000381469727
1.36,69.3743896484375,25.435998916625977,-30.91393280029297,64.21745300292969,-10.125574111938477,11.457886695861816,-15.000000953674316,-8.850000381469727,-22.350000381469727
1.37,68.7997817993164,22.2948055267334,-30.4925537109375,49.02909469604492,9.459418296813965,10.525267601013184,-14.40000057220459,-9.75,-22.200000762939453
1.389,62.90046691894531,22.60126495361328,-31.143775939941406,47.830013275146484,23.04900360107422,27.71209716796875,-14.40000057220459,-9.75,-22.200000762939453
1.393,58.87820816040039,24.018630981445312,-29.305028915405273,47.0306282043457,30.90964698791504,37.4379768371582,-15.15000057220459,-9.75,-21.450000762939453
1.4,59.759273529052734,21.98834800720215,-29.34333610534668,50.89433288574219,28.24502182006836,50.89433288574219,-15.15000057220459,-10.950000762939453,-22.200000762939453
1.41,61.5980224609375,19.651607513427734,-30.415939331054688,41.434913635253906,35.57273864746094,59.55436325073242,-15.15000057220459,-10.950000762939453,-20.700000762939453
1.42,63.398460388183594,19.268535614013672,-31.90991973876953,42.500762939453125,39.9693717956543,63.684532165527344,-15.300000190734863,-11.100000381469727,-21.30000114440918
1.43,65.04566955566406,20.456058502197266,-34.05512619018555,44.89892578125,40.502296447753906,82.20367431640625,-15.90000057220459,-11.40000057220459,-22.950000762939453
1.45,65.08397674560547,19.07699966430664,-35.05111312866211,37.304744720458984,48.8958625793457,85.80091857910156,-15.90000057220459,-11.40000057220459,-22.950000762939453
1.453,67.34410858154297,19.958065032958984,-35.66402816772461,40.23583221435547,55.15773391723633,95.26033782958984,-16.05000114440918,-12.300000190734863,-22.05000114440918
1.46,69.25946807861328,18.579004287719727,-31.565155029296875,46.497703552246094,46.63093185424805,108.71669006347656,-13.500000953674316,-10.800000190734863,-22.80000114440918
1.47,71.8643569946289,17.276559829711914,-34.43819808959961,48.8958625793457,43.43338394165039,109.64930725097656,-15.15000057220459,-11.700000762939453,-22.200000762939453
1.48,72.01758575439453,16.66364288330078,-31.41192626953125,40.76875686645508,52.75957107543945,114.44563293457031,-15.300000190734863,-13.500000953674316,-21.30000114440918
1.49,72.13250732421875,17.046716690063477,-33.71036148071289,33.57427215576172,54.75803756713867,113.64624786376953,-15.300000190734863,-13.500000953674316,-21.30000114440918
1.51,72.43896484375,15.820884704589844,-32.676063537597656,17.719755172729492,49.56201934814453,109.78253936767578,-16.950000762939453,-12.450000762939453,-21.450000762939453
1.514,69.68084716796875,15.207969665527344,-31.986534118652344,9.326186180114746,54.35834503173828,116.17764282226562,-14.550000190734863,-13.500000953674316,-21.450000762939453
1.52,69.3360824584961,12.986149787902832,-30.645782470703125,-3.3307809829711914,50.4946403503418,126.83613586425781,-14.550000190734863,-13.500000953674316,-20.850000381469727
1.53,67.65056610107422,12.947842597961426,-30.339323043823242,-6.794793128967285,45.96477508544922,126.16998291015625,-17.25,-13.050000190734863,-21.30000114440918
1.54,66.61626434326172,12.986149787902832,-30.415939331054688,-19.85145378112793,49.96171569824219,124.70443725585938,-17.25,-13.050000190734863,-21.30000114440918
1.55,65.65858459472656,12.986149787902832,-29.22841453552246,-29.177640914916992,52.3598747253418,119.64165496826172,-17.25,-13.050000190734863,-21.30000114440918
1.569,65.54366302490234,12.679692268371582,-29.917943954467773,-35.972434997558594,46.231239318847656,131.63246154785156,-16.5,-13.500000953674316,-21.600000381469727
1.573,65.77350616455078,13.713987350463867,-29.4582576751709,-49.02909469604492,50.62786865234375,121.50688934326172,-16.05000114440918,-15.450000762939453,-19.80000114440918
1.581,66.07996368408203,12.679692268371582,-28.347347259521484,-46.497703552246094,53.69218826293945,124.03828430175781,-16.05000114440918,-15.450000762939453,-19.80000114440918
1.59,67.30580139160156,13.943830490112305,-28.232425689697266,-45.16539001464844,51.160797119140625,114.84532928466797,-17.400001525878906,-16.350000381469727,-21.150001525878906
1.6,66.9227294921875,14.863204002380371,-29.190107345581055,-39.70290756225586,52.75957107543945,135.22970581054688,-17.400001525878906,-16.350000381469727,-21.150001525878906
1.61,67.91871643066406,14.901511192321777,-29.419950485229492,-43.69984436035156,56.22358322143555,127.23583221435547,-15.90000057220459,-16.350000381469727,-19.200000762939453
1.63,69.10623931884766,14.441824913024902,-28.040889739990234,-49.69525146484375,61.68606185913086,117.9096450805664,-16.80000114440918,-15.450000762939453,-20.100000381469727
1.634,71.40467071533203,14.633360862731934,-28.73042106628418,-56.356815338134766,67.28177642822266,125.23736572265625,-17.25,-16.5,-20.850000381469727
1.64,73.6264877319336,16.970102310180664,-27.27474594116211,-46.897396087646484,60.35375213623047,128.3016815185547,-17.25,-16.5,-20.850000381469727
1.65,75.08216857910156,15.476119995117188,-27.121517181396484,-60.08728790283203,70.3460922241211,125.90351867675781,-17.25,-16.5,-20.850000381469727
1.66,74.2394027709961,15.361198425292969,-28.002582550048828,-54.22511291503906,70.61255645751953,124.43797302246094,-17.700000762939453,-17.850000381469727,-20.400001525878906
1.67,72.17081451416016,14.250288963317871,-28.309040069580078,-55.4241943359375,70.07962799072266,125.10413360595703,-17.700000762939453,-16.350000381469727,-21.450000762939453
1.689,70.52360534667969,13.79060173034668,-29.22841453552246,-58.08882141113281,74.60948944091797,117.37671661376953,-16.5,-16.950000762939453,-19.80000114440918
1.693,69.9873046875,13.675680160522461,-30.952239990234375,-65.016845703125,81.00459289550781,119.5084228515625,-17.55000114440918,-16.950000762939453,-19.80000114440918
1.7,68.07194519042969,17.00840950012207,-31.22039031982422,-62.8851432800293,86.20060729980469,117.77641296386719,-17.55000114440918,-16.950000762939453,-19.80000114440918
1.71,66.07996368408203,17.73624610900879,-32.13976287841797,-61.552833557128906,89.7978515625,119.5084228515625,-17.55000114440918,-16.950000762939453,-19.80000114440918
1.72,66.57795715332031,17.468095779418945,-32.063148498535156,-61.68606185913086,104.05359649658203,121.10719299316406,-17.400001525878906,-17.850000381469727,-18.150001525878906
1.73,64.50936889648438,18.272546768188477,-32.40791320800781,-57.15620040893555,108.983154296875,115.91117858886719,-19.5,-17.700000762939453,-19.5
1.749,67.42072296142578,20.30282974243164,-31.450233459472656,-40.102603912353516,110.04900360107422,123.50535583496094,-17.55000114440918,-16.200000762939453,-19.05000114440918
1.753,67.11426544189453,21.911733627319336,-31.680076599121094,-16.78713607788086,106.31852722167969,131.0995330810547,-18.150001525878906,-18.30000114440918,-18.900001525878906
1.76,65.50535583496094,20.915746688842773,-30.837318420410156,-24.64777946472168,116.44409942626953,121.10719299316406,-18.150001525878906,-18.30000114440918,-18.900001525878906
1.77,66.9227294921875,20.532672882080078,-29.64979362487793,-3.3307809829711914,110.44869232177734,128.16845703125,-17.700000762939453,-19.05000114440918,-18.900001525878906
1.78,66.99934387207031,20.992361068725586,-31.7183837890625,5.8621745109558105,108.84992218017578,124.03828430175781,-19.650001525878906,-17.55000114440918,-19.200000762939453
1.79,67.68887329101562,21.950040817260742,-32.369606018066406,-3.7304747104644775,109.38284301757812,121.50688934326172,-19.650001525878906,-19.5,-18.150001525878906
1.81,67.30580139160156,21.528661727905273,-35.28095626831055,4.130168437957764,114.04593658447266,108.050537109375,-19.650001525878906,-19.5,-18.150001525878906
1.814,67.34410858154297,20.034679412841797,-35.395877838134766,13.456355094909668,109.64930725097656,123.37212371826172,-19.650001525878906,-19.5,-18.150001525878906
1.82,67.42072296142578,17.62132453918457,-34.51481246948242,-0.6661561727523804,120.04134368896484,111.5145492553711,-21.0,-20.400001525878906,-18.30000114440918
1.83,68.87639617919922,17.00840950012207,-34.897884368896484,-1.8652373552322388,125.7702865600586,104.05359649658203,-21.450000762939453,-19.80000114440918,-16.350000381469727
1.841,68.87639617919922,18.004396438598633,-35.97048568725586,0.1332312375307083,121.90658569335938,106.05206298828125,-19.950000762939453,-19.80000114440918,-16.350000381469727
1.85,68.1485595703125,17.851167678833008,-34.70634841918945,-8.793261528015137,127.76875305175781,102.45481872558594,-21.150001525878906,-21.450000762939453,-15.600000381469727
1.869,69.79576873779297,16.778566360473633,-35.16603469848633,-10.92496109008789,120.84072875976562,100.72281646728516,-21.150001525878906,-21.450000762939453,-15.600000381469727
1.873,72.51557922363281,17.697938919067383,-35.510799407958984,-3.197549819946289,105.91883087158203,101.2557373046875,-21.150001525878906,-22.200000762939453,-16.650001525878906
1.88,73.39664459228516,17.659631729125977,-35.12772750854492,-1.4655436277389526,101.12251281738281,100.18988800048828,-20.55000114440918,-21.150001525878906,-15.450000762939453
1.89,73.54987335205078,19.07699966430664,-35.6257209777832,-13.189892768859863,100.85604858398438,89.93108367919922,-22.05000114440918,-21.900001525878906,-15.450000762939453
1.9,75.08216857910156,15.207969665527344,-34.43819808959961,-17.053598403930664,83.80245208740234,96.05972290039062,-21.450000762939453,-23.700000762939453,-15.15000057220459
1.91,74.00955963134766,14.135366439819336,-35.395877838134766,-29.044410705566406,76.87442779541016,93.39509582519531,-21.450000762939453,-23.700000762939453,-15.15000057220459
1.93,71.8260498046875,13.024456977844238,-35.510799407958984,-43.43338394165039,69.4134750366211,87.53292083740234,-21.75,-21.600000381469727,-15.450000762939453
1.934,70.94498443603516,13.982137680053711,-36.96647262573242,-50.36140823364258,79.2725830078125,79.40581512451172,-22.950000762939453,-23.700000762939453,-14.100000381469727
1.94,70.52360534667969,15.705963134765625,-37.656005859375,-50.76110076904297,78.3399658203125,81.13782501220703,-22.650001525878906,-23.25,-13.65000057220459
1.95,69.83407592773438,16.931795120239258,-36.27694320678711,-46.09800720214844,71.01225280761719,63.551300048828125,-22.80000114440918,-23.100000381469727,-13.950000762939453
1.96,69.83407592773438,16.66364288330078,-35.85556411743164,-44.49923324584961,80.47166442871094,62.8851432800293,-23.400001525878906,-22.950000762939453,-13.050000190734863
1.97,69.71915435791016,16.510414123535156,-36.8132438659668,-38.90352249145508,75.67534637451172,51.4272575378418,-23.400001525878906,-22.950000762939453,-13.050000190734863
1.989,70.44699096679688,16.931795120239258,-36.16202163696289,-24.51454734802246,65.949462890625,56.62327575683594,-21.75,-23.850000381469727,-14.700000762939453
1.993,73.7031021118164,17.161638259887695,-36.736629486083984,-15.321592330932617,51.693721771240234,54.75803756713867,-22.05000114440918,-23.55000114440918,-15.000000953674316
2.0,74.16278839111328,17.889474868774414,-35.66402816772461,-21.983154296875,61.01990509033203,51.4272575378418,-22.05000114440918,-22.350000381469727,-12.450000762939453
2.01,74.6607894897461,15.399505615234375,-36.2386360168457,-7.860642910003662,47.297088623046875,53.29249572753906,-22.200000762939453,-24.150001525878906,-13.65000057220459
2.02,75.61846923828125,16.203956604003906,-36.35355758666992,-4.396630764007568,42.76722717285156,67.14854431152344,-22.200000762939453,-24.150001525878906,-13.65000057220459
2.03,74.04786682128906,16.395492553710938,-36.50678634643555,-2.6646246910095215,45.16539001464844,50.36140823364258,-22.650001525878906,-23.700000762939453,-12.600000381469727
2.05,74.62248229980469,15.744270324707031,-37.19631576538086,-3.86370587348938,43.03369140625,48.362937927246094,-22.5,-23.850000381469727,-14.700000762939453
2.053,75.9632339477539,15.820884704589844,-35.89387130737305,3.3307809829711914,37.4379768371582,51.29402542114258,-23.55000114440918,-24.750001907348633,-13.200000762939453
2.06,76.537841796875,16.81687355041504,-38.07738494873047,2.2649309635162354,39.16998291015625,51.82695007324219,-22.80000114440918,-24.750001907348633,-14.700000762939453
2.07,76.84429931640625,17.391481399536133,-38.115692138671875,-5.196018218994141,46.764163970947266,44.36600112915039,-22.80000114440918,-24.750001907348633,-14.700000762939453
2.08,77.03583526611328,17.276559829711914,-41.5250358581543,-1.8652373552322388,44.23276901245117,39.569679260253906,-22.80000114440918,-24.750001907348633,-14.700000762939453
2.09,76.99752807617188,19.345149993896484,-39.456443786621094,-7.860642910003662,40.36906433105469,52.89280319213867,-22.950000762939453,-24.150001525878906,-13.050000190734863
2.11,77.8019790649414,21.337125778198242,-35.35757064819336,-19.31852912902832,49.02909469604492,34.50688934326172,-22.80000114440918,-23.100000381469727,-12.450000762939453
2.114,82.97345733642578,19.536685943603516,-36.2386360168457,-5.8621745109558105,40.635528564453125,48.76263427734375,-23.25,-25.05000114440918,-13.200000762939453
2.12,86.34449005126953,23.52063751220703,-39.60967254638672,-6.128636837005615,37.83767318725586,41.83460998535156,-23.400001525878906,-23.25,-12.300000190734863
2.13,87.14894104003906,23.44402313232422,-40.7205810546875,6.261868000030518,33.84073257446289,43.96630859375,-23.400001525878906,-23.25,-12.300000190734863
2.14,89.40906524658203,24.78477668762207,-42.40610122680664,5.8621745109558105,35.17304611206055,26.379785537719727,-22.200000762939453,-24.150001525878906,-12.300000190734863
2.15,88.6429214477539,27.811046600341797,-37.88584899902344,17.719755172729492,13.989279747009277,41.168453216552734,-23.25,-25.80000114440918,-12.750000953674316
2.169,89.37075805664062,25.972299575805664,-30.4925537109375,6.395099639892578,-10.525267601013184,38.50382614135742,-22.5,-25.05000114440918,-13.200000762939453
2.173,86.42110443115234,23.252487182617188,-31.143775939941406,-25.580398559570312,-23.581928253173828,21.316997528076172,-23.25,-23.850000381469727,-13.200000762939453
2.18,79.79395294189453,18.310853958129883,-29.917943954467773,-41.701377868652344,-34.64012145996094,6.128636837005615,-23.25,-23.850000381469727,-13.200000762939453
2.19,75.3503189086914,17.391481399536133,-29.34333610534668,-53.29249572753906,-48.49617004394531,3.86370587348938,-22.05000114440918,-23.850000381469727,-13.200000762939453
2.2,71.05990600585938,21.413740158081055,-33.7486686706543,-59.287899017333984,-40.36906433105469,-21.716691970825195,-22.80000114440918,-23.55000114440918,-13.950000762939453
2.21,65.888427734375,24.401702880859375,-36.928165435791016,-51.560489654541016,-34.64012145996094,-41.701377868652344,-22.950000762939453,-24.900001525878906,-14.100000381469727
2.23,62.70893096923828,28.347347259521484,-41.86980056762695,-13.323123931884766,-29.444103240966797,-56.756507873535156,-22.80000114440918,-24.30000114440918,-14.250000953674316
2.233,61.78955841064453,33.672054290771484,-44.12992477416992,44.89892578125,-20.117916107177734,-71.94486999511719,-22.650001525878906,-23.25,-12.600000381469727
2.24,64.66259765625,35.31926345825195,-37.311241149902344,62.618682861328125,-15.45482349395752,-86.46707153320312,-22.650001525878906,-23.25,-12.600000381469727
2.25,67.07595825195312,34.70634841918945,-30.032865524291992,77.54058074951172,-29.84379768371582,-104.98621368408203,-23.400001525878906,-23.700000762939453,-13.050000190734863
2.26,70.21714782714844,31.028854370117188,-26.355371475219727,96.59264373779297,-55.95711898803711,-108.71669006347656,-23.25,-23.100000381469727,-13.200000762939453
2.27,71.213134765625,27.58120346069336,-22.90772247314453,100.9892807006836,-67.41500854492188,-124.30474090576172,-23.55000114440918,-23.55000114440918,-13.950000762939453
2.289,70.25545501708984,30.224401473999023,-25.972299575805664,113.77947998046875,-80.8713607788086,-147.22052001953125,-22.80000114440918,-25.05000114440918,-15.450000762939453
2.293,72.32404327392578,35.702335357666016,-28.040889739990234,144.82235717773438,-95.26033782958984,-149.08575439453125,-22.80000114440918,-25.05000114440918,-15.450000762939453
2.3,77.57213592529297,37.00477981567383,-28.8453426361084,160.41041564941406,-98.4578857421875,-150.55130004882812,-22.950000762939453,-23.25,-14.850000381469727
2.31,78.4148941040039,36.58340072631836,-29.917943954467773,170.53598022460938,-95.9264907836914,-164.94027709960938,-22.200000762939453,-22.950000762939453,-14.850000381469727
2.32,83.35652923583984,37.809234619140625,-27.657817840576172,185.72434997558594,-103.65390014648438,-186.5237274169922,-21.900001525878906,-22.200000762939453,-15.600000381469727
2.33,89.2558364868164,34.70634841918945,-26.815059661865234,179.0627899169922,-115.64471435546875,-181.72740173339844,-21.450000762939453,-22.950000762939453,-15.15000057220459
2.35,92.1288833618164,32.40791320800781,-26.508602142333984,161.87594604492188,-120.04134368896484,-173.86676025390625,-21.450000762939453,-22.950000762939453,-15.15000057220459
2.353,94.5039291381836,28.92195701599121,-22.792800903320312,124.70443725585938,-132.0321502685547,-191.0535888671875,-23.700000762939453,-22.200000762939453,-16.350000381469727
2.36,94.19747161865234,26.31706428527832,-21.56696891784668,105.5191421508789,-144.95558166503906,-201.17916870117188,-21.900001525878906,-19.5,-15.90000057220459
2.37,95.07853698730469,26.700138092041016,-19.99637222290039,78.3399658203125,-151.35069274902344,-210.77182006835938,-22.650001525878906,-21.0,-16.350000381469727
2.38,94.35070037841797,23.903709411621094,-19.919757843017578,42.76722717285156,-155.48085021972656,-233.82081604003906,-20.700000762939453,-19.80000114440918,-17.100000381469727
2.39,90.17520904541016,24.05693817138672,-20.95405387878418,33.70750427246094,-172.80091857910156,-257.0030517578125,-22.80000114440918,-19.200000762939453,-17.55000114440918
2.41,87.26386260986328,24.210166931152344,-21.87342643737793,15.721285820007324,-160.94332885742188,-261.9326171875,-22.80000114440918,-19.200000762939453,-17.55000114440918
2.413,85.80818939208984,24.05693817138672,-23.252487182617188,9.326186180114746,-177.46400451660156,-284.04901123046875,-21.450000762939453,-15.15000057220459,-19.950000762939453
2.42,85.42511749267578,24.746469497680664,-22.677879333496094,5.595712184906006,-164.4073486328125,-288.1791687011719,-21.450000762939453,-15.15000057220459,-19.950000762939453
2.43,85.84649658203125,25.857378005981445,-23.252487182617188,4.929555892944336,-172.00152587890625,-290.0444030761719,-21.30000114440918,-13.800000190734863,-19.80000114440918
2.44,86.57433319091797,26.585216522216797,-22.90772247314453,-1.1990811824798584,-176.9310760498047,-287.51300048828125,-19.200000762939453,-15.15000057220459,-20.700000762939453
2.45,86.95740509033203,24.938005447387695,-21.37543296813965,-0.39969372749328613,-166.00611877441406,-291.6431884765625,-19.200000762939453,-15.15000057220459,-20.700000762939453
2.469,87.9533920288086,24.018630981445312,-22.026655197143555,-1.9984685182571411,-179.19601440429688,-282.84991455078125,-19.80000114440918,-12.750000953674316,-22.05000114440918
2.473,88.5663070678711,23.63555908203125,-22.60126495361328,4.396630764007568,-180.66156005859375,-284.98162841796875,-18.0,-11.550000190734863,-23.55000114440918
2.48,88.45138549804688,24.823083877563477,-23.21417999267578,2.531393527984619,-171.20213317871094,-285.781005859375,-18.0,-11.550000190734863,-23.55000114440918
2.49,88.5663070678711,23.21417999267578,-22.141576766967773,10.525267601013184,-174.53292846679688,-282.1837463378906,-17.700000762939453,-10.200000762939453,-24.450000762939453
2.5,86.88079071044922,22.333112716674805,-21.37543296813965,5.728943347930908,-167.2052001953125,-278.9862060546875,-17.700000762939453,-10.200000762939453,-24.450000762939453
2.51,85.69326782226562,20.800825119018555,-21.37543296813965,6.661561965942383,-169.73660278320312,-263.66461181640625,-17.700000762939453,-10.200000762939453,-24.450000762939453
2.53,82.93515014648438,18.732234954833984,-21.911733627319336,-9.192955017089844,-157.74578857421875,-263.1316833496094,-15.000000953674316,-9.600000381469727,-24.900001525878906
2.533,79.94718170166016,16.81687355041504,-22.103269577026367,-21.45022964477539,-151.084228515625,-255.9372100830078,-14.700000762939453,-9.0,-26.250001907348633
2.54,77.1124496459961,15.591041564941406,-21.490354537963867,-23.315465927124023,-152.28330993652344,-245.545166015625,-14.700000762939453,-9.0,-26.250001907348633
2.55,73.58818054199219,15.85919189453125,-22.103269577026367,-39.569679260253906,-142.29095458984375,-254.0719757080078,-12.750000953674316,-4.950000286102295,-26.850000381469727
2.56,70.14053344726562,15.591041564941406,-21.14558982849121,-39.9693717956543,-130.30015563964844,-248.7427215576172,-12.750000953674316,-4.950000286102295,-26.850000381469727
2.57,67.15257263183594,16.548721313476562,-22.48634147644043,-30.90964698791504,-129.36753845214844,-225.16079711914062,-11.25,-4.200000286102295,-28.650001525878906
2.58,66.15657806396484,18.34916114807129,-21.75850486755371,-33.17457962036133,-122.43950653076172,-223.29554748535156,-9.90000057220459,-4.050000190734863,-29.250001907348633
2.594,64.35614013671875,19.421764373779297,-22.90772247314453,-25.313934326171875,-108.58345794677734,-218.36599731445312,-9.15000057220459,-4.350000381469727,-31.80000114440918
2.601,61.82786560058594,21.835119247436523,-22.48634147644043,-25.980091094970703,-94.19448852539062,-189.45481872558594,-9.15000057220459,-4.350000381469727,-31.80000114440918
2.61,61.67463684082031,21.98834800720215,-23.44402313232422,-5.329249382019043,-93.39509582519531,-188.52220153808594,-9.15000057220459,-4.350000381469727,-31.80000114440918
2.62,58.80159378051758,19.881450653076172,-24.746469497680664,-2.398162364959717,-71.94486999511719,-188.78866577148438,-5.400000095367432,-0.9000000357627869,-32.10000228881836
2.63,55.507171630859375,18.617311477661133,-23.597251892089844,11.591117858886719,-72.87748718261719,-176.53138732910156,-4.650000095367432,-2.8500001430511475,-33.900001525878906
2.649,52.55751419067383,19.919757843017578,-24.478317260742188,22.116384506225586,-70.47932434082031,-166.53904724121094,-3.9000000953674316,-3.1500000953674316,-35.10000228881836
2.653,50.48892593383789,20.379444122314453,-26.470293045043945,38.50382614135742,-62.8851432800293,-152.016845703125,-3.750000238418579,-2.700000047683716,-34.95000076293945
2.66,50.029239654541016,20.570980072021484,-26.470293045043945,37.57120895385742,-53.159263610839844,-139.6263427734375,-3.750000238418579,-2.700000047683716,-34.95000076293945
2.67,47.38603973388672,20.034679412841797,-25.742456436157227,41.568145751953125,-46.897396087646484,-117.64318084716797,-3.0,-3.0,-36.75
2.68,49.26309585571289,20.915746688842773,-22.639572143554688,42.500762939453125,-52.89280319213867,-100.05665588378906,-1.6500000953674316,-2.1000001430511475,-39.150001525878906
2.69,51.982906341552734,20.76251792907715,-24.286781311035156,34.373661041259766,-45.43185043334961,-82.6033706665039,-0.75,-3.750000238418579,-39.30000305175781
2.71,51.676448822021484,20.379444122314453,-26.2021427154541,35.57273864746094,-37.03828430175781,-78.07350158691406,-2.25,-3.450000047683716,-41.10000228881836
2.714,49.07155990600586,20.226215362548828,-31.794998168945312,60.48698043823242,-15.721285820007324,-43.43338394165039,-2.25,-3.450000047683716,-41.10000228881836
2.72,50.10585403442383,22.409727096557617,-28.61549949645996,57.55589294433594,-9.192955017089844,-33.17457962036133,-0.30000001192092896,-4.5,-42.60000228881836
2.73,51.48491287231445,21.222204208374023,-29.994558334350586,56.356815338134766,-7.327718257904053,-5.196018218994141,0.0,-6.150000095367432,-43.650001525878906
2.74,52.289363861083984,20.149600982666016,-29.95625114440918,63.950992584228516,3.0643184185028076,17.586523056030273,-1.0500000715255737,-6.900000095367432,-44.400001525878906
2.75,52.55751419067383,21.0689754486084,-29.688100814819336,51.29402542114258,11.591117858886719,38.37059783935547,1.5,-7.650000095367432,-45.900001525878906
2.769,55.54547882080078,20.95405387878418,-29.34333610534668,36.63859176635742,39.9693717956543,58.754974365234375,1.5,-7.650000095367432,-45.900001525878906
2.773,58.724979400634766,20.992361068725586,-28.61549949645996,27.17917251586914,41.83460998535156,90.06431579589844,-0.30000001192092896,-10.050000190734863,-46.650001525878906
2.78,67.30580139160156,19.07699966430664,-27.849353790283203,17.852985382080078,49.69525146484375,111.91423797607422,-1.6500000953674316,-11.700000762939453,-47.25
2.79,73.43495178222656,20.724210739135742,-28.73042106628418,5.462480545043945,68.08116149902344,123.10566711425781,0.15000000596046448,-11.700000762939453,-48.0
2.8,80.48348236083984,23.980323791503906,-32.178070068359375,-3.4640121459960938,77.94027709960938,156.679931640625,-2.25,-12.300000190734863,-48.900001525878906
2.81,87.22555541992188,24.478317260742188,-36.54509353637695,0.2664624750614166,81.00459289550781,181.99386596679688,-1.9500000476837158,-12.90000057220459,-48.750003814697266
2.83,93.12487030029297,25.972299575805664,-41.180267333984375,-6.794793128967285,89.5313949584961,204.2434844970703,-1.9500000476837158,-12.90000057220459,-48.750003814697266
2.833,99.59879302978516,29.34333610534668,-44.05331039428711,-3.4640121459960938,100.9892807006836,245.0122528076172,-1.8000000715255737,-15.000000953674316,-48.45000076293945
2.84,103.23797607421875,33.097442626953125,-46.390052795410156,-6.395099639892578,119.7748794555664,252.07350158691406,-4.650000095367432,-15.15000057220459,-48.30000305175781
2.85,103.39120483398438,32.905906677246094,-48.535255432128906,14.788667678833008,124.03828430175781,282.84991455078125,-4.050000190734863,-15.750000953674316,-49.650001525878906
2.86,101.59076690673828,31.680076599121094,-44.24484634399414,14.388973236083984,143.62327575683594,290.1776428222656,-6.0,-14.250000953674316,-49.95000076293945
2.87,104.96179962158203,28.155811309814453,-45.700523376464844,29.7105655670166,165.4731903076172,297.2388916015625,-6.0,-14.250000953674316,-49.95000076293945
2.88,105.4214859008789,27.313053131103516,-39.647979736328125,30.90964698791504,162.1424102783203,316.0245056152344,-6.750000476837158,-16.950000762939453,-49.20000076293945
2.896,107.6816177368164,25.857378005981445,-38.57537841796875,31.975496292114258,176.6646270751953,313.6263427734375,-6.450000286102295,-16.80000114440918,-49.05000305175781
2.901,108.48606872558594,25.474306106567383,-38.46045684814453,27.31240463256836,168.40428161621094,308.4303283691406,-8.25,-18.450000762939453,-48.150001525878906
2.91,105.07672119140625,24.095245361328125,-38.728607177734375,16.12097930908203,172.6676788330078,316.29095458984375,-7.500000476837158,-18.900001525878906,-48.45000076293945
2.92,100.28832244873047,18.847156524658203,-37.15800857543945,13.722817420959473,160.94332885742188,313.35986328125,-7.500000476837158,-18.900001525878906,-48.45000076293945
2.93,94.27408599853516,16.740259170532227,-35.702335357666016,-18.519142150878906,162.94180297851562,278.4532775878906,-7.500000476837158,-18.900001525878906,-48.45000076293945
2.949,88.75784301757812,14.403517723083496,-32.25468444824219,-44.76569747924805,159.8774871826172,292.5758056640625,-8.700000762939453,-19.05000114440918,-46.80000305175781
2.953,81.93915557861328,12.29662036895752,-32.063148498535156,-79.0061264038086,156.28024291992188,274.3231201171875,-8.700000762939453,-19.05000114440918,-46.80000305175781
2.96,80.10041046142578,11.185709953308105,-30.186094284057617,-92.3292465209961,146.9540557861328,274.9892883300781,-9.15000057220459,-17.55000114440918,-46.5
2.97,79.25765228271484,12.143390655517578,-30.91393280029297,-120.57427215576172,143.62327575683594,259.8009033203125,-9.75,-17.400001525878906,-46.650001525878906
2.98,81.36454772949219,13.713987350463867,-31.028854370117188,-121.90658569335938,131.89892578125,255.67074584960938,-9.75,-17.400001525878906,-46.650001525878906
2.99,82.89684295654297,16.548721313476562,-32.21637725830078,-112.84685516357422,130.69984436035156,246.3445587158203,-10.200000762939453,-16.80000114440918,-43.5
3.01,85.5017318725586,19.536685943603516,-31.90991973876953,-101.78866577148438,130.96630859375,241.9479217529297,-10.65000057220459,-16.350000381469727,-43.95000076293945
3.014,88.18323516845703,23.060951232910156,-33.17405700683594,-64.61714935302734,116.17764282226562,226.49310302734375,-12.0,-15.750000953674316,-41.85000228881836
3.02,90.9030532836914,25.129541397094727,-32.982521057128906,-54.22511291503906,114.97856140136719,231.1562042236328,-10.800000190734863,-15.750000953674316,-43.05000305175781
3.03,91.13289642333984,25.933992385864258,-32.02484130859375,-30.110260009765625,115.11178588867188,220.36447143554688,-10.800000190734863,-15.750000953674316,-43.05000305175781
3.04,89.67721557617188,23.903709411621094,-30.454246520996094,-24.381317138671875,117.37671661376953,213.8361358642578,-11.25,-15.000000953674316,-40.05000305175781
3.05,87.99169921875,20.95405387878418,-30.875625610351562,-20.117916107177734,109.78253936767578,217.03369140625,-12.15000057220459,-14.850000381469727,-38.400001525878906
3.069,85.96141815185547,18.464082717895508,-29.15180015563965,-27.578866958618164,120.97396087646484,200.646240234375,-13.200000762939453,-15.15000057220459,-38.400001525878906
3.073,83.6629867553711,16.242263793945312,-28.653806686401367,-32.77488327026367,114.84532928466797,205.5758056640625,-12.750000953674316,-13.800000190734863,-37.80000305175781
3.08,80.59840393066406,17.1999454498291,-28.768728256225586,-49.16232681274414,122.83920288085938,185.19142150878906,-12.300000190734863,-14.550000190734863,-36.75
3.09,78.4148941040039,15.897499084472656,-31.067161560058594,-45.69831466674805,116.57733154296875,188.78866577148438,-12.300000190734863,-14.550000190734863,-36.75
3.1,75.3503189086914,15.131354331970215,-31.986534118652344,-61.68606185913086,128.3016815185547,166.2725830078125,-13.950000762939453,-16.350000381469727,-36.60000228881836
3.11,73.81802368164062,15.207969665527344,-32.369606018066406,-66.882080078125,120.17457580566406,161.47625732421875,-12.450000762939453,-15.600000381469727,-34.35000228881836
3.13,72.55388641357422,14.556746482849121,-28.768728256225586,-78.3399658203125,101.52220153808594,164.67381286621094,-15.450000762939453,-15.90000057220459,-35.400001525878906
3.134,68.68486022949219,13.062764167785645,-24.78477668762207,-109.11638641357422,83.40275573730469,163.6079559326172,-14.550000190734863,-17.400001525878906,-31.500001907348633
3.14,60.985107421875,9.806650161743164,-25.780763626098633,-128.16845703125,85.80091857910156,146.1546630859375,-14.550000190734863,-17.400001525878906,-31.500001907348633
3.15,56.2733154296875,9.232041358947754,-25.129541397094727,-150.95098876953125,67.14854431152344,140.42572021484375,-14.40000057220459,-16.80000114440918,-31.350000381469727
3.16,52.3659782409668,11.453861236572266,-25.51261329650879,-157.87901306152344,61.552833557128906,143.75650024414062,-14.550000190734863,-15.000000953674316,-31.200000762939453
3.17,48.11387634277344,11.377246856689453,-27.504589080810547,-165.07350158691406,63.151607513427734,129.36753845214844,-16.05000114440918,-15.750000953674316,-29.700000762939453
3.189,46.42835998535156,14.633360862731934,-26.815059661865234,-162.5421142578125,65.54976654052734,124.03828430175781,-15.750000953674316,-16.5,-30.150001525878906
3.193,45.164222717285156,16.35718536376953,-25.89568519592285,-146.28790283203125,52.89280319213867,126.5696792602539,-15.750000953674316,-16.5,-30.150001525878906
3.2,42.7891731262207,15.85919189453125,-25.014619827270508,-130.30015563964844,51.4272575378418,120.84072875976562,-15.750000953674316,-16.5,-30.150001525878906
3.21,42.1762580871582,17.50640296936035,-24.89969825744629,-127.10260009765625,53.69218826293945,105.38591003417969,-15.300000190734863,-14.550000190734863,-27.900001525878906
3.22,41.065345764160156,17.238252639770508,-23.75048065185547,-114.57886505126953,47.56355285644531,107.3843765258789,-16.200000762939453,-16.350000381469727,-27.750001907348633
3.23,41.180267333984375,17.8128604888916,-23.673866271972656,-94.72740936279297,39.83613967895508,116.44409942626953,-15.750000953674316,-16.950000762939453,-28.200000762939453
3.25,42.94240188598633,18.04270362854004,-22.984336853027344,-101.38896942138672,41.568145751953125,120.04134368896484,-16.650001525878906,-15.15000057220459,-28.05000114440918
3.253,46.96466064453125,17.8128604888916,-25.89568519592285,-87.9326171875,44.23276901245117,116.9770278930664,-15.750000953674316,-15.450000762939453,-29.400001525878906
3.26,51.1401481628418,17.851167678833008,-26.891674041748047,-71.81163787841797,36.10566711425781,118.44257354736328,-15.750000953674316,-15.450000762939453,-29.400001525878906
3.27,53.783348083496094,18.157625198364258,-25.28277015686035,-68.08116149902344,36.10566711425781,113.51301574707031,-15.750000953674316,-14.550000190734863,-26.850000381469727
3.28,55.392250061035156,17.085023880004883,-25.28277015686035,-73.14395141601562,40.23583221435547,107.91730499267578,-15.450000762939453,-16.80000114440918,-25.500001907348633
3.29,57.307613372802734,15.131354331970215,-25.167848587036133,-66.08269500732422,32.64165496826172,107.65084075927734,-16.80000114440918,-15.000000953674316,-26.100000381469727
3.31,57.99714279174805,14.250288963317871,-24.13355255126953,-71.81163787841797,41.434913635253906,105.25267791748047,-16.80000114440918,-15.000000953674316,-26.100000381469727
3.314,60.065731048583984,12.526463508605957,-26.048913955688477,-69.81317138671875,49.56201934814453,80.47166442871094,-17.55000114440918,-16.200000762939453,-27.150001525878906
3.32,64.50936889648438,14.135366439819336,-27.925968170166016,-72.47779083251953,45.43185043334961,83.93567657470703,-17.55000114440918,-16.200000762939453,-27.150001525878906
3.33,68.22517395019531,14.058752059936523,-27.15982437133789,-67.814697265625,33.97396469116211,77.00765228271484,-16.80000114440918,-16.200000762939453,-27.450000762939453
3.34,70.48529815673828,12.679692268371582,-29.917943954467773,-74.74272155761719,31.975496292114258,74.74272155761719,-17.25,-16.200000762939453,-27.450000762939453
3.35,72.43896484375,12.526463508605957,-28.07919692993164,-83.93567657470703,39.43644714355469,57.822357177734375,-18.0,-16.200000762939453,-26.850000381469727
3.369,72.05589294433594,13.407529830932617,-30.0711727142334,-73.0107192993164,38.37059783935547,63.018375396728516,-18.0,-16.200000762939453,-26.850000381469727
3.373,72.59219360351562,16.1656494140625,-31.373619079589844,-64.3506851196289,44.09954071044922,57.822357177734375,-16.950000762939453,-15.15000057220459,-26.55000114440918
3.38,70.5619125366211,20.149600982666016,-36.430171966552734,-57.02296829223633,56.22358322143555,34.906585693359375,-16.950000762939453,-15.15000057220459,-26.55000114440918
3.39,70.67683410644531,22.48634147644043,-34.82126998901367,-36.238895416259766,65.15007781982422,44.76569747924805,-16.650001525878906,-14.850000381469727,-25.80000114440918
3.4,76.00154113769531,23.099258422851562,-34.20835494995117,-1.7320060729980469,68.08116149902344,42.36753463745117,-16.80000114440918,-15.750000953674316,-27.450000762939453
3.41,78.87458038330078,21.6818904876709,-34.82126998901367,24.781009674072266,61.68606185913086,29.177640914916992,-16.80000114440918,-15.750000953674316,-27.450000762939453
3.43,81.97746276855469,18.4257755279541,-32.599449157714844,33.17457962036133,62.085758209228516,23.182235717773438,-17.55000114440918,-14.550000190734863,-26.850000381469727
3.433,85.65496063232422,15.974113464355469,-28.92195701599121,34.50688934326172,31.176109313964844,18.519142150878906,-17.700000762939453,-15.90000057220459,-27.30000114440918
3.44,88.6429214477539,11.070788383483887,-29.03687858581543,24.248085021972656,22.51607894897461,13.58958625793457,-19.05000114440918,-14.550000190734863,-28.200000762939453
3.45,88.5663070678711,9.691728591918945,-31.10546875,-3.9969370365142822,24.381317138671875,10.791729927062988,-19.05000114440918,-14.550000190734863,-28.200000762939453
3.46,88.37477111816406,10.994174003601074,-36.96647262573242,-17.186830520629883,24.781009674072266,5.329249382019043,-18.900001525878906,-12.90000057220459,-28.200000762939453
3.47,89.1792221069336,13.522451400756836,-41.98472213745117,-22.649311065673828,18.78560447692871,14.255742073059082,-20.25,-16.5,-30.450000762939453
3.489,93.20148468017578,18.4257755279541,-44.89606857299805,-35.439510345458984,29.977027893066406,7.594180583953857,-16.950000762939453,-14.850000381469727,-29.55000114440918
3.493,99.13910675048828,19.421764373779297,-46.35174560546875,-19.052066802978516,27.31240463256836,-5.595712184906006,-17.55000114440918,-13.500000953674316,-30.900001525878906
3.5,106.41748046875,20.95405387878418,-44.97268295288086,-1.9984685182571411,31.44257164001465,-20.784072875976562,-16.5,-13.800000190734863,-31.950000762939453
3.51,110.40142822265625,21.45204734802246,-47.38603973388672,13.323123931884766,21.84992218017578,-34.50688934326172,-16.5,-13.800000190734863,-31.950000762939453
3.52,113.81077575683594,23.13756561279297,-40.375816345214844,7.460949420928955,15.854516983032227,-54.091880798339844,-17.400001525878906,-13.200000762939453,-33.30000305175781
3.53,117.18180847167969,25.780763626098633,-35.89387130737305,4.130168437957764,-6.794793128967285,-64.48391723632812,-15.450000762939453,-14.100000381469727,-34.35000228881836
3.55,114.65353393554688,26.01060676574707,-34.24666213989258,8.793261528015137,-35.17304611206055,-66.08269500732422,-15.15000057220459,-13.200000762939453,-36.150001525878906
3.553,106.41748046875,19.99637222290039,-36.928165435791016,-1.3323123455047607,-33.97396469116211,-106.98468017578125,-14.250000953674316,-13.800000190734863,-39.30000305175781
3.56,94.27408599853516,19.07699966430664,-38.49876403808594,0.5329249501228333,-39.9693717956543,-126.16998291015625,-14.250000953674316,-13.800000190734863,-39.30000305175781
3.57,88.94937896728516,17.851167678833008,-37.57939147949219,17.32006072998047,-50.4946403503418,-151.2174530029297,-11.700000762939453,-14.40000057220459,-42.0
3.58,81.63269805908203,19.38345718383789,-38.49876403808594,19.85145378112793,-56.62327575683594,-164.14088439941406,-11.700000762939453,-15.600000381469727,-45.75
3.59,76.61445617675781,18.77054214477539,-38.99675750732422,21.45022964477539,-55.82388687133789,-193.3185272216797,-9.75,-15.750000953674316,-48.150001525878906
3.611,73.7031021118164,15.935806274414062,-35.93217849731445,16.387441635131836,-76.20826721191406,-207.84072875976562,-8.25,-17.700000762939453,-49.20000076293945
3.615,76.95922088623047,14.824896812438965,-31.641769409179688,-11.457886695861816,-87.53292083740234,-234.22052001953125,-8.25,-17.700000762939453,-49.20000076293945
3.62,78.45320129394531,18.847156524658203,-30.60747528076172,-5.8621745109558105,-98.59111785888672,-227.29249572753906,-8.25,-17.700000762939453,-49.20000076293945
3.63,77.41890716552734,20.724210739135742,-32.75267791748047,-4.263399600982666,-94.72740936279297,-246.61102294921875,-3.9000000953674316,-32.25,-55.35000228881836
3.64,79.5641098022461,24.05693817138672,-34.70634841918945,21.983154296875,-102.18836212158203,-247.01071166992188,-3.450000047683716,-35.25,-53.400001525878906
3.65,84.8888168334961,25.89568519592285,-34.85957717895508,41.568145751953125,-105.78560638427734,-259.6676940917969,-0.75,-40.20000076293945,-51.000003814697266
3.669,89.40906524658203,28.61549949645996,-32.82929229736328,60.48698043823242,-104.32006072998047,-262.5987548828125,-2.700000047683716,-41.55000305175781,-48.30000305175781
3.673,93.85270690917969,32.21637725830078,-29.266721725463867,97.7917251586914,-120.17457580566406,-261.9326171875,-2.700000047683716,-41.55000305175781,-48.30000305175781
3.68,97.37696838378906,31.756690979003906,-26.240449905395508,111.781005859375,-127.10260009765625,-261.6661376953125,-6.300000190734863,-41.70000076293945,-41.85000228881836
3.69,98.56449890136719,30.952239990234375,-25.20615577697754,113.64624786376953,-134.03062438964844,-282.3169860839844,-7.050000190734863,-40.20000076293945,-37.5
3.7,95.07853698730469,27.15982437133789,-26.01060676574707,124.8376693725586,-138.96017456054688,-274.18988037109375,-7.650000095367432,-37.650001525878906,-36.60000228881836
3.71,93.39302062988281,25.129541397094727,-26.087221145629883,122.17304229736328,-148.0198974609375,-273.6569519042969,-9.15000057220459,-35.25,-34.650001525878906
3.73,91.63088989257812,24.05693817138672,-25.51261329650879,113.11331939697266,-145.6217498779297,-287.1133117675781,-9.15000057220459,-35.25,-34.650001525878906
3.734,90.74982452392578,21.835119247436523,-23.3291015625,81.40428924560547,-146.28790283203125,-301.9019775390625,-11.40000057220459,-36.150001525878906,-33.60000228881836
3.74,87.72354888916016,19.99637222290039,-21.950040817260742,76.34149932861328,-145.35528564453125,-306.4318542480469,-11.25,-33.150001525878906,-34.95000076293945
3.75,86.03803253173828,19.766529083251953,-21.26051139831543,57.55589294433594,-154.6814727783203,-312.29400634765625,-11.550000190734863,-32.85000228881836,-35.25
3.76,81.93915557861328,19.766529083251953,-20.30282974243164,42.76722717285156,-146.28790283203125,-319.7549743652344,-12.450000762939453,-33.0,-33.60000228881836
3.77,78.75965881347656,20.11129379272461,-20.877439498901367,35.17304611206055,-141.4915771484375,-318.5558776855469,-14.250000953674316,-31.200000762939453,-34.5
3.789,75.31201171875,22.792800903320312,-20.64759635925293,49.16232681274414,-151.084228515625,-311.36138916015625,-14.250000953674316,-31.200000762939453,-34.5
3.793,73.7031021118164,22.792800903320312,-18.34916114807129,41.168453216552734,-137.8943328857422,-321.22052001953125,-16.80000114440918,-29.700000762939453,-35.25
3.8,71.2514419555664,21.45204734802246,-16.66364288330078,51.160797119140625,-139.35987854003906,-324.8177490234375,-16.200000762939453,-29.55000114440918,-35.85000228881836
3.81,67.4973373413086,21.98834800720215,-17.353174209594727,61.552833557128906,-150.55130004882812,-322.81927490234375,-18.150001525878906,-30.30000114440918,-34.650001525878906
3.82,65.8501205444336,18.387468338012695,-16.35718536376953,73.14395141601562,-146.5543670654297,-320.4211120605469,-18.450000762939453,-27.600000381469727,-34.650001525878906
3.83,65.50535583496094,19.038692474365234,-15.284584045410156,62.8851432800293,-139.49310302734375,-327.2159118652344,-18.450000762939453,-27.600000381469727,-34.650001525878906
3.85,63.55168914794922,17.31486701965332,-13.522451400756836,54.62480926513672,-150.95098876953125,-323.218994140625,-18.450000762939453,-27.150001525878906,-33.900001525878906
3.853,63.55168914794922,14.863204002380371,-11.60708999633789,35.03981399536133,-154.28176879882812,-328.01531982421875,-19.200000762939453,-26.100000381469727,-33.30000305175781
3.86,62.70893096923828,13.713987350463867,-11.492168426513672,25.04747200012207,-151.6171417236328,-306.83154296875,-20.25,-23.850000381469727,-33.0
3.87,61.444793701171875,13.713987350463867,-12.60307788848877,10.125574111938477,-144.95558166503906,-300.83612060546875,-21.150001525878906,-22.950000762939453,-32.10000228881836
3.88,59.68265914916992,14.288596153259277,-13.139378547668457,14.388973236083984,-150.55130004882812,-289.9111633300781,-21.150001525878906,-22.950000762939453,-32.10000228881836
3.89,58.45682907104492,16.433799743652344,-12.564770698547363,9.859111785888672,-143.88973999023438,-268.8606262207031,-21.450000762939453,-20.25,-32.85000228881836
3.91,57.57576370239258,17.161638259887695,-14.403517723083496,-2.6646246910095215,-130.96630859375,-259.4012145996094,-21.30000114440918,-19.650001525878906,-33.0
3.914,57.76729965209961,18.272546768188477,-15.552734375,11.457886695861816,-119.37519073486328,-239.5497589111328,-20.700000762939453,-19.05000114440918,-32.85000228881836
3.921,55.392250061035156,20.41775131225586,-19.651607513427734,18.119447708129883,-110.58192443847656,-226.89279174804688,-22.200000762939453,-18.30000114440918,-32.55000305175781
3.93,55.392250061035156,19.038692474365234,-18.34916114807129,18.385910034179688,-101.78866577148438,-220.49769592285156,-21.75,-17.700000762939453,-33.0
3.94,57.38422775268555,19.306842803955078,-17.697938919067383,29.31087303161621,-94.46094512939453,-205.7090301513672,-21.75,-17.700000762939453,-33.0
3.95,58.99312973022461,18.23423957824707,-16.510414123535156,38.10413360595703,-99.3905029296875,-181.99386596679688,-21.150001525878906,-14.850000381469727,-31.80000114440918
3.969,57.76729965209961,18.34916114807129,-17.085023880004883,40.76875686645508,-94.72740936279297,-166.93873596191406,-20.700000762939453,-13.200000762939453,-32.85000228881836
3.973,55.315635681152344,18.04270362854004,-17.42978858947754,31.842266082763672,-82.20367431640625,-147.0872802734375,-21.450000762939453,-14.100000381469727,-32.85000228881836
3.98,54.74102783203125,17.774553298950195,-17.276559829711914,29.444103240966797,-79.9387435913086,-134.69677734375,-21.450000762939453,-13.200000762939453,-32.10000228881836
3.99,53.01720428466797,16.70195198059082,-18.34916114807129,36.10566711425781,-77.00765228271484,-121.77335357666016,-21.450000762939453,-13.200000762939453,-32.10000228881836
4.0,50.87199783325195,15.514427185058594,-19.345149993896484,28.511484146118164,-68.74732208251953,-112.71363067626953,-21.30000114440918,-14.250000953674316,-31.200000762939453
4.01,49.416324615478516,15.85919189453125,-21.413740158081055,34.64012145996094,-58.62174606323242,-107.11791229248047,-20.55000114440918,-11.100000381469727,-33.0
4.03,50.18246841430664,19.49837875366211,-25.20615577697754,57.289432525634766,-41.967838287353516,-82.7365951538086,-21.0,-10.350000381469727,-32.70000076293945
4.034,48.841712951660156,23.788787841796875,-30.301015853881836,79.9387435913086,-17.586523056030273,-36.5053596496582,-21.0,-12.300000190734863,-33.0
4.04,51.561527252197266,29.4582576751709,-24.018630981445312,80.33843994140625,0.6661561727523804,-36.63859176635742,-21.0,-12.300000190734863,-33.0
4.05,52.595821380615234,25.052927017211914,-25.780763626098633,102.05513000488281,14.12251091003418,-10.392036437988281,-21.0,-12.300000190734863,-33.0
4.06,54.31964874267578,21.796812057495117,-23.3291015625,111.5145492553711,17.719755172729492,6.661561965942383,-21.30000114440918,-10.350000381469727,-30.900001525878906
4.07,55.009178161621094,19.613300323486328,-21.950040817260742,100.45635223388672,25.313934326171875,22.116384506225586,-22.650001525878906,-10.950000762939453,-31.350000381469727
4.089,59.10805130004883,17.50640296936035,-19.153614044189453,82.6033706665039,28.911178588867188,36.771820068359375,-21.30000114440918,-9.15000057220459,-29.700000762939453
4.093,63.13031005859375,14.211980819702148,-22.103269577026367,55.15773391723633,33.84073257446289,52.093414306640625,-20.55000114440918,-10.350000381469727,-30.150001525878906
4.1,62.40247344970703,14.36521053314209,-25.742456436157227,36.63859176635742,32.37519073486328,64.084228515625,-20.55000114440918,-10.350000381469727,-30.150001525878906
4.11,64.39444732666016,14.441824913024902,-28.768728256225586,6.5283308029174805,51.560489654541016,74.8759536743164,-22.650001525878906,-10.950000762939453,-31.05000114440918
4.12,67.88040924072266,17.161638259887695,-30.415939331054688,-17.186830520629883,68.08116149902344,87.79938507080078,-23.25,-11.550000190734863,-30.150001525878906
4.13,71.48128509521484,19.958065032958984,-31.986534118652344,-20.251148223876953,77.27411651611328,111.64777374267578,-21.900001525878906,-10.200000762939453,-29.55000114440918
4.15,75.2737045288086,24.44001007080078,-35.24264907836914,-26.64624786376953,105.25267791748047,131.0995330810547,-24.0,-10.800000190734863,-28.950000762939453
4.154,81.51777648925781,28.19411849975586,-40.873809814453125,6.128636837005615,124.57120513916016,170.93568420410156,-24.30000114440918,-11.850000381469727,-28.200000762939453
4.16,91.28612518310547,37.043087005615234,-44.091617584228516,22.116384506225586,139.7595672607422,183.1929473876953,-24.30000114440918,-11.850000381469727,-28.200000762939453
4.17,98.06649780273438,38.76691436767578,-46.58158874511719,55.02450180053711,154.0153045654297,216.6339874267578,-24.30000114440918,-11.850000381469727,-27.900001525878906
4.18,103.12305450439453,35.24264907836914,-46.926353454589844,85.00152587890625,167.73812866210938,229.95712280273438,-23.55000114440918,-13.050000190734863,-27.450000762939453
4.19,106.68563079833984,31.565155029296875,-38.34553527832031,96.59264373779297,159.3445587158203,255.1378173828125,-24.30000114440918,-13.500000953674316,-26.850000381469727
4.21,109.13729095458984,27.198131561279297,-36.008792877197266,92.72894287109375,162.1424102783203,275.7886657714844,-24.900001525878906,-14.40000057220459,-26.55000114440918
4.213,112.24017333984375,23.788787841796875,-38.99675750732422,66.61561584472656,173.73353576660156,305.2327575683594,-25.500001907348633,-16.5,-26.100000381469727
4.22,107.75823211669922,22.17988395690918,-42.48271560668945,53.026031494140625,177.86370849609375,316.4241943359375,-25.500001907348633,-16.5,-26.100000381469727
4.23,104.8085708618164,20.685903549194336,-44.66622543334961,43.56661605834961,191.4532928466797,328.4150085449219,-24.900001525878906,-18.30000114440918,-25.500001907348633
4.24,99.8286361694336,17.92778205871582,-43.172245025634766,27.045940399169922,193.05206298828125,335.8759460449219,-27.150001525878906,-18.75,-24.750001907348633
4.25,98.21973419189453,15.820884704589844,-41.79318618774414,-8.526799201965332,207.5742645263672,322.81927490234375,-27.150001525878906,-18.75,-24.750001907348633
4.269,95.27007293701172,14.288596153259277,-38.8818359375,-23.581928253173828,193.05206298828125,326.4165344238281,-27.150001525878906,-18.75,-24.750001907348633
4.273,92.78010559082031,14.403517723083496,-32.790985107421875,-55.15773391723633,193.7182159423828,315.35833740234375,-25.650001525878906,-24.900001525878906,-26.250001907348633
4.28,89.02599334716797,14.135366439819336,-33.288978576660156,-74.60948944091797,175.59877014160156,303.90045166015625,-26.700000762939453,-26.100000381469727,-24.750001907348633
4.29,85.04204559326172,15.016432762145996,-33.17405700683594,-91.26339721679688,169.8698272705078,295.9065856933594,-26.400001525878906,-25.650001525878906,-24.450000762939453
4.3,83.77790832519531,17.00840950012207,-34.43819808959961,-84.06890869140625,154.14854431152344,298.5711975097656,-26.400001525878906,-25.650001525878906,-24.450000762939453
4.31,82.32222747802734,18.23423957824707,-36.96647262573242,-92.59571075439453,149.88514709472656,269.6600341796875,-26.400001525878906,-25.650001525878906,-24.450000762939453
4.33,83.08837890625,17.583017349243164,-37.15800857543945,-83.00305938720703,143.75650024414062,265.1301574707031,-25.80000114440918,-26.55000114440918,-24.600000381469727
4.334,83.50975799560547,19.038692474365234,-38.07738494873047,-71.2787094116211,128.7013702392578,251.4073486328125,-25.650001525878906,-28.80000114440918,-26.250001907348633
4.34,83.31822204589844,19.460071563720703,-37.34954833984375,-63.418067932128906,125.50382232666016,243.41346740722656,-24.750001907348633,-30.150001525878906,-25.350000381469727
4.35,86.07633972167969,17.73624610900879,-37.54108428955078,-72.34455871582031,122.70597076416016,224.09494018554688,-23.700000762939453,-30.30000114440918,-25.500001907348633
4.36,84.81220245361328,15.207969665527344,-38.19230651855469,-76.34149932861328,123.37212371826172,213.70291137695312,-23.700000762939453,-30.30000114440918,-25.500001907348633
4.37,83.89282989501953,14.863204002380371,-36.69832229614258,-79.40581512451172,113.51301574707031,206.5084228515625,-22.200000762939453,-30.30000114440918,-25.200000762939453
4.389,85.27188873291016,15.322891235351562,-36.315250396728516,-88.865234375,112.18070220947266,201.31239318847656,-22.200000762939453,-29.850000381469727,-24.750001907348633
4.393,83.54806518554688,14.786589622497559,-33.59543991088867,-105.78560638427734,116.57733154296875,183.05972290039062,-21.75,-30.900001525878906,-25.650001525878906
4.4,83.6629867553711,15.24627685546875,-34.20835494995117,-99.65696716308594,102.32159423828125,181.06124877929688,-20.400001525878906,-32.25,-27.750001907348633
4.41,82.85853576660156,13.369222640991211,-33.63374710083008,-114.57886505126953,95.9264907836914,177.99693298339844,-20.400001525878906,-32.25,-27.750001907348633
4.42,80.13871765136719,14.441824913024902,-34.13174057006836,-130.56661987304688,98.72434997558594,162.94180297851562,-18.900001525878906,-30.30000114440918,-27.000001907348633
4.43,77.07414245605469,16.81687355041504,-32.292991638183594,-140.82542419433594,90.86370086669922,170.26951599121094,-19.05000114440918,-28.950000762939453,-27.900001525878906
4.449,73.20510864257812,17.12333106994629,-34.62973403930664,-149.61868286132812,77.67381286621094,180.66156005859375,-17.25,-29.700000762939453,-28.200000762939453
4.453,67.19087982177734,14.633360862731934,-35.12772750854492,-160.14395141601562,75.00918579101562,170.66921997070312,-16.200000762939453,-29.100000381469727,-28.500001907348633
4.46,58.9165153503418,16.28057098388672,-36.621707916259766,-163.6079559326172,81.40428924560547,161.47625732421875,-16.200000762939453,-29.100000381469727,-28.500001907348633
4.47,52.82566452026367,17.851167678833008,-34.82126998901367,-158.67840576171875,71.41194152832031,165.07350158691406,-16.200000762939453,-29.100000381469727,-28.500001907348633
4.48,48.61186981201172,18.11931800842285,-33.13574981689453,-152.54977416992188,76.60796356201172,162.80857849121094,-15.000000953674316,-26.55000114440918,-27.900001525878906
4.49,47.34773254394531,18.502389907836914,-30.952239990234375,-149.61868286132812,87.9326171875,146.5543670654297,-14.40000057220459,-26.850000381469727,-28.500001907348633
4.51,44.85776138305664,18.157625198364258,-28.768728256225586,-133.89739990234375,75.14241790771484,141.75804138183594,-14.550000190734863,-25.80000114440918,-27.150001525878906
4.514,44.05331039428711,18.310853958129883,-27.696125030517578,-106.71822357177734,59.4211311340332,139.6263427734375,-14.700000762939453,-24.150001525878906,-28.80000114440918
4.52,48.42033386230469,20.379444122314453,-26.66183090209961,-97.39203643798828,57.422664642333984,131.63246154785156,-14.700000762939453,-24.150001525878906,-28.80000114440918
4.53,50.18246841430664,21.75850486755371,-26.048913955688477,-82.47013854980469,45.96477508544922,131.23277282714844,-12.450000762939453,-23.700000762939453,-27.000001907348633
4.54,50.91030502319336,24.05693817138672,-27.198131561279297,-57.955589294433594,29.7105655670166,134.29708862304688,-12.750000953674316,-23.55000114440918,-26.400001525878906
4.55,48.72679138183594,23.673866271972656,-28.117504119873047,-40.102603912353516,25.447166442871094,135.76263427734375,-13.950000762939453,-22.950000762939453,-27.750001907348633
4.569,45.50898742675781,20.95405387878418,-28.653806686401367,-36.771820068359375,33.84073257446289,126.7029037475586,-13.65000057220459,-22.5,-26.250001907348633
4.573,46.696510314941406,18.157625198364258,-28.07919692993164,-21.583459854125977,29.444103240966797,124.03828430175781,-13.65000057220459,-22.5,-26.250001907348633
4.58,49.26309585571289,16.58702850341797,-26.163835525512695,-18.78560447692871,34.24042892456055,130.96630859375,-12.0,-23.100000381469727,-25.650001525878906
4.59,52.289363861083984,15.782577514648438,-24.708162307739258,-29.577335357666016,38.77029037475586,120.17457580566406,-11.550000190734863,-23.100000381469727,-25.650001525878906
4.6,57.614070892333984,12.679692268371582,-27.083209991455078,-34.373661041259766,39.70290756225586,115.37825012207031,-12.0,-23.100000381469727,-25.650001525878906
4.61,64.39444732666016,12.334927558898926,-26.85336685180664,-51.160797119140625,24.51454734802246,130.69984436035156,-12.15000057220459,-23.700000762939453,-25.500001907348633
4.63,70.6002197265625,11.683704376220703,-23.9420166015625,-79.40581512451172,11.191424369812012,134.16384887695312,-12.0,-21.900001525878906,-25.350000381469727
4.634,72.36235046386719,10.342951774597168,-22.333112716674805,-125.63705444335938,8.127105712890625,129.76722717285156,-12.0,-21.900001525878906,-25.350000381469727
4.64,70.10222625732422,11.91354751586914,-24.631547927856445,-138.02755737304688,7.460949420928955,128.7013702392578,-12.450000762939453,-21.450000762939453,-25.200000762939453
4.65,66.9227294921875,12.564770698547363,-29.95625114440918,-131.0995330810547,10.258805274963379,133.36447143554688,-12.450000762939453,-21.450000762939453,-25.80000114440918
4.66,65.77350616455078,19.345149993896484,-23.482330322265625,-146.0214385986328,22.649311065673828,130.30015563964844,-11.700000762939453,-21.0,-25.200000762939453
4.67,64.93074798583984,19.651607513427734,-32.13976287841797,-130.43338012695312,35.17304611206055,118.97549438476562,-11.40000057220459,-21.0,-24.750001907348633
4.68,66.9227294921875,22.90772247314453,-33.557132720947266,-93.39509582519531,44.09954071044922,117.9096450805664,-11.40000057220459,-21.0,-24.750001907348633
4.694,67.03765106201172,27.198131561279297,-32.790985107421875,-59.95405578613281,68.88054656982422,101.38896942138672,-11.700000762939453,-21.0,-24.0
4.7,69.91069030761719,26.776752471923828,-32.44622039794922,-26.64624786376953,79.9387435913086,102.58805084228516,-12.90000057220459,-19.80000114440918,-26.250001907348633
4.71,73.89463806152344,28.500577926635742,-31.641769409179688,7.9938740730285645,67.41500854492188,94.19448852539062,-12.0,-21.900001525878906,-25.650001525878906
4.72,80.06210327148438,28.117504119873047,-27.044902801513672,28.644716262817383,67.5482406616211,87.26646423339844,-11.550000190734863,-22.350000381469727,-26.100000381469727
4.73,86.1912612915039,24.44001007080078,-26.815059661865234,30.643184661865234,59.55436325073242,69.81317138671875,-11.550000190734863,-22.350000381469727,-26.100000381469727
4.749,87.30216979980469,19.38345718383789,-29.879636764526367,30.643184661865234,47.430320739746094,52.093414306640625,-11.550000190734863,-21.150001525878906,-26.100000381469727
4.753,90.71151733398438,20.800825119018555,-34.32327651977539,33.97396469116211,44.23276901245117,43.30015182495117,-11.700000762939453,-22.950000762939453,-25.80000114440918
4.76,91.01797485351562,26.31706428527832,-40.069358825683594,40.502296447753906,37.304744720458984,44.09954071044922,-13.800000190734863,-25.05000114440918,-26.400001525878906
4.77,92.51195526123047,26.66183090209961,-43.44039535522461,39.83613967895508,41.168453216552734,40.23583221435547,-12.90000057220459,-23.25,-26.250001907348633
4.78,93.12487030029297,22.90772247314453,-43.287166595458984,53.69218826293945,39.16998291015625,31.575803756713867,-13.500000953674316,-22.80000114440918,-25.350000381469727
4.79,94.88700103759766,16.778566360473633,-43.3637809753418,58.08882141113281,40.102603912353516,6.261868000030518,-13.500000953674316,-22.80000114440918,-25.350000381469727
4.81,97.95157623291016,17.966089248657227,-40.18428039550781,54.62480926513672,46.897396087646484,-22.649311065673828,-13.500000953674316,-23.850000381469727,-26.400001525878906
4.814,102.77828979492188,20.992361068725586,-42.1379508972168,33.04134750366211,44.23276901245117,-25.846860885620117,-13.65000057220459,-24.150001525878906,-25.500001907348633
4.82,104.61703491210938,18.962078094482422,-40.452430725097656,41.83460998535156,27.17917251586914,-34.906585693359375,-13.65000057220459,-24.150001525878906,-25.500001907348633
4.83,106.03440856933594,21.413740158081055,-37.617698669433594,34.50688934326172,8.793261528015137,-53.159263610839844,-13.500000953674316,-25.05000114440918,-26.850000381469727
4.84,105.76625061035156,22.141576766967773,-38.03907775878906,19.45176124572754,-0.7993874549865723,-74.20980072021484,-13.500000953674316,-25.05000114440918,-26.850000381469727
4.85,102.70167541503906,22.60126495361328,-38.8818359375,39.43644714355469,-23.98162269592285,-87.9326171875,-13.950000762939453,-25.200000762939453,-27.000001907348633
4.869,97.37696838378906,21.298818588256836,-38.99675750732422,40.23583221435547,-38.63705825805664,-110.04900360107422,-14.40000057220459,-26.850000381469727,-26.250001907348633
4.873,91.17120361328125,21.605276107788086,-40.145973205566406,40.635528564453125,-51.027565002441406,-151.35069274902344,-14.700000762939453,-27.150001525878906,-27.750001907348633
4.881,82.74361419677734,19.843143463134766,-39.07337188720703,44.76569747924805,-57.822357177734375,-156.94639587402344,-14.700000762939453,-27.150001525878906,-27.750001907348633
4.89,82.4371566772461,17.238252639770508,-37.694313049316406,32.37519073486328,-66.34915924072266,-195.1837615966797,-14.700000762939453,-27.150001525878906,-27.750001907348633
4.9,80.8282470703125,16.242263793945312,-35.0128059387207,18.519142150878906,-71.41194152832031,-190.5206756591797,-14.700000762939453,-27.150001525878906,-27.750001907348633
4.91,78.79796600341797,14.901511192321777,-34.01681900024414,16.920366287231445,-81.13782501220703,-226.09341430664062,-16.5,-26.250001907348633,-29.400001525878906
4.93,77.57213592529297,17.889474868774414,-34.70634841918945,24.11485481262207,-88.73200225830078,-223.82847595214844,-16.80000114440918,-28.200000762939453,-29.400001525878906
4.933,79.41088104248047,21.14558982849121,-36.16202163696289,37.97090148925781,-88.865234375,-248.47625732421875,-16.80000114440918,-28.500001907348633,-30.450000762939453
4.94,82.93515014648438,24.24847412109375,-36.430171966552734,51.82695007324219,-92.86217498779297,-258.4685974121094,-16.80000114440918,-28.500001907348633,-30.450000762939453
4.95,84.62066650390625,24.59324073791504,-33.978511810302734,72.47779083251953,-93.52832794189453,-261.9326171875,-16.80000114440918,-28.500001907348633,-30.450000762939453
4.96,90.21351623535156,26.700138092041016,-31.90991973876953,96.32618713378906,-102.05513000488281,-264.4640197753906,-19.200000762939453,-28.350000381469727,-31.05000114440918
4.97,94.19747161865234,25.81907081604004,-30.79901123046875,106.98468017578125,-103.92036437988281,-274.5895690917969,-19.950000762939453,-27.600000381469727,-33.30000305175781
4.98,96.87897491455078,26.891674041748047,-30.4925537109375,125.50382232666016,-110.71515655517578,-274.9892883300781,-22.650001525878906,-28.80000114440918,-32.10000228881836
4.993,98.64111328125,26.54690933227539,-28.73042106628418,134.69677734375,-122.3062744140625,-273.6569519042969,-22.5,-28.200000762939453,-32.70000076293945
5.001,99.52217864990234,21.911733627319336,-28.309040069580078,129.36753845214844,-132.29861450195312,-276.7212829589844,-22.5,-28.200000762939453,-32.70000076293945
5.01,97.30035400390625,18.693927764892578,-25.627534866333008,122.70597076416016,-140.82542419433594,-277.92034912109375,-23.700000762939453,-29.55000114440918,-35.10000228881836
5.02,96.30436706542969,17.00840950012207,-25.857378005981445,99.3905029296875,-145.48851013183594,-282.5834655761719,-27.450000762939453,-29.55000114440918,-35.400001525878906
5.03,94.15916442871094,15.629348754882812,-25.09123420715332,92.06278228759766,-160.14395141601562,-278.4532775878906,-25.950000762939453,-29.850000381469727,-36.60000228881836
5.049,90.40505981445312,13.982137680053711,-25.5892276763916,64.3506851196289,-154.0153045654297,-283.78253173828125,-27.900001525878906,-32.25,-36.900001525878906
5.053,85.5783462524414,13.10107135772705,-23.597251892089844,51.960182189941406,-170.26951599121094,-286.9800720214844,-27.900001525878906,-32.25,-36.900001525878906
5.06,83.35652923583984,12.22000503540039,-21.337125778198242,37.97090148925781,-163.0750274658203,-290.1776428222656,-27.900001525878906,-32.25,-36.900001525878906
5.07,80.06210327148438,12.564770698547363,-20.379444122314453,36.63859176635742,-164.5405731201172,-304.83306884765625,-34.20000076293945,-36.30000305175781,-37.5
5.08,77.07414245605469,15.322891235351562,-20.456058502197266,35.705970764160156,-162.5421142578125,-317.09033203125,-34.05000305175781,-33.60000228881836,-33.45000076293945
5.09,74.35432434082031,17.697938919067383,-20.341136932373047,46.497703552246094,-166.67227172851562,-311.2281799316406,-34.20000076293945,-33.45000076293945,-32.85000228881836
5.11,71.51959228515625,17.42978858947754,-20.264522552490234,41.83460998535156,-160.14395141601562,-316.15771484375,-34.20000076293945,-33.45000076293945,-32.85000228881836
5.114,68.761474609375,14.97812557220459,-18.195932388305664,49.82848358154297,-167.2052001953125,-310.8284912109375,-34.20000076293945,-30.600000381469727,-29.55000114440918
5.12,66.30980682373047,12.258312225341797,-16.395492553710938,37.83767318725586,-165.3399658203125,-315.22509765625,-35.55000305175781,-27.750001907348633,-30.150001525878906
5.13,63.62830352783203,11.645397186279297,-14.748282432556152,43.30015182495117,-165.73965454101562,-309.3629455566406,-35.25,-26.250001907348633,-30.150001525878906
5.14,59.87419509887695,8.887276649475098,-15.476119995117188,32.77488327026367,-159.61102294921875,-308.4303283691406,-34.05000305175781,-25.05000114440918,-30.900001525878906
5.15,58.3036003112793,9.653421401977539,-14.058752059936523,25.447166442871094,-150.41806030273438,-306.96478271484375,-34.05000305175781,-25.05000114440918,-30.900001525878906
5.16,57.99714279174805,9.806650161743164,-13.79060173034668,33.04134750366211,-153.61561584472656,-290.8437805175781,-34.05000305175781,-23.55000114440918,-31.200000762939453
5.173,59.26128005981445,12.105083465576172,-15.207969665527344,26.64624786376953,-136.56201171875,-278.18682861328125,-32.55000305175781,-19.200000762939453,-31.200000762939453
5.18,59.29958724975586,12.143390655517578,-16.81687355041504,30.776416778564453,-138.6937255859375,-270.45941162109375,-31.950000762939453,-19.5,-29.850000381469727
5.19,60.87018585205078,12.411541938781738,-16.66364288330078,28.644716262817383,-133.36447143554688,-257.9356689453125,-32.70000076293945,-17.850000381469727,-30.30000114440918
5.2,64.85413360595703,12.564770698547363,-12.641385078430176,33.70750427246094,-141.75804138183594,-237.55130004882812,-30.450000762939453,-19.5,-31.350000381469727
5.21,65.62027740478516,12.143390655517578,-13.522451400756836,25.313934326171875,-147.4869842529297,-210.50535583496094,-30.450000762939453,-19.5,-31.350000381469727
5.23,65.2755126953125,9.461885452270508,-13.254301071166992,17.586523056030273,-139.09341430664062,-201.0459442138672,-30.000001907348633,-13.800000190734863,-31.950000762939453
5.234,63.781532287597656,8.312667846679688,-14.595053672790527,12.656967163085938,-128.3016815185547,-189.85450744628906,-29.400001525878906,-14.40000057220459,-29.850000381469727
5.24,61.29156494140625,10.84094524383545,-15.782577514648438,22.782541275024414,-127.5022964477539,-168.80397033691406,-30.450000762939453,-13.65000057220459,-31.350000381469727
5.25,60.985107421875,11.41555404663086,-16.433799743652344,11.857580184936523,-110.31546783447266,-152.68299865722656,-29.700000762939453,-13.65000057220459,-33.30000305175781
5.26,60.52541732788086,10.611102104187012,-16.012420654296875,10.258805274963379,-104.18682861328125,-152.41653442382812,-29.700000762939453,-13.65000057220459,-33.30000305175781
5.27,59.18466567993164,10.496180534362793,-15.85919189453125,17.852985382080078,-87.13323211669922,-120.84072875976562,-27.450000762939453,-12.90000057220459,-31.80000114440918
5.28,56.80961608886719,9.53849983215332,-23.405715942382812,26.379785537719727,-70.21286010742188,-107.78407287597656,-28.950000762939453,-11.40000057220459,-31.350000381469727
5.296,54.281341552734375,11.530475616455078,-20.11129379272461,46.364471435546875,-41.701377868652344,-92.46247863769531,-27.000001907348633,-11.850000381469727,-31.200000762939453
5.301,56.77130889892578,13.330915451049805,-22.90772247314453,48.8958625793457,-28.511484146118164,-80.8713607788086,-28.05000114440918,-12.750000953674316,-31.200000762939453
5.31,58.18867874145508,14.748282432556152,-24.095245361328125,54.22511291503906,-8.660030364990234,-68.88054656982422,-28.05000114440918,-12.750000953674316,-31.200000762939453
5.32,58.80159378051758,16.548721313476562,-21.298818588256836,58.754974365234375,4.130168437957764,-53.159263610839844,-28.05000114440918,-13.500000953674316,-30.900001525878906
5.33,61.636329650878906,14.939818382263184,-15.207969665527344,58.888206481933594,-0.5329249501228333,-29.977027893066406,-26.700000762939453,-10.5,-31.350000381469727
5.349,62.63231658935547,9.461885452270508,-15.974113464355469,63.018375396728516,-6.9280242919921875,-2.797856092453003,-25.80000114440918,-10.350000381469727,-30.450000762939453
5.353,64.89244079589844,6.780379295349121,-17.1999454498291,50.4946403503418,1.1990811824798584,6.128636837005615,-27.000001907348633,-11.550000190734863,-30.900001525878906
5.36,68.22517395019531,8.044517517089844,-21.337125778198242,40.76875686645508,4.263399600982666,28.378253936767578,-27.150001525878906,-11.700000762939453,-30.600000381469727
5.37,70.5619125366211,10.764330863952637,-24.631547927856445,45.298622131347656,7.460949420928955,57.822357177734375,-27.150001525878906,-11.700000762939453,-30.600000381469727
5.38,71.55789947509766,12.641385078430176,-26.2021427154541,45.96477508544922,19.052066802978516,56.49004364013672,-27.750001907348633,-11.100000381469727,-31.500001907348633
5.39,73.47325897216797,10.228029251098633,-32.52283477783203,39.16998291015625,57.289432525634766,65.68299865722656,-26.400001525878906,-11.40000057220459,-30.30000114440918
5.41,75.2737045288086,11.760318756103516,-31.258697509765625,41.701377868652344,65.81623077392578,85.53445434570312,-26.400001525878906,-11.700000762939453,-29.850000381469727
5.414,79.29595947265625,13.10107135772705,-31.871612548828125,44.36600112915039,96.99234008789062,118.70903015136719,-28.650001525878906,-12.90000057220459,-30.600000381469727
5.42,84.314208984375,16.395492553710938,-28.92195701599121,34.64012145996094,117.50994873046875,127.10260009765625,-28.650001525878906,-12.90000057220459,-30.600000381469727
5.43,89.217529296875,16.05072784423828,-29.84132957458496,36.905052185058594,124.17151641845703,145.0888214111328,-27.000001907348633,-13.800000190734863,-28.200000762939453
5.44,97.22373962402344,14.633360862731934,-32.40791320800781,51.960182189941406,131.0995330810547,178.92955017089844,-27.30000114440918,-13.500000953674316,-28.950000762939453
5.45,107.26023864746094,15.552734375,-37.19631576538086,52.493106842041016,134.96324157714844,205.84225463867188,-28.500001907348633,-13.050000190734863,-28.200000762939453
5.469,114.95999145507812,15.552734375,-36.54509353637695,42.90045928955078,144.55589294433594,220.76416015625,-27.450000762939453,-14.850000381469727,-28.500001907348633
5.472,117.94795227050781,15.361198425292969,-34.476505279541016,42.36753463745117,141.0918731689453,247.41041564941406,-27.450000762939453,-14.850000381469727,-28.500001907348633
5.48,118.36933135986328,16.28057098388672,-37.96246337890625,36.771820068359375,145.2220458984375,258.8682861328125,-28.950000762939453,-15.15000057220459,-27.750001907348633
5.49,114.00231170654297,14.441824913024902,-41.37180709838867,22.249616622924805,171.86830139160156,267.9280090332031,-29.400001525878906,-17.55000114440918,-26.55000114440918
5.5,108.06468963623047,14.786589622497559,-40.33750915527344,29.444103240966797,173.46707153320312,292.1761169433594,-28.950000762939453,-18.75,-27.000001907348633
5.51,104.50211334228516,14.901511192321777,-40.64396667480469,22.915773391723633,186.5237274169922,298.8376770019531,-30.750001907348633,-19.650001525878906,-27.150001525878906
5.53,99.79032897949219,16.127342224121094,-38.07738494873047,25.18070411682129,193.58499145507812,292.9754943847656,-29.55000114440918,-21.150001525878906,-26.400001525878906
5.534,93.58455657958984,16.318878173828125,-38.920143127441406,21.183767318725586,209.97242736816406,284.71514892578125,-29.55000114440918,-21.150001525878906,-26.400001525878906
5.54,86.1529541015625,16.89348793029785,-33.82528305053711,31.975496292114258,200.77947998046875,300.5696716308594,-29.700000762939453,-22.950000762939453,-25.200000762939453
5.55,83.89282989501953,15.169661521911621,-34.13174057006836,34.64012145996094,196.915771484375,280.3185119628906,-30.30000114440918,-25.80000114440918,-25.650001525878906
5.56,79.48749542236328,12.871228218078613,-33.557132720947266,22.649311065673828,205.04287719726562,271.39202880859375,-31.200000762939453,-26.850000381469727,-23.25
5.57,80.40686798095703,11.070788383483887,-34.170047760009766,20.38437843322754,189.85450744628906,256.7366027832031,-30.30000114440918,-28.500001907348633,-24.150001525878906
5.58,82.13069152832031,9.768342971801758,-36.27694320678711,14.788667678833008,179.4624786376953,246.21133422851562,-30.30000114440918,-28.500001907348633,-24.150001525878906
5.595,83.7396011352539,9.806650161743164,-38.15399932861328,-21.583459854125977,177.06431579589844,235.28636169433594,-31.650001525878906,-30.600000381469727,-24.0
5.601,84.04605865478516,10.036493301391602,-37.502777099609375,-30.37672233581543,171.60183715820312,230.88973999023438,-31.650001525878906,-30.600000381469727,-24.0
5.61,83.77790832519531,8.695740699768066,-36.315250396728516,-42.633995056152344,161.6094970703125,223.69525146484375,-30.750001907348633,-31.950000762939453,-23.850000381469727
5.62,85.46342468261719,7.354987621307373,-35.85556411743164,-73.67687225341797,146.68759155273438,207.30780029296875,-30.750001907348633,-32.400001525878906,-22.350000381469727
5.63,85.80818939208984,8.65743350982666,-34.43819808959961,-86.86676788330078,150.151611328125,200.77947998046875,-30.750001907348633,-32.400001525878906,-22.350000381469727
5.649,85.99972534179688,10.036493301391602,-33.863590240478516,-111.24808502197266,144.68911743164062,194.38436889648438,-28.650001525878906,-36.150001525878906,-24.0
5.653,86.49771881103516,13.48414421081543,-32.25468444824219,-118.70903015136719,139.09341430664062,190.38743591308594,-28.200000762939453,-35.25,-24.450000762939453
5.66,85.5783462524414,17.50640296936035,-31.60346221923828,-118.44257354736328,132.6983184814453,181.3277130126953,-26.55000114440918,-36.30000305175781,-23.55000114440918
5.67,84.81220245361328,19.07699966430664,-33.7486686706543,-108.84992218017578,134.03062438964844,173.73353576660156,-27.000001907348633,-36.60000228881836,-22.80000114440918
5.68,84.314208984375,19.99637222290039,-35.66402816772461,-87.13323211669922,121.50688934326172,178.39662170410156,-26.400001525878906,-37.650001525878906,-24.750001907348633
5.69,83.1266860961914,21.720197677612305,-34.170047760009766,-77.67381286621094,124.03828430175781,168.5375213623047,-26.400001525878906,-37.650001525878906,-24.750001907348633
5.71,80.06210327148438,19.651607513427734,-36.2003288269043,-68.34762573242188,125.7702865600586,159.74424743652344,-24.900001525878906,-37.95000076293945,-25.200000762939453
5.714,76.11646270751953,18.808849334716797,-35.66402816772461,-55.4241943359375,123.2388916015625,159.8774871826172,-24.30000114440918,-39.30000305175781,-22.80000114440918
5.72,69.64253997802734,18.04270362854004,-35.74064254760742,-39.30321502685547,113.3797836303711,168.9372100830078,-24.30000114440918,-39.30000305175781,-22.80000114440918
5.73,66.00334930419922,17.00840950012207,-34.32327651977539,-45.831546783447266,127.23583221435547,151.6171417236328,-23.700000762939453,-36.900001525878906,-23.700000762939453
5.74,61.023414611816406,15.85919189453125,-33.7486686706543,-48.62940216064453,124.70443725585938,141.75804138183594,-23.700000762939453,-36.900001525878906,-23.700000762939453
5.75,56.2733154296875,14.556746482849121,-30.79901123046875,-44.76569747924805,114.84532928466797,144.68911743164062,-22.05000114440918,-39.0,-22.80000114440918
5.769,54.12811279296875,13.713987350463867,-30.37763023376465,-49.29555892944336,108.050537109375,140.6921844482422,-22.5,-39.0,-24.600000381469727
5.773,52.09782791137695,11.836933135986328,-29.03687858581543,-56.22358322143555,97.65850067138672,122.70597076416016,-20.700000762939453,-39.150001525878906,-23.25
5.78,50.335697174072266,14.211980819702148,-27.044902801513672,-62.085758209228516,93.39509582519531,120.70750427246094,-20.700000762939453,-39.150001525878906,-23.25
5.79,48.80340576171875,13.982137680053711,-27.236438751220703,-47.696781158447266,77.27411651611328,120.04134368896484,-20.700000762939453,-39.150001525878906,-23.25
5.8,49.3014030456543,14.633360862731934,-29.573179244995117,-44.63246536254883,82.33690643310547,104.18682861328125,-20.700000762939453,-39.150001525878906,-23.25
5.81,47.65419006347656,14.518439292907715,-27.77273941040039,-33.84073257446289,70.87902069091797,91.3966293334961,-18.900001525878906,-39.900001525878906,-24.0
5.83,45.585601806640625,14.518439292907715,-27.849353790283203,-23.581928253173828,70.74578857421875,96.99234008789062,-20.55000114440918,-40.20000076293945,-24.900001525878906
5.833,43.478702545166016,14.135366439819336,-27.121517181396484,-3.597243309020996,68.61408996582031,92.3292465209961,-19.200000762939453,-40.35000228881836,-24.450000762939453
5.84,43.09563064575195,12.90953540802002,-29.22841453552246,-6.9280242919921875,78.07350158691406,86.0673828125,-19.200000762939453,-40.35000228881836,-24.450000762939453
5.85,45.31745147705078,9.730035781860352,-29.075185775756836,-10.92496109008789,73.14395141601562,89.13169860839844,-19.200000762939453,-40.35000228881836,-24.450000762939453
5.86,52.44259262084961,7.240066051483154,-26.31706428527832,-29.044410705566406,54.4915771484375,92.06278228759766,-19.05000114440918,-39.75,-24.900001525878906
5.87,56.847923278808594,5.2480902671813965,-25.81907081604004,-62.618682861328125,52.493106842041016,100.05665588378906,-19.80000114440918,-39.30000305175781,-24.600000381469727
5.88,61.138336181640625,2.719813108444214,-22.7161865234375,-98.99080657958984,36.238895416259766,106.58499145507812,-19.80000114440918,-40.20000076293945,-24.150001525878906
5.893,64.7009048461914,2.873042106628418,-19.49837875366211,-146.5543670654297,19.718223571777344,110.71515655517578,-19.80000114440918,-40.20000076293945,-23.850000381469727
5.9,65.888427734375,4.63517427444458,-22.06496238708496,-162.5421142578125,9.326186180114746,120.70750427246094,-19.80000114440918,-40.20000076293945,-23.850000381469727
5.91,66.38642120361328,8.006210327148438,-25.052927017211914,-187.58958435058594,12.656967163085938,124.97090148925781,-17.700000762939453,-40.35000228881836,-24.600000381469727
5.92,65.69689178466797,9.84495735168457,-26.393678665161133,-200.11331176757812,18.119447708129883,123.9050521850586,-17.400001525878906,-39.150001525878906,-27.30000114440918
5.93,65.16059112548828,11.530475616455078,-29.53487205505371,-189.85450744628906,20.251148223876953,126.96936798095703,-17.55000114440918,-39.0,-27.150001525878906
5.949,66.00334930419922,14.288596153259277,-29.611486434936523,-179.72894287109375,25.7136287689209,117.64318084716797,-17.55000114440918,-39.0,-27.150001525878906
5.953,64.81582641601562,17.391481399536133,-29.64979362487793,-146.1546630859375,27.31240463256836,110.58192443847656,-17.55000114440918,-39.0,-27.150001525878906
5.96,69.3743896484375,22.792800903320312,-28.768728256225586,-122.83920288085938,27.17917251586914,108.3169937133789,-17.25,-39.75,-27.450000762939453
5.97,72.70711517333984,22.218191146850586,-30.79901123046875,-88.46553802490234,53.558956146240234,76.87442779541016,-16.650001525878906,-39.60000228881836,-28.500001907348633
5.98,71.71112823486328,22.946029663085938,-42.7508659362793,-37.97090148925781,60.48698043823242,63.151607513427734,-15.450000762939453,-38.85000228881836,-27.30000114440918
5.99,69.83407592773438,30.530860900878906,-32.21637725830078,3.9969370365142822,60.62021255493164,72.0781021118164,-16.200000762939453,-38.400001525878906,-28.05000114440918
6.01,73.12849426269531,26.700138092041016,-33.978511810302734,25.313934326171875,71.81163787841797,69.81317138671875,-16.200000762939453,-38.400001525878906,-28.05000114440918
6.013,76.07815551757812,19.766529083251953,-29.03687858581543,37.03828430175781,52.89280319213867,56.889739990234375,-16.650001525878906,-39.900001525878906,-28.500001907348633
6.02,79.25765228271484,12.756306648254395,-28.998571395874023,17.852985382080078,63.018375396728516,39.9693717956543,-15.90000057220459,-40.650001525878906,-26.55000114440918
6.03,78.26166534423828,10.15141487121582,-31.680076599121094,20.517610549926758,47.430320739746094,31.842266082763672,-15.15000057220459,-39.900001525878906,-26.250001907348633
6.04,80.29194641113281,13.330915451049805,-32.40791320800781,12.923430442810059,44.76569747924805,28.911178588867188,-18.30000114440918,-39.75,-25.650001525878906
6.05,84.54405212402344,18.502389907836914,-31.22039031982422,3.4640121459960938,40.102603912353516,7.9938740730285645,-18.30000114440918,-39.75,-25.650001525878906
6.069,92.28211212158203,19.000385284423828,-34.82126998901367,4.130168437957764,22.51607894897461,19.98468589782715,-16.80000114440918,-41.25,-25.350000381469727
6.073,96.64913177490234,19.268535614013672,-41.21857833862305,6.9280242919921875,27.71209716796875,-16.65390396118164,-18.30000114440918,-40.5,-26.850000381469727
6.08,102.9315185546875,19.843143463134766,-45.432373046875,16.25421142578125,15.45482349395752,-24.248085021972656,-17.25,-41.25,-25.350000381469727
6.09,106.4557876586914,19.536685943603516,-44.43638229370117,27.445634841918945,8.526799201965332,-40.102603912353516,-18.150001525878906,-41.55000305175781,-25.80000114440918
6.1,111.43572235107422,20.072986602783203,-42.59763717651367,35.705970764160156,-7.9938740730285645,-53.558956146240234,-18.150001525878906,-41.10000228881836,-23.25
6.11,113.35108184814453,20.149600982666016,-45.279144287109375,50.09494400024414,-16.920366287231445,-68.34762573242188,-18.150001525878906,-41.10000228881836,-23.25
6.13,111.85710144042969,23.252487182617188,-45.164222717285156,48.09647750854492,-14.255742073059082,-92.86217498779297,-18.450000762939453,-39.60000228881836,-23.700000762939453
6.134,108.8308334350586,20.341136932373047,-44.6279182434082,52.093414306640625,-30.509952545166016,-119.37519073486328,-18.75,-40.95000076293945,-23.850000381469727
6.14,106.4557876586914,18.617311477661133,-42.82748031616211,58.355281829833984,-49.82848358154297,-120.04134368896484,-18.900001525878906,-40.35000228881836,-24.0
6.15,102.8932113647461,15.629348754882812,-40.758888244628906,34.50688934326172,-52.093414306640625,-146.42112731933594,-18.0,-41.70000076293945,-24.600000381469727
6.16,97.18543243408203,12.679692268371582,-38.843528747558594,20.784072875976562,-66.08269500732422,-166.2725830078125,-18.0,-41.70000076293945,-24.600000381469727
6.17,88.52799987792969,15.054739952087402,-37.96246337890625,6.794793128967285,-85.53445434570312,-173.73353576660156,-19.950000762939453,-40.35000228881836,-22.950000762939453
6.189,83.39483642578125,16.433799743652344,-36.46847915649414,-1.4655436277389526,-100.3231201171875,-191.58651733398438,-18.900001525878906,-39.60000228881836,-23.700000762939453
6.192,80.21533203125,16.242263793945312,-35.43418502807617,-13.189892768859863,-111.781005859375,-207.17457580566406,-19.650001525878906,-37.95000076293945,-23.700000762939453
6.2,78.9511947631836,17.544710159301758,-34.897884368896484,-5.196018218994141,-121.24042510986328,-226.09341430664062,-19.05000114440918,-37.80000305175781,-25.650001525878906
6.21,79.14273071289062,19.460071563720703,-34.55311965942383,7.327718257904053,-110.44869232177734,-241.28176879882812,-19.05000114440918,-37.80000305175781,-25.650001525878906
6.22,81.90084838867188,24.89969825744629,-36.16202163696289,28.644716262817383,-112.58039855957031,-248.07656860351562,-20.700000762939453,-37.20000076293945,-24.0
6.23,86.53602600097656,27.427974700927734,-36.08540725708008,63.151607513427734,-122.43950653076172,-260.86676025390625,-22.5,-38.55000305175781,-26.100000381469727
6.249,90.67321014404297,27.236438751220703,-35.24264907836914,107.3843765258789,-132.83154296875,-264.73046875,-21.150001525878906,-37.650001525878906,-23.25
6.253,95.00192260742188,28.347347259521484,-33.82528305053711,127.10260009765625,-142.69065856933594,-268.7274169921875,-22.200000762939453,-37.650001525878906,-25.200000762939453
6.26,101.28430938720703,21.56696891784668,-30.68408966064453,118.30934143066406,-142.4241943359375,-268.7274169921875,-22.5,-37.80000305175781,-24.150001525878906
6.27,102.39521789550781,18.004396438598633,-28.309040069580078,117.64318084716797,-164.80703735351562,-262.5987548828125,-22.5,-37.80000305175781,-24.150001525878906
6.28,104.7319564819336,16.510414123535156,-26.43198585510254,90.99693298339844,-183.5926513671875,-262.73199462890625,-23.400001525878906,-36.900001525878906,-23.25
6.29,106.80055236816406,14.633360862731934,-23.712173461914062,55.95711898803711,-185.4578857421875,-267.39508056640625,-23.400001525878906,-37.20000076293945,-24.0
6.31,105.19164276123047,10.84094524383545,-24.286781311035156,26.779478073120117,-197.9816131591797,-263.7978515625,-22.950000762939453,-35.25,-24.750001907348633
6.313,104.27227020263672,11.03248119354248,-24.401702880859375,-5.062787055969238,-199.98008728027344,-265.3966369628906,-23.25,-35.55000305175781,-22.80000114440918
6.32,100.5181655883789,13.48414421081543,-24.554933547973633,-26.64624786376953,-184.1255645751953,-284.3154602050781,-23.25,-35.55000305175781,-22.80000114440918
6.33,100.5181655883789,14.748282432556152,-23.865402221679688,-34.50688934326172,-188.1225128173828,-293.64166259765625,-25.05000114440918,-33.60000228881836,-22.350000381469727
6.34,98.06649780273438,17.851167678833008,-23.75048065185547,-23.04900360107422,-193.85145568847656,-288.9785461425781,-24.450000762939453,-32.25,-23.700000762939453
6.35,92.97164154052734,18.579004287719727,-23.673866271972656,-16.920366287231445,-185.5911102294922,-301.5022888183594,-24.30000114440918,-31.650001525878906,-24.150001525878906
6.361,88.68122863769531,19.843143463134766,-23.52063751220703,-15.588054656982422,-172.80091857910156,-312.6937255859375,-24.0,-30.150001525878906,-22.350000381469727
6.374,82.0540771484375,19.000385284423828,-22.06496238708496,-11.724349021911621,-166.40582275390625,-319.08880615234375,-24.0,-30.150001525878906,-22.350000381469727
6.38,75.2737045288086,14.36521053314209,-17.92778205871582,-3.9969370365142822,-170.13629150390625,-316.9571228027344,-24.0,-30.150001525878906,-22.350000381469727
6.39,71.36636352539062,13.828908920288086,-15.667655944824219,-11.591117858886719,-168.0045928955078,-338.0076599121094,-24.450000762939453,-24.150001525878906,-23.700000762939453
6.4,67.88040924072266,12.449849128723145,-14.020444869995117,-12.390504837036133,-170.53598022460938,-339.7396545410156,-23.55000114440918,-24.750001907348633,-24.150001525878906
6.41,63.24523162841797,12.22000503540039,-14.97812557220459,-3.0643184185028076,-168.5375213623047,-332.9448547363281,-23.400001525878906,-22.200000762939453,-23.700000762939453
6.429,59.06974411010742,12.22000503540039,-15.667655944824219,4.796324729919434,-158.81163024902344,-333.61102294921875,-24.30000114440918,-22.80000114440918,-24.150001525878906
6.433,56.92454147338867,12.7946138381958,-17.00840950012207,9.72588062286377,-148.0198974609375,-332.1454772949219,-24.30000114440918,-22.80000114440918,-24.150001525878906
6.44,55.16240692138672,10.994174003601074,-16.66364288330078,23.182235717773438,-147.62020874023438,-321.4869689941406,-22.80000114440918,-18.150001525878906,-25.350000381469727
6.45,55.43055725097656,11.262324333190918,-16.970102310180664,22.915773391723633,-146.68759155273438,-319.8882141113281,-22.5,-17.400001525878906,-26.850000381469727
6.46,57.42253494262695,11.683704376220703,-14.211980819702148,10.392036437988281,-141.0918731689453,-308.56353759765625,-22.950000762939453,-15.600000381469727,-26.55000114440918
6.47,58.45682907104492,9.653421401977539,-12.7946138381958,3.597243309020996,-142.4241943359375,-292.9754943847656,-22.950000762939453,-16.350000381469727,-25.80000114440918
6.48,54.93256378173828,7.546523571014404,-12.947842597961426,0.6661561727523804,-150.151611328125,-274.056640625,-22.950000762939453,-16.350000381469727,-25.80000114440918
6.493,53.01720428466797,6.780379295349121,-12.947842597961426,-5.595712184906006,-150.95098876953125,-267.39508056640625,-21.150001525878906,-13.500000953674316,-26.400001525878906
6.5,52.55751419067383,10.802638053894043,-14.786589622497559,-13.056661605834961,-137.62786865234375,-261.13323974609375,-21.150001525878906,-14.100000381469727,-27.000001907348633
6.51,52.902278900146484,12.832921028137207,-17.161638259887695,-2.398162364959717,-132.43185424804688,-248.7427215576172,-22.05000114440918,-12.750000953674316,-25.350000381469727
6.52,53.859962463378906,16.58702850341797,-18.847156524658203,8.926492691040039,-122.70597076416016,-227.82540893554688,-21.900001525878906,-10.950000762939453,-26.55000114440918
6.53,54.396263122558594,16.05072784423828,-20.30282974243164,16.12097930908203,-101.38896942138672,-228.35833740234375,-20.400001525878906,-10.200000762939453,-27.30000114440918
6.549,56.235008239746094,15.820884704589844,-20.11129379272461,26.779478073120117,-94.46094512939453,-202.77793884277344,-20.400001525878906,-10.200000762939453,-27.30000114440918
6.553,58.26529312133789,17.659631729125977,-19.000385284423828,47.430320739746094,-90.59724426269531,-186.25726318359375,-19.05000114440918,-6.900000095367432,-25.350000381469727
6.56,60.10403823852539,17.276559829711914,-17.659631729125977,47.830013275146484,-91.13016510009766,-179.72894287109375,-19.05000114440918,-6.900000095367432,-25.350000381469727
6.57,63.24523162841797,15.131354331970215,-17.468095779418945,37.83767318725586,-79.9387435913086,-157.612548828125,-18.75,-7.200000286102295,-25.350000381469727
6.58,63.475074768066406,14.595053672790527,-15.782577514648438,34.373661041259766,-87.26646423339844,-132.29861450195312,-18.0,-5.700000286102295,-25.650001525878906
6.59,61.559715270996094,13.982137680053711,-16.970102310180664,29.977027893066406,-81.93721008300781,-118.70903015136719,-18.0,-5.700000286102295,-25.650001525878906
6.61,57.23099899291992,13.943830490112305,-19.07699966430664,10.125574111938477,-66.21592712402344,-92.86217498779297,-17.400001525878906,-6.750000476837158,-25.200000762939453
6.614,54.089805603027344,11.951854705810547,-21.0689754486084,17.186830520629883,-53.95865249633789,-71.67840576171875,-16.650001525878906,-4.800000190734863,-27.30000114440918
6.621,51.29337692260742,14.326903343200684,-24.36339569091797,15.188361167907715,-47.56355285644531,-60.35375213623047,-16.650001525878906,-4.800000190734863,-27.30000114440918
6.63,51.29337692260742,15.552734375,-23.903709411621094,15.188361167907715,-29.444103240966797,-50.89433288574219,-16.650001525878906,-5.550000190734863,-27.000001907348633
6.64,54.97087097167969,19.19192123413086,-24.823083877563477,26.912710189819336,6.5283308029174805,-37.17151641845703,-16.650001525878906,-5.550000190734863,-27.000001907348633
6.65,53.055511474609375,18.617311477661133,-36.77493667602539,71.41194152832031,26.779478073120117,-12.923430442810059,-16.200000762939453,-4.350000381469727,-26.55000114440918
6.669,51.982906341552734,27.15982437133789,-29.305028915405273,92.59571075439453,48.8958625793457,6.661561965942383,-16.950000762939453,-4.350000381469727,-26.55000114440918
6.673,54.702720642089844,22.218191146850586,-29.305028915405273,106.05206298828125,61.68606185913086,30.90964698791504,-15.450000762939453,-5.850000381469727,-25.80000114440918
6.68,63.05369567871094,20.992361068725586,-23.290794372558594,103.52066802978516,73.9433364868164,57.02296829223633,-15.450000762939453,-5.850000381469727,-25.80000114440918
6.69,69.68084716796875,19.99637222290039,-21.720197677612305,102.98774719238281,70.07962799072266,83.93567657470703,-16.05000114440918,-4.950000286102295,-26.100000381469727
6.7,76.34630584716797,17.161638259887695,-20.83913230895996,86.3338394165039,75.40888214111328,109.24961853027344,-16.05000114440918,-4.950000286102295,-26.100000381469727
6.71,82.20730590820312,15.820884704589844,-25.742456436157227,72.47779083251953,89.13169860839844,127.90198516845703,-15.90000057220459,-5.550000190734863,-25.500001907348633
6.73,84.62066650390625,16.70195198059082,-33.212364196777344,86.60030364990234,94.0612564086914,159.21133422851562,-16.950000762939453,-6.300000190734863,-27.000001907348633
6.733,88.33646392822266,21.030668258666992,-40.069358825683594,104.45329284667969,127.76875305175781,199.04747009277344,-18.900001525878906,-7.800000190734863,-25.80000114440918
6.748,95.53822326660156,25.129541397094727,-45.470680236816406,123.10566711425781,173.73353576660156,222.09646606445312,-18.900001525878906,-7.800000190734863,-25.80000114440918
6.752,103.16136169433594,23.9420166015625,-49.109867095947266,122.70597076416016,185.85757446289062,234.0872802734375,-17.55000114440918,-8.850000381469727,-25.650001525878906
6.76,104.04242706298828,23.367408752441406,-46.23682403564453,126.96936798095703,204.11026000976562,260.0673828125,-19.05000114440918,-10.800000190734863,-22.80000114440918
6.77,106.9920883178711,19.958065032958984,-45.31745147705078,120.4410400390625,219.56507873535156,283.2496032714844,-18.900001525878906,-11.700000762939453,-23.25
6.78,108.17961120605469,13.254301071166992,-42.40610122680664,104.85298156738281,226.35987854003906,292.5758056640625,-20.25,-12.750000953674316,-23.55000114440918
6.79,112.16355895996094,9.806650161743164,-29.726408004760742,65.81623077392578,209.4394989013672,317.8897399902344,-20.25,-12.750000953674316,-23.55000114440918
6.803,113.65753936767578,5.822698593139648,-29.4582576751709,-9.059723854064941,201.31239318847656,333.8774719238281,-20.25,-12.750000953674316,-23.55000114440918
6.81,110.32481384277344,8.121131896972656,-34.85957717895508,-36.5053596496582,203.71055603027344,345.3353576660156,-22.05000114440918,-15.000000953674316,-21.600000381469727
6.82,103.54443359375,11.683704376220703,-39.18829345703125,-58.222049713134766,199.84686279296875,341.8713684082031,-23.25,-16.5,-20.100000381469727
6.83,93.81439971923828,15.322891235351562,-42.71255874633789,-54.62480926513672,192.91883850097656,360.9234313964844,-21.75,-16.950000762939453,-20.100000381469727
6.84,88.10662078857422,16.510414123535156,-42.59763717651367,-72.61102294921875,205.44256591796875,338.9402770996094,-22.650001525878906,-18.75,-21.150001525878906
6.85,84.69728088378906,15.284584045410156,-38.99675750732422,-71.01225280761719,201.578857421875,333.8774719238281,-22.650001525878906,-18.75,-21.150001525878906
6.87,83.6629867553711,13.79060173034668,-36.58340072631836,-69.81317138671875,183.05972290039062,328.01531982421875,-23.55000114440918,-19.650001525878906,-18.75
6.874,86.765869140625,13.752294540405273,-34.20835494995117,-80.33843994140625,173.0673828125,308.2970886230469,-23.55000114440918,-19.650001525878906,-18.75
6.88,87.03401947021484,14.135366439819336,-35.817256927490234,-86.73353576660156,169.60336303710938,297.5053405761719,-22.200000762939453,-19.80000114440918,-19.200000762939453
6.89,88.10662078857422,14.67166805267334,-37.54108428955078,-84.06890869140625,145.48851013183594,288.1791687011719,-24.150001525878906,-22.950000762939453,-17.700000762939453
6.9,87.87677764892578,17.544710159301758,-39.37982940673828,-97.5252685546875,150.6845245361328,283.78253173828125,-24.150001525878906,-22.950000762939453,-17.700000762939453
6.91,89.06430053710938,15.476119995117188,-37.96246337890625,-96.32618713378906,140.6921844482422,266.1960144042969,-23.55000114440918,-23.55000114440918,-18.0
6.924,89.06430053710938,14.556746482849121,-38.46045684814453,-97.7917251586914,128.56814575195312,253.00611877441406,-22.5,-25.500001907348633,-18.30000114440918
6.93,89.40906524658203,15.322891235351562,-39.60967254638672,-93.39509582519531,121.3736572265625,245.27870178222656,-21.450000762939453,-25.650001525878906,-17.700000762939453
6.94,89.14091491699219,17.583017349243164,-39.954437255859375,-104.05359649658203,130.56661987304688,232.75497436523438,-22.05000114440918,-25.05000114440918,-18.0
6.95,88.5663070678711,18.502389907836914,-39.839515686035156,-97.92495727539062,139.09341430664062,220.36447143554688,-20.400001525878906,-25.200000762939453,-18.900001525878906
6.96,87.57032012939453,17.161638259887695,-38.49876403808594,-93.79479217529297,138.56048583984375,215.3016815185547,-20.400001525878906,-25.200000762939453,-18.900001525878906
6.97,88.06831359863281,17.468095779418945,-37.34954833984375,-94.19448852539062,141.0918731689453,199.44715881347656,-19.80000114440918,-25.80000114440918,-18.0
6.99,84.42913055419922,18.923770904541016,-37.19631576538086,-90.59724426269531,156.5467071533203,192.91883850097656,-19.950000762939453,-26.850000381469727,-17.400001525878906
6.994,77.26567840576172,20.685903549194336,-39.91613006591797,-62.085758209228516,153.48239135742188,179.9954071044922,-19.950000762939453,-26.850000381469727,-17.400001525878906
