time,accel_x,accel_y,accel_z,gyro_x,gyro_y,gyro_z,mag_x,mag_y,mag_z
0.0,2.183450698852539,-8.614161491394043,-3.5988051891326904,-0.0861319974064827,0.0705549344420433,-0.021532999351620674,-16.617948532104492,38.35136032104492,-26.33732795715332
0.01,2.421536445617676,-8.563911437988281,-3.7052857875823975,-0.058490343391895294,0.11331550031900406,-0.03390302136540413,-16.530254364013672,37.43057632446289,-26.278865814208984
0.02,2.5471596717834473,-8.693124771118164,-3.4743783473968506,-0.03145955875515938,0.15302173793315887,-0.02275473065674305,-16.6325626373291,37.605960845947266,-25.855012893676758
0.03,2.5232315063476562,-8.85224723815918,-3.4540393352508545,-0.04413501173257828,0.19517144560813904,0.0019853119738399982,-16.939491271972656,37.91289138793945,-25.21192741394043
0.04,2.520838737487793,-8.971887588500977,-3.2195427417755127,-0.05772676318883896,0.1722639948129654,-0.020922133699059486,-16.793336868286133,37.54750061035156,-24.788074493408203
0.05,2.664407968521118,-8.918049812316895,-3.311666488647461,-0.0858265683054924,0.1391245573759079,-0.0328340083360672,-16.617948532104492,37.474422454833984,-25.796550750732422
0.07,2.7314069271087646,-8.894121170043945,-3.442075490951538,-0.1212567538022995,0.04856378585100174,-0.017409659922122955,-16.530254364013672,37.34288024902344,-25.591930389404297
0.073,2.7457637786865234,-8.861818313598633,-3.6263227462768555,-0.12217304855585098,0.031001411378383636,-0.00809396430850029,-16.413330078125,36.96287536621094,-25.007307052612305
0.08,2.733799695968628,-8.791230201721191,-3.696910858154297,-0.11270463466644287,0.005192354787141085,0.0039706239476799965,-16.515640258789062,37.4451904296875,-24.74422836303711
0.09,2.581855535507202,-8.645268440246582,-3.7328033447265625,-0.09254607558250427,-0.027183502912521362,0.016951510682702065,-16.647178649902344,37.48904037475586,-25.358083724975586
0.1,2.4526431560516357,-8.513663291931152,-3.676571846008301,-0.06414084881544113,-0.06032294034957886,0.012064589187502861,-16.267173767089844,37.50365447998047,-24.992692947387695
0.11,2.0985054969787598,-8.46341323852539,-3.4396824836730957,-0.012675453908741474,-0.0734565407037735,0.0009162978385575116,-16.23794174194336,37.79596710205078,-25.34346580505371
0.13,1.9369899034500122,-8.417949676513672,-3.4360930919647217,0.06398813426494598,0.04153883829712868,-0.03634648025035858,-16.164865493774414,37.109031677246094,-24.86115074157715
0.133,2.0410776138305664,-8.434700012207031,-3.4372897148132324,0.0754418596625328,0.07024950534105301,-0.04092797264456749,-16.398714065551758,37.51826858520508,-24.904998779296875
0.14,2.087737560272217,-8.59501838684082,-3.3846476078033447,0.0861319974064827,0.11178833991289139,-0.03405573591589928,-16.208711624145508,37.299034118652344,-25.21192741394043
0.15,2.0470597743988037,-8.825925827026367,-3.2745776176452637,0.07513642311096191,0.17608189582824707,-0.025656340643763542,-16.13563346862793,37.0067253112793,-25.12423324584961
0.16,2.163111686706543,-9.010172843933105,-3.297309398651123,0.0429132841527462,0.2370157092809677,-0.02122756652534008,-16.179479598999023,37.56211853027344,-25.065771102905273
0.17,2.6141586303710938,-9.040083885192871,-3.404986619949341,-0.003512475173920393,0.25182920694351196,-0.022449297830462456,-16.530254364013672,38.029815673828125,-26.088863372802734
0.189,3.074777126312256,-8.96112060546875,-3.5545380115509033,-0.06658431142568588,0.10216721147298813,0.011453723534941673,-16.384098052978516,37.53288269042969,-25.577316284179688
0.193,3.2303104400634766,-8.82951545715332,-3.696910858154297,-0.0708603635430336,0.047800205647945404,0.024587325751781464,-16.179479598999023,37.37211227416992,-25.065771102905273
0.2,3.0963122844696045,-8.822336196899414,-3.641875982284546,-0.06948591768741608,-0.02382374368607998,0.038179077208042145,-16.340251922607422,37.474422454833984,-24.97807502746582
0.21,2.8223342895507812,-8.733802795410156,-3.702892780303955,-0.05711590126156807,-0.11514809727668762,0.03741549327969551,-16.281789779663086,37.839813232421875,-24.729610443115234
0.22,2.524427890777588,-8.557929992675781,-3.73041033744812,-0.03176499158143997,-0.19425514340400696,0.013744467869400978,-16.42794418334961,38.07366180419922,-25.460391998291016
0.23,2.3533408641815186,-8.443074226379395,-3.6801609992980957,0.01725694164633751,-0.24663683772087097,-0.015577062964439392,-16.267173767089844,37.62057876586914,-25.78193473815918
0.249,1.8448662757873535,-8.58185863494873,-3.521038293838501,0.08231408894062042,-0.17852537333965302,-0.010690141469240189,-16.6325626373291,37.474422454833984,-25.606548309326172
0.253,1.660618782043457,-8.61775016784668,-3.449253797531128,0.09193521738052368,-0.13011428713798523,-0.01313360221683979,-16.42794418334961,38.015201568603516,-24.934228897094727
0.26,1.5361920595169067,-8.688338279724121,-3.4085757732391357,0.0959058403968811,-0.03848451003432274,-0.020922133699059486,-16.23794174194336,38.07366180419922,-24.831920623779297
0.27,1.6031910181045532,-8.749356269836426,-3.449253797531128,0.09117163717746735,0.09483683109283447,-0.021074850112199783,-16.296403884887695,37.78135299682617,-25.168079376220703
0.28,1.8628122806549072,-8.776873588562012,-3.4983065128326416,0.0809396430850029,0.199294775724411,-0.02825251594185829,-16.369482040405273,37.7228889465332,-25.67962646484375
0.29,2.3461625576019287,-8.920442581176758,-3.469592809677124,0.0555887334048748,0.25076019763946533,-0.014049900695681572,-17.012569427490234,37.57673263549805,-24.56884002685547
0.31,2.770888566970825,-8.823533058166504,-3.649054527282715,0.007788531482219696,0.21273382008075714,0.024892758578062057,-17.363344192504883,37.16749572753906,-25.168079376220703
0.313,2.770888566970825,-8.796015739440918,-3.662214994430542,0.0064140851609408855,0.19868391752243042,0.025045473128557205,-17.100261688232422,37.79596710205078,-25.475008010864258
0.32,2.723031997680664,-8.724230766296387,-3.592823028564453,0.0022907445672899485,0.15393804013729095,0.030695976689457893,-17.173341751098633,37.95673751831055,-24.87576675415039
0.331,2.6979076862335205,-8.723034858703613,-3.6227335929870605,0.003054326167330146,0.06963863968849182,0.023518310859799385,-17.290266036987305,37.81058120727539,-25.31423568725586
0.34,2.7625136375427246,-8.70389175415039,-3.665804386138916,0.017562376335263252,-0.005803219974040985,0.01725694164633751,-17.085647583007812,37.591346740722656,-25.080385208129883
0.35,2.7278177738189697,-8.654839515686035,-3.6837503910064697,0.03741549327969551,-0.06948591768741608,0.02275473065674305,-16.939491271972656,37.16749572753906,-25.13884925842285
0.37,2.4610180854797363,-8.58066177368164,-3.696910858154297,0.09178250283002853,-0.10903944075107574,0.023365594446659088,-16.398714065551758,37.98596954345703,-25.7088565826416
0.373,2.1930220127105713,-8.585447311401367,-3.5916268825531006,0.09666942805051804,-0.1010981947183609,0.02519819140434265,-16.807950973510742,38.1467399597168,-25.621164321899414
0.38,1.9812570810317993,-8.647661209106445,-3.531806230545044,0.11102475225925446,-0.06765332818031311,0.027030786499381065,-16.647178649902344,37.31365203857422,-25.533470153808594
0.39,1.8556338548660278,-8.740981101989746,-3.462414264678955,0.118660569190979,0.010231993161141872,0.013439035043120384,-16.121017456054688,37.7228889465332,-24.68576431274414
0.4,1.978864312171936,-8.790033340454102,-3.449253797531128,0.11026117950677872,0.08399397134780884,0.0027488935738801956,-16.515640258789062,37.708274841308594,-25.533470153808594
0.41,2.2887346744537354,-8.933603286743164,-3.4755747318267822,0.0933096632361412,0.1238529235124588,0.0007635815418325365,-16.471790313720703,38.35136032104492,-25.88424301147461
0.429,2.5112671852111816,-9.037691116333008,-3.6251261234283447,0.04260785132646561,0.1437060534954071,0.03191770985722542,-16.457176208496094,37.57673263549805,-25.197309494018555
0.433,2.5184457302093506,-9.019744873046875,-3.613162040710449,0.03695734962821007,0.14156801998615265,0.03985895588994026,-16.442562103271484,37.78135299682617,-24.70037841796875
0.44,2.5148565769195557,-8.96112060546875,-3.6299118995666504,0.020616700872778893,0.1362229436635971,0.055283304303884506,-16.340251922607422,38.30751037597656,-25.25577163696289
0.45,2.3533408641815186,-8.761320114135742,-3.6323046684265137,0.019853120669722557,0.11667525768280029,0.05513058975338936,-16.69102668762207,37.8251953125,-25.109615325927734
0.46,2.3401803970336914,-8.776873588562012,-3.644268751144409,0.026114489883184433,0.08796459436416626,0.041233401745557785,-16.647178649902344,37.664424896240234,-24.68576431274414
0.47,2.4251255989074707,-8.790033340454102,-3.6873395442962646,0.041691552847623825,0.06582073122262955,0.026572639122605324,-16.486408233642578,36.97748947143555,-24.919614791870117
0.49,2.472982168197632,-8.822336196899414,-3.651447057723999,0.06627887487411499,0.04581489413976669,0.030237827450037003,-16.924875259399414,38.263668060302734,-25.518856048583984
0.493,2.4083759784698486,-8.825925827026367,-3.5330023765563965,0.11041389405727386,0.0088575454428792,0.04612032324075699,-16.676410675048828,38.00058364868164,-25.270387649536133
0.5,2.3030917644500732,-8.891729354858398,-3.4157540798187256,0.12431107461452484,-0.014508049935102463,0.038026362657547,-17.26103401184082,37.8251953125,-25.489622116088867
0.51,2.1547367572784424,-8.999405860900879,-3.3714869022369385,0.14553864300251007,-0.03848451003432274,0.030695976689457893,-17.14410972595215,37.8251953125,-25.577316284179688
0.52,1.9130616188049316,-9.164510726928711,-3.2685956954956055,0.1449277698993683,-0.03176499158143997,0.022602012380957603,-17.129493713378906,37.51826858520508,-25.606548309326172
0.53,1.6378871202468872,-9.248259544372559,-3.2279176712036133,0.12095130980014801,0.0012217304902151227,0.01160643994808197,-17.012569427490234,38.205204010009766,-26.278865814208984
0.549,1.5840485095977783,-9.184849739074707,-3.1645078659057617,0.07757988572120667,0.1563815027475357,0.014202617108821869,-16.939491271972656,37.78135299682617,-25.694242477416992
0.553,1.7455641031265259,-8.96949577331543,-3.1992037296295166,0.07360926270484924,0.18845191597938538,0.02122756652534008,-17.056415557861328,37.91289138793945,-26.571178436279297
0.56,1.7778671979904175,-8.86660385131836,-3.2303104400634766,0.0734565407037735,0.21930061280727386,0.03481931984424591,-16.76410484313965,37.98596954345703,-25.986553192138672
0.57,1.8041881322860718,-8.815157890319824,-3.242274522781372,0.08796459436416626,0.256868839263916,0.050243668258190155,-16.69102668762207,38.17597198486328,-26.220401763916016
0.58,1.8843477964401245,-8.784051895141602,-3.2303104400634766,0.10461067408323288,0.2626720666885376,0.05971207842230797,-16.749486923217773,38.33674621582031,-25.84039878845215
0.59,2.0362918376922607,-8.755337715148926,-3.239881753921509,0.13026700913906097,0.23197607696056366,0.06261368840932846,-16.647178649902344,37.95673751831055,-25.913476943969727
0.61,2.17627215385437,-8.865407943725586,-3.201596736907959,0.19120082259178162,0.15271630883216858,0.11407908797264099,-16.96872329711914,37.839813232421875,-26.103479385375977
0.614,2.1332013607025146,-8.878567695617676,-3.1680970191955566,0.1973094791173935,0.14294245839118958,0.12018773704767227,-16.822566986083984,38.161354064941406,-26.191171646118164
0.62,2.0446667671203613,-8.909674644470215,-3.093919515609741,0.21700987219810486,0.11804971098899841,0.13775010406970978,-16.778718948364258,38.00058364868164,-26.32271385192871
0.63,1.9310078620910645,-8.876174926757812,-3.0448665618896484,0.23396137356758118,0.09743300080299377,0.161268413066864,-16.544870376586914,38.205204010009766,-26.366558074951172
0.64,1.903490424156189,-8.779266357421875,-3.0927231311798096,0.25014930963516235,0.07895433157682419,0.1820378452539444,-16.32563591003418,37.971351623535156,-26.088863372802734
0.65,1.8628122806549072,-8.787640571594238,-3.07716965675354,0.2724458873271942,0.07116580009460449,0.20295996963977814,-16.70564079284668,37.92750549316406,-26.673486709594727
0.671,1.84965181350708,-8.752944946289062,-3.280559778213501,0.2868012487888336,0.08704829961061478,0.21410825848579407,-16.442562103271484,38.08827590942383,-27.097341537475586
0.674,2.117647886276245,-8.69791030883789,-3.410968542098999,0.3171917796134949,0.07040221989154816,0.22479841113090515,-16.69102668762207,38.11751174926758,-26.907337188720703
0.68,2.20737886428833,-8.62492847442627,-3.452842950820923,0.3315471112728119,0.06582073122262955,0.23594669997692108,-16.574100494384766,38.32212829589844,-26.512714385986328
0.69,2.1774685382843018,-8.585447311401367,-3.4265217781066895,0.3669773042201996,0.051923543214797974,0.25824329257011414,-16.442562103271484,38.234432220458984,-26.87810707092285
0.7,2.0997018814086914,-8.532805442810059,-3.359522819519043,0.4004221558570862,0.04718933627009392,0.275347501039505,-16.647178649902344,38.36597442626953,-27.199649810791016
0.71,2.1619153022766113,-8.577072143554688,-3.231506824493408,0.4156937897205353,0.05467243865132332,0.2831360399723053,-15.901782989501953,38.07366180419922,-27.389652252197266
0.729,2.400001049041748,-8.671588897705078,-3.1202404499053955,0.37950003147125244,0.0685696229338646,0.33826664090156555,-16.617948532104492,38.395206451416016,-27.360422134399414
0.733,2.737389087677002,-8.86780071258545,-3.3128626346588135,0.3692680299282074,0.07238753139972687,0.3494149148464203,-16.179479598999023,38.38058853149414,-26.936567306518555
0.74,2.9204399585723877,-8.751748085021973,-3.6705896854400635,0.34055736660957336,0.06414084881544113,0.3770565688610077,-16.749486923217773,38.04443359375,-26.98041534423828
0.75,2.956332206726074,-8.37846851348877,-3.717249870300293,0.318566232919693,-0.021380282938480377,0.3911064863204956,-16.398714065551758,38.38058853149414,-27.126571655273438
0.76,2.8558335304260254,-7.9585280418396,-3.9385857582092285,0.3147483170032501,-0.11041389405727386,0.3549126982688904,-15.916398048400879,38.658287048339844,-27.667348861694336
0.77,2.7565317153930664,-8.048258781433105,-3.6502509117126465,0.3295617997646332,-0.16768251359462738,0.3543018102645874,-15.770242691040039,38.96521759033203,-27.915815353393555
0.79,2.3078773021698,-8.030312538146973,-3.517449140548706,0.29428431391716003,-0.13607022166252136,0.3813326060771942,-16.04793930053711,38.61444091796875,-28.06197166442871
0.794,2.3712871074676514,-7.678567886352539,-3.4887354373931885,0.23884831368923187,-0.05864306166768074,0.3121521472930908,-15.52177619934082,38.49751663208008,-28.80736541748047
0.8,2.638087034225464,-7.623532772064209,-3.46600341796875,0.21991148591041565,0.0024434609804302454,0.30726519227027893,-15.52177619934082,38.40982437133789,-29.26045036315918
0.81,3.122633457183838,-7.6283183097839355,-3.4671998023986816,0.20326539874076843,0.10384708642959595,0.33429598808288574,-15.56562328338623,38.848289489746094,-28.938907623291016
0.82,3.0616164207458496,-7.744369983673096,-3.4576287269592285,0.19593501091003418,0.18845191597938538,0.3478877544403076,-15.375621795654297,38.62905502319336,-29.055830001831055
0.83,2.9659035205841064,-7.936992645263672,-3.4265217781066895,0.19349156320095062,0.2968805134296417,0.34315353631973267,-15.127155303955078,38.570594787597656,-29.655071258544922
0.85,3.1621150970458984,-8.116454124450684,-3.4995031356811523,0.18707747757434845,0.4005748927593231,0.31093040108680725,-14.674072265625,38.73136520385742,-28.412744522094727
0.853,4.023531436920166,-8.539983749389648,-3.970889091491699,0.15286903083324432,0.43279802799224854,0.25564709305763245,-14.703303337097168,38.760597229003906,-29.231218338012695
0.86,4.450649738311768,-8.805586814880371,-3.9421751499176025,0.1241583600640297,0.403781920671463,0.2474004179239273,-15.390236854553223,38.950599670410156,-28.763521194458008
0.87,4.815555572509766,-9.32602596282959,-3.9086756706237793,0.06643159687519073,0.3556762933731079,0.24877485632896423,-15.22946548461914,38.468284606933594,-29.114294052124023
0.88,4.977071285247803,-9.786643981933594,-3.875175952911377,-0.004123340360820293,0.33292156457901,0.2759583592414856,-15.638701438903809,39.023677825927734,-28.953521728515625
0.89,5.107479572296143,-10.000802040100098,-3.967299699783325,-0.07712173461914062,0.3159700334072113,0.2756529450416565,-15.22946548461914,38.38058853149414,-28.28120231628418
0.91,5.3802618980407715,-9.919445991516113,-4.01754903793335,-0.1459967941045761,0.28298333287239075,0.23167064785957336,-15.083308219909668,38.67290496826172,-28.880443572998047
0.913,5.635097026824951,-9.641878128051758,-4.2209391593933105,-0.17363843321800232,0.21273382008075714,0.1713476926088333,-15.741011619567871,38.54136276245117,-28.471206665039062
0.92,5.6650071144104,-9.517451286315918,-4.49132776260376,-0.1670716404914856,0.18249599635601044,0.13255774974822998,-15.302543640136719,38.29289627075195,-27.72580909729004
0.93,5.742774486541748,-9.387042999267578,-4.89571475982666,-0.13958270847797394,0.14935654401779175,0.06017022579908371,-15.200233459472656,38.05904769897461,-28.16427993774414
0.94,5.851647853851318,-9.287740707397461,-5.218746185302734,-0.09911288321018219,0.09498954564332962,-0.04520402476191521,-15.331774711608887,38.51213073730469,-28.1496639251709
0.95,5.842076301574707,-9.2315092086792,-5.1218366622924805,-0.06139195337891579,0.050243668258190155,-0.15546520054340363,-14.73253345489502,38.658287048339844,-28.52967071533203
0.97,5.623133182525635,-9.257830619812012,-5.020142078399658,-0.06872233748435974,0.04688390716910362,-0.2837468981742859,-15.448699951171875,38.234432220458984,-26.95118522644043
0.973,5.278566360473633,-9.272187232971191,-4.923232555389404,-0.13607022166252136,0.09437867254018784,-0.44837507605552673,-15.258696556091309,38.24905014038086,-27.228879928588867
0.98,5.152943134307861,-9.189635276794434,-4.7796630859375,-0.19562958180904388,0.1333213448524475,-0.554818332195282,-15.916398048400879,38.43905258178711,-27.038877487182617
0.99,5.017748832702637,-8.85224723815918,-4.7126641273498535,-0.29474249482154846,0.18600846827030182,-0.7012733221054077,-16.23794174194336,38.67290496826172,-26.629642486572266
1.0,4.998606204986572,-8.583054542541504,-4.689931869506836,-0.3952298164367676,0.24404066801071167,-0.8245153427124023,-16.06255531311035,38.68751907348633,-27.141185760498047
1.01,5.155336380004883,-8.183452606201172,-4.845465660095215,-0.4879285991191864,0.2532036304473877,-1.0013607740402222,-16.60333251953125,38.49751663208008,-26.571178436279297
1.03,5.487938404083252,-7.758727073669434,-4.937589645385742,-0.5364924073219299,0.19425514340400696,-1.127810001373291,-18.123355865478516,38.789825439453125,-26.4104061126709
1.033,5.810969829559326,-7.496713161468506,-4.9639105796813965,-0.5659666657447815,0.03848451003432274,-1.253495454788208,-18.459514617919922,38.87752151489258,-25.855012893676758
1.04,5.882754325866699,-7.479963302612305,-4.9292144775390625,-0.5748242139816284,-0.08781187981367111,-1.3113750219345093,-18.737211227416992,38.89213943481445,-26.05963134765625
1.05,5.839683532714844,-7.603193759918213,-4.890929222106934,-0.5845980048179626,-0.2600758671760559,-1.3723087310791016,-18.72259521484375,38.804443359375,-26.43963623046875
1.06,5.638686656951904,-7.874779224395752,-4.723431587219238,-0.6203336119651794,-0.4465424716472626,-1.4248430728912354,-18.97106170654297,38.5267448425293,-26.205787658691406
1.07,5.274977207183838,-8.299505233764648,-4.570291042327881,-0.6682865619659424,-0.5477933883666992,-1.4508049488067627,-19.234142303466797,38.92136764526367,-25.957321166992188
1.09,4.8777689933776855,-8.440681457519531,-4.323830604553223,-0.727998673915863,-0.5963572263717651,-1.4674509763717651,-19.394912719726562,38.585208892822266,-25.548086166381836
1.094,4.351347923278809,-8.535198211669922,-3.999603033065796,-0.8286387324333191,-0.5325217843055725,-1.4721851348876953,-19.614147186279297,38.5267448425293,-24.656532287597656
1.1,4.1347975730896,-8.598608016967773,-3.950549840927124,-0.8662069439888,-0.47830748558044434,-1.4685200452804565,-20.198772430419922,38.33674621582031,-24.67115020751953
1.11,3.972085475921631,-8.532805442810059,-4.01754903793335,-0.9443976879119873,-0.30833423137664795,-1.447292447090149,-20.724933624267578,38.07366180419922,-24.2911434173584
1.12,3.896711587905884,-8.287540435791016,-4.089333534240723,-0.9828821420669556,-0.16019940376281738,-1.4278974533081055,-21.251096725463867,38.40982437133789,-23.735750198364258
1.13,3.923032522201538,-8.110472679138184,-4.231706619262695,-0.9999863505363464,-0.0177150908857584,-1.4199562072753906,-21.38263702392578,38.11751174926758,-23.677288055419922
1.15,4.089333534240723,-8.084151268005371,-4.192224979400635,-0.9902125597000122,0.10002917796373367,-1.4048372507095337,-21.967260360717773,37.854427337646484,-23.22420310974121
1.153,4.335794448852539,-8.127222061157227,-4.240081787109375,-0.9737191796302795,0.22647827863693237,-1.3831515312194824,-22.858814239501953,38.17597198486328,-22.72727394104004
1.16,4.60020112991333,-8.160720825195312,-4.206582069396973,-0.9642508029937744,0.24159719049930573,-1.3762794733047485,-23.268049240112305,37.91289138793945,-21.92341423034668
1.17,4.9184465408325195,-8.255237579345703,-4.053441524505615,-0.957531213760376,0.2177734524011612,-1.355204463005066,-23.063430786132812,37.88365936279297,-22.493423461914062
1.18,4.883750915527344,-8.39282512664795,-3.829712390899658,-0.9589056968688965,0.17623461782932281,-1.3135130405426025,-23.998830795288086,37.24057388305664,-21.441099166870117
1.19,4.82751989364624,-8.49452018737793,-3.7531421184539795,-0.9766207933425903,0.1388191282749176,-1.271515965461731,-24.627302169799805,36.919029235839844,-21.48494529724121
1.21,4.753342151641846,-8.47896671295166,-3.7124643325805664,-0.9830348491668701,0.128434419631958,-1.2272282838821411,-25.358083724975586,36.23209762573242,-20.564163208007812
1.213,4.590630054473877,-8.190631866455078,-3.723231792449951,-0.9521862268447876,0.13301590085029602,-1.154382586479187,-25.29962158203125,36.37825393676758,-19.482608795166016
1.22,4.59302282333374,-8.053044319152832,-3.675375461578369,-0.9217956066131592,0.12446378916501999,-1.1369730234146118,-25.78193473815918,35.910552978515625,-19.90645980834961
1.23,4.656432628631592,-7.884350299835205,-3.735196113586426,-0.8729264140129089,0.10949759185314178,-1.1038334369659424,-26.79041290283203,35.95439910888672,-19.497222900390625
1.24,4.721038818359375,-7.691728115081787,-3.7399816513061523,-0.8051204085350037,0.04871650040149689,-1.0772608518600464,-26.658872604370117,35.63285446166992,-19.27798843383789
1.25,4.754538536071777,-7.451249122619629,-3.693321704864502,-0.7270823121070862,-0.042760565876960754,-1.0600038766860962,-26.775794982910156,35.106693267822266,-19.80415153503418
1.27,4.666004180908203,-7.29810905456543,-3.6646077632904053,-0.624609649181366,-0.18829920887947083,-1.019075870513916,-26.98041534423828,35.311309814453125,-19.46799087524414
1.273,4.351347923278809,-7.278965950012207,-3.6299118995666504,-0.5348125100135803,-0.3228422701358795,-0.9750936627388,-27.565038681030273,34.9459228515625,-18.91259765625
1.28,4.177868366241455,-7.324429988861084,-3.576073169708252,-0.498924195766449,-0.38698312640190125,-0.9408851265907288,-27.565038681030273,35.25284957885742,-17.933351516723633
1.29,4.003191947937012,-7.300501823425293,-3.5198421478271484,-0.4651738703250885,-0.4786129295825958,-0.8823947906494141,-27.930429458618164,34.37591552734375,-18.225666046142578
1.3,3.672982692718506,-7.27537727355957,-3.4815566539764404,-0.4462370276451111,-0.531758189201355,-0.8100072741508484,-27.988893508911133,34.551300048828125,-17.78719711303711
1.31,3.483949661254883,-7.251449108123779,-3.5162527561187744,-0.436157763004303,-0.5667302012443542,-0.7435756921768188,-28.018123626708984,34.185909271240234,-17.582576751708984
1.33,3.5090742111206055,-7.160521507263184,-3.816551923751831,-0.389426589012146,-0.5986478924751282,-0.6311764717102051,-27.988893508911133,34.01052474975586,-17.173341751098633
1.334,3.970889091491699,-7.624728679656982,-3.8249268531799316,-0.2926044464111328,-0.6345362663269043,-0.46242499351501465,-27.857351303100586,34.171295166015625,-17.962583541870117
1.34,3.909872055053711,-8.124829292297363,-3.538984537124634,-0.22082778811454773,-0.6499606370925903,-0.3013092875480652,-27.594270706176758,33.89359664916992,-17.567962646484375
1.35,3.373879909515381,-8.59501838684082,-3.5330023765563965,-0.1434006243944168,-0.5994114875793457,-0.10262536257505417,-27.214263916015625,34.02513885498047,-17.04180145263672
1.36,2.926422119140625,-8.47059154510498,-3.4707889556884766,-0.059406641870737076,-0.5340489149093628,0.020005837082862854,-27.228879928588867,33.83513641357422,-16.997953414916992
1.37,2.874976396560669,-7.947760105133057,-3.4887354373931885,0.039706241339445114,-0.46364670991897583,0.12400564551353455,-27.185035705566406,34.01052474975586,-16.910259246826172
1.389,3.1166512966156006,-7.361518859863281,-3.410968542098999,0.13515393435955048,-0.45433101058006287,0.20555615425109863,-27.375036239624023,33.93744659423828,-17.027183532714844
1.393,2.9515466690063477,-7.392625331878662,-3.3068807125091553,0.20906862616539001,-0.4491386413574219,0.32330042123794556,-26.921951293945312,33.8643684387207,-16.895645141601562
1.4,2.7254250049591064,-7.592426300048828,-3.410968542098999,0.2393064647912979,-0.43768492341041565,0.38240164518356323,-27.50657844543457,34.127445220947266,-17.567962646484375
1.41,2.544766664505005,-7.819744110107422,-3.483949661254883,0.2600758671760559,-0.41111230850219727,0.451582133769989,-26.819643020629883,34.200523376464844,-17.14410972595215
1.42,2.554337978363037,-7.963313102722168,-3.7531421184539795,0.2822197377681732,-0.3966042399406433,0.5316054821014404,-26.585792541503906,33.68898010253906,-16.69102668762207
1.43,2.4981067180633545,-8.115257263183594,-3.975674629211426,0.3142901659011841,-0.36789360642433167,0.628885805606842,-26.32271385192871,34.88745880126953,-16.96872329711914
1.45,2.599801778793335,-8.208578109741211,-4.144368648529053,0.34574970602989197,-0.3491095006465912,0.6937901973724365,-26.05963134765625,34.85823059082031,-17.14410972595215
1.453,2.5495524406433105,-8.490930557250977,-3.7256245613098145,0.38576140999794006,-0.3295617997646332,0.811687171459198,-26.118093490600586,34.2882194519043,-17.641040802001953
1.46,2.5531415939331055,-8.749356269836426,-3.933800458908081,0.3874412775039673,-0.34437528252601624,0.8393288254737854,-26.001171112060547,34.46360778808594,-17.114879608154297
1.47,2.324627161026001,-9.05563735961914,-3.4887354373931885,0.3819434940814972,-0.3649919927120209,0.8753698468208313,-24.97807502746582,34.755916595458984,-16.997953414916992
1.48,2.2743778228759766,-8.971887588500977,-3.8153557777404785,0.379652738571167,-0.3530800938606262,0.9042332768440247,-25.12423324584961,34.58053207397461,-16.018707275390625
1.49,2.2636101245880127,-8.981459617614746,-3.6406795978546143,0.3793473243713379,-0.3153591752052307,0.9361509680747986,-24.919614791870117,34.682838439941406,-16.2525577545166
1.51,1.9896320104599,-8.811569213867188,-3.638286828994751,0.3813326060771942,-0.24419337511062622,0.9813550114631653,-24.39345359802246,34.58053207397461,-17.845659255981445
1.514,1.6905291080474854,-8.659625053405762,-3.5030922889709473,0.3807217478752136,-0.10522153228521347,1.003498911857605,-23.954984664916992,34.6243782043457,-17.42180633544922
1.52,1.6175479888916016,-8.58664321899414,-3.5258240699768066,0.38377609848976135,-0.02428189292550087,1.006095051765442,-23.458053588867188,35.16515350341797,-17.655654907226562
1.53,1.5649060010910034,-8.359325408935547,-3.4504499435424805,0.3854559361934662,0.06368270516395569,0.9984592199325562,-23.00497055053711,35.61824035644531,-16.895645141601562
1.54,1.6462620496749878,-8.263612747192383,-3.3990042209625244,0.3914119005203247,0.13148874044418335,0.983951210975647,-23.31189727783203,35.51593017578125,-17.23180389404297
1.55,1.7084753513336182,-8.329415321350098,-3.3403801918029785,0.3799581825733185,0.19456057250499725,0.9755517840385437,-23.092662811279297,35.472084045410156,-16.910259246826172
1.569,1.7778671979904175,-8.289934158325195,-3.445664644241333,0.37720927596092224,0.2617557644844055,0.9824240207672119,-22.639577865600586,35.3843879699707,-16.98333740234375
1.573,1.7874385118484497,-8.292326927185059,-3.2829525470733643,0.3810271620750427,0.3275764584541321,0.9857837557792664,-22.44957733154297,35.45746612548828,-17.494884490966797
1.581,1.8484554290771484,-8.310272216796875,-3.276970386505127,0.3816380500793457,0.3494149148464203,0.9810495376586914,-22.361881256103516,35.44285202026367,-17.933351516723633
1.59,2.001595973968506,-8.380861282348633,-3.3020951747894287,0.38896840810775757,0.36819902062416077,0.9807441234588623,-21.791873931884766,35.3843879699707,-17.480268478393555
1.6,2.0470597743988037,-8.440681457519531,-3.314059257507324,0.41034871339797974,0.37782013416290283,0.9900597929954529,-21.748027801513672,35.95439910888672,-18.16720199584961
1.61,2.0470597743988037,-8.641678810119629,-3.308077335357666,0.4352414906024933,0.3758348524570465,0.9964739084243774,-21.908798217773438,35.69131851196289,-18.517976760864258
1.63,2.0374884605407715,-8.965906143188477,-3.184846878051758,0.4584543704986572,0.3904955983161926,1.0082330703735352,-21.411867141723633,36.0859375,-18.3718204498291
1.634,2.1990039348602295,-9.206384658813477,-3.0580272674560547,0.4922046661376953,0.4005748927593231,1.010829210281372,-21.426483154296875,35.99824523925781,-18.678749084472656
1.64,2.1882362365722656,-9.34157943725586,-3.0556344985961914,0.5002986192703247,0.407905250787735,1.0261008739471436,-21.733409881591797,35.910552978515625,-18.44489860534668
1.65,2.1236300468444824,-9.248259544372559,-3.2039895057678223,0.512210488319397,0.4170682430267334,1.028849720954895,-21.514177322387695,35.969017028808594,-18.956445693969727
1.66,2.0817556381225586,-9.050850868225098,-3.324826955795288,0.5325217843055725,0.4210388660430908,1.0125091075897217,-21.046478271484375,36.465946197509766,-18.18181800842285
1.67,1.9597216844558716,-8.876174926757812,-3.300898551940918,0.5535966157913208,0.4415028393268585,1.0028879642486572,-21.031862258911133,36.21747970581055,-18.28412628173828
1.689,1.8376877307891846,-8.691927909851074,-3.37268328666687,0.5832235813140869,0.4862487316131592,0.9779952168464661,-20.92955207824707,36.80210494995117,-19.014907836914062
1.693,2.1858434677124023,-8.419146537780762,-3.5126636028289795,0.6278167366981506,0.5345070958137512,0.960280179977417,-20.593395233154297,36.56825256347656,-18.824905395507812
1.7,2.392822504043579,-8.295915603637695,-3.555734395980835,0.6641632318496704,0.5364924073219299,0.9659306406974792,-20.30108070373535,36.75825881958008,-19.46799087524414
1.71,2.4705893993377686,-8.178667068481445,-3.6358938217163086,0.716697633266449,0.517861008644104,0.9728028774261475,-20.315698623657227,37.45980453491211,-19.234142303466797
1.72,2.568694829940796,-8.204988479614258,-3.6251261234283447,0.7632761001586914,0.4789183437824249,0.9744827747344971,-20.564163208007812,37.1236457824707,-19.394912719726562
1.73,2.7936203479766846,-8.159524917602539,-3.672982692718506,0.8148941993713379,0.407905250787735,0.9731083512306213,-19.687227249145508,37.18210983276367,-19.16106414794922
1.749,2.9790639877319336,-8.126025199890137,-3.623929738998413,0.8509352803230286,0.3274237811565399,0.9778425097465515,-19.701841354370117,37.51826858520508,-19.701841354370117
1.753,2.981456995010376,-8.312665939331055,-3.4576287269592285,0.8778132796287537,0.2102903574705124,0.9825767278671265,-19.0733699798584,37.51826858520508,-19.877227783203125
1.76,2.8929224014282227,-8.37129020690918,-3.500699520111084,0.8753698468208313,0.1463022232055664,0.9813550114631653,-19.482608795166016,37.37211227416992,-20.505699157714844
1.77,2.915654182434082,-8.401200294494629,-3.6083762645721436,0.8684976100921631,0.08491026610136032,0.9750936627388,-18.91259765625,37.88365936279297,-20.8126277923584
1.78,2.926422119140625,-8.440681457519531,-3.6921253204345703,0.8579602241516113,0.014049900695681572,0.973566472530365,-18.941829681396484,38.07366180419922,-20.388774871826172
1.79,3.0556344985961914,-8.451449394226074,-3.882354736328125,0.850171685218811,-0.019853120669722557,0.9827294945716858,-18.78105926513672,38.35136032104492,-21.01724624633789
1.81,2.84386944770813,-8.39282512664795,-3.996013641357422,0.8570439219474792,-0.06429356336593628,0.9931141138076782,-18.459514617919922,38.585208892822266,-21.455713272094727
1.814,2.390429735183716,-8.435895919799805,-3.975674629211426,0.8866708874702454,-0.08170322328805923,0.9521862268447876,-17.772581100463867,38.68751907348633,-22.11341667175293
1.82,2.258824348449707,-8.520841598510742,-3.9625141620635986,0.8965974450111389,-0.0708603635430336,0.9340129494667053,-17.50950050354004,38.97983169555664,-21.00263023376465
1.83,2.3306093215942383,-8.58784008026123,-4.033102512359619,0.9250026345252991,-0.02519819140434265,0.8949176073074341,-17.15872573852539,38.64366912841797,-22.39111328125
1.841,2.368894338607788,-8.505288124084473,-4.047459602355957,0.9534079432487488,0.0073303827084600925,0.8732318878173828,-16.70564079284668,38.87752151489258,-22.434959411621094
1.85,2.341376781463623,-8.666803359985352,-4.092923164367676,0.9624181985855103,0.02626720443367958,0.8472700715065002,-16.6325626373291,39.038291931152344,-21.967260360717773
1.869,2.3880369663238525,-8.995816230773926,-4.082155227661133,0.9439395070075989,0.03039054572582245,0.8222246170043945,-16.720256805419922,39.11137008666992,-22.303421020507812
1.873,2.4921247959136963,-9.241080284118652,-4.120440483093262,0.8799513578414917,0.03588833287358284,0.7990117073059082,-16.296403884887695,39.62291717529297,-22.65419578552246
1.88,2.458625316619873,-9.347561836242676,-4.112065315246582,0.8176431059837341,0.04260785132646561,0.797789990901947,-16.179479598999023,39.345218658447266,-23.29728126525879
1.89,2.135594129562378,-9.428916931152344,-4.034298896789551,0.7454083561897278,0.07880160957574844,0.783892810344696,-15.960245132446289,39.53522491455078,-24.334989547729492
1.9,1.9692928791046143,-9.402596473693848,-4.061816215515137,0.6789767146110535,0.16172656416893005,0.775340735912323,-15.41946792602539,39.579071044921875,-23.472667694091797
1.91,1.7910276651382446,-9.18604564666748,-4.1659040451049805,0.6320928335189819,0.2594650089740753,0.7483099102973938,-14.790996551513672,39.944461822509766,-24.101139068603516
1.93,1.7383856773376465,-8.903693199157715,-4.268795490264893,0.6104071140289307,0.34605515003204346,0.7041748762130737,-14.849458694458008,40.2221565246582,-23.458053588867188
1.934,2.1607186794281006,-8.745766639709473,-4.278366565704346,0.6114761233329773,0.4193589985370636,0.6316346526145935,-14.498684883117676,40.28062057495117,-24.656532287597656
1.94,2.2923240661621094,-8.69791030883789,-4.293920040130615,0.6171265840530396,0.4159992039203644,0.6012440919876099,-14.805611610412598,40.04676818847656,-24.817304611206055
1.95,2.4095723628997803,-8.796015739440918,-4.153940200805664,0.6096435189247131,0.37797287106513977,0.5580253601074219,-14.659457206726074,40.29523468017578,-25.007307052612305
1.96,2.3533408641815186,-8.841479301452637,-4.171885967254639,0.5884159207344055,0.3254384398460388,0.5152648091316223,-14.703303337097168,40.35369873046875,-24.232681274414062
1.97,2.3222343921661377,-8.895318031311035,-4.198206901550293,0.5586362481117249,0.2750420570373535,0.4778493344783783,-14.498684883117676,40.29523468017578,-24.334989547729492
1.989,2.396411657333374,-9.052047729492188,-4.218545913696289,0.5242750644683838,0.22220222651958466,0.4514293968677521,-14.367143630981445,40.28062057495117,-24.627302169799805
1.993,2.423929214477539,-9.335597038269043,-4.107280254364014,0.47448956966400146,0.16279558837413788,0.4450153112411499,-14.469453811645508,40.45600509643555,-24.86115074157715
2.0,2.376072883605957,-9.425328254699707,-4.147957801818848,0.4424191415309906,0.13759739696979523,0.44837507605552673,-13.753289222717285,40.499855041503906,-24.48114585876465
2.01,2.3712871074676514,-9.357131958007812,-4.199403762817383,0.408974289894104,0.09315694868564606,0.4453207552433014,-14.250219345092773,40.82139587402344,-25.168079376220703
2.02,2.3569302558898926,-9.382257461547852,-4.177868366241455,0.38377609848976135,0.0607810914516449,0.45173484086990356,-14.206372261047363,41.2014045715332,-25.621164321899414
2.03,2.2480568885803223,-9.359525680541992,-4.242474555969238,0.36789360642433167,0.025656340643763542,0.4453207552433014,-13.840982437133789,40.70447540283203,-25.67962646484375
2.05,2.2025930881500244,-9.432506561279297,-4.241277694702148,0.35735616087913513,0.009162978269159794,0.4182899594306946,-14.294065475463867,40.777549743652344,-25.32884979248047
2.053,2.30069899559021,-9.525826454162598,-4.443471431732178,0.34147366881370544,0.005345070734620094,0.39477166533470154,-13.431745529174805,40.894474029541016,-25.825780868530273
2.06,2.3772692680358887,-9.57368278503418,-4.457828521728516,0.3274237811565399,0.005955935921519995,0.38728857040405273,-13.753289222717285,40.93832015991211,-25.88424301147461
2.07,2.328216314315796,-9.523433685302734,-4.681557655334473,0.3173445165157318,0.027488935738801956,0.39645153284072876,-13.44636058807373,41.186790466308594,-25.942707061767578
2.08,2.462214469909668,-9.639486312866211,-4.894518852233887,0.36254850029945374,0.05375614017248154,0.36972618103027344,-13.417129516601562,40.90909194946289,-25.88424301147461
2.09,2.744567632675171,-9.751948356628418,-4.1347975730896,0.36224305629730225,0.06612616032361984,0.38011088967323303,-13.358667373657227,41.318328857421875,-26.278865814208984
2.11,2.6727828979492188,-10.241281509399414,-4.316651821136475,0.34147366881370544,0.10797043144702911,0.4017966091632843,-13.504822731018066,41.25986862182617,-26.54194450378418
2.114,3.043670415878296,-10.709076881408691,-4.6061835289001465,0.33689215779304504,0.06994406878948212,0.35017848014831543,-12.993276596069336,41.61064147949219,-25.606548309326172
2.12,3.3164520263671875,-10.923234939575195,-4.60139799118042,0.32788190245628357,0.04841107130050659,0.355981707572937,-13.16866397857666,41.34756088256836,-26.468870162963867
2.13,3.4815566539764404,-11.048858642578125,-4.926821708679199,0.30344730615615845,-0.01725694164633751,0.33399054408073425,-12.978660583496094,41.04063034057617,-26.907337188720703
2.14,3.610769271850586,-11.108678817749023,-4.749752521514893,0.2664899528026581,-0.11453723162412643,0.28008171916007996,-13.037124633789062,41.59602355957031,-26.366558074951172
2.15,3.6406795978546143,-11.37547779083252,-3.6849467754364014,0.16233743727207184,-0.1434006243944168,0.2838996350765228,-13.124817848205566,41.888336181640625,-26.074249267578125
2.169,2.987438917160034,-11.169695854187012,-3.566502094268799,-0.005497787147760391,-0.0757472887635231,0.2831360399723053,-12.876352310180664,41.40602111816406,-26.585792541503906
2.173,2.3150558471679688,-10.243673324584961,-3.4301111698150635,-0.1892155110836029,0.11667525768280029,0.22968532145023346,-13.051739692687988,41.157554626464844,-25.986553192138672
2.18,2.2133607864379883,-9.678967475891113,-3.414557933807373,-0.2718350291252136,0.24129176139831543,0.16264288127422333,-13.300204277038574,40.689857482910156,-25.270387649536133
2.19,2.596212387084961,-9.04845905303955,-3.5856447219848633,-0.35613444447517395,0.4024074673652649,0.022602012380957603,-13.21251106262207,41.05524826049805,-25.92809295654297
2.2,3.284149169921875,-8.319844245910645,-4.101297855377197,-0.3523165285587311,0.44425174593925476,-0.08399397134780884,-13.285589218139648,40.61677932739258,-25.986553192138672
2.21,3.8500516414642334,-7.8041911125183105,-4.709074974060059,-0.3084869384765625,0.3908010423183441,-0.215482696890831,-12.949429512023926,40.1636962890625,-25.34346580505371
2.23,4.761716842651367,-7.640282154083252,-5.091926097869873,-0.22632557153701782,0.1673770695924759,-0.36422839760780334,-13.519438743591309,40.83601379394531,-26.045015335083008
2.233,5.166103839874268,-7.917849540710449,-4.626522541046143,-0.15531249344348907,-0.28787022829055786,-0.5642867684364319,-14.177140235900879,40.99678421020508,-25.065771102905273
2.24,5.054837703704834,-8.342576026916504,-3.8009984493255615,-0.17088955640792847,-0.5006040930747986,-0.6623306274414062,-13.972522735595703,40.879859924316406,-25.15346336364746
2.25,4.405186176300049,-8.806783676147461,-3.1034910678863525,-0.242513507604599,-0.6814201474189758,-0.7626652121543884,-14.191757202148438,41.069862365722656,-25.41654396057129
2.26,3.91705060005188,-9.109475135803223,-2.592623233795166,-0.36804628372192383,-0.7570146918296814,-0.8439103364944458,-14.717918395996094,41.28909683227539,-24.817304611206055
2.27,4.080958843231201,-9.115457534790039,-2.888136863708496,-0.513126790523529,-0.8240572214126587,-0.9630290865898132,-14.73253345489502,41.01139831542969,-24.890382766723633
2.289,4.687539577484131,-9.205188751220703,-3.135793924331665,-0.6131559610366821,-0.9285151958465576,-1.0661126375198364,-14.95176887512207,40.83601379394531,-25.021923065185547
2.293,5.093122959136963,-9.445667266845703,-3.2925240993499756,-0.7093672156333923,-1.1623238325119019,-1.1675162315368652,-14.747150421142578,40.74831771850586,-24.101139068603516
2.3,5.106283187866211,-9.781858444213867,-3.245863676071167,-0.7449501156806946,-1.2974777221679688,-1.2179125547409058,-15.156386375427246,41.142940521240234,-24.071908950805664
2.31,5.054837703704834,-10.438688278198242,-3.1345977783203125,-0.7845036387443542,-1.4367550611495972,-1.2773191928863525,-15.872551918029785,40.99678421020508,-24.247295379638672
2.32,4.7952165603637695,-10.983055114746094,-3.056830644607544,-0.82207190990448,-1.5193744897842407,-1.3315335512161255,-15.872551918029785,40.73370361328125,-23.458053588867188
2.33,4.271188259124756,-11.413763999938965,-2.8319056034088135,-0.8565858006477356,-1.5164729356765747,-1.387274980545044,-15.887167930603027,40.514469146728516,-23.194971084594727
2.35,3.820141077041626,-11.776276588439941,-2.5220348834991455,-0.9002626538276672,-1.4126259088516235,-1.4422528743743896,-16.296403884887695,41.11370849609375,-22.66880989074707
2.353,3.177668571472168,-12.011969566345215,-2.3880369663238525,-1.006095051765442,-1.105513334274292,-1.5323554277420044,-16.837182998657227,40.8652458190918,-22.215726852416992
2.36,3.0687947273254395,-11.986844062805176,-2.2025930881500244,-1.0651962757110596,-0.9156869649887085,-1.5961909294128418,-16.807950973510742,40.79216766357422,-21.48494529724121
2.37,2.9802606105804443,-11.871988296508789,-2.122433662414551,-1.1491901874542236,-0.6876814961433411,-1.6977472305297852,-17.69950294494629,40.28062057495117,-21.528793334960938
2.38,3.053241491317749,-11.510672569274902,-2.2564315795898438,-1.221577763557434,-0.4723515212535858,-1.8081610202789307,-18.327974319458008,40.397544860839844,-21.031862258911133
2.39,3.2590243816375732,-11.082358360290527,-2.3365912437438965,-1.2750284671783447,-0.33948835730552673,-1.926363468170166,-18.88336753845215,39.98830795288086,-20.520315170288086
2.41,3.073580503463745,-10.814361572265625,-2.5471596717834473,-1.3095422983169556,-0.18799376487731934,-2.066098928451538,-19.92107582092285,39.87138366699219,-20.35954475402832
2.413,3.269791841506958,-10.75813102722168,-2.530409812927246,-1.324813961982727,-0.11682797223329544,-2.196518659591675,-21.075708389282227,38.950599670410156,-19.482608795166016
2.42,3.479163885116577,-10.788040161132812,-2.603391170501709,-1.3351987600326538,-0.09819658100605011,-2.258674383163452,-21.864952087402344,39.16983413696289,-18.956445693969727
2.43,3.5270204544067383,-10.792826652526855,-2.5698914527893066,-1.3333660364151,-0.08765916526317596,-2.288759231567383,-22.230342864990234,38.61444091796875,-18.18181800842285
2.44,3.393022298812866,-10.8969144821167,-2.3952155113220215,-1.338711142539978,-0.06658431142568588,-2.30051851272583,-23.253435134887695,38.4828987121582,-17.114879608154297
2.45,3.166900634765625,-11.102697372436523,-2.348555326461792,-1.3591750860214233,-0.05146539583802223,-2.306474208831787,-24.32037353515625,38.07366180419922,-17.14410972595215
2.469,3.1334011554718018,-11.216355323791504,-2.3772692680358887,-1.3741413354873657,-0.038026362657547,-2.3076961040496826,-24.96346092224121,37.81058120727539,-16.07716941833496
2.473,3.2961132526397705,-11.148159980773926,-2.489731788635254,-1.3762794733047485,-0.058337628841400146,-2.289522886276245,-25.84039878845215,36.87518310546875,-15.14177131652832
2.48,3.2446675300598145,-11.088339805603027,-2.423929214477539,-1.3742940425872803,-0.0933096632361412,-2.2646303176879883,-26.42502212524414,36.465946197509766,-15.448699951171875
2.49,2.981456995010376,-10.960323333740234,-2.3880369663238525,-1.3663527965545654,-0.12568552792072296,-2.2316434383392334,-27.199649810791016,35.44285202026367,-14.995615005493164
2.5,2.713460922241211,-10.788040161132812,-2.3270199298858643,-1.3461942672729492,-0.11316278576850891,-2.1783454418182373,-28.06197166442871,35.01900100708008,-14.235603332519531
2.51,2.3952155113220215,-10.39202880859375,-2.304288148880005,-1.31748366355896,-0.0607810914516449,-2.127490758895874,-28.354280471801758,34.200523376464844,-13.431745529174805
2.53,2.228914260864258,-10.03310489654541,-2.2671992778778076,-1.2745702266693115,0.006872233934700489,-2.085341215133667,-29.304296493530273,33.30897521972656,-12.817889213562012
2.533,2.087737560272217,-9.613164901733398,-2.283949136734009,-1.217149019241333,0.1062905564904213,-2.0282251834869385,-30.049694061279297,32.47588348388672,-12.043262481689453
2.54,2.0374884605407715,-9.342775344848633,-2.342573404312134,-1.1830931901931763,0.1647808998823166,-1.9935587644577026,-30.502779006958008,31.218942642211914,-12.101724624633789
2.55,2.0721843242645264,-8.920442581176758,-2.3712871074676514,-1.1175779104232788,0.24113905429840088,-1.950339913368225,-32.066646575927734,30.298158645629883,-9.923998832702637
2.56,2.2468602657318115,-8.421539306640625,-2.3497517108917236,-1.0674870014190674,0.26313018798828125,-1.9062049388885498,-31.978952407836914,29.36275863647461,-9.880152702331543
2.57,2.427518606185913,-8.207381248474121,-2.368894338607788,-1.0073168277740479,0.2623666226863861,-1.8471038341522217,-33.22127914428711,28.354280471801758,-9.22244930267334
2.58,2.5232315063476562,-8.030312538146973,-2.4466609954833984,-0.946382999420166,0.2477058470249176,-1.7846428155899048,-33.74744415283203,27.72580909729004,-7.877813339233398
2.594,2.902493953704834,-7.728816986083984,-2.5148565769195557,-0.8484918475151062,0.20204368233680725,-1.6948455572128296,-33.87898254394531,26.161941528320312,-6.489330291748047
2.601,3.0077779293060303,-7.646264553070068,-2.469392776489258,-0.7754933834075928,0.13286319375038147,-1.606575608253479,-34.59514617919922,24.802688598632812,-5.860859394073486
2.61,2.8630123138427734,-7.377071857452393,-2.63449764251709,-0.7026477456092834,0.04352414980530739,-1.534035325050354,-34.2882194519043,24.934228897094727,-5.9339375495910645
2.62,2.7589244842529297,-6.9511494636535645,-2.664407968521118,-0.6383541822433472,-0.04444044828414917,-1.4792102575302124,-35.0043830871582,23.721134185791016,-4.472376346588135
2.63,2.733799695968628,-6.591030120849609,-2.733799695968628,-0.5879577994346619,-0.1371392458677292,-1.4144585132598877,-34.82899475097656,22.624963760375977,-3.843905448913574
2.649,2.7637100219726562,-6.345765590667725,-2.80558443069458,-0.5340489149093628,-0.21105393767356873,-1.3298536539077759,-34.726688385009766,22.434959411621094,-2.630809783935547
2.653,2.754138708114624,-6.116054534912109,-2.964707136154175,-0.4521929919719696,-0.3116939663887024,-1.182176947593689,-34.31745147705078,21.00263023376465,-1.1838643550872803
2.66,2.775674343109131,-6.128018856048584,-2.794816732406616,-0.4170682430267334,-0.3536909520626068,-1.0977247953414917,-34.08360290527344,20.73954963684082,-0.5115463137626648
2.67,2.7086751461029053,-6.248856067657471,-2.603391170501709,-0.3807217478752136,-0.37950003147125244,-0.9720392823219299,-33.542823791503906,19.424144744873047,1.1107863187789917
2.68,2.685943365097046,-6.4079790115356445,-2.606980323791504,-0.360105037689209,-0.384234219789505,-0.8371908068656921,-33.51359558105469,18.97106170654297,2.3238818645477295
2.69,2.6141586303710938,-6.484549045562744,-2.816352128982544,-0.3488040566444397,-0.3576616048812866,-0.6867652535438538,-33.01666259765625,18.591054916381836,3.2446651458740234
2.71,2.6249263286590576,-6.163910865783691,-3.3786656856536865,-0.31413745880126953,-0.35582900047302246,-0.5433646440505981,-31.993568420410156,18.386436462402344,4.267758369445801
2.714,3.0520453453063965,-6.171089172363281,-3.2590243816375732,-0.18860463798046112,-0.49128836393356323,-0.38011088967323303,-30.824321746826172,17.465654373168945,7.263957500457764
2.72,2.798405885696411,-6.288337707519531,-3.3439693450927734,-0.15851953625679016,-0.488539457321167,-0.22021691501140594,-30.122772216796875,17.34872817993164,7.205495357513428
2.73,2.657229423522949,-6.515655517578125,-3.511467218399048,-0.08216137439012527,-0.4873177409172058,-0.059864792972803116,-28.354280471801758,17.392576217651367,7.8485822677612305
2.74,2.7050859928131104,-6.56829833984375,-3.620340585708618,0.012064589187502861,-0.4752531349658966,0.08109235763549805,-27.681964874267578,17.582576751708984,9.690149307250977
2.75,2.5842483043670654,-6.5527448654174805,-3.3619158267974854,0.11743884533643723,-0.42898011207580566,0.266642689704895,-27.06810760498047,17.69950294494629,10.713241577148438
2.769,2.4873390197753906,-6.973881244659424,-3.31884503364563,0.2474004179239273,-0.34956762194633484,0.4977024495601654,-25.577316284179688,18.605670928955078,11.23940372467041
2.773,2.386840581893921,-8.187042236328125,-3.1381869316101074,0.3660609722137451,-0.22770002484321594,0.7199047207832336,-24.74422836303711,18.28412628173828,12.759428024291992
2.78,2.520838737487793,-8.835497856140137,-3.1680970191955566,0.42577308416366577,-0.15515977144241333,0.8410086631774902,-23.794212341308594,19.131834030151367,12.394037246704102
2.79,2.8247268199920654,-9.739984512329102,-3.535395383834839,0.4882340133190155,-0.08567384630441666,0.9990701079368591,-22.917274475097656,20.008769989013672,14.016368865966797
2.8,3.0723841190338135,-10.687541961669922,-3.9254255294799805,0.551305890083313,-0.02932153083384037,1.1743884086608887,-21.733409881591797,20.549545288085938,14.11867904663086
2.81,3.2303104400634766,-11.43529987335205,-4.518845558166504,0.6346890330314636,0.044745877385139465,1.4115568399429321,-21.426483154296875,21.309558868408203,14.878690719604492
2.83,3.7734811305999756,-12.239288330078125,-4.998606204986572,0.7067710757255554,0.07238753139972687,1.596648931503296,-20.18415641784668,21.674949645996094,14.644840240478516
2.833,4.293920040130615,-12.744173049926758,-5.3312087059021,0.8074111342430115,0.06429356336593628,1.8536704778671265,-19.570301055908203,23.165740966796875,15.682548522949219
2.84,4.315455436706543,-12.759726524353027,-5.521438121795654,0.8759807348251343,0.03726277872920036,1.9940167665481567,-18.97106170654297,23.136510848999023,14.893306732177734
2.85,4.266402721405029,-12.717851638793945,-5.194817543029785,0.9897544384002686,-0.05100724473595619,2.152383804321289,-19.029523849487305,23.69190216064453,15.667933464050293
2.86,3.9696924686431885,-12.850653648376465,-5.137389659881592,1.1172724962234497,-0.1449277698993683,2.308917760848999,-17.78719711303711,24.48114585876465,15.682548522949219
2.87,3.672982692718506,-13.152149200439453,-4.587040901184082,1.2319624423980713,-0.22876903414726257,2.3800835609436035,-17.655654907226562,24.96346092224121,15.127155303955078
2.88,3.4121649265289307,-13.345968246459961,-4.415954113006592,1.2873984575271606,-0.23426681756973267,2.4601070880889893,-16.734872817993164,25.31423568725586,15.580240249633789
2.896,3.339184045791626,-13.512269020080566,-4.265206336975098,1.3187053203582764,-0.27290403842926025,2.4996604919433594,-16.369482040405273,26.05963134765625,15.22946548461914
2.901,3.152543783187866,-13.312468528747559,-4.396811485290527,1.3222178220748901,-0.2655736804008484,2.5146267414093018,-16.398714065551758,26.074249267578125,13.694826126098633
2.91,2.7003002166748047,-12.820743560791016,-4.371686935424805,1.3171781301498413,-0.18845191597938538,2.5277602672576904,-16.311019897460938,26.629642486572266,14.600994110107422
2.92,2.1260228157043457,-12.055039405822754,-4.186243057250977,1.2959506511688232,-0.08720101416110992,2.490192174911499,-16.559486389160156,26.571178436279297,13.738672256469727
2.93,1.7407783269882202,-11.35274600982666,-3.865604877471924,1.2583823204040527,0.06582073122262955,2.428036689758301,-16.851797103881836,26.644256591796875,13.577900886535645
2.949,1.4141581058502197,-10.626524925231934,-3.6335010528564453,1.2180652618408203,0.27550020813941956,2.362062931060791,-17.50950050354004,26.96579933166504,13.080970764160156
2.953,1.2095718383789062,-10.085746765136719,-3.449253797531128,1.180649757385254,0.5688682198524475,2.2463042736053467,-17.962583541870117,26.834259033203125,12.964046478271484
2.96,1.3375877141952515,-10.077371597290039,-3.428914785385132,1.1498011350631714,0.7845036387443542,2.1902573108673096,-19.0733699798584,28.04735565185547,12.262495994567871
2.97,1.6857434511184692,-10.13719367980957,-3.5712878704071045,1.1024589538574219,0.941343367099762,2.1197023391723633,-19.497222900390625,27.681964874267578,11.297865867614746
2.98,2.187039852142334,-10.424330711364746,-3.6610186100006104,1.0613783597946167,1.0111346244812012,2.0418171882629395,-20.593395233154297,28.251972198486328,10.523239135742188
2.99,2.7637100219726562,-10.72702407836914,-3.73041033744812,1.0242682695388794,0.9831876158714294,1.9671387672424316,-21.55802345275879,28.73428726196289,9.207834243774414
3.01,3.2757742404937744,-11.052447319030762,-3.779463291168213,0.9912815690040588,0.8764389157295227,1.9086483716964722,-22.274188995361328,29.24583625793457,7.9947381019592285
3.014,3.62153697013855,-11.34796142578125,-3.775874137878418,0.9428704977035522,0.5992587804794312,1.831068515777588,-24.028060913085938,29.859689712524414,6.240865230560303
3.02,3.6083762645721436,-11.404192924499512,-3.768695592880249,0.9254608750343323,0.45952337980270386,1.8023579120635986,-23.414207458496094,29.859689712524414,6.781642913818359
3.03,3.4157540798187256,-11.301301002502441,-3.55214524269104,0.9065240025520325,0.3006984293460846,1.7721201181411743,-23.648056030273438,30.093538284301758,6.153171539306641
3.04,2.9934210777282715,-11.095518112182617,-3.483949661254883,0.8863654732704163,0.19792033731937408,1.7412713766098022,-23.57497787475586,30.809703826904297,4.1362175941467285
3.05,2.5399811267852783,-10.855039596557617,-3.345165967941284,0.8817839622497559,0.1661553531885147,1.7130188941955566,-23.28266716003418,31.014324188232422,2.2215726375579834
3.069,2.2061824798583984,-10.628917694091797,-3.2231318950653076,0.8741481304168701,0.1918116807937622,1.6720908880233765,-23.604209899902344,31.277402877807617,1.8269511461257935
3.073,2.1200408935546875,-10.231709480285645,-3.166900634765625,0.8915578126907349,0.29428431391716003,1.6029102802276611,-23.925752639770508,31.803565979003906,1.0084770917892456
3.08,2.1260228157043457,-9.833304405212402,-3.3882367610931396,0.9069821834564209,0.35094207525253296,1.5641204118728638,-23.428821563720703,32.28588104248047,0.5115463137626648
3.09,2.128415822982788,-9.469594955444336,-3.579662799835205,0.9399688839912415,0.4005748927593231,1.5060882568359375,-23.00497055053711,32.38819122314453,-1.344636082649231
3.1,2.1643080711364746,-9.315258026123047,-3.6394829750061035,0.9512698650360107,0.4433354437351227,1.4364495277404785,-22.94650650024414,32.56357955932617,-1.9584916830062866
3.11,1.9298113584518433,-9.125028610229492,-3.4683964252471924,0.9245445132255554,0.4967861771583557,1.3868167400360107,-22.93189239501953,33.045894622802734,-2.630809783935547
3.13,1.5672988891601562,-8.855835914611816,-3.0927231311798096,0.8301658034324646,0.6540839672088623,1.3223705291748047,-22.888044357299805,33.440513610839844,-3.610055446624756
3.134,1.2179466485977173,-8.0350980758667,-2.8977081775665283,0.6959282159805298,0.8886561393737793,1.266170859336853,-22.595731735229492,33.38205337524414,-4.866997718811035
3.14,1.2382856607437134,-7.441678524017334,-2.891726016998291,0.627358615398407,1.0076221227645874,1.2159273624420166,-22.873428344726562,33.586673736572266,-5.407775402069092
3.15,1.3244272470474243,-6.832705020904541,-2.840280294418335,0.554818332195282,1.1658363342285156,1.1859948635101318,-23.092662811279297,33.615901947021484,-5.860859394073486
3.16,1.5038889646530151,-6.337390422821045,-3.0077779293060303,0.4957171380519867,1.280068039894104,1.1435396671295166,-22.800350189208984,33.70359420776367,-6.767026901245117
3.17,1.8795621395111084,-5.9952168464660645,-3.042473793029785,0.4616613984107971,1.3112223148345947,1.058171272277832,-23.2095890045166,33.84975051879883,-8.345513343811035
3.189,2.2540388107299805,-5.714060306549072,-2.915654182434082,0.4392121136188507,1.2846496105194092,1.0118982791900635,-23.078046798706055,33.805904388427734,-7.950891494750977
3.193,2.3844475746154785,-5.474778175354004,-2.833101749420166,0.4193589985370636,1.2119566202163696,0.9674578309059143,-23.531131744384766,34.551300048828125,-9.807073593139648
3.2,2.486142635345459,-5.337190628051758,-2.7254250049591064,0.40622538328170776,1.1453722715377808,0.9343184232711792,-23.867290496826172,34.31745147705078,-9.163987159729004
3.21,2.5639095306396484,-5.2414774894714355,-2.6775684356689453,0.385303258895874,1.0464122295379639,0.9137016534805298,-23.194971084594727,34.755916595458984,-9.368605613708496
3.22,2.5292134284973145,-5.164907455444336,-2.6464619636535645,0.36132678389549255,0.9207265973091125,0.9062185883522034,-23.2095890045166,34.69745635986328,-9.748611450195312
3.23,2.5674986839294434,-5.402993679046631,-2.6428725719451904,0.33857205510139465,0.8203920125961304,0.9034696817398071,-22.990352630615234,35.106693267822266,-10.91786003112793
3.25,2.51724910736084,-5.834897994995117,-2.8414766788482666,0.3139847218990326,0.7666358351707458,0.9289733171463013,-22.961122512817383,34.785152435302734,-10.362466812133789
3.253,2.528017044067383,-6.374479293823242,-3.008974552154541,0.30604347586631775,0.666454017162323,0.916450560092926,-23.136510848999023,35.22361755371094,-11.195556640625
3.26,2.5603203773498535,-6.626922130584717,-2.860619306564331,0.30741792917251587,0.607810914516449,0.9069821834564209,-22.82958221435547,35.472084045410156,-10.96170711517334
3.27,2.421536445617676,-6.972684860229492,-2.8211376667022705,0.28955012559890747,0.570853590965271,0.9133962988853455,-22.698041915893555,35.2674674987793,-11.297865867614746
3.28,2.2265214920043945,-7.110272407531738,-2.8342983722686768,0.28848108649253845,0.559857964515686,0.8967501521110535,-22.800350189208984,35.51593017578125,-11.122478485107422
3.29,2.0578272342681885,-7.2430739402771,-2.7804598808288574,0.2955060601234436,0.5542075037956238,0.8602509498596191,-22.624963760375977,35.179771423339844,-12.101724624633789
3.31,1.9070795774459839,-7.386643409729004,-2.8522443771362305,0.30726519227027893,0.5564982295036316,0.8049676418304443,-22.508039474487305,35.45746612548828,-12.204033851623535
3.314,1.990828275680542,-7.93579626083374,-3.184846878051758,0.33276882767677307,0.5343543291091919,0.6973026394844055,-22.610347747802734,35.51593017578125,-11.283249855041504
3.32,1.9609181880950928,-8.291130065917969,-3.10109806060791,0.33047807216644287,0.5348125100135803,0.6789767146110535,-22.800350189208984,34.88745880126953,-12.65711784362793
3.33,1.7682960033416748,-8.745766639709473,-3.355933427810669,0.3147483170032501,0.5832235813140869,0.623846173286438,-22.93189239501953,35.939781188964844,-12.510961532592773
3.34,1.6390833854675293,-9.06999397277832,-3.1585259437561035,0.29596421122550964,0.6072000861167908,0.5615379214286804,-22.800350189208984,36.61210250854492,-12.467114448547363
3.35,1.8197414875030518,-8.941977500915527,-3.3439693450927734,0.2822197377681732,0.6466008424758911,0.5070181488990784,-22.771120071411133,35.7059326171875,-11.911721229553223
3.369,2.2600209712982178,-9.056833267211914,-3.5581271648406982,0.2857322096824646,0.6582072973251343,0.4714352488517761,-23.03420066833496,36.50979232788086,-11.824028015136719
3.373,2.746960163116455,-8.7505521774292,-4.147957801818848,0.3497203588485718,0.5583308339118958,0.3897320032119751,-22.858814239501953,35.852088928222656,-11.809412002563477
3.38,3.208775043487549,-8.739784240722656,-4.071387767791748,0.4271475076675415,0.42302414774894714,0.3581197261810303,-22.975738525390625,36.3636360168457,-12.408652305603027
3.39,3.383450984954834,-9.31884765625,-3.9290146827697754,0.4761694371700287,0.24877485632896423,0.35216379165649414,-23.428821563720703,35.80824279785156,-11.926337242126465
3.4,3.1992037296295166,-9.79142951965332,-4.04985237121582,0.5167919993400574,0.06261368840932846,0.331852525472641,-23.048816680908203,36.290557861328125,-12.160186767578125
3.41,2.9132614135742188,-10.16590690612793,-3.8356947898864746,0.5342016220092773,-0.13179416954517365,0.2744311988353729,-23.57497787475586,36.26132583618164,-11.648640632629395
3.43,2.3976082801818848,-10.64447021484375,-3.4636106491088867,0.4940372407436371,-0.2741257846355438,0.22861631214618683,-23.428821563720703,36.33440399169922,-10.990938186645508
3.433,1.5720844268798828,-11.25344467163086,-3.263810157775879,0.33337968587875366,-0.2796235680580139,0.18051066994667053,-23.57497787475586,36.94826126098633,-11.020169258117676
3.44,1.317248821258545,-11.289337158203125,-3.530609607696533,0.2402227520942688,-0.2050980031490326,0.1440114825963974,-23.29728126525879,36.21747970581055,-11.064016342163086
3.45,1.31365966796875,-11.13499927520752,-4.169493198394775,0.16279558837413788,-0.059864792972803116,0.10048733651638031,-23.38497543334961,36.919029235839844,-9.529377937316895
3.46,1.7252249717712402,-11.050054550170898,-4.7294135093688965,0.15302173793315887,0.07757988572120667,0.07757988572120667,-23.50189971923828,36.64133071899414,-8.491668701171875
3.47,2.2911276817321777,-11.44965648651123,-5.267798900604248,0.17562375962734222,0.1635591685771942,0.06383541971445084,-23.896520614624023,36.43671417236328,-8.389359474182129
3.489,2.636890411376953,-12.016755104064941,-5.343172550201416,0.23441952466964722,0.22846360504627228,0.05513058975338936,-23.9695987701416,36.422096252441406,-7.8047356605529785
3.493,3.0687947273254395,-13.217950820922852,-5.112265586853027,0.25992316007614136,0.1696678102016449,-0.02428189292550087,-24.451913833618164,36.90441131591797,-6.796258926391602
3.5,3.1477580070495605,-13.627123832702637,-5.532205581665039,0.2681698203086853,0.06261368840932846,-0.13041973114013672,-25.475008010864258,36.50979232788086,-5.656240940093994
3.51,3.284149169921875,-14.299508094787598,-4.816751956939697,0.22815817594528198,-0.0757472887635231,-0.2716823220252991,-25.738086700439453,36.18824768066406,-4.589301109313965
3.52,3.397808074951172,-14.749358177185059,-4.301098346710205,0.12431107461452484,-0.13011428713798523,-0.37201693654060364,-26.088863372802734,35.895938873291016,-3.1277403831481934
3.53,3.482753276824951,-14.760126113891602,-3.961317777633667,-0.06688974052667618,-0.11056660860776901,-0.45723262429237366,-26.205787658691406,35.0043830871582,-0.5992400050163269
3.55,2.919243335723877,-13.680963516235352,-4.222135543823242,-0.20341812074184418,-0.057421330362558365,-0.5320636034011841,-26.52733039855957,34.65361022949219,1.5054078102111816
3.553,2.6021945476531982,-12.102895736694336,-4.427917957305908,-0.29764407873153687,-0.04948008432984352,-0.7556402683258057,-26.571178436279297,33.557437896728516,5.80239725112915
3.56,2.7828526496887207,-11.303693771362305,-4.41475772857666,-0.3263547420501709,-0.06505714356899261,-0.9071348309516907,-26.381174087524414,32.66588592529297,7.7316575050354
3.57,2.898904800415039,-10.449456214904785,-4.392025947570801,-0.35873058438301086,-0.11392636597156525,-1.1020008325576782,-25.40192985534668,31.49663734436035,11.210172653198242
3.58,2.770888566970825,-9.739984512329102,-4.442275047302246,-0.39507707953453064,-0.1898263692855835,-1.3382529020309448,-23.911136627197266,30.254310607910156,15.434082984924316
3.59,2.27677059173584,-9.388238906860352,-4.342973232269287,-0.45356741547584534,-0.22861631214618683,-1.5092952251434326,-21.397253036499023,28.003507614135742,20.257234573364258
3.611,1.9022939205169678,-9.701699256896973,-3.7531421184539795,-0.5490151047706604,-0.18188512325286865,-1.6446019411087036,-16.910259246826172,26.001171112060547,24.40806770324707
3.615,2.2779672145843506,-9.759126663208008,-3.538984537124634,-0.6966918110847473,-0.01710422709584236,-1.807397484779358,-8.79859733581543,22.917274475097656,28.778135299682617
3.62,2.6081764698028564,-9.7064847946167,-3.686143398284912,-0.7266241908073425,0.006719517521560192,-1.8529069423675537,-3.551593065261841,21.178016662597656,29.15814208984375
3.63,3.300898551940918,-9.862017631530762,-3.912264823913574,-0.7522805333137512,-0.010537425056099892,-1.9078848361968994,4.238526821136475,19.862613677978516,26.366558074951172
3.64,3.7016966342926025,-10.334601402282715,-4.016352653503418,-0.7631233930587769,-0.1518000215291977,-1.9617936611175537,10.654779434204102,19.54106903076172,21.54340934753418
3.65,3.9589247703552246,-11.118249893188477,-3.867997646331787,-0.7762569785118103,-0.3191770911216736,-2.0277671813964844,13.621747970581055,19.204912185668945,13.855597496032715
3.669,4.3441691398620605,-11.80618667602539,-3.324826955795288,-0.8156577944755554,-0.5102251768112183,-2.071596622467041,14.060215950012207,20.92955207824707,7.103186130523682
3.673,4.5607194900512695,-12.270394325256348,-3.060420036315918,-0.9001098871231079,-0.7473936080932617,-2.0984747409820557,10.844781875610352,22.785736083984375,0.2776965796947479
3.68,4.431507587432861,-12.407980918884277,-2.9108684062957764,-0.9552405476570129,-0.8831583857536316,-2.1222984790802,8.360128402709961,23.764982223510742,-0.8477053642272949
3.69,3.9218363761901855,-12.221341133117676,-2.9072792530059814,-1.040150761604309,-1.0012081861495972,-2.1531472206115723,5.729318618774414,25.825780868530273,-2.4115755558013916
3.7,3.500699520111084,-11.837292671203613,-2.882154941558838,-1.0751228332519531,-1.0407615900039673,-2.2070560455322266,3.2300498485565186,26.99502944946289,-3.0400466918945312
3.71,3.232703447341919,-11.638689041137695,-2.733799695968628,-1.097266674041748,-1.045495867729187,-2.2548563480377197,1.0815550088882446,28.28120231628418,-3.0838937759399414
3.73,2.8594231605529785,-11.43529987335205,-2.610569477081299,-1.1160507202148438,-0.9757044911384583,-2.2971584796905518,0.2192341536283493,29.655071258544922,-2.87927508354187
3.734,2.5459630489349365,-11.064411163330078,-2.4526431560516357,-1.1464413404464722,-0.7860308289527893,-2.361757755279541,-1.1984800100326538,31.04355239868164,-2.630809783935547
3.74,2.510071039199829,-10.911271095275879,-2.3497517108917236,-1.1598803997039795,-0.6805039048194885,-2.389246702194214,-1.344636082649231,32.052032470703125,-1.8415666818618774
3.75,2.4083759784698486,-10.372885704040527,-2.2983059883117676,-1.175304651260376,-0.5404630303382874,-2.426203966140747,-1.9584916830062866,33.11897277832031,-2.1338791847229004
3.76,2.63449764251709,-9.913464546203613,-2.293520450592041,-1.169501543045044,-0.42959097027778625,-2.465146541595459,-3.1277403831481934,34.31745147705078,-2.4261913299560547
3.77,2.9012973308563232,-9.527023315429688,-2.231307029724121,-1.1523971557617188,-0.38041630387306213,-2.5004241466522217,-3.551593065261841,34.9459228515625,-2.3531131744384766
3.789,3.104687213897705,-9.342775344848633,-1.9597216844558716,-1.1371256113052368,-0.3819434940814972,-2.5164592266082764,-4.647763729095459,35.95439910888672,-3.3177430629730225
3.793,2.9958138465881348,-9.012566566467285,-1.8161523342132568,-1.1384999752044678,-0.41890081763267517,-2.5337162017822266,-5.583162784576416,37.3867301940918,-3.887752056121826
3.8,2.9168508052825928,-8.646464347839355,-1.8436697721481323,-1.1371256113052368,-0.4521929919719696,-2.546238899230957,-6.343174934387207,37.474422454833984,-3.2008185386657715
3.81,2.8079774379730225,-8.352147102355957,-1.7635102272033691,-1.1301007270812988,-0.5175555348396301,-2.5613579750061035,-7.220110893249512,38.64366912841797,-5.261619567871094
3.82,2.568694829940796,-8.242076873779297,-1.6271193027496338,-1.1326968669891357,-0.5818491578102112,-2.5751023292541504,-8.637825012207031,39.27214050292969,-5.9339375495910645
3.83,2.27677059173584,-8.134400367736816,-1.5014961957931519,-1.1369730234146118,-0.5908593535423279,-2.573117256164551,-9.967845916748047,39.30137634277344,-4.852382659912109
3.85,1.9609181880950928,-8.082954406738281,-1.2490533590316772,-1.1650727987289429,-0.5236642360687256,-2.542573928833008,-10.888628959655762,40.28062057495117,-6.0362467765808105
3.853,1.7240287065505981,-7.8795647621154785,-1.1880364418029785,-1.1914926767349243,-0.3878994286060333,-2.4944682121276855,-12.686349868774414,40.41215896606445,-6.182402610778809
3.86,1.7060824632644653,-7.697710037231445,-1.2406784296035767,-1.1972957849502563,-0.30512717366218567,-2.4544565677642822,-14.177140235900879,40.2660026550293,-5.553931713104248
3.87,1.7778671979904175,-7.465606689453125,-1.306481122970581,-1.1833986043930054,-0.2018909603357315,-2.395050048828125,-14.980999946594238,40.48523712158203,-6.270096302032471
3.88,2.0063817501068115,-7.257430553436279,-1.2837493419647217,-1.1464413404464722,-0.12110403180122375,-2.322204351425171,-16.06255531311035,41.28909683227539,-6.474714756011963
3.89,2.23848557472229,-7.171289443969727,-1.3674980401992798,-1.0870347023010254,-0.07269296050071716,-2.2041544914245605,-17.085647583007812,40.952938079833984,-6.416252136230469
3.91,2.3808584213256836,-7.079165935516357,-1.7168502807617188,-1.0231993198394775,-0.054825153201818466,-2.0984747409820557,-18.050277709960938,41.25986862182617,-6.357789993286133
3.914,2.6356940269470215,-6.914061069488525,-1.9848462343215942,-0.9301950335502625,-0.10155634582042694,-1.976454496383667,-19.90645980834961,41.21601867675781,-6.211634159088135
3.921,2.6835503578186035,-6.935595989227295,-2.032702684402466,-0.872315526008606,-0.16294831037521362,-1.8964310884475708,-20.169540405273438,41.5814094543457,-6.401637077331543
3.93,2.667997121810913,-7.123432636260986,-1.8795621395111084,-0.8124507665634155,-0.23136521875858307,-1.7800612449645996,-21.28032684326172,41.43525314331055,-7.132417678833008
3.94,2.5495524406433105,-7.293323516845703,-1.7802599668502808,-0.7777841687202454,-0.2981022298336029,-1.627803087234497,-22.581117630004883,41.727561950683594,-7.45396089553833
3.95,2.39401912689209,-7.258627414703369,-1.7647066116333008,-0.7567093372344971,-0.31642818450927734,-1.4973833560943604,-22.94650650024414,41.34756088256836,-6.664718151092529
3.969,2.328216314315796,-7.015755653381348,-1.8005989789962769,-0.7243334650993347,-0.3162754774093628,-1.3671164512634277,-24.071908950805664,41.6252555847168,-6.328558921813965
3.973,2.249253273010254,-6.847061634063721,-1.8783657550811768,-0.6788239479064941,-0.2970332205295563,-1.1934778690338135,-24.817304611206055,41.9614143371582,-6.8401055335998535
3.98,2.2157537937164307,-6.702296257019043,-1.9334007501602173,-0.6553056836128235,-0.27870726585388184,-1.1006264686584473,-25.41654396057129,41.34756088256836,-7.673194885253906
3.99,2.1475582122802734,-6.396015167236328,-2.084148406982422,-0.6178901791572571,-0.28466320037841797,-1.0053313970565796,-25.76732063293457,41.02601623535156,-7.556270122528076
4.0,2.1296122074127197,-6.129214763641357,-2.365305185317993,-0.5477933883666992,-0.2945897579193115,-0.8802568316459656,-26.015785217285156,41.34756088256836,-7.263957500457764
4.01,2.526820659637451,-6.110072612762451,-2.5435705184936523,-0.4882340133190155,-0.3266601860523224,-0.7896960377693176,-26.68810272216797,41.332942962646484,-7.687810897827148
4.03,3.166900634765625,-5.78225564956665,-3.500699520111084,-0.34147366881370544,-0.41111230850219727,-0.6933320164680481,-27.287343978881836,41.34756088256836,-7.746273040771484
4.034,3.915853977203369,-6.135197162628174,-2.695514678955078,-0.11667525768280029,-0.6469062566757202,-0.4082106947898865,-27.667348861694336,40.80678176879883,-7.278573513031006
4.04,3.5641093254089355,-6.257230758666992,-2.713460922241211,-0.07406741380691528,-0.668744683265686,-0.285121351480484,-27.63811683654785,41.55217742919922,-7.424729347229004
4.05,3.3619158267974854,-6.6520466804504395,-2.723031997680664,0.07299839705228806,-0.8344419598579407,-0.08307767659425735,-27.55042266845703,41.332942962646484,-8.403975486755371
4.06,2.550748825073242,-6.689135551452637,-2.4717857837677,0.15164729952812195,-0.8932376503944397,0.058795779943466187,-27.755043029785156,41.873722076416016,-8.023969650268555
4.07,2.2169501781463623,-7.216752529144287,-2.093719720840454,0.20876319706439972,-0.8735372424125671,0.20372354984283447,-27.798887252807617,41.727561950683594,-7.7901201248168945
4.089,1.8065810203552246,-7.691728115081787,-2.3976082801818848,0.21609358489513397,-0.7780895829200745,0.3045163154602051,-27.41888427734375,42.049110412597656,-8.447822570800781
4.093,1.5852450132369995,-7.840083122253418,-2.8654050827026367,0.24327708780765533,-0.5551237463951111,0.4086688458919525,-27.50657844543457,42.76527404785156,-9.0762939453125
4.1,1.5828521251678467,-7.910671234130859,-3.091526985168457,0.2889392673969269,-0.32589662075042725,0.5035056471824646,-27.652734756469727,42.45834732055664,-9.792458534240723
4.11,1.8963117599487305,-8.225327491760254,-3.43489670753479,0.36743542551994324,-0.1160643994808197,0.6052147150039673,-27.258113861083984,42.9406623840332,-9.558608055114746
4.12,2.3509480953216553,-8.630910873413086,-3.5880372524261475,0.46364670991897583,0.05314527824521065,0.7003569602966309,-27.755043029785156,42.633731842041016,-9.967845916748047
4.13,2.9934210777282715,-9.087940216064453,-3.946960687637329,0.597426176071167,0.16081027686595917,0.821461021900177,-27.345806121826172,43.452205657958984,-10.333235740661621
4.15,3.658625841140747,-9.665806770324707,-4.469792366027832,0.7573201656341553,0.1950187236070633,0.9892961978912354,-27.287343978881836,43.466819763183594,-10.859397888183594
4.154,4.867001056671143,-11.174481391906738,-4.978267192840576,1.0036516189575195,0.006719517521560192,1.2705997228622437,-27.15580177307129,43.466819763183594,-11.254019737243652
4.16,5.198407173156738,-11.898310661315918,-5.263012886047363,1.1016954183578491,-0.13301590085029602,1.4483615159988403,-26.819643020629883,44.28529739379883,-11.429407119750977
4.17,5.004588603973389,-12.666406631469727,-5.315655708312988,1.2217304706573486,-0.3646865487098694,1.6725490093231201,-26.32271385192871,44.562992095947266,-11.663256645202637
4.18,4.644468784332275,-13.137792587280273,-4.649254322052002,1.3003793954849243,-0.6487388610839844,1.8342756032943726,-25.591930389404297,44.85530471801758,-12.218649864196777
4.19,3.7603206634521484,-13.533803939819336,-4.2245283126831055,1.3127492666244507,-0.763428807258606,2.0251710414886475,-24.510377883911133,45.235313415527344,-12.510961532592773
4.21,3.1585259437561035,-13.922637939453125,-4.287938117980957,1.3075571060180664,-0.7165449261665344,2.239431858062744,-23.2095890045166,45.1037712097168,-13.607131958007812
4.213,2.723031997680664,-13.531412124633789,-4.829912185668945,1.341460108757019,-0.5797110795974731,2.405892848968506,-21.616485595703125,45.58608627319336,-13.080970764160156
4.22,2.5710878372192383,-13.062417984008789,-5.02731990814209,1.3906346559524536,-0.4859433174133301,2.4882068634033203,-20.681087493896484,45.615318298339844,-13.329436302185059
4.23,2.3030917644500732,-12.579068183898926,-5.032105922698975,1.472796082496643,-0.35475999116897583,2.5754077434539795,-19.46799087524414,45.93686294555664,-14.35252857208252
4.24,1.9609181880950928,-12.343376159667969,-4.863411903381348,1.5439618825912476,-0.20341812074184418,2.6203064918518066,-18.459514617919922,46.03916931152344,-14.86407470703125
4.25,1.727617859840393,-12.102895736694336,-4.587040901184082,1.5879441499710083,0.006872233934700489,2.619084596633911,-16.76410484313965,45.761470794677734,-14.878690719604492
4.269,1.6043875217437744,-11.837292671203613,-3.9182469844818115,1.565036654472351,0.18478672206401825,2.579531192779541,-15.755626678466797,45.84916687011719,-14.659457206726074
4.273,1.7635102272033691,-11.316854476928711,-3.751945734024048,1.4598151445388794,0.41141775250434875,2.517681121826172,-13.914060592651367,46.477638244628906,-15.054078102111816
4.28,1.9070795774459839,-10.947163581848145,-3.7663025856018066,1.3975069522857666,0.5180137157440186,2.4688117504119873,-12.788658142089844,46.40456008911133,-16.06255531311035
4.29,2.1583259105682373,-10.631311416625977,-3.944568157196045,1.3089314699172974,0.6626361012458801,2.4239132404327393,-12.37942123413086,46.06840133666992,-15.477930068969727
4.3,2.328216314315796,-10.38963508605957,-4.216153621673584,1.218370795249939,0.7328855395317078,2.3348796367645264,-11.341712951660156,45.805320739746094,-14.717918395996094
4.31,2.5052852630615234,-10.432705879211426,-4.333401679992676,1.1598803997039795,0.7203628420829773,2.238363027572632,-10.362466812133789,45.717628479003906,-14.586379051208496
4.33,2.6871397495269775,-10.552348136901855,-4.4542388916015625,1.103986144065857,0.6743952035903931,2.1429152488708496,-9.368605613708496,45.14761734008789,-14.35252857208252
4.334,2.8043882846832275,-10.65404224395752,-4.395615100860596,1.0392345190048218,0.602465808391571,2.0228800773620605,-8.330897331237793,43.96375274658203,-13.475592613220215
4.34,2.6117656230926514,-10.687541961669922,-4.387239933013916,1.0041097402572632,0.5583308339118958,1.9567539691925049,-7.483191967010498,44.03683090209961,-13.417129516601562
4.35,2.249253273010254,-10.72702407836914,-4.357329845428467,0.9691376686096191,0.5372559428215027,1.8654296398162842,-7.483191967010498,43.7006721496582,-13.227126121520996
4.36,2.0781664848327637,-10.704292297363281,-4.2795634269714355,0.9408851265907288,0.5792529582977295,1.7507396936416626,-6.708564758300781,42.72142791748047,-13.329436302185059
4.37,1.9525432586669922,-10.590632438659668,-4.096512317657471,0.93095862865448,0.6472117304801941,1.6731598377227783,-6.182402610778809,42.063724517822266,-12.978660583496094
4.389,1.9142580032348633,-10.554740905761719,-3.8739798069000244,0.9208793640136719,0.717308521270752,1.5961909294128418,-6.0800933837890625,41.36217498779297,-12.174802780151367
4.393,1.9190436601638794,-10.535597801208496,-3.91705060005188,0.8924740552902222,0.8035932183265686,1.4993687868118286,-5.363928318023682,39.81291961669922,-11.707103729248047
4.4,1.8795621395111084,-10.479366302490234,-3.926621675491333,0.8579602241516113,0.8362745046615601,1.4436273574829102,-5.860859394073486,40.017539978027344,-11.195556640625
4.41,1.939382791519165,-10.274779319763184,-3.9086756706237793,0.7774786949157715,0.9254608750343323,1.3779592514038086,-5.510084629058838,38.8629035949707,-10.099386215209961
4.42,2.155933141708374,-9.818947792053223,-3.8045878410339355,0.7136432528495789,1.0141890048980713,1.3713923692703247,-5.80239725112915,37.88365936279297,-10.420929908752441
4.43,2.1894326210021973,-9.321240425109863,-3.8452658653259277,0.6459900140762329,1.097266674041748,1.3869694471359253,-6.445483684539795,36.97748947143555,-10.362466812133789
4.449,1.8747763633728027,-8.658428192138672,-4.0247273445129395,0.5965099334716797,1.213025689125061,1.415374755859375,-6.606255531311035,35.925167083740234,-9.923998832702637
4.453,2.2025930881500244,-7.537391185760498,-4.222135543823242,0.5871942043304443,1.2948817014694214,1.3527610301971436,-7.527039051055908,34.419761657714844,-8.973984718322754
4.46,2.3880369663238525,-6.983452796936035,-4.118047714233398,0.6044511198997498,1.2962559461593628,1.326341152191162,-8.579362869262695,33.8643684387207,-9.704765319824219
4.47,2.495713949203491,-6.312265872955322,-3.781856060028076,0.6183483004570007,1.2893837690353394,1.3057243824005127,-9.163987159729004,33.38205337524414,-9.894767761230469
4.48,2.5351955890655518,-5.925825119018555,-3.583251953125,0.623235285282135,1.2551753520965576,1.260367751121521,-9.836304664611816,32.72434997558594,-9.967845916748047
4.49,2.6225335597991943,-5.741578102111816,-3.290131092071533,0.6105597615242004,1.185231328010559,1.211498498916626,-10.625548362731934,32.31510925292969,-9.617071151733398
4.51,2.691925287246704,-5.662614822387695,-3.2279176712036133,0.5873469114303589,1.115287184715271,1.1719449758529663,-11.180940628051758,31.81818199157715,-9.923998832702637
4.514,2.95393967628479,-6.057430744171143,-3.0269205570220947,0.5050328373908997,0.8984300494194031,1.1045970916748047,-12.408652305603027,31.4674072265625,-9.894767761230469
4.52,3.1441688537597656,-6.355337142944336,-3.0317063331604004,0.43737950921058655,0.7910704612731934,1.0760390758514404,-13.373282432556152,31.20432472229004,-10.713241577148438
4.53,3.346362352371216,-6.463013648986816,-3.0795626640319824,0.34926217794418335,0.6469062566757202,1.0514518022537231,-12.876352310180664,30.882781982421875,-10.49400806427002
4.54,3.3786656856536865,-6.27158784866333,-3.13220477104187,0.270766019821167,0.5241223573684692,1.052215337753296,-13.840982437133789,31.20432472229004,-10.596317291259766
4.55,3.128615379333496,-5.883951187133789,-3.2506494522094727,0.2292271852493286,0.40164390206336975,1.0587822198867798,-14.308682441711426,30.91201400756836,-11.531715393066406
4.569,2.7254250049591064,-5.708078384399414,-3.156132936477661,0.23090705275535583,0.25595253705978394,1.0387763977050781,-14.688687324523926,30.47354507446289,-11.546331405639648
4.573,2.3437697887420654,-5.997609615325928,-2.9455647468566895,0.25992316007614136,0.18035796284675598,0.9999863505363464,-14.45483684539795,30.298158645629883,-11.56094741821289
4.58,2.2193429470062256,-6.364907741546631,-2.7972095012664795,0.2741257846355438,0.17272214591503143,0.9950994253158569,-14.513299942016602,30.517393112182617,-12.525577545166016
4.59,1.9345970153808594,-6.9164533615112305,-3.046063184738159,0.2837468981742859,0.18035796284675598,0.9880744814872742,-14.659457206726074,29.845073699951172,-12.847121238708496
4.6,1.6642080545425415,-7.768298149108887,-3.060420036315918,0.27290403842926025,0.20754145085811615,0.9731083512306213,-14.703303337097168,29.97661590576172,-12.89096736907959
4.61,1.412961721420288,-8.694320678710938,-2.7912275791168213,0.20128010213375092,0.37782013416290283,0.9990701079368591,-14.513299942016602,29.611223220825195,-13.139432907104492
4.63,1.171286702156067,-9.269794464111328,-2.5531415939331055,0.12064588069915771,0.5780312418937683,1.0308350324630737,-14.381760597229004,29.596609115600586,-13.607131958007812
4.634,1.2370892763137817,-8.987441062927246,-2.581855535507202,0.022602012380957603,0.8929322957992554,1.063821792602539,-14.688687324523926,29.845073699951172,-13.636363983154297
4.64,1.53858482837677,-8.285148620605469,-3.156132936477661,0.027947084978222847,1.0416779518127441,1.0656543970108032,-15.331774711608887,29.581993103027344,-13.460975646972656
4.65,2.438286066055298,-8.226524353027344,-2.7601208686828613,0.09926559776067734,1.0687086582183838,1.038623571395874,-15.711779594421387,30.00584602355957,-12.964046478271484
4.66,2.6045873165130615,-8.173882484436035,-3.3439693450927734,0.0985020250082016,1.151328206062317,1.0951286554336548,-16.208711624145508,29.055830001831055,-12.744811058044434
4.67,3.1860432624816895,-8.134400367736816,-3.723231792449951,0.22632557153701782,1.06351637840271,1.0212138891220093,-16.35486602783203,29.055830001831055,-12.437883377075195
4.68,4.005584716796875,-8.22293472290039,-3.7459635734558105,0.32681289315223694,0.8349000811576843,0.9392052888870239,-16.296403884887695,28.982751846313477,-12.554807662963867
4.694,4.104887008666992,-8.496912956237793,-3.700500249862671,0.43905937671661377,0.5262603759765625,0.8761334419250488,-17.24641990661621,29.508914947509766,-12.847121238708496
4.7,4.208974838256836,-8.864211082458496,-3.7316067218780518,0.5115996599197388,0.29275718331336975,0.8191702961921692,-16.676410675048828,29.28968048095703,-12.861736297607422
4.71,4.2245283126831055,-9.729216575622559,-3.1238298416137695,0.570242702960968,0.021838432177901268,0.7623597979545593,-16.501022338867188,29.275066375732422,-12.934814453125
4.72,3.6610186100006104,-10.560722351074219,-3.0269205570220947,0.5216789245605469,-0.21441368758678436,0.7102835774421692,-16.384098052978516,30.02046012878418,-12.481730461120605
4.73,2.7003002166748047,-11.11466121673584,-3.290131092071533,0.4444044530391693,-0.2808452844619751,0.6133086681365967,-16.004093170166016,29.771995544433594,-11.882491111755371
4.749,2.7314069271087646,-11.211569786071777,-3.9326038360595703,0.375071257352829,-0.28130343556404114,0.4795292019844055,-15.960245132446289,30.049694061279297,-12.160186767578125
4.753,3.4636106491088867,-11.428120613098145,-4.588237285614014,0.3162754774093628,-0.29565879702568054,0.36819902062416077,-15.682548522949219,30.195850372314453,-12.452499389648438
4.76,3.6358938217163086,-11.438888549804688,-4.88853645324707,0.3055853545665741,-0.3275764584541321,0.3488040566444397,-15.14177131652832,30.239694595336914,-11.75094985961914
4.77,3.3379874229431152,-11.471190452575684,-5.140979290008545,0.3266601860523224,-0.3914119005203247,0.32650747895240784,-15.127155303955078,30.26892852783203,-12.174802780151367
4.78,2.596212387084961,-11.708080291748047,-4.999802589416504,0.3452915847301483,-0.4288273751735687,0.22388210892677307,-14.250219345092773,29.991230010986328,-12.130955696105957
4.79,2.54117751121521,-12.177074432373047,-4.741377830505371,0.3727805018424988,-0.4686863422393799,0.0809396430850029,-13.694826126098633,30.210464477539062,-12.437883377075195
4.81,2.723031997680664,-12.656835556030273,-4.981856346130371,0.3543018102645874,-0.46593746542930603,-0.059406641870737076,-14.001753807067871,30.56123924255371,-11.254019737243652
4.814,2.675175428390503,-13.15932846069336,-4.7365922927856445,0.31062498688697815,-0.35155293345451355,-0.19654588401317596,-13.665594100952148,30.83893585205078,-11.195556640625
4.82,2.8654050827026367,-13.344771385192871,-4.4542388916015625,0.24938572943210602,-0.32788190245628357,-0.2871066629886627,-13.080970764160156,31.20432472229004,-10.435544967651367
4.83,3.0041887760162354,-13.39741325378418,-4.417150497436523,0.11224649101495743,-0.30115655064582825,-0.39354991912841797,-12.452499389648438,30.99970817565918,-10.742472648620605
4.84,3.0352954864501953,-13.032508850097656,-4.4650068283081055,-0.0073303827084600925,-0.2574796974658966,-0.5119050741195679,-11.809412002563477,31.730487823486328,-10.245542526245117
4.85,3.181257724761963,-12.480961799621582,-4.5822553634643555,-0.12767083942890167,-0.28878653049468994,-0.6739370822906494,-11.341712951660156,31.949722290039062,-9.54399299621582
4.869,3.036491870880127,-11.745170593261719,-4.682753562927246,-0.22372940182685852,-0.318566232919693,-0.8428412675857544,-11.122478485107422,32.46126937866211,-8.915521621704102
4.873,2.823530673980713,-10.796415328979492,-4.518845558166504,-0.346818745136261,-0.33658674359321594,-1.1027644872665405,-10.844781875610352,33.031280517578125,-9.280911445617676
4.881,2.524427890777588,-10.341778755187988,-4.429114818572998,-0.4034765064716339,-0.33719760179519653,-1.23226797580719,-10.143233299255371,33.162818908691406,-8.6670560836792
4.89,2.251646041870117,-10.1874418258667,-4.170689582824707,-0.485027015209198,-0.30833423137664795,-1.3991868495941162,-10.49400806427002,33.87898254394531,-7.410114288330078
4.9,2.080559253692627,-10.01874828338623,-3.978067398071289,-0.5757404565811157,-0.23441952466964722,-1.549154281616211,-9.704765319824219,34.171295166015625,-7.819350719451904
4.91,2.4406790733337402,-9.830911636352539,-4.019941806793213,-0.6464481353759766,-0.18814648687839508,-1.7017178535461426,-9.514761924743652,34.44898986816406,-6.708564758300781
4.93,2.9766714572906494,-9.883553504943848,-4.04985237121582,-0.6976081132888794,-0.2197587788105011,-1.8307631015777588,-9.280911445617676,35.12131118774414,-6.767026901245117
4.933,3.3571300506591797,-10.272387504577637,-4.147957801818848,-0.712574303150177,-0.33735033869743347,-1.9431623220443726,-8.769365310668945,36.34901809692383,-5.8900909423828125
4.94,3.555734395980835,-10.699505805969238,-3.9804604053497314,-0.7144068479537964,-0.4462370276451111,-2.0053179264068604,-8.228588104248047,36.88979721069336,-5.393159866333008
4.95,3.6837503910064697,-11.298907279968262,-3.658625841140747,-0.7351763248443604,-0.5884159207344055,-2.0638082027435303,-7.877813339233398,37.91289138793945,-4.983922958374023
4.96,3.672982692718506,-11.723634719848633,-3.641875982284546,-0.7658722400665283,-0.7218900322914124,-2.110234022140503,-7.687810897827148,38.7459831237793,-4.720841884613037
4.97,3.768695592880249,-12.023933410644531,-3.5150563716888428,-0.8092436790466309,-0.87735515832901,-2.1655170917510986,-7.541654109954834,40.19292449951172,-4.457760810852051
4.98,3.7950165271759033,-12.356535911560059,-3.3607192039489746,-0.8689557909965515,-1.0671815872192383,-2.1792616844177246,-7.717041492462158,41.46448516845703,-3.653902292251587
4.993,3.0556344985961914,-12.629317283630371,-3.1082763671875,-0.9561567902565002,-1.134834885597229,-2.1699459552764893,-7.103186130523682,43.21835708618164,-2.908506155014038
5.001,2.6225335597991943,-12.555140495300293,-2.977867603302002,-1.0122036933898926,-1.1261299848556519,-2.1739165782928467,-7.234726905822754,44.577606201171875,-0.7307804822921753
5.01,2.224128484725952,-12.3338041305542,-2.8582265377044678,-1.090088963508606,-1.0606147050857544,-2.191784381866455,-6.182402610778809,45.51300811767578,-0.46769949793815613
5.02,2.0231313705444336,-11.95932674407959,-2.772084951400757,-1.1606439352035522,-0.9607383012771606,-2.2036962509155273,-5.0862321853637695,47.9391975402832,1.1254018545150757
5.03,1.832902193069458,-11.401800155639648,-2.8378875255584717,-1.2105822563171387,-0.7912232279777527,-2.2232439517974854,-2.9669687747955322,49.32768249511719,0.9646301865577698
5.049,1.7216358184814453,-10.875378608703613,-2.6560330390930176,-1.232725977897644,-0.6502660512924194,-2.2435553073883057,-1.2423267364501953,51.183860778808594,0.7161648273468018
5.053,1.6331013441085815,-10.51406192779541,-2.4119651317596436,-1.2446379661560059,-0.4639521539211273,-2.2757785320281982,1.0230926275253296,52.86465835571289,-0.5407775044441223
5.06,1.6462620496749878,-10.226922988891602,-2.2803597450256348,-1.249066710472107,-0.37751469016075134,-2.3131940364837646,1.0084770917892456,54.19468307495117,-3.3323590755462646
5.07,2.008774518966675,-9.836893081665039,-2.1846470832824707,-1.2573133707046509,-0.3136793076992035,-2.378251075744629,-0.5115463137626648,55.04238510131836,-4.925460338592529
5.08,2.392822504043579,-9.504291534423828,-2.2983059883117676,-1.2628111839294434,-0.33689215779304504,-2.434908628463745,-1.9731072187423706,55.62701416015625,-6.8547210693359375
5.09,2.4287149906158447,-9.026923179626465,-2.2061824798583984,-1.2649492025375366,-0.3914119005203247,-2.468506336212158,-3.814674139022827,55.90470504760742,-7.775504112243652
5.11,2.2025930881500244,-8.778069496154785,-1.9501503705978394,-1.2695306539535522,-0.43478330969810486,-2.4854578971862793,-6.430868148803711,55.90470504760742,-8.272435188293457
5.114,1.765903115272522,-8.360522270202637,-1.7036895751953125,-1.286634922027588,-0.44119739532470703,-2.483930826187134,-9.324758529663086,55.62701416015625,-8.71090316772461
5.12,1.4775679111480713,-8.0350980758667,-1.6115659475326538,-1.2875511646270752,-0.4210388660430908,-2.4808764457702637,-10.537854194641113,55.64162826538086,-8.725519180297852
5.13,1.2897313833236694,-7.622336387634277,-1.4859428405761719,-1.2738066911697388,-0.3634648323059082,-2.4636194705963135,-12.189417839050293,55.261619567871094,-9.412452697753906
5.14,1.2490533590316772,-7.29691219329834,-1.4488540887832642,-1.2443324327468872,-0.32162055373191833,-2.4382686614990234,-13.782519340515137,55.2177734375,-8.506284713745117
5.15,1.3471590280532837,-7.262216091156006,-1.4620145559310913,-1.2148581743240356,-0.290313720703125,-2.3993258476257324,-15.404851913452148,54.82314682006836,-8.637825012207031
5.16,1.5816556215286255,-7.299305438995361,-1.550549030303955,-1.171334147453308,-0.2762638032436371,-2.338850259780884,-16.807950973510742,54.18006134033203,-7.497807502746582
5.173,1.683350682258606,-7.416553497314453,-1.710868239402771,-1.1172724962234497,-0.28649580478668213,-2.2325596809387207,-18.766441345214844,53.49312973022461,-8.433206558227539
5.18,1.660618782043457,-7.578068733215332,-1.7718851566314697,-1.0745118856430054,-0.31062498688697815,-2.1316142082214355,-19.64337921142578,52.79158401489258,-8.330897331237793
5.19,1.6713865995407104,-8.01834774017334,-1.3818550109863281,-1.0514518022537231,-0.3191770911216736,-2.015549898147583,-21.397253036499023,52.45542526245117,-7.775504112243652
5.2,1.5589239597320557,-8.309076309204102,-1.3196415901184082,-1.0751228332519531,-0.31413745880126953,-1.8849774599075317,-21.54340934753418,52.14849853515625,-7.658579349517822
5.21,1.2442678213119507,-8.22293472290039,-1.3866406679153442,-1.0948232412338257,-0.2710714340209961,-1.7383697032928467,-22.902660369873047,51.505409240722656,-7.36626672744751
5.23,1.164108157157898,-7.911867618560791,-1.470389485359192,-1.098793864250183,-0.20845776796340942,-1.6165021657943726,-23.2095890045166,50.5992431640625,-7.205495357513428
5.234,1.454836130142212,-7.578068733215332,-1.7132608890533447,-1.0545060634613037,-0.2054034322500229,-1.477835774421692,-24.203449249267578,50.08769607543945,-6.825489521026611
5.24,1.5134602785110474,-7.519444942474365,-1.6905291080474854,-1.0059423446655273,-0.19547687470912933,-1.3833043575286865,-24.74422836303711,49.69307327270508,-6.313942909240723
5.25,1.3710873126983643,-7.457231521606445,-1.6701900959014893,-0.9373726844787598,-0.1589776873588562,-1.247692346572876,-25.197309494018555,48.8599853515625,-5.773165702819824
5.26,1.3866406679153442,-7.294519424438477,-1.7383856773376465,-0.8491026759147644,-0.13897183537483215,-1.1522445678710938,-26.001171112060547,48.6407470703125,-5.422390937805176
5.27,1.432104229927063,-6.80757999420166,-2.368894338607788,-0.7134906053543091,-0.1414152979850769,-1.0523680448532104,-25.752704620361328,48.52382278442383,-5.641624927520752
5.28,1.7335999011993408,-6.634100437164307,-2.3461625576019287,-0.4943426847457886,-0.24068090319633484,-0.9732609987258911,-26.556564331054688,48.1584358215332,-6.153171539306641
5.296,1.935793399810791,-6.748956203460693,-2.465803623199463,-0.2880229651927948,-0.3549126982688904,-0.7860308289527893,-26.95118522644043,47.61765670776367,-6.635486125946045
5.301,2.149951219558716,-7.028916358947754,-2.5471596717834473,-0.21700987219810486,-0.388357549905777,-0.7464773058891296,-27.009645462036133,47.09149169921875,-6.489330291748047
5.31,2.2815563678741455,-7.195217609405518,-2.2432711124420166,-0.09040804952383041,-0.4862487316131592,-0.6130033135414124,-26.98041534423828,47.237648010253906,-7.161648750305176
5.32,2.091326951980591,-7.401000499725342,-1.8245272636413574,-0.0138971833512187,-0.5090034604072571,-0.4118758738040924,-27.126571655273438,47.14995574951172,-7.161648750305176
5.33,1.5912269353866577,-7.89631462097168,-1.4955140352249146,-0.005803219974040985,-0.5488623976707458,-0.19058994948863983,-27.62350082397461,47.33995819091797,-7.220110893249512
5.349,1.0552347898483276,-8.068597793579102,-1.832902193069458,-0.014813481830060482,-0.4993823170661926,-0.03451388329267502,-27.71119499206543,46.667640686035156,-7.497807502746582
5.353,1.101894736289978,-8.514859199523926,-2.1786649227142334,-0.020616700872778893,-0.4453207552433014,0.11407908797264099,-27.05349349975586,47.14995574951172,-6.606255531311035
5.36,1.399801254272461,-8.666803359985352,-2.5591237545013428,-0.0004581489192787558,-0.4066835343837738,0.2096794992685318,-26.819643020629883,46.930721282958984,-6.211634159088135
5.37,1.636690616607666,-8.805586814880371,-2.857030153274536,0.06200282275676727,-0.35475999116897583,0.36132678389549255,-26.60040855407715,46.550716400146484,-6.986261367797852
5.38,1.5002998113632202,-8.93838882446289,-3.5126636028289795,0.16600261628627777,-0.3446807265281677,0.48456883430480957,-26.86349105834961,46.03916931152344,-7.073955059051514
5.39,1.4632110595703125,-9.131011009216309,-3.5784661769866943,0.360105037689209,-0.3425426781177521,0.5852088928222656,-25.89885902404785,46.63841247558594,-7.9801225662231445
5.41,1.7922240495681763,-9.55214786529541,-3.6335010528564453,0.5283983945846558,-0.3332270085811615,0.6844744682312012,-26.4104061126709,46.740718841552734,-7.819350719451904
5.414,2.137986898422241,-10.18026351928711,-3.3475589752197266,0.7409795522689819,-0.33597588539123535,0.8524624109268188,-25.635778427124023,47.471500396728516,-8.389359474182129
5.42,2.1619153022766113,-10.674381256103516,-3.297309398651123,0.8432994484901428,-0.33139437437057495,0.9886853694915771,-25.475008010864258,47.661502838134766,-8.52090072631836
5.43,2.0997018814086914,-11.791829109191895,-3.4301111698150635,0.9385944604873657,-0.33017265796661377,1.1869111061096191,-24.656532287597656,47.77842712402344,-8.959368705749512
5.44,2.1858434677124023,-12.788439750671387,-4.24367094039917,1.034194827079773,-0.3854559361934662,1.3854422569274902,-24.21806526184082,48.085357666015625,-9.26629638671875
5.45,2.032702684402466,-14.13440227508545,-4.152743339538574,1.092837929725647,-0.40194934606552124,1.570381760597229,-23.5895938873291,47.836891174316406,-8.930137634277344
5.469,2.080559253692627,-14.800803184509277,-4.046262741088867,1.111163854598999,-0.389426589012146,1.7382169961929321,-22.800350189208984,48.12919998168945,-10.070155143737793
5.472,2.035095691680908,-14.822339057922363,-4.271188259124756,1.133613109588623,-0.35445454716682434,1.927585244178772,-21.689563751220703,48.77228546142578,-10.800935745239258
5.48,1.8340984582901,-14.403595924377441,-4.541577339172363,1.165530800819397,-0.29367345571517944,2.0393736362457275,-21.046478271484375,48.9184455871582,-11.721718788146973
5.49,1.8041881322860718,-13.603196144104004,-4.817948341369629,1.2809842824935913,-0.21181751787662506,2.160477638244629,-20.213388442993164,49.00613784790039,-11.853259086608887
5.5,2.029113531112671,-12.914063453674316,-4.631308078765869,1.3762794733047485,-0.1696678102016449,2.2456932067871094,-18.985675811767578,49.75153350830078,-11.926337242126465
5.51,2.1104695796966553,-12.465409278869629,-4.423132419586182,1.457371711730957,-0.14584407210350037,2.309070587158203,-17.641040802001953,49.44460678100586,-12.1455717086792
5.53,2.2325034141540527,-11.822936058044434,-4.409972190856934,1.5180001258850098,-0.14004085958003998,2.328465700149536,-17.24641990661621,49.42999267578125,-12.730195999145508
5.534,2.4777677059173584,-10.8490571975708,-3.9589247703552246,1.5909985303878784,-0.1817324161529541,2.3379340171813965,-14.893306732177734,50.29231262207031,-13.460975646972656
5.54,2.368894338607788,-10.606185913085938,-3.799802303314209,1.5925257205963135,-0.2171625941991806,2.325258493423462,-13.767904281616211,50.13154220581055,-13.636363983154297
5.55,1.7766706943511963,-10.116853713989258,-3.7974092960357666,1.5763376951217651,-0.2350304126739502,2.2710442543029785,-12.569424629211426,49.780765533447266,-13.636363983154297
5.56,1.5601202249526978,-10.080962181091309,-3.8524441719055176,1.5459471940994263,-0.21762074530124664,2.1954495906829834,-10.932476043701172,49.94153594970703,-14.600994110107422
5.57,1.3782658576965332,-10.308279037475586,-4.18863582611084,1.4981470108032227,-0.17470745742321014,2.1148154735565186,-10.026308059692383,49.649227142333984,-15.41946792602539
5.58,1.293320655822754,-10.493722915649414,-4.4135613441467285,1.4437800645828247,-0.10384708642959595,2.023491144180298,-9.149372100830078,49.31306457519531,-14.995615005493164
5.595,1.2538390159606934,-10.567900657653809,-4.417150497436523,1.3361150026321411,0.10384708642959595,1.904219627380371,-6.547792911529541,49.6784553527832,-15.726396560668945
5.601,1.1617152690887451,-10.589436531066895,-4.358526229858398,1.3048081398010254,0.1791362315416336,1.8790215253829956,-6.284712314605713,49.44460678100586,-16.574100494384766
5.61,1.0001999139785767,-10.711469650268555,-4.229313850402832,1.2498302459716797,0.3491095006465912,1.813353419303894,-5.232388019561768,48.713829040527344,-16.223325729370117
5.62,0.9846464395523071,-10.833503723144531,-3.996013641357422,1.1939361095428467,0.5224425196647644,1.7388279438018799,-4.370067119598389,48.07073974609375,-16.9541072845459
5.63,1.286142110824585,-10.8969144821167,-3.985246181488037,1.1388055086135864,0.6728680729866028,1.6500996351242065,-3.0838937759399414,48.17304992675781,-15.492546081542969
5.649,1.6319050788879395,-10.923234939575195,-3.73758864402771,1.1042916774749756,0.8275696635246277,1.5743523836135864,-2.5723471641540527,47.89535140991211,-16.486408233642578
5.653,2.179861307144165,-10.802396774291992,-3.675375461578369,1.0545060634613037,0.9279043078422546,1.5126550197601318,-1.388482928276062,47.04764938354492,-15.477930068969727
5.66,2.5292134284973145,-10.766505241394043,-3.8177483081817627,1.0343475341796875,0.9418014883995056,1.4848606586456299,-1.1254018545150757,46.57994842529297,-15.41946792602539
5.67,2.830709218978882,-10.620543479919434,-4.0666022300720215,1.0091493129730225,0.879493236541748,1.4402674436569214,0.49693071842193604,45.615318298339844,-14.250219345092773
5.68,3.0065815448760986,-10.481759071350098,-3.9385857582092285,0.9825767278671265,0.755182147026062,1.3935363292694092,0.20461852848529816,44.7822265625,-14.557147026062012
5.69,2.919243335723877,-10.25085163116455,-3.954139232635498,0.9422596096992493,0.6403394937515259,1.3698652982711792,0.9061678051948547,43.437591552734375,-13.49020767211914
5.71,2.798405885696411,-9.803394317626953,-4.070191383361816,0.9129380583763123,0.5143485069274902,1.3287845849990845,1.1984800100326538,43.72990417480469,-13.680211067199707
5.714,2.620140552520752,-8.86660385131836,-4.150351047515869,0.9245445132255554,0.41493022441864014,1.282817006111145,1.446945309638977,42.54603958129883,-13.987138748168945
5.72,2.362912178039551,-8.45743179321289,-3.9912281036376953,0.9361509680747986,0.389426589012146,1.2651019096374512,1.4177141189575195,42.09295654296875,-13.183279037475586
5.73,2.0781664848327637,-7.77906608581543,-3.9361932277679443,0.9517279863357544,0.36880987882614136,1.218370795249939,1.7684887647628784,41.2014045715332,-14.39637565612793
5.74,2.008774518966675,-7.312465667724609,-3.5988051891326904,0.9611964225769043,0.36651915311813354,1.1661417484283447,1.7538732290267944,40.83601379394531,-14.674072265625
5.75,1.8891334533691406,-7.026523113250732,-3.4480574131011963,0.9334020614624023,0.38957932591438293,1.1163562536239624,2.1192634105682373,40.339080810546875,-14.45483684539795
5.769,1.6929219961166382,-6.64486837387085,-3.3379874229431152,0.8886561393737793,0.42898011207580566,1.0658071041107178,1.783104419708252,40.017539978027344,-14.995615005493164
5.773,1.8436697721481323,-6.429513931274414,-3.0891339778900146,0.8003861904144287,0.45524731278419495,0.9996809363365173,2.645425319671631,39.374454498291016,-15.41946792602539
5.78,1.9860427379608154,-6.346961975097656,-3.032902479171753,0.7394523620605469,0.456163614988327,0.9744827747344971,2.4115755558013916,38.97983169555664,-14.586379051208496
5.79,2.0961124897003174,-6.236892223358154,-3.2482566833496094,0.6600399017333984,0.42241328954696655,0.9366090893745422,2.2800350189208984,38.93598175048828,-14.776381492614746
5.8,2.1619153022766113,-6.072983741760254,-3.269791841506958,0.5965099334716797,0.34147366881370544,0.8607090711593628,2.850043773651123,38.205204010009766,-15.097925186157227
5.81,2.139183282852173,-5.739184856414795,-3.2434709072113037,0.5574145317077637,0.25625795125961304,0.7991644144058228,2.850043773651123,37.79596710205078,-14.469453811645508
5.83,2.124826431274414,-5.484349250793457,-3.2099714279174805,0.5485569834709167,0.18096882104873657,0.746630072593689,2.9961998462677,37.8251953125,-14.469453811645508
5.833,1.920240044593811,-5.291727066040039,-3.377469062805176,0.5584835410118103,0.0659734457731247,0.701578676700592,3.595440149307251,37.3867301940918,-14.761765480041504
5.84,1.6175479888916016,-5.513063430786133,-3.425325632095337,0.570242702960968,0.035124752670526505,0.6960809230804443,3.2592811584472656,37.48904037475586,-15.22946548461914
5.85,1.073180913925171,-6.250052452087402,-3.1202404499053955,0.5511531829833984,0.06459899991750717,0.7111998200416565,4.267758369445801,37.41596221923828,-15.974861145019531
5.86,0.5204389095306396,-7.192824363708496,-2.885744094848633,0.49296826124191284,0.21991148591041565,0.7496843934059143,3.624671220779419,37.45980453491211,-14.703303337097168
5.87,0.25363919138908386,-7.7730841636657715,-2.5363919734954834,0.4106541574001312,0.4358523488044739,0.8043568134307861,4.311604976654053,37.1236457824707,-14.104063987731934
5.88,0.05982056260108948,-8.224130630493164,-2.3234305381774902,0.30543261766433716,0.7049384713172913,0.8662069439888,4.1800642013549805,36.75825881958008,-14.893306732177734
5.893,0.2548356056213379,-8.4502534866333,-2.392822504043579,0.16798794269561768,1.0740537643432617,0.9320276379585266,4.01929235458374,36.0274772644043,-13.914060592651367
5.9,0.6975077390670776,-8.427520751953125,-2.640479564666748,0.09575312584638596,1.3000738620758057,0.9697485566139221,4.1362175941467285,35.969017028808594,-14.016368865966797
5.91,1.286142110824585,-8.251648902893066,-2.99222469329834,0.0705549344420433,1.4624114036560059,1.0128145217895508,3.9169833660125732,35.58900833129883,-13.475592613220215
5.92,1.6354942321777344,-8.142775535583496,-3.2446675300598145,0.08796459436416626,1.5570954084396362,1.0282388925552368,3.3469743728637695,35.39900588989258,-12.627885818481445
5.93,2.0003998279571533,-8.116454124450684,-3.3128626346588135,0.13576479256153107,1.5648839473724365,1.011745572090149,3.2885122299194336,34.6682243347168,-12.189417839050293
5.949,2.502892255783081,-8.133204460144043,-3.2961132526397705,0.1898263692855835,1.4758503437042236,0.9560041427612305,2.850043773651123,34.82899475097656,-10.947091102600098
5.953,3.212364435195923,-8.567501068115234,-3.293720245361328,0.2353358417749405,1.2069170475006104,0.8616254329681396,2.1777257919311523,34.171295166015625,-11.546331405639648
5.96,3.425325632095337,-8.908477783203125,-3.394218921661377,0.23609942197799683,1.0488556623458862,0.836885392665863,2.2508037090301514,34.50745391845703,-11.107863426208496
5.97,3.544966459274292,-8.599804878234863,-4.875375747680664,0.33505958318710327,0.7693847417831421,0.6907358169555664,2.776965856552124,34.59514617919922,-11.078632354736328
5.98,4.511667251586914,-8.733802795410156,-3.88594388961792,0.45402559638023376,0.34697145223617554,0.5497786998748779,2.835428237915039,34.27360534667969,-11.04940128326416
5.99,4.05703067779541,-8.916852951049805,-3.871586799621582,0.47769662737846375,0.0734565407037735,0.5775730609893799,2.747734546661377,34.01052474975586,-11.546331405639648
6.01,3.1692936420440674,-9.443273544311523,-3.592823028564453,0.5244278311729431,-0.18768833577632904,0.5623013973236084,2.820812463760376,34.200523376464844,-10.990938186645508
6.013,1.8855441808700562,-9.91585636138916,-3.198007583618164,0.4668537676334381,-0.25305092334747314,0.46853363513946533,3.551593065261841,35.06284713745117,-11.824028015136719
6.02,1.4811570644378662,-9.848857879638672,-3.617947816848755,0.436157763004303,-0.21151207387447357,0.38866299390792847,2.937737464904785,35.0043830871582,-11.897106170654297
6.03,1.7635102272033691,-9.879964828491211,-3.706482172012329,0.4237877428531647,-0.1485929638147354,0.2617557644844055,3.3177430629730225,35.01900100708008,-12.671732902526855
6.04,2.335394859313965,-10.475777626037598,-3.5712878704071045,0.39843684434890747,-0.12003502249717712,0.18875734508037567,3.639286756515503,35.88132095336914,-12.408652305603027
6.05,2.423929214477539,-11.335997581481934,-3.954139232635498,0.33796119689941406,-0.08552113175392151,0.1586722582578659,3.887752056121826,35.6474723815918,-12.70096492767334
6.069,2.5495524406433105,-12.06221866607666,-4.475774765014648,0.24526238441467285,-0.04917465150356293,0.07925976812839508,4.1508331298828125,36.04209518432617,-13.300204277038574
6.073,2.8354947566986084,-12.848259925842285,-5.286941051483154,0.18371771275997162,-0.11224649101495743,-0.0377209298312664,3.595440149307251,36.17363357543945,-14.39637565612793
6.08,2.847459077835083,-13.324432373046875,-5.14456844329834,0.14217887818813324,-0.15622878074645996,-0.11545352637767792,3.800058364868164,36.0274772644043,-14.133294105529785
6.09,2.888136863708496,-13.913066864013672,-5.018945217132568,0.06734789162874222,-0.24908030033111572,-0.24266621470451355,3.9023678302764893,36.465946197509766,-13.592517852783203
6.1,2.994617462158203,-14.163116455078125,-5.132604598999023,-0.018325956538319588,-0.3078760802745819,-0.37430769205093384,3.4054369926452637,36.39286804199219,-14.703303337097168
6.11,3.1477580070495605,-14.110474586486816,-5.186442852020264,-0.0884227380156517,-0.39614611864089966,-0.5366451144218445,3.478515148162842,36.4074821472168,-14.849458694458008
6.13,3.0305097103118896,-13.779067993164062,-5.124229431152344,-0.12492194026708603,-0.44715335965156555,-0.6473644375801086,3.624671220779419,37.021339416503906,-14.966383934020996
6.134,2.5806589126586914,-13.404592514038086,-4.991427898406982,-0.21899518370628357,-0.5068654417991638,-0.8252789378166199,3.4054369926452637,36.729026794433594,-14.937153816223145
6.14,2.187039852142334,-13.11386489868164,-4.7796630859375,-0.28725937008857727,-0.48197266459465027,-0.9272934198379517,2.9669687747955322,37.41596221923828,-15.200233459472656
6.15,1.7838492393493652,-12.439087867736816,-4.639682769775391,-0.40194934606552124,-0.39675697684288025,-1.0919215679168701,3.610055446624756,37.41596221923828,-15.083308219909668
6.16,1.6869399547576904,-11.582457542419434,-4.518845558166504,-0.5448917746543884,-0.23945917189121246,-1.2997685670852661,2.806197166442871,37.605960845947266,-13.884828567504883
6.17,2.042273998260498,-10.63011360168457,-4.223331928253174,-0.6496551632881165,-0.07987063378095627,-1.4130840301513672,2.5285003185272217,37.664424896240234,-14.527915000915527
6.189,2.2013967037200928,-10.146763801574707,-3.970889091491699,-0.7373143434524536,0.007024950347840786,-1.5131131410598755,2.660040855407715,37.7228889465332,-14.07483196258545
6.192,2.306680917739868,-9.987641334533691,-3.9553356170654297,-0.8219191431999207,0.06414084881544113,-1.6584991216659546,1.5784857273101807,38.17597198486328,-14.600994110107422
6.2,2.6356940269470215,-9.992426872253418,-3.978067398071289,-0.8648324608802795,0.06261368840932846,-1.7594444751739502,1.1400175094604492,37.98596954345703,-13.899443626403809
6.21,3.4432716369628906,-10.182656288146973,-4.108476161956787,-0.9046913981437683,-0.08888089656829834,-1.910786509513855,1.5054078102111816,38.93598175048828,-13.256357192993164
6.22,4.0247273445129395,-10.76411247253418,-4.068994522094727,-0.9308058619499207,-0.2883284091949463,-1.9798141717910767,1.3300204277038574,38.760597229003906,-13.314821243286133
6.23,4.11924409866333,-11.283354759216309,-4.046262741088867,-0.9547823667526245,-0.5380195379257202,-2.043802261352539,0.9207833409309387,39.62291717529297,-13.431745529174805
6.249,4.149154186248779,-11.897113800048828,-3.9553356170654297,-0.9830348491668701,-0.8093964457511902,-2.1010708808898926,0.8330897688865662,40.38292694091797,-13.197896003723145
6.253,3.332005262374878,-12.642478942871094,-3.535395383834839,-1.0512990951538086,-1.0151053667068481,-2.107332229614258,0.4384683072566986,40.41215896606445,-13.607131958007812
6.26,2.7421746253967285,-13.00259780883789,-3.304487705230713,-1.1395691633224487,-1.0561859607696533,-2.116037130355835,1.1107863187789917,40.64601135253906,-13.314821243286133
6.27,2.069791555404663,-13.344771385192871,-2.9934210777282715,-1.2366966009140015,-0.9752463102340698,-2.1262691020965576,1.0084770917892456,41.36217498779297,-14.834843635559082
6.28,1.7024933099746704,-13.503894805908203,-2.6261227130889893,-1.350012183189392,-0.7982481718063354,-2.108401298522949,0.2776965796947479,41.873722076416016,-14.279450416564941
6.29,1.322034478187561,-13.373485565185547,-2.6871397495269775,-1.4468343257904053,-0.568715512752533,-2.1030561923980713,-0.24846535921096802,41.97603225708008,-14.39637565612793
6.31,1.2095718383789062,-13.046865463256836,-2.695514678955078,-1.5062408447265625,-0.31123584508895874,-2.1209239959716797,-1.1546331644058228,42.72142791748047,-14.35252857208252
6.313,1.6067804098129272,-12.689138412475586,-2.6739792823791504,-1.5393803119659424,0.006108652334660292,-2.176818370819092,-2.3969600200653076,43.247589111328125,-15.097925186157227
6.32,1.8077774047851562,-12.586247444152832,-2.6452653408050537,-1.5328136682510376,0.11713340878486633,-2.210874080657959,-3.478515148162842,43.23297119140625,-15.536393165588379
6.33,2.282752752304077,-12.173484802246094,-2.6285154819488525,-1.5108224153518677,0.18524488806724548,-2.2621867656707764,-4.282373428344727,43.48143768310547,-15.317158699035645
6.34,2.5878376960754395,-11.691330909729004,-2.6141586303710938,-1.4805846214294434,0.18799376487731934,-2.3290762901306152,-5.495469093322754,43.992984771728516,-15.56562328338623
6.35,2.693121910095215,-11.084750175476074,-2.5363919734954834,-1.4411838054656982,0.13820825517177582,-2.3883302211761475,-7.147032737731934,43.96375274658203,-15.244080543518066
6.361,2.6261227130889893,-10.466205596923828,-2.344965934753418,-1.4008666276931763,0.07956519722938538,-2.439795732498169,-8.360128402709961,44.007598876953125,-15.726396560668945
6.374,2.121237277984619,-9.527023315429688,-1.994417667388916,-1.3550517559051514,0.03329215571284294,-2.515084743499756,-10.420929908752441,44.066062927246094,-14.90792179107666
6.38,1.8580267429351807,-9.06999397277832,-1.710868239402771,-1.3364204168319702,0.02672535367310047,-2.560594320297241,-11.195556640625,43.84682846069336,-15.01023006439209
6.39,1.7718851566314697,-8.547162055969238,-1.5254243612289429,-1.3234394788742065,0.02076941914856434,-2.616183280944824,-12.481730461120605,43.817596435546875,-14.615609169006348
6.4,1.7072789669036865,-8.032705307006836,-1.5433706045150757,-1.3132075071334839,0.022143863141536713,-2.64611554145813,-14.060215950012207,43.83221435546875,-14.104063987731934
6.41,1.698904037475586,-7.482356548309326,-1.6307085752487183,-1.2864822149276733,0.00855211354792118,-2.665816068649292,-15.434082984924316,43.86144256591797,-13.738672256469727
6.429,1.7718851566314697,-7.11864709854126,-1.7491532564163208,-1.2220358848571777,-0.04856378585100174,-2.6699392795562744,-17.451038360595703,43.14527893066406,-13.7240571975708
6.433,1.6007983684539795,-6.821937084197998,-1.8221343755722046,-1.1482739448547363,-0.1310305893421173,-2.632370948791504,-19.24875831604004,42.85296630859375,-12.993276596069336
6.44,1.5254243612289429,-6.898507595062256,-1.769492268562317,-1.114065408706665,-0.18051066994667053,-2.6067144870758057,-20.08184814453125,42.72142791748047,-12.964046478271484
6.45,1.4859428405761719,-7.1401824951171875,-1.5996018648147583,-1.0920743942260742,-0.20830504596233368,-2.5366177558898926,-21.26571273803711,42.268341064453125,-13.080970764160156
6.46,1.3651052713394165,-7.325625896453857,-1.4009976387023926,-1.0989465713500977,-0.18066339194774628,-2.4275784492492676,-21.981876373291016,42.136802673339844,-12.671732902526855
6.47,1.0923235416412354,-7.2155561447143555,-1.310070276260376,-1.130711555480957,-0.10980302840471268,-2.297616958618164,-22.128032684326172,41.59602355957031,-11.853259086608887
6.48,0.9092725515365601,-6.786044597625732,-1.3112667798995972,-1.1444560289382935,-0.04444044828414917,-2.2211060523986816,-23.092662811279297,41.81526184082031,-11.648640632629395
6.493,1.2993026971817017,-6.5551371574401855,-1.5050853490829468,-1.1345294713974,0.02672535367310047,-2.1265745162963867,-24.334989547729492,40.70447540283203,-12.65711784362793
6.5,1.6905291080474854,-6.602993965148926,-1.7264214754104614,-1.1125383377075195,0.040317103266716,-2.0647244453430176,-25.007307052612305,40.48523712158203,-12.627885818481445
6.51,2.0853447914123535,-6.56829833984375,-1.971685767173767,-1.0572550296783447,0.016035212203860283,-1.9755382537841797,-26.074249267578125,40.80678176879883,-12.525577545166016
6.52,2.275574207305908,-6.525227069854736,-2.1367905139923096,-0.9527970552444458,-0.0786488950252533,-1.8594738245010376,-26.673486709594727,40.03215408325195,-12.42326831817627
6.53,2.379662036895752,-6.813561916351318,-2.1200408935546875,-0.8602509498596191,-0.16172656416893005,-1.7673858404159546,-27.652734756469727,39.63753128051758,-13.650979042053223
6.549,2.502892255783081,-7.185646057128906,-2.0135602951049805,-0.7754933834075928,-0.25702154636383057,-1.6693419218063354,-28.310436248779297,39.09675598144531,-12.832504272460938
6.553,2.3306093215942383,-7.527820110321045,-1.9692928791046143,-0.7046330571174622,-0.3428480923175812,-1.520138144493103,-28.661209106445312,38.658287048339844,-13.358667373657227
6.56,2.1547367572784424,-7.689335346221924,-1.8580267429351807,-0.6772968769073486,-0.37827828526496887,-1.4269812107086182,-29.655071258544922,37.88365936279297,-12.89096736907959
6.57,1.9836498498916626,-7.861618518829346,-1.698904037475586,-0.6575964689254761,-0.37690383195877075,-1.260367751121521,-30.795087814331055,37.37211227416992,-12.569424629211426
6.58,1.8735800981521606,-7.685746192932129,-1.8017953634262085,-0.654542088508606,-0.33429598808288574,-1.1125383377075195,-31.072786331176758,37.284420013427734,-13.256357192993164
6.59,1.813759446144104,-7.295715808868408,-1.9525432586669922,-0.6290384531021118,-0.2684752643108368,-0.9468411207199097,-31.350481033325195,36.59748840332031,-12.774043083190918
6.61,1.592423439025879,-6.7692952156066895,-2.172683000564575,-0.5827654004096985,-0.18371771275997162,-0.7857254147529602,-31.350481033325195,36.61210250854492,-12.65711784362793
6.614,1.7922240495681763,-6.241677761077881,-2.6261227130889893,-0.43890663981437683,-0.11881328374147415,-0.5948300361633301,-31.803565979003906,36.115169525146484,-12.598654747009277
6.621,2.097308874130249,-6.273980617523193,-2.65842604637146,-0.3474296033382416,-0.11820242553949356,-0.4996877610683441,-32.15433883666992,35.95439910888672,-12.218649864196777
6.63,2.4945175647735596,-6.583851337432861,-2.6117656230926514,-0.23869559168815613,-0.16539175808429718,-0.3813326060771942,-32.30049514770508,35.3843879699707,-12.934814453125
6.64,2.6907289028167725,-6.148357391357422,-4.084547996520996,-0.0328340083360672,-0.24526238441467285,-0.27488934993743896,-32.183570861816406,35.735164642333984,-11.882491111755371
6.65,3.6047871112823486,-6.206982135772705,-3.2518458366394043,0.18585574626922607,-0.513126790523529,-0.2076941728591919,-31.64279556274414,35.39900588989258,-12.70096492767334
6.669,3.150151014328003,-6.463013648986816,-3.4085757732391357,0.3347541391849518,-0.6679810881614685,0.029474247246980667,-32.32973098754883,35.51593017578125,-12.920199394226074
6.673,2.9252257347106934,-7.485945224761963,-2.8725833892822266,0.5380195379257202,-0.8785768747329712,0.28008171916007996,-31.277402877807617,35.720550537109375,-12.671732902526855
6.68,2.6835503578186035,-8.266005516052246,-2.4095723628997803,0.5674937963485718,-0.8944594264030457,0.43646320700645447,-31.379714965820312,35.545162200927734,-11.838644027709961
6.69,2.1032910346984863,-9.262616157531738,-2.2911276817321777,0.589790403842926,-0.8503244519233704,0.6464481353759766,-31.56971549987793,35.910552978515625,-12.364805221557617
6.7,1.891526222229004,-10.021141052246094,-2.664407968521118,0.5812382698059082,-0.7347181439399719,0.8527678847312927,-30.94124412536621,36.39286804199219,-12.584039688110352
