time,accel_x,accel_y,accel_z,gyro_x,gyro_y,gyro_z,mag_x,mag_y,mag_z
0.0,0.03598396943974086,0.08103594085355574,9.80183781391949,-0.05882505243539373,-0.008386804295590109,-0.009434813939211781,20.028581966232778,41.34682668454704,30.534682744815875
0.02,0.029601927623436712,-0.08483341400491473,9.876017574976064,-0.02508883946359055,0.004662943640973918,-0.04258250427017105,20.144272191625205,41.94391379736343,30.363185717641503
0.04,-0.08370992148624887,-0.06555499388715946,9.784768614004914,-0.0088732903045269,-0.046866945434528184,-0.01643597319309945,19.970497790831686,41.814196652088654,30.483887185706706
0.06,-0.049789592054477735,-0.016919101977409486,9.845640455287846,-0.006678429807738964,0.048037446658752474,-0.0693987097886497,19.88386005258998,41.64024854100113,30.50691291556024
0.08,-0.008799140390171906,-0.10693756966886969,9.949088762271527,-0.05043140555767388,-0.0033928490720696283,0.05818969752521451,20.224980837912465,41.74647655785111,30.547700777011006
0.1,0.03243488813583099,-0.05532356555240089,9.818278345923039,0.03385329865751922,0.006085692403351091,-0.03299724122996202,20.112968782816463,41.61432804945115,30.56041195768067
0.12,-0.06066715122209856,-0.009682991279988788,9.78315700261087,-0.006267297884526046,-0.021464142071270495,0.04775565220548198,20.138490565666928,42.006212905241846,30.86500685458694
0.14,-0.04188217450648429,-0.05130306588048072,9.780447509832308,-0.001798301546861987,-0.25759211625570894,-0.0017812958169762417,20.064636163145614,41.66702503205877,30.39363812190222
0.16,-0.3233263722927002,0.31113023232444986,9.27796477587819,-0.07918784115565099,-0.1214126749217428,0.03732774562462213,20.09176594706517,41.72671267572824,30.67984303050451
0.18,-0.540440963058721,0.5615879307777282,8.129274207266693,-0.20177193577194075,0.03760387683526718,0.02474678036452601,20.30409322910963,41.71045783966634,30.716014254686343
0.2,-0.6014881492255049,0.6530162299578899,7.342027861778282,-0.23779252960324712,0.17815934496271915,0.06600273032864692,20.346702409290224,41.82401486640377,30.637675463524584
0.22,-0.7250321206394972,0.7705242952711703,8.563401595430456,-0.32747898165979383,0.25619458906777226,0.09599881672643294,20.345909977304846,41.998720314946176,30.50132023443231
0.24,-0.9355775156835604,0.7077809025598476,9.514924249913157,-0.3920782844616778,0.30620883148771516,0.10836256405085574,20.371950263738533,42.06166057148262,30.807502556720273
0.26,-0.9407018067167341,0.31828469566418666,9.836764327908018,-0.3746208450853567,0.2693801551027062,0.1192855397005618,20.368110111159016,41.79055584521653,30.323617082075444
0.28,-1.0068552943969513,-0.015583096496156731,10.241505844130815,-0.35526643651834217,0.22501198847581796,0.08521335327874636,20.336881027400555,41.898755659436794,30.52639844534137
0.3,-1.0462155764765515,-0.33277273496656745,11.060863533330307,-0.36977662492118285,0.14353437031089916,0.079121281698459,20.32231402957836,41.86923663328828,30.773395925234624
0.32,-0.9078395491498806,-0.7367023377534125,12.364990335792772,-0.33385226507647386,-0.014036080672944738,0.0360832443816786,20.524341413821332,41.74122272944815,30.58550715746881
0.34,-0.7133971422142081,-0.7009813916251639,12.65299582817058,-0.33239277239720566,-0.13670428253050662,0.09192615660446499,20.346177948421335,42.18477226610794,30.84658506393394
0.36,-0.6557826683617705,-0.7969932867743996,11.869546089420275,-0.3035197520768841,-0.247608734990673,0.09398509894822352,20.465898861275495,42.05663404193086,30.457976605382683
0.38,-0.36374654514546184,-0.551026344432721,10.681747827671353,-0.1288690949398284,-0.34921462519516,0.09209978766912957,20.340084330309306,41.913621353441144,30.51828096342408
0.4,-0.4201846206180586,-0.42402110300758267,10.109378061916939,-0.026263897121573676,-0.31959432807271015,0.029017617702207746,20.38298949761285,42.09880527356318,30.60161365473711
0.42,0.022601760280014208,0.08635596304370059,9.763994586240091,0.046369816760629776,-0.2005760087347213,-0.027527352733074203,20.461455227894067,42.05808121267111,30.732013297749763
0.44,-0.02442898763275704,0.019609951618226124,9.698185431756652,-0.013745150047351992,-0.0033500496627227472,-0.05730707658526257,20.412999758813573,41.919710992650074,30.658978566714534
0.46,-0.04913647042981552,0.005394565494550939,9.722692610500799,-0.03994829883932302,0.011074972367130495,0.030333335458667215,20.642163558601176,41.95695104269187,30.633323712047602
0.48,-0.02412731030172785,-0.01502243492139853,9.694459615979845,-0.03710184633022613,0.05064554937101035,-0.06048085013688114,20.391534778956306,42.11446763364856,30.886488571179953
0.5,-0.15720441053445713,-0.04590583155676476,9.865546070896576,-0.05687944216364956,0.02023315197533868,-0.013899330487800534,20.60073538054267,41.80518754308301,30.906865782327205
0.52,-0.04405900082160076,0.046834026142327845,9.879112914881539,-0.006436115789121451,0.03728435858377029,-0.010177818494196668,20.628848256010215,42.1455984030776,30.668453861762128
0.54,-0.007144795423248227,-0.021016968329724994,9.800493860988725,0.04838169465863854,2.9804463063361555e-05,-0.00522256441123262,20.403856743021056,41.90731265597833,30.510875169041103
0.56,0.06458521886345703,-0.15589246102957774,9.85816287652385,-0.007533204219911785,-0.02883090167950207,-0.0018543167988531156,20.60283479732201,42.135736282500645,30.461678525394614
0.58,-0.06316929396951343,-0.10149993354924816,9.788573336357135,0.006674332811144798,-0.004851717094858913,0.001420721803762402,20.715553298296662,41.94404807355496,30.776455347096405
0.6,-0.081743590585164,-0.04189412814033583,9.773912854547152,0.04101910285773467,-0.028752058039012412,-0.08029162438651295,20.761126288510997,41.99175826240251,30.837655776969843
0.62,-0.062112450789410335,-0.010160065077404475,9.75868559238056,-0.01593104997863679,0.04686543861671833,-0.002531010884155945,20.70340686834278,41.947668349041706,30.76950066451944
0.64,0.028585735532932748,-0.03362166328959333,9.760134976551836,0.06213700661502704,0.022292514449135027,-0.07434641837158007,20.839389023847936,41.88718599749802,30.75997922382988
0.66,-0.008959928981780194,0.048014130546794445,9.680940700396222,0.06074702103991851,0.013656399892104949,0.020430978338911835,20.76182039050111,41.92358362090954,30.673566340305886
0.68,-0.06390465304109048,-0.154870519298472,9.79691230487087,-0.007195562837775445,0.036550182471299306,-0.020764004985715588,20.800498734732173,42.13725162209706,30.86775017881159
0.7000000000000001,0.002849115719254794,-0.020810372063669747,9.777418629746302,-0.02148109644861481,-0.06764180526474321,-0.07202517520714721,20.85377027836042,41.66677272871693,31.005956937632764
0.72,-0.023787036841725416,-0.1463506704247779,9.827703086340984,0.019311617484490017,0.015820414442965107,-0.029054549676332028,20.962887485779838,41.806343718023136,30.514495641398653
0.74,0.031993279394104915,0.01862158691098678,9.785985503772071,-0.014120798160603458,-0.044940665097739925,-0.021242410853908923,20.780274527870876,41.873701597831904,30.795311815675337
0.76,-0.07493139800815055,-0.03604535772428818,9.769586963099579,-0.04000976694615477,-0.003232182350901157,0.03510238776176015,20.826846521560633,41.82984918058853,30.687871470047753
0.78,-0.05097037738225717,-0.003144961790456438,9.724243646079513,0.03799963691273537,-0.012974642958950865,0.0032924077360078404,20.825789113389323,42.16215455355611,30.628007528894987
0.8,-0.05509492180045809,-0.08528850947774502,9.784617807156593,0.03592631639286656,0.018175571587102334,0.008022238219218568,20.890986040537264,42.130544020114904,30.6807273487001
0.8200000000000001,-0.12366495668045559,0.05188575562609607,9.827247182772235,0.001976371320433946,0.004301993246750574,0.03479909229505923,21.138012668130795,42.04570988815947,30.880404397782357
0.84,-0.01104830226786713,0.03667037849976648,9.706826304570633,-0.04341167211930169,0.04004374955557723,-0.006076617213583663,21.050555244145738,41.88834353342515,30.889947356439908
0.86,-0.01329246258048708,0.007346835392760813,9.785598320235568,-0.04234484003895636,-0.022260709149843634,0.021134014753036907,20.854099580181398,42.140605910103204,31.031197866493006
0.88,-0.029672738774882502,-0.038289103799260205,9.794914748897888,0.00043133722941288795,0.019691660468265086,0.01888355564582374,20.94349204832724,41.765859678863016,30.851435849901538
0.9,-0.0450135765360094,0.00711086625888846,9.734043853848432,-0.01899587310416103,0.0021911429407626215,-0.044167023794221195,21.08936779466537,42.24241943813665,30.631151210607907
0.92,-0.1205837274912265,-0.07524112435119032,9.742377196485888,-0.013914973828531463,-0.055329288642289684,0.044135474484154544,20.946755697509143,41.87940285081211,30.831469703353026
0.9400000000000001,-0.056921300656982976,0.024755562177325573,9.794759094321039,0.029702820961920114,-0.032395726672737046,-0.04844965696226223,20.990907707752086,41.93196940605799,30.690109858981177
0.96,-0.05193372905771325,0.07556677723673094,9.707461054829272,0.020461738157521846,-0.0077960970727093855,0.02635573278329114,21.276692735523802,41.90871323704505,30.71856574607407
0.98,-0.08134574523018362,0.03851907583866791,9.802395117775962,0.04110056577592361,0.03259335839653529,-0.05154633718098025,21.046633326399967,41.82415601287251,30.95267381853076
1.0,-0.040322285546624585,-0.07669455806767421,9.722697320085812,-0.034699943148072246,0.011839137841827666,0.016239577220853545,21.267767857036706,42.20545827060047,30.908400613558687
1.02,-0.004140745163869541,-0.006869291694521412,9.848022636354127,-0.013982130197974785,-0.04036002636418286,0.05658127610080552,21.326491334375,42.05723823926408,30.963792793028276
1.04,0.09071589767747394,-0.11276105880055345,9.929620975704852,0.021287414254723608,-0.007490119297509113,-0.00981531700960676,21.091977447719582,42.10874223826073,30.8477191964069
1.06,-0.018827019978762308,0.006632979915243246,9.679122467469249,0.011338506912412536,-0.15056222799458727,-0.011203380571300683,21.091804018941357,41.793121460130855,30.999414121095406
1.08,-0.23603770895005746,0.345945609717249,9.335532053995216,-0.04297220133972187,-0.09852457187164267,0.03878617337377062,21.19003781551181,41.9691876612383,30.84991224441616
1.1,-0.46864827772659284,0.4757969402443654,7.9299327922006615,-0.16309632105809305,0.020114924428675688,0.02984768732095444,21.105503631251157,42.00868374637543,31.050217392082896
1.12,-0.7762911596378721,0.6755881637350677,7.397124382488798,-0.19325642941211574,0.1723452914588,0.11753389870564362,21.279604259587238,41.97230196350605,30.955701940147385
1.1400000000000001,-0.8135283704967797,0.7318214403538579,8.499892789743434,-0.29845202333207144,0.27544583831510827,0.08133330022948125,21.256848066788677,41.78445966713016,30.889250035191086
1.16,-0.9271141344661933,0.5762101621574113,9.599165898773814,-0.32939818883813055,0.2805162758486109,0.07685146252717868,21.348177976901948,42.065683833469784,30.946901678786606
1.18,-0.8472804169827652,0.23970046742724305,9.710670941764286,-0.4033236431698321,0.29624739187239624,0.07720365432552051,21.499474378639846,41.938301409230384,30.921325756796186
1.2,-1.0423111017459918,-0.005105361321460142,10.172758836007544,-0.40254280921971236,0.19860757046249836,0.06714564895446334,21.443732289395975,41.79492240918402,31.13162113149212
1.22,-0.9856288822724725,-0.36101268032185363,11.026708595491382,-0.36382094394986625,0.11910220184509218,0.0744046316419427,21.41992930287839,41.673793065006315,30.96229191238698
1.24,-0.9331904211635547,-0.667898410421049,12.380727879842265,-0.3117722457019899,-0.03115916177591124,0.07587533819316683,21.123645742737803,41.98271922784996,30.934074140352315
1.26,-0.8866268768756802,-0.858312985755594,12.695976667452069,-0.292397010609268,-0.14718665248890817,0.05957869789484846,21.449823480127673,42.21221945880646,30.907006127359125
1.28,-0.5803491417297723,-0.7428250736547989,11.893033685212831,-0.2550574174454013,-0.28131113324584534,0.03828737141348604,21.631114390345996,41.761799246405474,31.048560147097888
1.3,-0.41576002502560466,-0.5495191307367732,10.630749147329656,-0.13247877470211636,-0.32739482725830427,0.1075512932830339,21.04259037275469,41.906456217517,31.03419181027201
1.32,-0.20189488934555994,-0.40805492626022566,9.992782722310022,-0.16215169058348217,-0.2559090853434097,-0.01371094905203218,21.533267200217228,42.019367504765675,30.911319770636926
1.34,-0.08820079710686342,-0.06917868269790872,9.822783367688336,-0.04851150404822001,-0.2176727185603001,0.0016922428046776041,21.441484393279534,41.70699204820316,30.80108780151081
1.36,0.05977883589991036,0.0014372905863677607,9.731243221013834,0.01881229515738845,0.006121111747179569,0.015960672312347903,21.36972900108527,41.80005680278335,30.836041812721
1.3800000000000001,-0.11971846801870598,-0.052913880303807115,9.793463495266618,-0.0025485325999000047,-0.012804653666768626,0.017163455858679445,21.597429480763626,41.7430759880446,30.93024975918443
1.4000000000000001,0.007558854003217298,-0.038921420842446985,9.877941412118682,0.01637643683597329,0.025759256768436607,-0.004875426425039104,21.72986884082932,41.97060259592132,31.12865875785375
1.42,0.11018916005183862,0.01733780171037897,9.730201933706708,-0.0009389592821778545,-0.022449919360949047,-0.010702482299113907,21.626154136425278,42.00532251967191,30.925991201147287
1.44,-0.09339432480836406,-0.15219878960046673,9.854995849169526,0.015270262227323927,-0.007339239676828251,0.011449519719664208,21.49506429451176,41.846809315839586,30.883827741401724
1.46,-0.0662430546945774,0.05437134879057083,9.875878248543218,-0.0290608902717821,0.022151770006500215,0.005528692799302424,21.437216659771426,41.70921460088412,30.736208932341434
1.48,-0.023622312634390963,-0.025348446442922154,9.727766080702205,0.015255554754550104,0.03453496637325651,-0.011286682712560427,21.591646306866814,41.75049155357034,31.156863167018926
1.5,-0.06222244186343675,-0.056335561251979534,9.686876505274205,0.028821264902642706,-0.019760297312853867,-0.05298011429518179,21.699799658174737,41.71638710546162,31.037357498053897
1.52,-0.1292424595882325,-0.03571098587017273,9.799325497610994,0.03605761932579944,0.059709887422588245,-0.01797355911466392,21.553135714076447,41.66163410382171,31.06764615709932
1.54,-0.02561196961241425,-0.0324045212786868,9.74496591854292,0.06143373742875839,0.007023734198195723,-0.03968960523863865,21.57989617232555,41.76301034936741,31.089930695601144
1.56,-0.0979874376784707,-0.14079688342047522,9.899590606026432,0.004811150192076371,-0.03637370437787961,-0.02434910560212245,21.992407830370936,41.83871055046072,30.946669487945698
1.58,0.00030991556065162323,0.0656760465570071,9.782227682591989,0.005765154779109725,0.008809665554878977,-0.0019368563674572977,21.783123529167124,41.81666376244115,30.9793453335451
1.6,-0.0888431509909634,-0.02735515953468042,9.728659237885749,-0.05174151885356313,-0.015255974863470648,0.008479556607891719,21.80587232183841,41.741353415797526,31.159663878668713
1.62,0.06919580192112253,-0.0016478636513679867,9.706581791295251,-0.020005164836429598,0.010890191589861657,0.053974488041356995,21.485072367613853,41.73792651484749,30.99255650852807
1.6400000000000001,-0.08012821070951917,0.030899185316738742,9.849753917381813,-0.009178626368211606,-0.004371399925130817,-0.020197004124922043,21.59453316143774,41.70812356435378,31.04506287270497
1.6600000000000001,-0.05061193703716324,-0.09535439728385921,9.743444225658612,0.030610225672843366,-0.0006232419139153666,0.021788020328804822,21.70740608423581,41.54018131328319,31.081421718832804
1.68,0.022065101911658863,0.00030220153825462337,9.782805043165467,-0.022552035970868134,-0.032170988050756674,0.00679072078201077,21.582221901929753,41.71410981132331,31.052260118828578
1.7,-0.10877531625177314,-0.04712902981752279,9.8411713756872,0.02248288063196264,0.028681959382923523,0.03847192546047327,21.92746421434556,41.606024445382815,30.953375029680732
1.72,-0.015442564185335716,0.024193329613855598,9.749007465476428,-0.003051894942828164,-0.03999607574883303,0.015439319027060035,21.915102428113507,41.49511442021536,30.96510144983128
1.74,0.053657136274075395,-0.16614255490249571,9.77706055496063,-0.00866937968367238,-0.038480476652959845,-0.03527140567316212,21.677979094441927,41.701602430136184,31.06847663307109
1.76,-0.13287892701191856,-0.036342035215441215,9.77893962177136,0.0049646070122642055,0.008755531172719575,-0.058137472937319405,21.986024429948284,41.56216249101875,31.067609354386516
1.78,-0.01818343305393253,-0.06858052197017354,9.823732768737031,-0.015517003912090963,0.04829101590969503,0.0069603743893601544,21.768266234752588,41.65566447011634,31.116999452153568
1.8,-0.013367501168100891,-0.0023351711594140484,9.817807637472661,-0.0167291919389653,-0.014282979106061033,-0.019910431932812504,22.11109598875784,41.72079605859629,31.037033273113163
1.82,0.020036663793747862,8.282799156493839e-05,9.765912721199692,-0.057553148985283666,0.019431114326526902,-0.03437003987041912,21.808731766077194,41.476194974074645,31.041728199785528
1.84,-0.10916484549619725,-0.07528805726860967,9.784073539935777,-0.010934534634492468,0.03134688565963345,-0.04356248654505849,21.87423501728387,41.59488711407881,30.906957452987594
1.86,-0.11450922323739368,-0.07557912730726679,9.756206143262498,-0.01835898067675925,0.023069901993410215,0.002151215922788977,21.989651335201444,41.33637679421095,30.888243853191724
1.8800000000000001,0.0034042601994814514,-0.03708258358766908,9.685432805957156,-0.019511391659170544,-0.012958665253557804,0.04524664637802767,21.983691482444318,41.74903813152876,31.060950635658482
1.9000000000000001,-0.01099298091307609,-0.08738510254817332,9.796486454873481,0.010339938002881292,-0.03791349495021039,-0.016077515062593334,21.894926676241894,41.363426403049914,30.88577664425689
1.92,-0.0139684575778639,0.023886956508936123,9.855311175471481,0.01807622248929631,-0.2857735564574476,0.015888649954410312,21.82059192402441,41.45575550802218,30.954708810616143
1.94,-0.23034824854850794,0.29347773046541,9.24478472579901,-0.08457814943397128,-0.11049461456934671,0.015979570188668482,21.913276700906867,41.67698553874298,31.1318038045524
1.96,-0.5074053212985815,0.4094179399378388,7.926970372698538,-0.1447002095526401,0.06828813862498194,-0.0008718529395527613,21.751509497785584,41.45943196222024,31.109296529293186
1.98,-0.6386255652404292,0.7259537181216633,7.27477673798054,-0.23397793911692172,0.12063631144221906,0.08286294317820671,21.883669726004094,41.31972203969895,30.989311967252274
2.0,-0.7930748441769142,0.6834755252114447,8.627243201763168,-0.3251743910609925,0.2734239748890857,0.0401530028379271,21.730121668430563,41.54756302468746,30.91024173451509
2.02,-0.9766873586561066,0.4910635337849236,9.597111415303011,-0.37819894830382783,0.26470878200631287,0.08778893896923598,21.651776239563006,41.52774381115403,30.929665243188204
2.04,-0.8855183434685592,0.23791168644780197,9.756395823330552,-0.3829608532961904,0.28355932153688906,0.08356413793801261,21.893498203844597,41.34114178131244,31.05367434866006
2.06,-0.9996746930616456,-0.022997857802689817,10.127252629764946,-0.3846394524831392,0.23178136600892482,0.12557847790610213,22.055626913178145,41.337603697266466,30.934944462982696
2.08,-1.081171336002793,-0.29207397828615966,11.098606327765765,-0.34824014704772155,0.07497986460772046,0.060631959459120394,22.01926627179084,41.331440032211056,30.865005630416302
2.1,-0.8889494369498541,-0.6354213796470651,12.227961633555445,-0.3252700097228846,-0.031133833048691068,0.09960472383990462,21.896681548404384,41.34282761405892,31.088781735617875
2.12,-0.8742111093625787,-0.848758546591266,12.758722710415082,-0.33305972919544147,-0.17589254572981122,0.04830963121164459,22.13687814719581,41.108959713852855,30.95295208014761
2.14,-0.6031163872192167,-0.780764461254534,11.913485533325222,-0.2556601217075658,-0.23445250268246356,0.04299361339135224,21.84621388754479,41.309752971179925,30.852211663891527
2.16,-0.38973362206108436,-0.6848469658284395,10.57269467639389,-0.15508092588965466,-0.2935835135764644,-0.07593803336952745,21.679053666426242,41.54281622688647,30.983646920463208
2.18,-0.3050446023308244,-0.4215614149204886,9.90202778438805,-0.057832444684638884,-0.28435675351077383,0.08619924768740457,21.65040113911077,41.181078729607485,31.042750314537134
2.2,0.03165607227163647,-0.1038792107669112,9.914411014683198,0.027047022998553303,-0.16526483563142103,0.014617821850439432,21.783382061061126,41.20215402801608,30.785394217944646
2.22,-0.0035820206760641057,-0.14211704363211003,9.740847383071706,-0.005044090650603093,0.01819379655578567,-0.027555119550021264,22.043656636195973,41.10621010428137,30.884511153940874
2.24,0.02261185023964736,-0.0549551172198045,9.852700662140405,-0.043128724877712535,-0.02509125971604125,-0.03898898202665581,21.86211714493191,41.316738504102986,30.874238204787176
2.2600000000000002,0.09139475088985263,-0.019884576645111562,9.77014414942734,-0.034965964039858924,-0.00574764482552838,-0.018860760092138894,22.006306195633563,41.37285935953425,30.959203078219502
2.2800000000000002,-0.04570483942418371,-0.03618391488095294,9.769634891715755,0.005724272458221258,-0.005428761122549143,0.01994014511422245,22.16164712449205,41.35020189336686,30.977556966790235
2.3000000000000003,-0.07823911451887933,-0.05662188338863095,9.808058412767785,0.007951218541579059,-0.00042977367599321935,-0.06354671761871762,21.813416991418993,41.01945287434636,30.821274490944724
2.32,-0.08692892349603348,-0.090527747884594,9.723424073168228,-0.03815773994990032,0.07778429685143984,-0.00753070141741882,22.018470586709892,41.22305764458304,30.695848678318644
2.34,-0.08221185823778805,0.00892775626783799,9.788479817183722,-0.001573772451543308,0.008867260566751897,0.053660539918805546,22.02888930726253,41.32230261061777,31.0139039542413
2.36,-0.034934509402502666,-0.11429644287658144,9.755584677451258,0.017199179423097063,-0.06814888224335283,-0.03928628275096974,21.852092755761785,41.183533222861676,30.733249614722954
2.38,-0.00816627361173479,0.019665786485982426,9.695488419622079,-0.03983925304022862,-0.020369567094942885,-0.00042767875956304085,22.137656798952595,41.158865194074856,30.905939920245025
2.4,-0.012291788842878779,-0.09414188921131039,9.80159885278249,0.03235991045774126,-0.06483590679986588,0.06750591408824824,21.92922695374621,41.01641284842139,30.848818205201884
2.42,0.022939727938305524,-0.07815585519059423,9.763148300359815,-0.015080996753914406,-0.013553544225466875,0.01722885215010473,21.918353531655168,41.08393672593062,30.88084655507517
2.44,-0.02916787891981395,-0.12387425219940333,9.76995041097954,0.03724361960245283,-0.06659392735124571,0.0010295622555345644,22.238865437238676,41.19281951097389,31.065613108754548
2.46,0.06302618093806828,-0.062089737400680745,9.702549699621494,-0.020070478264828814,-0.030890895074189698,0.01321236655708809,22.03628252158954,41.0552215393491,31.23721699794625
2.48,-0.04693803732722919,0.03241999734259065,9.88184962353682,-0.03585201545229373,-0.05166308894829184,-0.015827690720310476,22.088279278767374,40.831906894959914,30.633160057341822
2.5,0.14409082666173562,0.0030001976604132133,9.836109707928712,-0.017660383674935026,0.00929312569495928,0.03858820112971008,22.143426295234793,40.911626665691394,30.96196539166705
2.52,0.0100427102569604,0.03261901516979425,9.841705976587008,-0.006044739938474245,-0.0029827403958758835,-0.01577856073280678,21.88658141647685,41.1029438056537,30.80967429121475
2.54,-0.0848580836106421,0.003417122939771894,9.760451539043732,-0.01543135701668739,0.0066947938399593955,-0.06569381147955126,22.12934547898947,40.967724732181324,30.95731223371453
2.56,-0.09853711987591118,-0.10063486902594362,9.669332295071781,-0.009912045490339628,-0.006345644434192845,-0.015521699326094717,21.904336498561474,40.919248107324826,30.93909465145707
2.58,0.000878234575563859,-0.05117051035696367,9.90498671247933,0.007686884789638092,-0.04761752800654137,-0.03393550495605451,21.89776211937673,40.810797256471425,30.990256752350646
2.6,-0.04430161826085446,-0.07993274426351761,9.776089759487625,-0.008477739833484783,0.013432683816151533,-0.011998208390317736,21.9312374604011,41.01141105347826,30.839396749850923
2.62,0.01569603162189389,0.05515679385849857,9.732076813054718,-0.005115596606464225,0.058511185928622485,-0.011290689890580189,21.88469350164827,41.04947785843562,30.682035746397233
2.64,0.00028720797270687104,-0.10659447337128394,9.80667530076692,-0.057695244774483075,0.010094802515409496,0.035317542393757034,22.067503241666458,40.975659080957875,30.907490547360926
2.66,-0.034661050410039855,0.027196652120903095,9.854695730432212,0.009534336512335127,-0.01662958717816211,0.01924936725326034,21.994104997821168,40.975771155269264,30.796575688547797
2.68,-0.08419479795637791,0.027149047686961233,9.77852476441053,-0.005854505526133376,-0.04869814963537425,0.0054244956024126914,21.89434589596903,40.72222391914252,30.744132512423963
2.7,-0.12695022237989534,0.08709569290982959,9.86182881074812,0.04852937537545187,-0.032058143064318895,-0.003094253162643044,22.040566046872772,40.68100952844035,30.70557326129396
2.72,-0.05857695693228935,-0.05621994192828783,9.84931199606508,-0.03306608535212666,0.011497269010305886,-0.03688345628345582,21.91569949940785,40.70178945923328,30.88768056362499
2.74,0.02480952283670223,0.015588618213130373,9.711111604006268,-0.06086545051198447,0.03133977685758,-0.07279760760530168,21.90531048206915,40.703390766756755,30.956316026855404
2.7600000000000002,-0.016298000375666945,0.11602571753848595,9.736877433237794,0.016778191805761344,0.00534771759110323,0.0006211203645690613,21.949603425683133,40.85816064274739,30.590171383130055
2.7800000000000002,-0.10972728183756723,-0.06952906732375658,9.79549328122807,0.008088864586016015,-0.18953564108537274,0.022428518514357086,21.998451594583685,40.800649006539864,30.814756082912076
2.8000000000000003,-0.24143735470183875,0.21886441545197552,9.12773554671937,-0.12427823023952243,-0.07943801477767835,0.01578540913180459,21.984475000577685,40.69665737504574,30.679329495917656
2.82,-0.43922342681491255,0.475144543804327,7.966879109750551,-0.2255054622071542,0.046798443355341716,0.023273035582581408,21.88321420944013,40.420755313326296,30.530913510165494
2.84,-0.710056677775606,0.7955558995925842,7.23893011846176,-0.20319922536159613,0.13553846790624077,0.07421304947272815,22.032966481688632,40.363994241508955,30.72924181141544
2.86,-0.801993075687516,0.6294207164297096,8.550369884633144,-0.27048106048779497,0.2565828121516901,0.07251651782682389,21.890587294234955,40.58685775150473,30.595188012164826
2.88,-0.927243509921875,0.5716367665863971,9.54928386053657,-0.4429861634395638,0.2679655732437443,0.14104070093340867,21.82942545128743,40.64467714444739,30.491255852156915
2.9,-1.0780780112429835,0.3450950352645401,9.743614595459125,-0.4076343018089375,0.2807227255871695,0.13394009816436747,21.71925955121504,40.497655058960305,30.58440989918806
2.92,-1.0071016089377098,-0.018148765642885402,10.150661129574633,-0.34974585424691523,0.21971966735010542,0.12770425782474654,22.02661012323442,40.72869867385361,30.544069208938744
2.94,-0.9690377024942566,-0.3498785199862594,11.022477019524565,-0.4082051667216212,0.1498048004229295,0.1187402828728993,21.895641272925,40.32070859764192,30.583888517786363
2.96,-0.8616535883392014,-0.6412386352031691,12.474779770781334,-0.3790871386498205,-0.07850076601075655,0.04581152952779529,21.914035239924097,40.28018489574813,30.487881426284893
2.98,-0.7443881511377963,-0.7280949176934015,12.86906097840253,-0.32478089147135186,-0.14720137876287895,0.09639894671248621,22.013591862702825,40.325345468761896,30.597838228230984
3.0,-0.7416606414079874,-0.870890578112742,11.783335760119192,-0.28826462390407454,-0.20961768883653017,0.07139141083056377,21.811005034945786,40.29592933834704,30.54783471796411
3.02,-0.5239045416721261,-0.69879287483577,10.754026893221875,-0.23110631946232071,-0.27683053446113126,0.059793965220273054,21.6882735061848,40.42857225763539,30.67781796337767
3.04,-0.21955867685496072,-0.4265571957913801,9.974543162714886,-0.05832685963901403,-0.259510744922109,0.03501559697364918,21.864913001669276,40.28255105799116,30.696216977609012
3.06,0.002882300858381241,0.02313227595920686,9.821594987907957,-0.061973980999925675,-0.19632579749619433,0.011488402811138112,21.886886793974025,40.113671225202886,30.6439449243612
3.08,0.002963051923587069,0.027625509657284074,9.775950466566599,0.0049126864674801885,0.038546703672813334,0.08342772702558703,21.8050132044447,40.40112750256116,30.570809769694037
3.1,0.21657481540190215,-0.0011215795636154748,9.737776086959746,0.02537054376824479,-0.03779930137959578,-0.0054379414384614095,22.01819138177025,40.03689221058759,30.557557048029693
3.12,0.00653699268436269,0.04574359468095539,9.842966549990793,-0.049439241564837075,-0.047349653311047894,0.02696279618653857,21.501925093000583,40.10016458519277,30.474105215431035
3.14,0.04267620097155833,-0.10539461551208837,9.788056737956907,-0.032576588883042296,-0.003202692494888191,-0.018071673928448103,21.953830944382915,40.00464633060408,30.467194007367254
3.16,0.031056112863564952,0.07670234313927278,9.749500708913969,0.03582173402853087,-0.07215718731429473,0.022300530684405503,21.901750012488453,40.213898278733446,30.65123018333642
3.18,0.011689040083571071,0.06748727178958452,9.69650627559677,0.014052535047265276,0.03638066573369636,0.027058236487438575,21.848678600915648,40.186200518144105,30.3257451676252
3.2,-0.05017723165698212,0.01707980782372779,9.722809919121977,-0.02275314262012439,0.036062886255854125,0.008661634468331132,21.352658706599996,40.38266183975472,30.530380775580376
3.22,0.01857403011156912,0.08403513016134784,9.674951672601466,0.03547196810755747,-0.016867217762704837,0.050415902156048,21.933148267391335,40.22926834692416,30.48893819294831
3.24,-0.07946081373040459,-0.13602388529137754,9.78078230709857,0.035609143150537675,-0.01486465909313631,-0.031296833163533364,21.626299282141133,40.27174962408999,30.596586681200822
3.2600000000000002,-0.04515639083136057,-0.06356468072080972,9.7034134020938,0.0056096861765026285,-0.005315119204821483,-0.018591070133383108,21.681288324394014,40.099062815447915,30.32695726251062
3.2800000000000002,-0.06106326706106262,-0.07705942148364495,9.763004127198814,-0.03180512729195721,-0.001335339185932168,0.003796162752751667,21.712746591776774,39.911960827502554,30.50033217984833
3.3000000000000003,-0.024760055079275353,0.016174676720469967,9.867686518631064,-0.01623035851109745,0.0010695654142171326,0.025185819311495106,21.77476286852318,40.02828261282188,30.531929005067095
3.3200000000000003,0.11813814826710456,-0.09720900733453731,9.856755172666983,0.006164375806572485,0.014863427420105702,0.0027417446814378636,21.792214298739697,40.062584853775114,30.233431970746317
3.34,-0.14950497232587187,0.01847968955759908,9.777934278777433,-0.009035034532719623,-0.008524043296271301,0.03814428916833811,21.812130425338538,40.051709789017394,30.32885404486907
3.36,0.013920652183968867,0.05771431321578967,9.774426577526839,0.027046629703515245,0.027182185711289407,-0.02417407587092222,21.789482561677353,39.876022491816165,30.443671001403235
3.38,-0.13321381575613772,0.014492985605375958,9.900311971162944,-0.051952770563498764,0.011270328868009705,-0.039498511663633745,21.704363645728662,39.97393000849969,30.510206328911117
3.4,-0.06020363941052374,-0.011839934485663926,9.813328391702958,-0.05081643293011964,-0.022422830267924337,0.006860106769168148,21.7118939513634,39.76682111227392,30.456655946942284
3.42,0.039692838205911435,-0.09322389381764795,9.759020386567903,0.0027878755674378376,0.039723605369731116,-0.005469768835638282,21.505439604459035,39.72760573848381,30.493861530068727
3.44,-0.02588607877789038,-0.08419846183202334,9.688734840504292,-0.018729421241820945,-0.04646422355591959,0.01437163905146304,21.535060367118792,39.69323859488469,30.272719659120654
3.46,-0.09897566578747559,0.04997560993898667,9.805207885962544,-0.023065555670327708,-0.0059493059462872476,-0.0038768733077281263,21.731684103887233,39.81414608271995,30.19620563106224
3.48,-0.07577943739263797,0.019878336249941272,9.833076721445304,-0.05957781501358071,0.02794135683441497,-0.013880633299950627,21.70984131573564,39.635190929875144,30.39900092065317
3.5,0.013494255931819257,-0.032497249240162826,9.739574302431127,-0.002374532966458184,-0.026138339357188626,-0.005398002295159151,21.68068031405478,39.70657579156121,30.219379428584393
3.52,-0.07674346442989674,-0.056746210929016994,9.798636976328835,-0.0046881634560245015,0.0069057806965488475,-0.0020768353666180818,21.507288624249714,39.85153849469763,30.254463622470197
3.54,-0.016146650266753607,-0.1596517038791281,9.756731309125438,0.017911327422455704,0.014386867103969535,-0.012759401595146574,21.674523790184463,39.579295636786284,30.47298233616043
3.56,-0.027083402246155918,-0.09853455479580409,9.72243282922943,-0.0007950037401288929,-0.24266879813136388,-0.0095002254823497,21.39393757435575,39.62157225003076,30.366220693653137
3.58,-0.2942233562030867,0.4394378128709888,9.142122139119248,-0.09625170408622166,-0.10440300561355925,0.006337106612050315,21.664826658796414,39.67043777576681,30.2575999005275
3.6,-0.3266713174007373,0.5135160294302661,7.962250264275278,-0.1388894752697325,0.025581220264297627,0.06780165774757682,21.477635022992104,39.66806402996392,30.229224014727773
3.62,-0.6129189844303807,0.7620690383036082,7.392542950719855,-0.294394874453847,0.1389540116959676,0.06555765233005893,21.710458834034497,39.54779951460972,30.3862445619582
3.64,-0.9414406080141167,0.8144187440299516,8.540459564368629,-0.29856813798408954,0.32467085503411,0.14739922735620353,21.283758173687826,39.687729581044074,30.322040258443675
3.66,-0.9190357917571756,0.5151501352222774,9.57177003380022,-0.4168642564344188,0.27069425965771754,0.0922394324311527,21.687598008725935,39.63795264708468,30.12753479773097
3.68,-1.0472822459270004,0.3289284616800359,9.718161390416922,-0.4197987450327553,0.31232276850268254,0.0768653521676652,21.398758800583426,39.6837040270327,30.021717253358997
3.7,-0.9754442665730416,0.03002659440068202,10.209074116992577,-0.4418050282439461,0.1965624018157677,0.18246161199561806,21.379363910073316,39.50285321346226,30.499902431522408
3.72,-1.0556492394415165,-0.3763070346919824,11.078836728458494,-0.3679490037382681,0.06131136054222114,0.1077288353050411,21.43555741860597,39.4232254487716,30.090501920381072
3.74,-0.9383120001563007,-0.47188739041175065,12.26798599110129,-0.36548067463602024,-0.033299287050030116,0.11878087997081205,21.303845253580082,39.377133330763385,30.302428139685194
3.7600000000000002,-0.7795122966132809,-0.9167326823136632,12.83482670406677,-0.3161646968141873,-0.14183863465420068,0.09413044370928275,21.366041827431,39.4795335477694,30.416113580548817
3.7800000000000002,-0.5980814694318458,-0.7421837038328907,11.917159621481655,-0.28781137635083587,-0.2275609533663835,0.07928533312340133,21.26289044967094,39.36776553735671,30.229459360619632
3.8000000000000003,-0.5407027091691279,-0.6665244971677977,10.614057388247042,-0.18614368751687577,-0.25112117942701057,0.057529303555035,21.24935807989204,39.319082674567916,30.121494975522854
3.8200000000000003,-0.2739290130501356,-0.3277041013845001,10.031967405907887,-0.11643926328841755,-0.19191711781458715,-0.016014612677202594,21.38298701788052,39.310541847784755,30.00356453182575
3.84,-0.06039649991430132,-0.0017563422912484621,9.847721357795232,0.009270560475334862,-0.2071155798357852,0.008760929521965196,21.186623351469652,39.25649152200754,29.98949127505892
3.86,-0.07181307088471756,-0.07692199661503979,9.821107279040715,-0.03471491633061164,-0.024218949562412412,-0.045395561723207654,21.18484264942521,39.345658745072676,30.20971119450759
3.88,0.0829890713779902,-0.015344230882602223,9.671567622656315,0.039553419686562424,0.01149197845743652,-0.008579610765201097,21.08839464317135,39.115656147281584,30.33487061422118
3.9,-0.004081170498498845,-0.14890569288949038,9.84442281862609,-0.05661857438797103,-0.011518814413007731,-0.026219758610025193,21.180344852462326,39.31164199079316,30.086149982337922
3.92,-0.11069657307744289,0.008607840036569205,9.743539266372753,-0.028808634638609963,0.026630916155271356,0.00843904594715917,21.39326778238606,39.33595334453119,30.053233294675152
3.94,0.028743164611505674,-0.010917858176606357,9.75709901225976,0.05067041631891508,-0.0445092574837031,0.007692039914823509,21.09743972024749,39.151615569539345,30.201215484464175
3.96,0.10581799660880853,0.010874250793158555,9.948824432144653,-0.0169244399347851,0.072786705356814,0.012396668504485977,21.092211537445245,39.44871931478432,30.01168663371004
3.98,0.0360777766752734,0.03771957280557761,9.799319896366145,-0.045076117260941184,0.02439353903281641,0.00619349032797079,21.190631975264676,39.181805767396405,30.122151224118113
4.0,-0.12723967782105686,-0.006472330226578501,9.755275361571382,0.0040102900012053974,-0.056888128569477274,-0.022418410937164762,21.098108561058606,38.95667481201161,30.079879048878595
4.0200000000000005,-0.06099098066344009,-0.02052227713291032,9.638861160143623,-0.018212551750865353,-0.02568892487407911,-0.011352111659253747,21.41034917431329,39.0976325529563,30.009611096839556
4.04,0.05108231354794386,-0.0863883735463227,9.868944904572567,-0.029747848179785787,0.023114593411646043,0.026452677160143517,21.08373431877495,39.11888863489692,30.04751413758938
4.0600000000000005,-0.07529084579960196,-0.07558212887353927,9.69390658106825,-0.03806786594555896,0.034643009797486544,0.031171413673420797,21.126659181292197,39.14570916563567,30.26265395170418
4.08,-0.0015955565986413775,0.045951015691349184,9.715779910176032,0.08558795538003018,-0.04371160407142283,-0.03969705915604958,21.18359109792285,39.0328021215315,30.10180758157993
4.1,0.019576579419477554,0.06192546596518263,9.758793452858377,-0.011049660805892363,0.019816827213854363,-0.05198968424040469,21.15999955678844,38.91392693447012,30.151715756673966
4.12,-0.0893235501809973,-0.04523906792397146,9.87065035466882,-0.06461815553065207,-0.06531487592518155,-0.026260460262550786,21.050210070361935,38.881051431413766,29.881724451874458
4.14,-0.033809622787955206,-0.027055824175790454,9.82948735914661,0.04479871228817709,-0.005858747695073472,0.03044664262503202,20.978254749267204,38.9154990879062,30.12703420376275
4.16,-0.23744110976442065,-0.08789531999960103,9.769898399370224,0.016554268963538264,0.0325854989473026,0.035876288965857095,21.236322055928067,38.90586870280684,30.055983398815435
4.18,-0.09556080904539455,0.04505643809711647,9.799730692072885,-0.027526925792633206,-0.020648503363295375,-0.032590780172837494,20.942685367856356,38.81024817343251,29.76967421722563
4.2,-0.046164361689162256,0.012586676716273837,9.74157531565625,-0.032859810837956534,-0.05122151357241644,0.006833899319562824,20.87697101483658,38.840145896632464,30.01815079398814
4.22,-0.10985812364575037,0.09423791593367994,9.788937836132183,0.018551129477063385,0.0016788734840818978,0.0557018026604828,20.82873919382903,38.99694139203598,29.87079686018921
4.24,0.07447432345162466,-0.0862126769395033,9.784693551665802,-0.010901386479662548,-0.0223510037323353,0.010289967271690681,20.66812891129651,39.10227922100753,29.726076739389466
4.26,-0.12152904818948049,-0.0541925055371659,9.842001273323607,-0.06463129019024325,0.017145867714106745,0.04248810512745899,20.97193324846642,38.96690355492581,29.928001837426837
4.28,-0.058162847148606964,-0.015187460958363371,9.841899399836093,0.05419167886734939,-0.03133044583097794,0.028959250242659152,20.54367877847296,39.01645039337562,29.967848184187247
4.3,-0.021632603053690153,0.011375330414449325,9.811614552461162,-0.016887694790910623,-0.027724380468899208,-0.032126358599293144,20.820826059494316,38.95326002856505,29.90572798945419
4.32,0.062241490500231395,-0.04380272880304847,9.711020659095215,0.044858295567437645,-0.279804108624004,-0.009079405551906502,20.77252900079983,38.91466648153006,29.859837055645365
4.34,-0.3444161116317985,0.2612374815050097,9.348819377644206,-0.05109845492762288,-0.09664548783290268,0.020364236700970574,21.062528416032947,38.744424301883974,29.818991699043146
4.36,-0.3894412589796407,0.6518752678255325,7.970558292276116,-0.20858580107047334,0.025440384806141192,0.0437206423284387,20.51829597639906,38.78552194489008,30.164546879366068
4.38,-0.6528348859534799,0.7960949929483762,7.261260795768099,-0.21933384508387266,0.11858131349091869,0.08867150669590763,20.614216970309602,38.69365909652625,29.68499085939926
4.4,-0.8746480361350987,0.6913007873093806,8.555058909242588,-0.33657875458284975,0.2572188186090322,0.08826106063961606,20.688828758658104,38.69965872266467,29.935650985179308
4.42,-0.9013942455495697,0.6822135252451759,9.573818073196636,-0.4231219659386938,0.3279799125885852,-0.006861543410657769,20.657540002230448,38.716832068245786,29.813471410221698
4.44,-0.9921880916651216,0.39199970868262923,9.824796045799749,-0.40655830618543803,0.27326682490310383,0.05248190247921514,20.588944138725346,38.78004465433499,29.689730885074542
4.46,-1.0684138801381629,-0.02140502417614116,10.174260046691781,-0.3902755999431591,0.21771337675026742,0.02700381072076663,20.625272636642496,38.72369741813388,29.78053983400598
4.48,-1.0004605787424623,-0.3720127281019801,11.015305495581474,-0.4077787376086123,0.10482967857327541,0.10010447891915306,20.45066319031909,38.62980708012811,29.59610078916661
4.5,-0.9556289381015718,-0.6200054886230058,12.331728917435933,-0.3732130940705709,-0.07512789730071906,0.09479249157321026,20.633754677261248,38.63884774611641,29.685865537110963
4.5200000000000005,-0.8045663723719503,-0.8650913262418592,12.756804596699823,-0.27913847954949644,-0.09679887669195765,0.084246346922346,20.26693303936814,38.66865102602649,29.74380568954574
4.54,-0.6111134386893866,-0.8080203150789577,11.86960158086537,-0.2489881133742105,-0.2720844543323983,0.02866327561900564,20.536740047387664,38.68023731180147,29.53903004385753
4.5600000000000005,-0.3623786628842557,-0.7932177328294115,10.711643198159528,-0.2035390416081418,-0.28011794450844407,0.06196098207559548,20.439058214168913,38.382239749146116,29.790186439303564
4.58,-0.3317411258812333,-0.32101382998185946,10.065320041470903,-0.06954340322517154,-0.2615501102211808,0.04217249328262443,20.62176786925264,38.4208456717575,29.589843138155135
4.6000000000000005,0.10651413597800095,-0.1299355662362792,9.7752974937823,0.003325618142535796,-0.21959907842366838,-0.04316477015056504,20.69205959137077,38.68279038907863,29.515259896758998
4.62,-0.15493361916944012,0.06621886901945594,9.740566818684869,-0.08369135364678537,0.016417440801908312,-0.04991322244636391,20.400623316447405,38.51579216441814,29.550704802748715
4.64,-0.03971424608227733,-0.05112768601385282,9.71342728249885,0.01070729324068636,0.004866215098124452,-0.0030042139592620113,20.596554440828864,38.452058899990845,29.955482872629887
4.66,0.007652301215012897,-0.04354668684359532,9.82472420289795,0.009538518646915253,-0.048364472231276996,0.05433703275562749,20.353551335923417,38.45560113474991,29.411777271032108
4.68,-0.012016520464957908,-0.07017496998940836,9.872724486933615,-0.0023561238534124803,-0.013632726440002824,0.05139176775035655,20.245755766068292,38.43879696661803,29.70885014568518
4.7,-0.069852769268518,-0.04843448793101289,9.759834756613829,0.025534418594226407,-0.022601628875329977,0.01502893953433768,20.56823829409121,38.5274259247316,29.544923910570947
4.72,-0.04331982402286561,0.06078600608947435,9.764548443857601,-0.02451659469844807,-0.017775841323076066,-0.026359893490562444,20.386705502876502,38.29788150982091,29.5844758421018
4.74,-0.0615520598181653,-0.1892197540182451,9.873874083641535,0.007767993242268828,-0.04472810169077242,0.025378965103634726,20.295842461283822,38.42681853026437,29.6948081034254
4.76,-0.06771934444442954,0.05172578470964402,9.81235570260576,-0.053142699877355294,0.03304587893587296,-0.01747757647388933,20.358409895054137,38.439333605612724,29.676790099607484
4.78,0.02437453420934558,-0.008366497209490675,9.807919085107269,0.010026892268762619,0.04826376494762921,-0.027560225173561936,20.280680105865937,38.44298307176131,29.5069700376267
4.8,-0.007151008898236968,-0.1072493854628618,9.703781343617681,0.05949791025727669,0.028296095231949082,-0.07160693861190381,20.211806382912094,38.40546675546653,29.408682940698835
4.82,-0.07434621409668188,-0.09881999315515122,9.823438596433883,-0.03483540327896132,0.03765693517270857,0.00027623034712489277,20.02592911185154,38.42790710955792,29.650564885653385
4.84,0.027574392027728045,0.077289153741325,9.720535274207377,-0.027313668223608808,-0.014028314784260996,-0.023155755172396007,20.136094727345785,38.273750895061816,29.630144566843068
4.86,-0.010332830663897001,-0.09051244031633479,9.707422708100163,-0.02572049417252967,-0.023360218719553166,8.577214491214133e-05,20.22547908730417,38.211946424650215,29.511538466269325
4.88,0.022023175605693446,-0.1038144326781414,9.757806619086931,0.0011599432256510491,-0.02791478549797477,-0.07657944627958597,20.104938868567952,38.63269349579311,29.593224358170286
4.9,0.010296245883111184,0.04278813071134267,9.742509265699285,-0.037017160731318985,0.017610077534631126,0.002434453522677991,20.211078736483316,38.265595638954295,29.4682986472502
4.92,-0.08305568069901262,-0.008332615917701486,9.765817619559359,0.010479916118111367,0.004266017700612788,-0.0807958772470921,20.119596479414486,38.26677099369765,29.408283569312044
4.94,-0.06585158657260605,-0.09002723689832953,9.687777175390405,0.02409887825501329,-0.005471094771149623,0.031814088104593664,19.932978916624933,38.36363357709561,29.50350307852864
4.96,0.01782679072788876,-0.016136001574104383,9.841364243613931,0.014099110830521101,0.03844475341425097,0.013700519492322701,19.85140618028416,38.467925717482224,29.55835739727152
4.98,0.009063696987741753,-0.09564817175297774,9.852171922849053,-0.05958929362041832,0.009958123322090978,-0.01191727268558681,19.975013231775645,38.18095238879738,29.520506022164756
5.0,-0.031337702013705476,0.04045256949904673,9.655370081654988,0.028845365285075395,-0.02983704440065871,0.015007035522626534,19.90289875864261,38.110100838102866,29.535172823049813
5.0200000000000005,-0.022491047468237952,0.037927741751880545,9.84262129956266,0.026995757256117758,-0.02478908253234223,-0.03429837640523368,19.987917111864867,38.06652427909699,29.36180287235313
5.04,0.0517705533304592,0.004048396724604358,9.728126167691416,0.023565163915081743,0.018823785576132658,-0.0006839835003234424,19.827818188791696,38.41728369354706,29.65087538827395
5.0600000000000005,-0.0678605688854931,-0.006853692080190939,9.834846434366899,0.0089309519569864,0.030335451284947103,0.022432769230730742,19.815849416963506,38.06861198498085,29.39388985853092
5.08,0.005014232394882426,0.08271603999151192,9.729830327247514,0.00404605805456425,-0.1974782669237732,-0.10201725597092447,20.00430428749261,38.18636536970791,29.41189746236848
5.1000000000000005,-0.2654612637120836,0.31708691624689295,9.303184386904421,-0.05897191284248107,-0.04138327865464353,0.004940913885950679,19.86338894092574,38.05348402101968,29.247820494376768
5.12,-0.4778153361241002,0.5198252419474927,7.964598024550153,-0.11500106404371273,0.08290957213439776,0.03966376174739184,19.72939732456944,37.98215375850252,29.38137216269052
5.14,-0.5831680833315533,0.7787086601667266,7.408079584436682,-0.2828932155711686,0.17072276966982536,0.05306758441800882,19.796555758416595,38.11937073609033,29.463978257779605
5.16,-0.7590048361327959,0.8834493409158343,8.501535695123286,-0.2812325803217793,0.22418267866507713,0.12181040668607995,19.945777209401786,38.02629587940318,29.483210055305488
5.18,-0.8789042511983781,0.5305205784105296,9.60731012791348,-0.36614649429720614,0.25319406259255617,0.051132050792709605,19.781891926352202,38.04762990387658,29.575386262820196
5.2,-0.9213772685239465,0.2939733742256315,9.837027366198136,-0.3971207025376447,0.2677687832520394,0.07461569542793504,19.795231236477804,38.383055149292424,29.431990951803282
5.22,-1.0286557541355035,-0.0033474535615069306,10.231851614864425,-0.4521689820922252,0.2332348646412813,0.03569219115812966,19.59813339795521,38.17106689840572,29.390884284086297
5.24,-0.9612829220189459,-0.3805569016304137,11.241474943617508,-0.4020844259772221,0.15453642512453217,0.14282196405892303,19.800930502031715,38.22660745650447,29.288449176880153
5.26,-0.9508259403244004,-0.7183326151185719,12.294244856890556,-0.39530002581595697,-0.023231037729846724,0.07921560222676031,19.9414427589496,38.20392907236772,29.251106338983988
5.28,-0.7910848359087699,-0.7381434269467086,12.810810918782188,-0.33057593473140234,-0.12521049353920113,0.06115406382962839,19.5186460238078,38.07675129214578,29.450335227292268
5.3,-0.6618189573382655,-0.6614597235363544,11.850918171953744,-0.28753788502439426,-0.2648670993264949,0.057669534351930514,19.443954942108935,38.0249633095247,29.438316401032473
5.32,-0.4576759973580243,-0.6429127725968939,10.731709410025017,-0.1909185640410395,-0.28118505096069113,0.0607479204215262,19.593049446182082,38.10499491502123,29.16926093158446
5.34,-0.21443088432835247,-0.43496736183715135,9.999616858378982,-0.10500390500727488,-0.2598175805492408,0.030367722308147486,19.658050426535972,38.08687654599169,29.390318668796127
5.36,-0.08236612372694237,-0.12913347360342262,9.78850293957553,9.615739004156106e-05,-0.27847905118324523,0.08173229483382681,19.509760600078803,37.984992088645896,29.371761499797145
5.38,0.10391278564386947,-0.013489537201844422,9.863588621047784,-0.05467199559332259,-0.01623004167604833,0.011525948428920785,19.362191587259087,38.06720599762163,29.13680245686876
5.4,-0.09438511241598092,0.04064814997224049,9.748540035902789,-0.04925658072785035,0.027390412296891833,-0.017887853733410595,19.4587214529624,37.95326466394756,29.33951513049965
5.42,-0.10770807121841486,0.00041073577570442665,9.689585551430365,0.008581256663376849,0.005782986740370077,-0.020963415600766307,19.52487279833572,38.01512183143474,29.12707186296124
5.44,0.04411909590400434,-0.030153845818806646,9.746921799476876,-0.028518019746243167,-0.04128848154082986,-0.015568286477337892,19.371996055116252,37.98785097427017,28.941653354174612
5.46,0.020666412413627898,-0.0677133857145156,9.819618108581667,0.03138495328735779,-0.0807639160232754,-0.05105878158815482,19.477690117332674,37.86235660693657,29.223412074671824
5.48,0.009943668291337929,-0.09989847249395774,9.869090480101574,0.004208631104481495,-0.014704983849664205,-0.001724345360269246,19.524999817356637,37.718136261297296,29.268322454273296
5.5,0.010214112592913917,0.02342408488479246,9.787112280018977,0.016416388806605037,-0.00529074217260413,0.02207097939868535,19.382715531348722,37.893504702540106,29.212126111497568
5.5200000000000005,-0.030783793462202533,0.028481383768677482,9.864364612302978,0.04214215425346863,-0.031285534394507056,-0.02262763521994355,19.32453546566196,38.239559403246574,29.585495200827364
5.54,-0.08742427977509322,-0.1289267063482069,9.693076805025434,-0.012910745977810324,0.0015787179848958215,-0.02883616180109157,19.41051693338299,37.96423366815327,29.25876750896277
5.5600000000000005,-0.025148508275601514,0.07174969460356377,9.751631138251655,-0.02138357457332082,0.01320437591145263,0.04551024468141548,19.171133247739,38.09874626517858,29.220997697339634
5.58,-0.07333834953677515,0.006740558137216086,9.761531192502138,0.02489448273916203,0.018461989463239452,-0.04864746101187729,19.134973383860803,37.72335394365385,29.249161474419687
5.6000000000000005,0.03240766293873608,0.05957405728933078,9.77266819664176,0.013304434045749953,-0.07838940559783432,-0.06917018804727365,19.19962964215973,37.86239471737459,29.12981771011095
5.62,-0.03941167241613687,-0.11589617590304736,9.785382040848013,-0.008994569914281627,-0.04505712312985985,-0.03989286219671625,19.147481238740145,37.814565510294635,29.297536371982584
5.64,-0.08283182059472075,-0.11741274594658808,9.8242183012731,0.04152665494259015,-0.012747924747351539,-0.052293846947977486,19.084424893488414,37.958843617490984,29.21715278757445
5.66,-0.050568693865791575,-0.039534035825107006,9.75153236235709,-0.009791817914877779,0.015309540193198832,0.009359234051346619,19.398487093372516,38.2918596536365,29.203794183111505
5.68,-0.003572386926360041,0.0021782033212924337,9.788897835965,-0.0019512435982149943,0.012655488433601137,-0.014542544014386354,19.4192639688287,38.03818522224169,29.07619984628241
5.7,-0.06607837137945438,0.08496709266732567,9.77711213501926,-0.002320875173303731,0.012099838332053626,-0.010029985440762876,19.07316717146114,38.19405268576059,28.94861650908081
5.72,-0.08262210531625161,0.015189050484168423,9.720743046150966,-0.03290700463675108,-0.015269374143005818,0.03389389366319274,19.10750849226592,37.94250073989808,29.0775665965005
5.74,-0.014404018464517611,-0.045531601715970135,9.772725331898789,-0.0005172675364354894,-0.013484269993918746,-0.025122715557208845,19.04918968685177,38.1481413032237,29.1709451657611
5.76,-0.014322139449041742,-0.0956876292906171,9.770805790086586,0.041696325676751717,-0.026306536589495704,0.021802861175860503,19.192600181492146,38.23749954443507,29.07100240781995
5.78,-0.062444363223752304,0.048720036654025606,9.769434843839806,0.011238986092037627,0.021582212099387134,0.045362329574502494,19.19571476758486,37.957123596076535,29.15855390125074
5.8,-0.060146451559572656,-0.09174114724804575,9.782032605221213,-0.0020059703552341938,-0.0324556412076665,-0.017581199936437142,18.779002885564296,37.90141275001321,29.084893419601887
5.82,-0.015148804009111276,0.07422198750542859,9.784843106599258,-0.008176552997301408,0.024201164646066236,0.020584731377802038,19.045474699311814,37.8013903835083,29.16330790177744
5.84,-0.12267739785582875,-0.0482006175748166,9.752333108537131,0.00758774490900324,0.0036513036204046745,-0.010738173200927363,18.79548046505985,37.93045783283987,28.97685431673972
5.86,-0.12007768156009954,0.07179725264754243,9.861453742974161,0.020992532111653923,-0.004441423310564915,0.02657114012290525,19.166179768645023,37.980763503272144,29.120408888458655
5.88,-0.0759804301601559,0.013451602563793817,9.705153239731008,0.016495642588472095,-0.02401473279284693,-0.053287654002440746,18.97600248794434,38.230821753630245,29.0076460574001
5.9,-0.04366061770955822,-0.038767711324317326,9.733857913057927,-0.013619675578303334,-0.04637733955725205,-0.05565639184401109,18.79295766913159,37.80599767111798,28.886896204176065
5.92,-0.010101915801727705,-0.0632413677968721,9.957917671950309,0.0073930110115236645,-0.02372488820409746,-0.015520566877041304,18.846322168875414,37.980601257542375,29.056904867475218
5.94,0.06442279788477133,-0.051818104150149105,9.71356855328069,0.012358071716744915,-0.013560219795996361,-0.031445593889912665,18.819259677965555,37.74225864600844,29.26908226922391
5.96,0.02489021588492924,-0.002587731687984797,9.693359700818576,-0.03523023960086331,-0.07880877797060006,-0.01953469150175633,18.90267655843587,37.92170510800029,28.880266600259624
5.98,-0.04023606591765933,-0.025061984242066127,9.781217414458244,0.00238337731787822,-0.22144739932667348,-0.010024850638308476,18.948219406490182,38.0183448438716,29.076919948995727
6.0,-0.25373797126208647,0.2791030611776494,9.16840708016171,-0.16117009794420134,-0.07250428280971795,0.0422925264143915,18.647458962042673,38.04656685280759,29.158544406455217
6.0200000000000005,-0.5280456184543779,0.5848647757140955,7.961386743874875,-0.16111241693274536,0.04874031580487627,0.0273432353976459,19.00955061000171,38.059135227670495,29.345819530885933
6.04,-0.6546746425622464,0.7549712596474846,7.467836110570635,-0.2312649429974876,0.14073103493087272,0.03298541824593458,18.95966773841186,38.03770570733499,28.98342629738914
6.0600000000000005,-0.8303056353589187,0.613703347702911,8.48199342890707,-0.29181111696204526,0.2525192213177725,0.06393472019051823,18.622239357167675,38.06454288137768,28.960877585633686
6.08,-0.9103148800407813,0.6247879453209009,9.441562619147161,-0.3760290464303938,0.2773163967464688,0.062484237836430145,18.723935907096973,37.999826989130554,28.887835583522477
6.1000000000000005,-1.0578706925691723,0.254404832912171,9.670594638719912,-0.3830816661519604,0.2849253425592525,0.0646046151521755,18.91413551414925,37.863881038692405,29.17870410136842
6.12,-0.996761823088565,-0.10381327380516758,10.243500862084046,-0.3574334769426827,0.25841548471577325,0.04538346196553699,18.833701655955828,37.76534278015728,28.91738280996237
6.140000000000001,-0.9068326217496586,-0.4850970295091319,11.164679923179902,-0.34773053612740923,0.1270756802705462,0.09671609093725689,18.613725380647953,37.93703648995077,28.976818022119637
6.16,-0.937929517403658,-0.7702743058379689,12.295291766698313,-0.3643210735362176,-0.019923925048824228,0.0688983041791362,18.742211761396184,37.99474939380284,28.783582182564412
6.18,-0.7861219322536979,-0.8966909699446453,12.793269003992272,-0.31127436480386617,-0.1783819401508797,0.10610406790231251,19.002975765098,38.17776027140457,29.129536469341875
6.2,-0.6093205863892224,-0.8553196710338103,11.94668431357636,-0.2168467641119916,-0.2330192311942504,0.01303230523998726,18.614366265819577,38.009965179833685,29.16093756240752
6.22,-0.48956184931825175,-0.5304566011727236,10.767161591661955,-0.2245791601354129,-0.3550937254119105,0.0230417001502237,18.501714412190065,38.00357402955121,29.1173833114419
6.24,-0.23817901512044828,-0.41076329055134037,9.984343496109638,-0.10234679734819077,-0.29424031051621885,0.07726512445671146,18.586769801470002,38.08428155811249,28.80023780156791
6.26,-0.02919408634996525,-0.018623993198846188,9.666032799683848,0.039738254577176155,-0.19645326892159792,-0.03306750454713117,18.578487313805084,38.00687734076862,29.08018237615812
6.28,-0.023748729692874768,-0.004369191263594963,9.72746374896578,0.028206417333912517,0.020693478849528046,-0.010569064067075968,18.46224124763217,38.15199758247141,28.7852656237208
6.3,-0.07947262616674985,-0.02161182808218568,9.752684531524144,0.00881644088479695,0.018436303686903716,-0.041907007450411794,18.568590753837398,38.308715708089,29.00385025579106
6.32,-0.028431348847427665,-0.03495638148646359,9.763427917018983,-0.05118663697057986,0.0064345820547102245,-0.046149680408991395,18.33441042963853,38.34319669277702,29.019878430920983
6.34,0.001871890639708787,-0.10649880087035166,9.767976998335442,-0.0045971274573171845,-0.009263199330684254,0.046513951458805707,18.392929374174525,38.08291366202316,29.030693536535328
6.36,0.06287319089888267,0.06285936308986956,9.851609254267563,-0.021877292679997856,0.014215231034447644,0.002473263764388712,18.558552569875605,38.12163095345478,29.056939741744163
6.38,0.03139333286945324,0.08566058519282466,9.861563419308006,0.007593244890150831,-0.03349155329876162,0.0012777228236039466,18.220491508979695,38.28891727161775,28.985149134498577
6.4,0.10780367728073961,-0.1376901564238519,9.769012886148815,-0.028899093913436168,-0.030029672425383996,-0.057282119523719116,18.54457896622375,38.07624088208549,28.73281298530024
6.42,-0.07911024402483516,-0.09553782981672829,9.850303032067316,-0.03582314863918744,-0.0010244903532705047,0.008479724419465696,18.15554178205562,38.1912809633717,29.050481679435446
6.44,0.0258285207501234,-0.04790786191212839,9.80289032746439,-0.06907568888587653,0.002542324566679916,0.034037502271802425,18.175813589630593,37.96824682944629,28.992618278587035
6.46,-0.01826611163274549,-0.09173041887425223,9.784128382263205,0.03609774991925444,-0.06141968571406869,0.033783265946512944,18.318149923593175,38.08325602730543,28.86288366226722
6.48,0.11014738772593102,0.0023817954211753783,9.838018826055038,-0.01579265636617784,0.011564684190384592,0.018386663347397147,18.403584602139123,38.28081387730549,28.77598726683268
6.5,-0.08173109026272969,-0.07660942095402323,9.784624131087227,0.0020286650784811042,0.021727308093420588,-0.03914353848305293,18.521599752450413,38.05098004358998,29.172600944430044
6.5200000000000005,-0.08374219789956966,0.10856358833962257,9.911699915334257,-0.003071619727173795,-0.00547312759892145,0.007019949350175732,18.34469721225006,38.13688493101314,29.131849587962638
6.54,-0.06836112930841742,0.04619511003799015,9.687941685325148,-0.037157885854735985,0.07298292106508775,0.018362718735251447,18.291375942973417,37.96242992629075,29.063527923181166
6.5600000000000005,-0.16592932635582763,-0.016395262039538245,9.747029062458111,-0.04329007716634219,-0.02485392340208596,-0.060422194722844845,18.382994601350426,38.43160558124764,28.885678654135113
6.58,-0.06364832138756871,0.035727120852462865,9.771902790594948,-0.03517008403191154,-0.014554789228379824,-0.038880946927417115,18.183468870895823,38.347756783382266,28.649306836891505
6.6000000000000005,-0.07858449033943667,0.04077762715886778,9.808124972189312,-0.026141390042540576,-0.0156421409960707,0.025421034295790134,18.29918928939231,38.22166958600512,29.06875610435685
6.62,-0.02037479766552271,-0.06609263923572756,9.861149471174599,0.008731399904441758,-0.005438003561312561,0.025033464853501712,18.11448191539233,38.274338023892696,29.017365752358224
6.640000000000001,-0.008127617550261795,-0.08223790365068574,9.778438491696887,-0.028462965232659565,-0.013519194014921316,-0.05255465707588456,18.26551827377275,38.27211289156348,28.92218358886198
6.66,0.09007493370981673,-0.024998843969942564,9.688977302431603,0.05288770021102789,-0.0480179374273559,0.02244068669661352,18.225534115905607,38.41096751409146,29.113983980226187
6.68,0.030827125643907216,0.025144711967868418,9.83392088937312,0.029868833148580836,-0.02048954547956721,4.970877291576945e-05,18.126686196715422,38.17998105006696,29.078578776068763
6.7,-0.06692183396239379,-0.02110013448618127,9.828317361033086,0.02286750558930267,-0.0061238622647704355,0.02199228654742885,18.2385118413891,38.3530017350298,28.992759539018703
6.72,-0.0874985389662949,-0.13092777486022383,9.65572104579972,-0.0068290848791408044,0.036314306625983915,-0.023304682349886124,18.225711902734528,38.41033495958531,28.975048895776037
6.74,0.001482826976416371,-0.08138076441285391,9.779756535445069,0.045456983543055475,0.06747178474793322,0.017645871887388864,18.34418521595232,38.4414096066756,28.977585210842587
6.76,-0.1144949252493211,-0.03473426327004019,9.67823092283646,-0.00997618019587597,0.03973516473122095,0.024002520783539986,17.976796076105433,38.0103365911892,29.058751315407974
6.78,0.08721336101467864,-0.03484259867685314,9.737462329759868,-0.004000365252935874,-0.027812128949523406,-0.014242717934582774,18.161455236682034,38.23678089858685,28.86277734816342
6.8,0.04548416772616237,0.09624269931454774,9.72222022867438,0.002439185271976621,-0.025265907540037297,-0.0024319185224548475,18.063032307905914,38.197247742205946,29.02803298033898
6.82,-0.06002724173470111,-0.11870322831353587,9.831792940687487,0.01945833729738701,-0.008098514480299232,-0.023752692144148914,18.261117602076574,38.36132177017181,28.856801677862148
6.84,-0.13964060986181615,0.0023577114774959787,9.741688033925184,0.017381058528095534,-0.15802614991264946,0.04985244635794814,18.236018399102758,38.0988525419287,29.14700373804828
6.86,-0.16587310200972796,0.4124102302270571,9.219064926754852,-0.10721238249275307,-0.10737728825637072,0.015403391337206931,18.19454492543704,38.11004934688652,29.045481466552697
6.88,-0.47121428921372566,0.7408379696814829,8.032768495742381,-0.1936092946686538,-0.011890896866205432,0.010883595506085995,18.02975492929819,38.664898263029386,28.890876873168725
6.9,-0.574269557892432,0.7240608946616854,7.238739742634321,-0.2319190261146267,0.14057195457210384,0.03644255094188134,18.223787262839828,38.48167732704603,28.99104393251282
6.92,-0.9138748526308693,0.7813938147195517,8.601996610515029,-0.2928450223026925,0.27524305182670655,0.0792398074833506,17.90548535620763,38.4338367583204,28.87335680434131
6.94,-0.9693288693714605,0.6319298488351376,9.51631166339978,-0.3759747831552996,0.31719175182864756,0.11120348428714469,17.870412514632374,38.48087718786219,29.177237613517622
6.96,-1.00459231539986,0.3296178221134572,9.743138902363253,-0.44376118310244,0.27375806576477724,0.05174633217336567,17.920707440226824,38.46928074148128,29.1946645941393
6.98,-1.0269932419990564,-0.036326092879315486,10.218279177584296,-0.4096341150722638,0.23100130390988524,0.15612512009415835,18.071518614288667,38.59467194049321,29.078433634457806
7.0,-1.0337321023564952,-0.34920456636604347,11.126066974640619,-0.373018339310302,0.023342208105051526,0.1043704006279621,18.154308010736194,38.40275749246102,29.19110443992598
7.0200000000000005,-0.8911064722321792,-0.8175289354284836,12.41366347041252,-0.3056142080755347,-0.033266807309945995,0.10202347792526312,17.679338753833495,38.52453104173873,29.013972137743504
7.04,-0.8801591899485162,-0.7662898823814503,12.74427917335723,-0.35406724778211324,-0.13506768947080455,0.07207308284445305,18.22226750444586,38.54692028954484,29.09511575799343
7.0600000000000005,-0.6626020889000964,-0.801866943911093,11.877320827845248,-0.2660462008340718,-0.2836688845734303,0.059965267141109384,18.062727017938666,38.401207889390975,29.15714836830864
7.08,-0.4561848186879967,-0.669703579368233,10.624756232504568,-0.18901440961583535,-0.32787649613585396,0.03564331349807893,17.83856186184196,38.71628145110989,29.002799043052345
7.1000000000000005,-0.219596848576555,-0.24610781076799562,10.011756306593007,-0.04862260272071795,-0.34589133998094157,0.05182156440478223,18.045754889939804,38.51362669626589,29.015938726938963
7.12,0.015543352197688829,-0.07319577720259554,9.841454096687272,-0.004118128014676297,-0.1642553753220221,-0.003253714798507841,18.16657978724949,38.71896996203669,29.12980078264383
7.140000000000001,-0.10197709387762363,-0.05579686330016197,9.773708169762921,-0.0320344498999125,-0.026044927264690133,0.021545606991766716,18.097674704386048,38.62173360357251,29.096651330617814
7.16,-0.12818330692707983,0.09745941134110297,9.66455996901808,0.014878249053498212,0.004713384891587576,-0.01688312074728231,18.15614510487052,38.834623649029325,28.920958451534432
7.18,0.05177131660150458,-0.08325192351039082,9.801214137365179,-0.015948432641310285,0.01632534532746799,0.0032604969059941043,17.835410326668676,38.510940591255455,28.741651482828757
7.2,-0.008731903233306134,-0.06520737810793849,9.80333193455075,-0.04218039274745455,0.0453861743725265,-0.028725451015661478,17.952432828444906,38.52430966542645,29.003156037750095
7.22,-0.07790313833961943,-0.0394096270995744,9.736468897513731,-0.03156874583283682,-0.007924728767540329,0.03592890344158518,17.882510725434578,38.56635779918094,28.761425730209126
7.24,0.06927372643344147,0.023807006856291155,9.697799229691359,0.05248934254152381,-0.020261753400909396,-0.029679911703011704,18.216478377829933,38.71868005294146,28.907336105139997
7.26,-0.022596823405257045,-0.01670063952938794,9.874456265632254,0.00929469509278279,0.0025381647542577117,-0.01339934221636244,18.074534954490456,38.91845785696757,28.92678094847913
7.28,0.04547501978008489,-0.1127280222177448,9.811452512697242,0.00044832177448137465,0.03809056884935318,-0.013078733198551837,18.353494375993275,38.944794773173015,28.97055388273549
7.3,-0.025678817189753025,-0.06405878804014012,9.76533881402101,-0.010996599545985475,-0.00844552100482508,-0.014326444405560586,17.925916577093638,38.46512578941913,29.153152930864433
7.32,0.10188786719244719,-0.06887068372558153,9.70722989547856,0.006348762947801565,-0.03355581061069045,0.020119864622173987,17.890019079864647,38.812878213557056,29.185902152378855
7.34,0.08234181391636508,-0.03494214689427492,9.727403850981034,0.005967550272079818,-0.0523042498660916,-0.013133048471572598,17.961816156297218,38.38995933161573,29.123285098482743
7.36,-0.0459337055026607,-0.0027460058476909376,9.86336578539432,0.0063494025026344355,-0.042081516307367214,0.04160558497731433,18.15416250605574,38.9234677245297,29.14435828357907
7.38,0.03218054086107875,-0.0032348316231697836,9.788810364215555,0.0006750428888880958,0.024660527917013276,-0.02919120275616538,17.928818879238726,38.985496930499735,29.152755076415776
7.4,0.011304060773449448,-0.14366475225909775,9.744762427711954,0.02480154682577758,-0.013259983241817968,0.0024200790381666212,17.989874555675545,38.85806563435271,28.75469400088431
7.42,0.05759241968207032,0.0380922232038948,9.81262011079838,-0.0022606609279766073,-0.022440669117462734,-0.027825151658003196,17.984902496757478,38.894986973434285,29.081251568087858
7.44,-0.09175510147712668,-0.013835593856216095,9.727878516003436,-0.034294042737684445,-0.025910951141886154,0.010471129041006933,17.9764766401527,38.914854994324884,28.855798123314166
7.46,0.013907293439900117,0.05861005104601,9.876053953937944,-0.022597532508827782,-0.00027853247359418184,-0.003510391263256641,17.8871246184942,38.82638064301091,29.156852901483298
7.48,0.037739167158373624,-0.0015713070533969996,9.866579234233392,-0.06632859819167079,-0.01066256300049868,-0.007961985430351311,17.95258465489984,39.00357227678943,28.829842111142234
7.5,-0.14255932713107933,0.04048466929508879,9.750139259443023,0.06185814771335656,-0.011740228599016078,0.03503119892811277,17.946946867027027,38.94037977578838,29.080878463690674
7.5200000000000005,-0.1057285448106096,-0.00014110006719187176,9.739765104190026,0.024608146942485976,0.04017836568994365,-0.02393893987376331,17.969189635154013,39.110921314113156,29.180440525213015
7.54,-0.16051085937664644,0.05615844839697588,9.612439475283695,-0.02956225584413558,0.04621652101957227,0.015768485043776006,18.091401774156946,38.999298165205154,28.973740126656192
7.5600000000000005,-0.047242037404451695,0.0034240407051378263,9.685178830620712,-0.012019035180707197,-0.05452069353308789,-0.027606717205593354,18.196781443150755,38.92578088105979,29.246534665239555
7.58,0.015922704370941593,-0.036266575772345856,9.694273934402704,-0.023380047174605866,0.007482967396574644,0.0006059264051319598,17.864950437166243,38.86169807740221,29.19503822072454
7.6000000000000005,0.0661508513341458,0.11543582210860043,9.788652181823194,0.04636151076397174,-0.02785958715588455,-0.04125841050315025,17.923771359170626,38.842129344023014,29.185824320357153
7.62,-0.02525793405313439,0.026898375825913097,9.759121042915753,-0.04843606925666973,-0.010944035643554995,-0.024200548681815693,17.87008067648278,39.27131215011179,29.23344266672987
7.640000000000001,0.07423139491656268,0.006719642944282442,9.693898528805425,0.0006632338822009369,0.006896908324054222,-0.005628577458331682,18.001681778478105,39.06743208962248,29.105270975959773
7.66,-0.11832649332575305,-0.1116834826584535,9.76200550128227,-0.006472890962075132,-0.009807037341789419,0.05506877335433849,17.911189235475995,39.192218068606195,29.17797361575951
7.68,-0.13901647611872991,-0.11245168751766642,9.81234157744943,0.02345883618269166,0.004374716180084262,0.00022572385471277207,18.013471373678954,39.4001151081827,29.16722215728484
7.7,-0.033555052729383604,-0.011266209142921382,9.767992621172763,-0.00632829528719024,-0.19359698776294287,0.049949386107734604,18.127034841907978,39.12292987268966,29.17186381706494
7.72,-0.22794074522419872,0.32642034795121394,9.17976385282827,-0.1482710576354997,-0.0926572609692599,0.026302438729740817,17.665770692823706,39.13788124055804,29.09511041140964
7.74,-0.46597620299558007,0.5561613418138917,7.968235411362146,-0.18458926635558137,0.009890581097628401,0.028001678088557767,18.05564433639306,39.224629903914725,29.029871157437032
7.76,-0.7858060962612856,0.7589652225206308,7.241969505639556,-0.2835051117176798,0.1364752355315506,0.10860838890909555,17.93772416932533,39.2687772747624,29.153705620647337
7.78,-0.8175351649968483,0.8516144531402491,8.638579964541865,-0.31318604749740203,0.2049466902767081,0.08916771215315239,18.059805381243592,39.530191068944845,29.15468447200436
7.8,-1.0144549159347296,0.6399709443456433,9.618593716881064,-0.3174938819923172,0.2677882134473098,0.06652979578599508,17.890677410510595,39.51269174256688,29.11870337794608
7.82,-0.9620688690567012,0.24408244666987133,9.70906849316044,-0.4486327726881624,0.34295118667326313,0.1095510779189919,18.163411301734786,39.41552483388136,29.330338506937597
7.84,-1.0065377122498016,-0.0371365649371483,10.136978956756213,-0.42860712753279695,0.18378791998491645,0.08763696800295648,18.132363671972765,39.54546392481424,29.079622086556704
7.86,-1.0650802185067743,-0.4286248460686103,11.063173121868918,-0.4106573393938014,0.05789559658834792,0.030843696940700896,18.093695329440305,39.36110944622119,29.216217179632828
7.88,-0.9638563506119675,-0.6802779806245717,12.18391867244213,-0.3755997422141904,-0.02635165125195957,0.11704802788674168,18.128269426050345,39.44628961046962,29.396083217764495
7.9,-0.8796211478689231,-0.8364137323457559,12.771045373236399,-0.29204857173584425,-0.1661412952519402,0.11022103802734473,17.9373942579447,39.393566612268515,29.371895877499938
7.92,-0.6575012640842166,-0.8405116470321153,11.840245921649826,-0.25794934210545784,-0.2632762433476604,0.11816312514562617,17.959924881733222,39.29124194981343,29.42006134686073
7.94,-0.402754630605479,-0.7357938497807213,10.71486262642279,-0.16324780842396905,-0.25602419204278587,0.05389697206200423,18.142256490532464,39.63483491570377,29.19771565111762
7.96,-0.31560740092178974,-0.3852768909112115,9.929810764155546,-0.11203311098194282,-0.2685929454746427,0.011292943824990454,17.954687091690865,39.573203492667126,29.382794291958177
7.98,0.0022589769931419213,-0.06587888875822803,9.773703120926731,0.004357579053373952,-0.23209180817047553,0.02371966167611476,18.24531219647895,39.53193997110362,29.155523627051657
8.0,-0.06393648757583621,-0.21748471616014517,9.683582383485497,0.02188952418808688,-0.01658322936293696,0.024194251690205004,18.02646731028572,39.55386073365252,29.26555752729662
8.02,-0.08074386126479002,0.10139020956810643,9.715725403936368,-0.02643358559158683,-0.019082768444981923,0.0494249978603655,18.14004587191267,39.38599683007987,29.286995869117106
8.040000000000001,-0.0368499430370917,0.03968125786986701,9.704353152251635,0.022003459833808473,0.02499166789056823,-0.004428083938126149,18.35272286667892,39.478352982329326,29.246048465488627
8.06,-0.09625550863483995,-0.05408324639519975,9.843742315446173,-0.0013240714007178088,-0.012860724142500397,-0.008298527122163023,18.002135695371535,39.67123280152804,29.28304190299162
8.08,-0.06543355554221965,-0.0287955808166017,9.735311241679911,0.030454727695432084,-0.06038091207853282,-0.025897421432272878,18.110143619194908,39.58526811848468,29.27590122097849
8.1,-0.1066641851256863,-0.10498587822832396,9.787947243823655,-0.009445436802463153,-0.004546229719499018,0.014198786775206456,18.245382473297074,39.64996667359934,29.223105811900673
8.120000000000001,0.09574240850664892,0.07852626417989537,9.755631142152845,0.009199828965187163,-0.05218483203609373,-0.05254437338338673,18.24160909210728,39.68932350597013,29.46837011494905
8.14,-0.027743132673809366,0.09142647646547915,9.69875422297518,-0.00429939941371296,0.06689537925615685,0.021834795931602067,18.08757594555762,39.64029122590651,29.345389075860368
8.16,-0.07478243251152547,-0.019971601392222423,9.769228772917016,-0.006078792385298527,-0.03390137324311139,0.015810723899705267,18.073376158755366,39.628719699768546,29.40461498939907
8.18,-0.01630528571300979,0.035505961227862065,9.81834261323927,0.005285773703222076,-0.008179672491447382,0.015722246478667906,18.11994665926424,39.5712318122528,29.409976339260222
8.2,-0.03718899518021311,-0.018781646148228873,9.702703398877226,0.014177839015196921,0.005262487510436381,0.0014232075680588934,18.345671689135333,39.78388997362189,29.406291414729647
8.22,-0.04414205437012627,-0.11555042808805956,9.831783218606809,-0.04298607718156817,-0.01223706114173536,0.04605530392099471,18.135463947253182,39.90688335915659,29.421529069067077
8.24,0.009306668802779215,-0.05635669561367407,9.725617861025428,0.042876275482172085,-0.012280972846918165,0.024903790893659628,18.192315960335357,39.64239591717365,29.38100882361119
8.26,0.018480493443027532,-0.021556610126594745,9.749089028731339,-0.06250921729759355,0.010498473157148067,-0.02242647012402239,18.139098434094713,39.87480109830551,29.612196002781218
8.28,-0.06395207344707377,-0.05909105399958042,9.813963719872644,-0.02491398751164467,0.04583891068148092,-0.021853729590324698,18.29572776342398,39.938978235742375,29.538640679943192
8.3,-0.06685236740125952,-0.0439938097558423,9.737540085937953,-0.006016610264476821,0.02156029061815352,-0.031149562029268378,18.23729384472298,39.80144886855595,29.45432589082156
8.32,-0.04760330861770522,-0.03584957168058332,9.782404790997496,0.01019539101075034,0.044312444114353366,0.014641066648818802,18.101192962883893,40.13527918704861,29.405539465466152
8.34,-0.17732295454307742,-0.03517622386338952,9.759859786957563,0.04743752088772411,-0.036491811458992066,-0.03500444547967862,18.11814367901785,39.929005988673886,29.4584229067353
8.36,-0.12697222798070734,-0.026655456608161075,9.788279552429044,-0.06246532762320344,0.007155604264171563,0.03166854859466727,17.99912517509359,39.990547513615525,29.53803545230031
8.38,0.057479953116449586,-0.09787872424938246,9.627632697246497,-0.019246212108470738,0.0019678736658649363,0.039335145867057386,18.161601896042537,40.007992164067915,29.68759680711072
8.4,0.07527793366408216,-0.07588903354418791,9.662900363826683,-0.07105867160957649,0.008234921333655516,-0.031128520606414436,18.38296921186089,39.827092181366744,29.330953879163012
8.42,-0.045938306531608214,-0.11221339300479803,9.819421888386998,-0.0019880968348720716,0.04103942306033832,-0.008937553106971318,18.464385268781285,40.207974994645575,29.602327783414996
8.44,0.006899645635569052,0.032580195179916824,9.84637960996154,0.0056938747040009815,-0.01006525279334573,-0.0024681285964027614,18.39655967210017,39.981634559700304,29.673341284769005
8.46,-0.010079990109213687,-0.16476140427778077,9.675939753752148,0.047905463749480084,-0.22810814208569502,0.025287461135029367,18.39392772642515,40.09873141784338,29.350134360024704
8.48,-0.05547256221517918,0.3909367732663298,9.285724936264286,-0.08814806123393523,-0.08499633306915289,0.07075108141514751,18.321126164225962,40.230546624838674,29.528628510262095
8.5,-0.3922309447857452,0.6841915473992459,7.9953063062988585,-0.1431446915048671,-0.026313144451114767,-0.013547382660038666,18.451155074279093,40.3660525650818,29.42700505636957
8.52,-0.6616765277135025,0.7306027721785712,7.374869241871896,-0.2337131341342435,0.14903035738269124,0.0491671972250195,18.403509642812725,40.06580349180056,29.62988291009034
8.540000000000001,-0.8729860706664571,0.5833415561245119,8.451097982537954,-0.32966053529137734,0.24672293371135073,0.06667061398887189,18.61298867111868,40.17182586546361,29.54048037391583
8.56,-1.0337814323989036,0.5723413100085175,9.511701770427823,-0.4084742910583129,0.26566218724615115,0.04227545143387238,18.384822135512138,40.4308253943216,29.581326249052363
8.58,-0.9919062394863214,0.3129992049715622,9.745257155334814,-0.3841710913273915,0.31399088745592074,0.07896927060045239,18.584980431584178,40.3380864042078,29.55706240826816
8.6,-1.0784064476981954,-0.09467828607545035,10.231006822332947,-0.45074726454865166,0.17514034420097915,0.11068860621921955,18.540860116921106,40.389447427390806,29.71360887207252
8.620000000000001,-1.0959521495960747,-0.410080968497774,11.252593764058984,-0.35152453854730087,0.09173578103890868,0.08557506632731654,18.539251718611233,40.19374642758782,29.662549616280174
8.64,-0.9723495324939408,-0.5575326932471694,12.313505083189115,-0.36857353442614604,-0.02720831162065733,0.03766900939480468,18.204026348868677,40.30444968792343,29.6746506471166
8.66,-0.8810505546993515,-0.7673869913581474,12.659496852561547,-0.27748691581884677,-0.11929917298736492,0.16715379458312024,18.59705397302974,40.35614231207107,29.677561545662147
8.68,-0.5455127372140894,-0.8691144330656574,11.883453129556477,-0.2677627826357302,-0.25735506568467253,0.06786667187240714,18.47865274398328,40.2923870893857,29.742240141501952
8.700000000000001,-0.4074587946727934,-0.7577115328285317,10.737315151669051,-0.16795027048219155,-0.27115674795587,0.043962586075169424,18.45524015386951,40.21235682813505,29.64743580563392
8.72,-0.2530311830005785,-0.39803609962107267,10.007021857847837,-0.08530921014781595,-0.26374594637964227,-0.01588155022251399,18.33956908095341,40.38578992809624,29.910719911583517
8.74,0.06471642488896154,-0.04366123387842824,9.755301482724853,-0.004441411776349615,-0.21118139255855176,0.005342597183080823,18.546213492433502,40.64883865996587,29.54706328458125
8.76,-0.02504842831055243,0.001756747991252243,9.84131161225472,-0.016845104428690947,-0.03786442906475058,-0.008254841089327818,18.568994664795035,40.5073401781173,29.496337553424752
8.78,-0.08512218888500887,-0.06426026960433018,9.822466919583901,0.009558592591056646,-0.048906587548939166,-0.063432749206893,18.41590914238209,40.69986775938084,29.49792201540911
8.8,0.06747994094525807,0.0027359728231591343,9.71433082597148,-0.03263722443146267,0.00040817284541396675,-0.03724817408046132,18.41232592601223,40.57097827091032,29.47546185061991
8.82,0.00449024279581816,0.09384985856385467,9.804411239522198,-0.041701930526689884,-0.020366299964883632,0.022437632565566242,18.681621677214345,40.47419479300458,29.84006692713419
8.84,-0.09638375387689321,0.02219206543643281,9.843824996330168,0.036770460586458484,0.026416354933801338,0.05920856480001413,18.749554521907353,40.75953132959021,29.83676244180029
8.86,-0.042181675397350925,-0.033077664469169446,9.85564096272377,0.02026937564454722,0.020867408579154482,0.008749292961377428,18.681184700964156,40.64699370336644,29.93310113707026
8.88,-0.08603956821662445,-0.04172163014741086,9.775747265580195,-0.0008914685247283219,-0.008907551821985594,0.03229866490538775,18.823194912020707,40.76664857590348,29.655604663634108
8.9,-0.1184991827817175,-0.05282708058751176,9.757082915444524,0.050284556241401004,-0.04004681356612062,-0.00798416987466272,18.684094742505625,40.5303980887402,29.89865031949132
8.92,0.02927536304202505,0.045561018396937256,9.858545524613202,-0.011568496599195035,0.01334353758743275,-0.0057694771417792935,18.70766031429537,40.823605701871045,29.822907966124838
8.94,0.09220266499008835,-0.07014806054088338,9.702549727809224,0.03932650303964734,-0.03557438227632481,0.03191132888382288,18.616901186140506,40.85084972804362,29.849385167051604
8.96,-0.11950832472442503,-0.027105746624001115,9.808069074618945,0.0026183707176262987,-0.02727084553378768,0.050208873253743014,18.554428431483913,40.77439160796295,29.920591848394903
8.98,0.006030031148196537,-0.026723334279610537,9.692318295848677,-0.03579202400244449,-0.03434130362288495,0.03863509419089989,19.011586787018988,40.65716373342498,29.75617852392233
9.0,-0.07164112442379691,-0.062114188339938044,9.848184081424614,0.05613728613666719,-0.007432032702078511,-0.037123618412314215,18.93923577384702,40.77758415607639,30.19663942606412
9.02,-0.061176024560940546,-0.11783779506458245,9.763485087000886,0.028702747091970727,0.03444615469025797,-0.005142684490087864,18.636612984561737,40.8846136218791,30.048457670609697
9.040000000000001,-0.06791321115128762,-0.009329631768469238,9.861189327081439,-0.0068726729923060574,-0.0031613078471529185,0.005880789903241447,18.855398345948892,40.85915631420673,29.822438615980936
9.06,-0.08529540925950822,-0.03390425419874454,9.811450416406755,0.020269480305086372,-0.017182998157686265,-0.011309694832240931,18.843442839202353,40.92869727195511,29.763415047582424
9.08,-0.02689461581153107,0.002015390043940475,9.701713905276037,-0.01591850988793302,-0.051819677761447816,0.009411441389299065,18.842140269966592,41.00381424756188,29.90432090255399
9.1,-0.08318080745030643,-0.06415041961210668,9.871176174852945,0.023532769121905345,0.014667986711354976,0.023258457973406317,18.845992125521693,40.81359089860811,29.9514534270493
9.120000000000001,-0.012690763150090316,0.04813256312403506,9.879279697051375,-0.0795145140890867,-0.02797294738971608,0.029089912062564494,18.96845319088931,40.77094136998496,30.077081423170434
9.14,-0.03321523900474476,-0.08611352199755806,9.83646633552635,-0.035633642678227,0.0007605638130590915,0.05094784487108874,19.045847399697337,40.9360352370149,29.80364934645027
9.16,-0.04529267499945022,0.07957057817714512,9.731258376637683,0.028336311817182814,-0.014334995709332499,-0.01354211535119471,19.014259666364087,40.92052892645541,30.00235355077409
9.18,-0.08808407437066226,-0.14184873662900874,9.760415106921126,-0.01098897722300542,0.02382167102718201,-0.04664906127485805,18.96911896498288,41.085063474344366,29.782663559289677
9.200000000000001,-0.06691336515637329,-0.0021747158683589653,9.789307341913968,0.003641353436439741,-0.00803156454491367,0.00846350700846249,18.986367632034508,40.86851822486994,30.04679619183998
9.22,0.018345038452848385,0.000427563681703904,9.734962534442788,-0.04609714118769391,-0.004885643344737652,0.05728195299791367,19.148504368235436,41.158078178987004,29.98974351008244
9.24,0.002058700007960372,-0.08091565234821646,9.888310180637646,0.0561317438624673,0.012543908718574706,-0.018263227518529893,19.110161230835878,41.22197994279935,30.26395539961343
9.26,-0.09256353566710726,-0.002838787976895192,9.789236894190466,0.03509694859896565,0.06442208583242194,0.018979103266039025,19.08253781908847,41.06983457987525,29.830721130650975
9.28,-0.02364273245252954,0.05188919486465017,9.60698572498513,-0.009421926988010552,0.02543030177147374,0.019263865359124572,19.091173100605317,41.0984740497307,30.2165871402995
9.3,0.018088775895794502,-0.1718764057186601,9.801718772016399,-0.015950267419626442,-0.005835395403155501,0.0031261455150274862,19.162636042100225,41.0131811832114,29.83558743243104
9.32,-0.1368419379917678,0.002175667679412137,9.757717926603693,0.029947339565430182,-0.0028976643003107714,-0.00277840892660114,19.08130020587782,41.06251360543624,29.896310290370344
9.34,0.004775052312315842,-0.18956933250112495,9.77520470040842,0.06043905440540569,-0.019795502730381907,-0.032549734583084564,19.269344097188124,41.10007068132204,29.864025274149746
9.36,-0.07240792057253419,-0.09180254742548531,9.71061926336788,0.02752032818596332,-0.24553189686859447,-0.07601318631745849,19.049542770410344,41.3572109762267,30.123221519711382
9.38,-0.2160026191663522,0.42137363864770705,9.352993721466065,-0.022510688225834505,-0.11977174377267244,-0.016327129217617486,19.157775375706287,41.1833021670556,29.95340681109259
9.4,-0.5127323251362792,0.5582311358373324,8.048104291940527,-0.20606873817700466,0.0058805759922101915,0.02789864114018144,19.31197247484773,41.0430574221067,29.9434965958865
9.42,-0.7690022563012627,0.6748140120232847,7.348618717750293,-0.2786162993194547,0.1775174112360693,0.09446650618339997,19.11216724246415,41.26457867639403,30.154456983059884
9.44,-0.9159941984925521,0.7372743150904393,8.559153411948046,-0.3537787087649191,0.21673902431667766,0.07188305025155897,19.07936906019183,41.35705694901877,30.198724651515235
9.46,-0.9278914313160906,0.7278111916168915,9.565762765126653,-0.3492512063721843,0.3377764009321342,0.07048806378486117,19.31243485340897,41.26723531942689,30.1583657984448
9.48,-0.9883056720716488,0.1998793274728609,9.767796611106174,-0.38735185127898963,0.3042304833683128,0.0659812570756726,19.110966136616433,41.47753809449111,30.144839782147287
9.5,-1.0878762640066821,-0.09728383434491795,10.13465032715849,-0.40786243595110355,0.20978808969572965,0.11801778651230338,19.185719156331462,41.40778232212775,30.412012123769717
9.52,-0.9640579948200717,-0.2812713635705503,11.129745646609368,-0.36707488877278394,0.09609391415343234,0.13796022054396173,19.47276088401475,41.192543846844636,30.208853758826276
9.540000000000001,-1.0373061518876325,-0.536572235988009,12.357540158432007,-0.3239530317940984,-0.05442234473865803,0.12112682989000062,19.373748962086513,41.274605776283195,30.30555548130383
9.56,-0.8160605895814584,-0.8165619281000369,12.84813164948191,-0.36455379008439104,-0.15396692179147226,0.09457993863907403,19.5886384585281,41.39228583397931,30.23292455771122
9.58,-0.7309948386435308,-0.8892417027071641,11.938050358554056,-0.27149902563632916,-0.22219830094581036,0.012129372301619278,19.294100751780213,41.167976318396036,30.086267283711585
9.6,-0.5056012500168964,-0.5213312018586378,10.608888226412677,-0.15030890063508537,-0.3236146697601588,0.02913479814075514,19.460594322869355,41.44199902166184,30.309305443898722
9.620000000000001,-0.24948741899206445,-0.27506267822209873,10.052608050073722,-0.10697601146600061,-0.3352335459379097,0.0815658287201011,19.548148828763143,41.19093397994209,30.16705967119712
9.64,-0.08506645537817308,0.013452607216782713,9.752465973096681,-0.02854259444346098,-0.1926290502005485,0.0329024157412872,19.37163256704474,41.564658778370436,30.251393034416036
9.66,-0.05461155483070882,-0.08199375033199488,9.824539654460215,0.02959319768481263,0.007379711175801616,-0.0522001029835112,19.67805130393184,41.56680196436889,30.314122062091034
9.68,0.03440273978972419,-0.03313787781363435,9.746936691279354,-0.04426400223116737,-0.038846361646117746,-0.004778896742376685,19.635946936016435,41.5320607684653,30.03847209711586
9.700000000000001,-0.06692107964948152,-0.04026304518686917,9.714511793703963,-0.01265055384931536,-0.026468523869251775,0.008619149845153239,19.389248623732563,41.39747768066642,30.09285037488044
9.72,0.02348429517216908,-0.008825516504603021,9.797922901932635,0.007516608825753873,-0.030491336769604502,-0.02738907081683904,19.615122932134746,41.52207835330008,30.42711852602364
9.74,-0.10230123869808756,0.06286409204040551,9.608827703798136,-0.0213622372451238,-0.026185032609095965,-0.07689452868508316,19.694128131851336,41.45064070288534,30.237535510281013
9.76,0.003907467386578101,0.0262826906327938,9.667937563238066,0.022060980992421597,-0.013357848129318006,0.00016236944052581493,19.594021567546893,41.40022510824331,30.255337481285963
9.78,0.062260391722105624,-0.09895206892702453,9.768640519438446,-0.021204063206315807,-0.011529513736983913,-0.028208264243854055,19.504996710725596,41.504380116052324,30.367204935584052
9.8,-0.1881852480081465,0.05809577280125042,9.78527627306463,0.04207582379026942,-0.023825396962190725,-0.028082935650709892,19.75497625792066,41.65243782471938,30.308149494020505
9.82,-0.08100129635011052,-0.00995954303915806,9.756363598709877,-0.007023881519864724,-0.0272612422239977,-0.01434977151778426,20.027326327889202,41.58373710460474,30.422520471830573
9.84,0.006932616139554565,0.013972210934970641,9.678916076882075,0.018480644374571312,-0.01032109900542021,-0.007277629268953976,19.719742605605383,41.778634867891924,30.374016124904298
9.86,-0.04299490470675153,0.06385861499383058,9.727654922103136,0.020872766495450123,0.0023661291155059605,-0.0032906494110619662,19.995160478102953,41.705522734665664,30.41740661422888
9.88,-0.006246664104236233,-0.10114113596886727,9.805037396943193,-0.023081280087810328,-0.013121489163675028,-0.03128767676550405,19.723053419758664,41.70611549712287,30.31350664900618
9.9,-0.06865505194981252,-0.032292837037213626,9.817234033320215,-0.06871156955698844,0.03407734474692165,-0.010046704948290477,19.872008802222645,41.42989988309116,30.439415316564887
9.92,-0.024458253601734405,-0.06401309128698976,9.77896172047386,0.008544184149242715,0.013258806861465168,-0.059237547852888164,19.968266247592602,41.61311854219869,30.567307025478435
9.94,-0.03996334306509308,-0.13034300322338918,9.854037361986368,-0.0006867728920041758,-0.05390706741947827,0.006953250091778503,19.89354268541579,41.52689028687669,30.36433230899224
9.96,0.04473805194622768,-0.007810561433285124,9.805433409501392,0.014786432882404076,0.013759288493243312,-0.09440081322691704,19.881629646056528,41.65294934332678,30.565239536023025
9.98,-0.013717066028722358,0.13073961930140313,9.732162838146674,-0.010248879116250817,0.016377407442738644,-0.012263682573875827,20.03781224296614,41.600608668372814,30.452478291592655
10.0,-0.00839342962718706,-0.14776497564836819,9.762047868581657,-0.016773686361622908,-0.01691151897997412,0.026413956917662507,20.21210625475446,41.65371737357746,30.564013651965176
10.02,-0.056360125831837915,-0.0320659591071661,9.690216565938698,0.06127113635141439,-0.05084632279370098,-0.036898901992794456,20.033607206120514,41.85030892174554,30.49732576061506
10.040000000000001,-0.061206798340639586,0.010994747844785505,9.77307910461495,-0.05011532996834489,-0.002741863698843645,0.019925766517036803,19.954204488290788,41.78746589371806,30.487328797922572
10.06,-0.05768372402045574,-0.022122995094004404,9.851174439630165,0.02048641530765563,-0.0032466768474318105,0.03398344678786855,20.02109216601063,41.86742096766179,30.547050791291507
10.08,-0.0047550628877889994,-0.03724019536100739,9.823858565421503,-0.021387259461868514,-0.038892679569062234,-0.10885279847991644,20.393011215002147,41.54522003246405,30.668221822217205
10.1,-0.05694300677249683,-0.11314984726053275,9.869728596858824,-0.013744915767693506,-0.04943901492031794,-0.007843612914423755,20.112849149949906,41.76884428164563,30.553612002902874
10.120000000000001,-0.011454409158629573,-0.015101648451829526,9.760615344396864,-0.013147290642366902,-0.005801713486510061,-0.0950247496841048,20.044568657637885,41.896194921617585,30.5950663236597
10.14,0.10282565111330808,-0.07843289452901928,9.866150386848913,-0.028709896773480226,-0.010458470145626302,-0.006782670258270274,19.999133699791724,41.97601109581923,30.496982103599574
10.16,0.025751981019628313,-0.17015498911862742,9.76762852950733,0.015279174727559665,-0.016352491690316596,-0.003229478751402458,19.937008089656015,41.59551211342451,30.755464771790535
10.18,-0.050865506058741836,0.04645390211287877,9.874181445284474,0.04150059507039863,-0.005669143511889964,-0.08244140754914683,20.242251556799275,41.7588517522406,30.64650530173871
10.200000000000001,0.04687769101849247,0.031336692469890716,9.778601168163705,0.012040437159893166,-0.03828884396225021,0.058594827586555695,20.304460642210145,41.94610731744961,30.584545797745573
10.22,-0.05611682387337929,-0.02669369748153089,9.825262807923474,0.00030822387878704383,-0.016914259611715655,0.006152505844307997,20.194803470333728,41.79870817888848,30.568860934927464
10.24,-0.16043997025138265,-0.015339219954835035,9.87440719131583,-0.034566095971175895,0.014066400979659124,-0.03016874982662513,20.26853496473355,41.716087179704715,30.719597307312974
10.26,-0.09451752389871386,0.03875635281379593,9.721831534548969,0.01353840850638243,-0.22633107692720547,0.04389214167995258,20.145455231600824,41.643227456829486,30.526596766900393
10.28,-0.3722516169019692,0.3314647293278438,9.315319646006065,-0.023005185367188208,-0.1555868376839118,-0.038207529664922704,20.337060961448472,41.72890471326322,30.385648580502522
10.3,-0.4863806020962019,0.653322309479148,8.058931533326314,-0.18873572360846624,0.015463189943838059,0.0010549008391696618,20.40639403020404,41.642573326898805,30.632687752716436
10.32,-0.6523110255906022,0.7309034688895326,7.3219911128742154,-0.2644273952827531,0.12236455212238143,-0.014233596571563416,20.300918934831355,41.87435165377175,30.78520202806553
10.34,-0.7045394944824117,0.8339092890141916,8.496332221844494,-0.3336874451786039,0.2595656212552606,0.13281659453606168,20.610392161551097,41.989412856339335,30.84592513259115
10.36,-0.9100455159815126,0.6159954724341159,9.705560797727873,-0.37904880266478913,0.30531645987614636,0.09773197067734603,20.311391912075155,41.72079604881664,30.637753987941984
10.38,-1.0189503460255909,0.32952631568482255,9.73647730992763,-0.48082075059024576,0.22708421108975727,0.11559364849333421,20.479282999361878,41.92240393155315,30.66620922683397
10.4,-0.9769180428042566,-0.11128390967756996,10.196166236969843,-0.3900388676526172,0.2334204494145943,0.10663203948539123,20.575964378451896,42.00451982536438,30.736163235875406
10.42,-1.1464405719583284,-0.35874181661873705,11.166678639945681,-0.42002883451607714,0.06049375694563628,0.11285335957480908,20.48178995656067,41.90258488760664,30.64474946461052
10.44,-0.9158895361834709,-0.7087103006940687,12.28915383986614,-0.41491596696230526,0.013304490464442924,0.08959537363491357,20.491778838216153,41.70306387124221,30.753497107357244
10.46,-0.7624961100592642,-0.8507924242432824,12.685039863689987,-0.2916305145957705,-0.16417046341862046,0.08385263121344114,20.357143657682396,41.96466278020669,30.685163392238852
10.48,-0.7481193215886435,-0.8621263699576907,11.873947159609184,-0.2870204898648354,-0.29690185172173844,0.06279229014500778,20.73782287460575,41.91392067849449,30.834132964919682
10.5,-0.39068348035231476,-0.7237042216159744,10.538014531672053,-0.18739090537130354,-0.3376572172301386,0.020913436133538913,20.56628765893644,41.9062626064467,30.805686331153915
10.52,-0.23085716387667243,-0.24112162150096178,9.981682965185602,-0.04508221706449143,-0.2750259497553153,0.017760100908762084,20.680669994006074,41.86137082636313,30.825203634307407
10.540000000000001,-0.056578426489651404,0.055205699967257604,9.829009464130912,-0.048094905536784485,-0.2276536308327124,0.005755026344373697,20.72174731149207,41.947235854309106,30.70344478984464
10.56,0.010498039430802235,0.09290352013723273,9.76272307860319,-0.05204314350712839,-0.006092925107780507,0.000537571825668185,20.57886363937076,42.00583435169737,30.984355152554887
10.58,0.11532434289948135,-0.10826528125155609,9.681219139636113,0.00561779806599482,0.04860896744630525,-0.05028870744810615,20.657540096077227,42.25072003922519,30.807766941029094
10.6,-0.018360559676256306,-0.02543976000570288,9.882027389197058,0.03378359564833179,-0.02537581005533041,-0.0460395733954691,20.877062846264522,41.96292317067953,30.785347096172153
10.620000000000001,-0.01411388247677849,-0.11278448801306214,9.786626441852748,-0.05337893496742282,-0.0010811885537373883,0.03165092588532452,20.586556889828824,42.145485887164604,30.664036246452813
10.64,-0.059399097570575626,-0.0745244721406121,9.871593735536752,0.010046071578789666,0.0424350235959377,-0.012823809468268856,21.025120847243333,42.0010546318965,30.756630268557203
10.66,-0.08439003964574668,-0.08876012693866078,9.763357679988452,0.015591985278774149,0.0056564312149248045,0.015711211105150096,20.68046915491196,41.9454110219331,30.791188404356667
10.68,0.02314149225883172,0.04933337641225995,9.723679233171792,-0.06889313547815426,-0.054411287531456194,-0.03794783711111669,20.64777292753658,41.979739446038536,30.68309007124831
10.700000000000001,-0.0847893648581675,-0.05535869939851263,9.797227578896331,0.02255204281303105,0.01317244837542838,-0.050140668052688964,20.838494137778277,41.80660346317836,30.75373261447526
10.72,-0.02541976081795888,0.03837627735641705,9.766189623914995,0.02505138815494974,-0.040216091449070214,-0.029995091601014816,21.12690011113737,42.00408147361441,30.77703358178042
10.74,-0.06057007659296747,0.00866373693366515,9.704623266688554,-0.012977138344192791,0.04201784091945488,-0.010122082264685226,20.622162792424263,41.71157764833261,30.81238981243834
10.76,0.000654708847769081,0.11743288013470649,9.8740661925624,0.037075083593536264,-0.02933176335993529,-0.024284489577101193,20.871109709276293,41.85745602021061,30.586449564047363
10.78,-0.008645625261635308,-0.12468443028094234,9.740174705734784,0.033366578378395045,0.09202430424786126,0.03840587273938284,20.972369786539502,41.982937079344055,30.801472546923737
10.8,0.03640255643250555,0.05059092734635513,9.662222951373083,0.00029977362295055543,0.0439560316264857,0.0027447456491987692,20.93781454289598,42.122391097916584,30.777063948726273
10.82,-0.06264104952670381,0.043372215705646575,9.86500262745327,-0.017446252490397877,-0.028491602228095318,0.056166035793979475,21.004340656856964,42.153049739372754,30.829133101102766
10.84,-0.047271995858775756,-0.0922962456337302,9.747724926987992,-0.03413049256265463,-0.0023595582399484646,0.00994106093028535,20.88533816875347,41.939704491868234,30.97062759561931
10.86,-0.09264087781006768,0.03445653353428221,9.741099270872601,-0.00420203229971812,0.021116617012270834,-0.08020162617343396,20.922114671283794,41.989651088053456,31.106987656054148
10.88,-0.05843476864487114,-0.008486722366321354,9.667015194430082,0.015232285430533728,0.02207713517525465,0.030793331406673747,21.001351161086212,42.09513870549694,30.93714409342143
10.9,-0.005852768445129459,-0.044558480637018096,9.891420255142208,-0.01337365955330052,0.011154760319238309,-0.051305651919038554,20.897027914706438,41.79807048295702,30.69819754120672
10.92,0.01844727146530252,-0.08273187116620798,9.69747324241858,-0.07332003216838497,0.037069089182915516,0.004377077350762853,21.05706883408419,42.01884314553122,30.817743314942586
10.94,-0.08901858074736803,-0.07602300489274791,9.783740766765161,0.03759884462645025,-0.006935006292299825,-0.027789889845243033,21.033991835386423,41.85953962743087,30.94384968375518
10.96,0.025654778886762257,0.10118797413029926,9.83840770064259,0.0030871430990366006,-0.014734965394433062,0.06556675310285397,21.04437211455369,41.94167564418975,30.934896803079003
10.98,0.056760822963516866,-0.02995629958672111,9.806989883712198,-0.015147983893658682,-0.014099647613587538,0.04306713367776433,21.16617022765716,41.902758785813866,31.004739953192722
11.0,-0.0035401661936831433,0.02005632009801339,9.7761821240325,0.02442906842954523,0.024467943423108072,-0.026738260534456264,20.912526089455433,42.01476963099871,30.871084530373405
11.02,0.09011493200371622,-0.0806175604267234,9.671093385069605,0.0457884350874482,0.008685793289684676,-0.007075445379875577,21.13648643288199,42.026698596796834,30.842056365533768
11.040000000000001,-0.07952250874262867,-0.07991058855818489,9.682388513289059,-0.09266117022361253,-0.20581095705387603,0.004827138228774956,21.48248187738791,42.06722007958139,31.117788553358935
11.06,-0.3321788349682451,0.38635401908604283,9.313361972437958,-0.07811193678501947,-0.0766362226103203,0.046881343685602976,21.066697186330988,41.99432057699808,30.905736174208275
11.08,-0.577721835047432,0.5090923084351259,7.926065133633943,-0.22220627039295437,-0.035044334220331014,0.04132123510615622,21.389926786131404,41.96799930193781,30.77269349526659
11.1,-0.5577429659234258,0.7233686485995215,7.343518320805661,-0.2364243845259273,0.16653182531860578,0.02655234340568561,21.251843962974203,42.17930712059715,31.096099097592102
11.120000000000001,-0.7699520804613701,0.7521200840540818,8.624500906089057,-0.31163892251122544,0.25801146421244414,0.0522212717924013,21.186933323602066,41.74252716750643,30.720087932996538
11.14,-0.9345262868406882,0.6025930324921875,9.630008530925647,-0.34304429831487004,0.3485155215695953,0.0869534693061846,21.114129379086098,42.150025530963404,30.468379846134575
11.16,-0.9870099200973551,0.3056450210530126,9.688066756745194,-0.4089470885365584,0.2312501836600729,0.1339954145386525,21.319903026425013,41.890922626429905,31.018235274160872
11.18,-1.1020312990270962,-0.004667534009860824,10.326591197228492,-0.4629436835782129,0.2589620065920205,0.1106908115371534,21.506700445786326,41.99581712168903,31.04018165081213
11.200000000000001,-0.8483997854863468,-0.3327642229217065,11.141812891152274,-0.40738294699294286,0.09849681071213946,0.06974351356650187,21.289275185272192,41.87547336663034,30.980313154100987
11.22,-0.9226987122560046,-0.6084483830650267,12.327987743870118,-0.3503684228364946,-0.020941677849870877,0.1078448156769552,21.346943549259304,41.821339805486446,30.764161517945915
11.24,-0.804830215613317,-0.8730337735001996,12.819273751453107,-0.28324003846960494,-0.10898022175110067,0.0627996334027019,21.50462740842206,41.967091794800915,30.926745220947797
11.26,-0.6070407379292173,-0.828128256012902,12.009094070023592,-0.28989452235861424,-0.23907289919230687,0.08784203635185228,21.436702815710895,42.031953548340276,30.901927379646732
11.28,-0.4330991482864086,-0.5790003628143,10.560693334670805,-0.14368756198708674,-0.2883018777051708,0.1212527072982712,21.209366749971068,41.95229681162962,30.8718595736403
11.3,-0.23819235640245054,-0.3198495712893195,9.985692144985702,-0.11274028685121468,-0.2784116811468362,0.007769649525437912,21.440594818472288,41.81524817436872,31.12432379001675
11.32,-0.08059036514850008,-0.11786300489478829,9.661107363382834,0.0085983962110248,-0.23060333467578437,0.022651365111243885,21.63859230328154,42.33947666108236,30.812398243812087
11.34,0.00017397485670372914,-0.007505286377459092,9.792329698089475,-0.019316606491700247,-0.003911651984332572,-0.026852586625207352,21.457153818980522,42.02292496813501,30.989471285380148
11.36,0.09044956777440216,-0.15660641595998787,9.80338523148321,0.0028294600867872543,-0.025896408515927956,-0.006592440550121523,21.1275921144991,41.980959084164766,31.10433174834224
11.38,0.05610688295391858,-0.02699616626813634,9.777493624611663,0.025540084306248788,-0.004426140781615424,-0.0020540068200927586,21.544576540946554,41.807996890255055,31.00264707948667
11.4,0.0719639441049214,0.09145708907174253,9.738109851456109,-0.04226445047323315,-0.0777497823057631,-0.009197877121420178,21.485624061289943,41.76454275808278,31.114859188749914
11.42,-0.06271780329159585,-0.09066513390521512,9.648831070963947,-0.024756988695898607,0.010729266162161556,0.07581643804080077,21.29280051815213,41.799836229086694,31.030169294161798
11.44,-0.09333470849654918,-0.08339667491146124,9.803906155738353,0.0029188027949467723,-0.006895592121076016,-0.012810978389708235,21.327638228746352,41.96487271163616,31.014832321300293
11.46,-0.03805036288637748,0.018897906020663012,9.87314780697058,0.07385067715297128,-0.013758519573336458,0.015779249241115775,21.682794511636637,41.69015920656966,31.008535867647776
11.48,-0.026433605613523543,-0.12873929697341735,9.74217481883306,-0.0306220707893385,0.004032258686084582,-0.06476277981834984,21.47938897830558,41.670438703198954,31.04165060139305
11.5,0.0400282571821407,-0.07049632191264249,9.808163835457481,0.062284284351901406,-0.048874045534894106,0.010823890027827528,21.471874452015687,41.86615299955541,30.915172890899502
11.52,-0.13831773630174843,0.008172232805232174,9.679638763941117,0.06114154571760547,0.05873663989188104,0.03354574695527189,21.598116765635112,41.82758166302365,30.799117027898852
11.540000000000001,0.06789122044547928,-0.0705942942521218,9.809261636076322,-0.006113956822450917,-0.00628855876760319,-0.01988311496252963,21.5346072114719,41.677471106222136,31.088952181621487
11.56,-0.04011250550905532,-0.045102079181502185,9.754823532944343,-0.012540880838396811,-0.0076670218551100665,-0.08332710851329321,21.643998022747176,41.625458702412445,31.11645797169158
11.58,-0.057320388476634884,0.017627885460162217,9.731205251161414,-0.025146086357270135,-0.033892678724253514,-0.0042368566024744035,21.619107916316388,41.93796162470546,31.000771020221393
11.6,-0.09477468001665072,-0.0030210506536600783,9.731336726962168,-0.005182480970645411,-0.00223371576162364,-0.002450116787663102,21.50505641675204,41.78810372490077,30.89893075078566
11.620000000000001,-0.13591082699940923,-0.01292362263709428,9.754808858749888,-0.04801502184190586,0.041382716488744975,0.020170401623817735,21.606555645373525,41.556091033176656,30.77018236377943
11.64,0.022682917373562532,-0.05170382587328248,9.804475732204322,-0.005439648554259123,0.03014931870182509,0.061348897133229885,21.74172573751487,41.55297799750673,30.980842944366973
11.66,-0.02530765009994215,-0.006316088622786854,9.696021555123487,0.044900168763227395,0.024342008036497796,-0.015161716819209817,21.70321234353621,41.659950857822814,30.797325582907238
11.68,-0.11255749758342745,-0.03791889152638442,9.754584618779658,-0.022554721999254967,0.014484766453352692,-0.030401219957128973,21.699878871592897,41.7874162958052,30.779374507940826
11.700000000000001,-0.11288504141207144,-0.0007004409647497767,9.777345806208055,-0.010703177727649624,-0.014473360882003513,-0.04034136964388618,21.97059854295869,41.75688964699087,30.967127047888837
11.72,-0.0514902207545682,-0.06180364960755061,9.709661489629962,-0.05743649517655174,-0.049405221345174465,0.003338515745011179,21.828155256119253,41.812429205003916,30.871676085559397
11.74,0.07681737761852116,-0.041684414360290634,9.894986572907202,0.008969986820193392,-0.009433240699732321,0.01233933628219206,21.85538537952422,41.4633873421904,31.01313828019926
11.76,-0.04661384648727071,-0.09335729872332889,9.725376289276074,0.005463413918443966,-0.010547886865077672,-0.020460972619602703,21.736438892104776,41.66911631197213,30.94789115118695
11.78,-0.1262011489995588,-0.0322404870403991,9.737156037527457,-0.0009615244874953311,0.030561422069479715,0.021917847863225266,21.796989087497703,41.809028490732345,30.88981645500258
11.8,-0.045727556101500436,-0.08190405527224606,9.71738829121136,-0.00993846560710859,0.0069004941587142475,0.01189229045821362,21.72447330627275,41.78289703976835,30.748263728916196
11.82,-0.04745430846385091,-0.10129897281036758,9.849313628355006,-0.012368253400718551,-0.1635380654630507,-0.0016165859313635083,21.88973831135708,41.64376600800206,30.856193001139456
11.84,-0.425121679104575,0.3336613047567914,9.336728685433604,-0.07594756610410426,-0.06376408530532854,-0.009625177668180575,21.786351157517153,41.88364195908116,30.859609853209466
11.86,-0.4673586105746981,0.6090805316293142,7.9165023857135175,-0.17747562689785923,0.01598148332686129,0.02496871581624468,21.838928046594848,41.646099417973666,30.805791608399012
11.88,-0.6682696117920889,0.8000462487821676,7.401302135132777,-0.24231682085372278,0.09916548866276517,-0.01840318933996809,21.840712660344778,41.68634546493446,30.918912239550465
11.9,-0.767274275119971,0.7223502932926527,8.593714044359377,-0.30885314282866644,0.2953556672546126,0.08272833430114007,21.8272276109566,41.54307624825494,30.812424078092633
11.92,-0.812635677825917,0.6215805681719765,9.584872565185576,-0.3274378739739033,0.33861399011135657,0.08793980803015984,22.21474595750916,41.421687587324975,30.936399467361824
11.94,-0.9328277502907671,0.35235803591956105,9.744495694285048,-0.37130735375672774,0.236446228183639,0.10052411893304594,21.762140447788422,41.393646133361514,30.986061465057666
11.96,-1.0472088761955092,-0.0015344762987778348,10.138043226544593,-0.3968284210191939,0.25742771499044426,0.11313820849806594,21.769489995925415,41.51269764425229,30.8473137777112
11.98,-1.0757455703412906,-0.42994882699338355,11.114311243440303,-0.3443816598918597,0.10831146804551073,0.1068390787840135,21.953040993581393,41.44591668666856,31.005135301475814
12.0,-0.766273840494428,-0.6459059231090677,12.293211866985219,-0.3499389542311577,-0.03144740689097142,0.08356462500956878,21.79593140070868,41.22991068520586,30.7738937932141
12.02,-0.8080415026911029,-0.7866373507979604,12.865815770429009,-0.2739737869459187,-0.11093655881868625,0.07674052562801109,21.842429075240627,41.30805407712819,30.803099036717448
12.040000000000001,-0.6525983271763051,-0.8094829078633506,11.776473341880035,-0.23297375727512104,-0.21398733422510555,0.01441085485159594,21.74798297600523,41.38143397527226,30.928122036508974
12.06,-0.46542774469259846,-0.7889997561101735,10.751085454601162,-0.23549490617283267,-0.28027107250412625,0.021709313249694197,21.9569747568557,41.49788605204631,31.02755763025755
12.08,-0.23984350926717224,-0.3668356553597446,9.99298454778209,-0.050253661156307444,-0.27102205298652693,0.020867167113502262,21.965308204960518,41.38511492302142,31.04749291803224
12.1,-0.039239066363132444,0.11160198652142331,9.832468476592078,0.0013256397229653616,-0.1954074170589928,-0.026547314429195525,21.86682173858706,41.360102462082665,31.139548566433827
12.120000000000001,-0.06671436844033513,-0.053042513200446895,9.833322097064285,-0.004662552668824894,-0.01580183788424083,0.024524825467921486,22.004760001954796,41.22493519544242,30.881503886362424
12.14,-0.0649989722393851,-0.07659693426274056,9.739664045119717,0.0060031471196664654,-0.004763246391434271,-0.024076226590560974,21.681213743815253,41.33594048365099,30.909780240187647
12.16,-0.032096209293823896,-0.0061056921784705155,9.835311896620713,-0.014039461182626157,-0.031874148947025366,0.003921773159946122,21.834059011742546,41.48332014103212,30.79016010856553
12.18,-0.06477918535256096,-0.010007794530139408,9.606717193255605,0.00426492353244625,-0.013657272823645403,0.000730101018090748,21.907952768933495,41.31567649984688,30.75795226715364
12.200000000000001,-0.07562213009133852,0.04633505058665052,9.733920669873797,-0.021940034122978957,-0.014732284117405858,0.02088088299553311,21.784522341853798,41.083905069550525,30.943633597287405
12.22,-0.023188465427718602,-0.11050356197816882,9.720859980330172,0.03777671227949984,-0.023329771827893267,0.025825317568905666,21.715293400268813,41.09751824749953,30.81085770292093
12.24,-0.04631854191493474,0.016808336164799514,9.699775615208207,-0.006634819635873609,0.0013758880847508197,0.019209043550974064,21.903961204890816,41.31374675380894,31.063558213440704
12.26,0.06625555126929207,0.007787011920093664,9.766242890362948,-0.015242682967117872,-0.01336738722241847,-0.07039219844426028,22.036138060619603,41.19013771686354,30.714124947320194
12.280000000000001,-0.19966206773715278,-0.03909737836419495,9.80468799796363,-0.032597626103016766,0.013071511051263165,0.03521274073642005,22.115032725495894,41.18957494049887,30.958913111809732
12.3,0.03985643852303755,-0.008324011653011838,9.824970239903957,0.005600825252756527,-0.054914259625400495,0.045873863174227134,21.884176553578666,41.100768255322855,30.76312852901992
12.32,0.04974945231984826,0.035885278822294864,9.795416112460826,0.0029874272040029412,-0.00662735341143359,-0.018427977098287023,22.05107424825558,41.22352106624101,30.781903425087787
12.34,-0.16269697487412157,0.025828184321820824,9.737395618246813,0.009429587637680207,0.001209652485679862,0.004572701205531194,22.041379414836285,41.10026513894294,30.950840058004836
12.36,-0.05193200602114232,-0.10315323597271864,9.803617052020812,-0.03587206040016413,-0.012940135674780178,-0.031506613764185024,22.11824906460116,41.09440985269352,30.790089913535024
12.38,-0.05377221542373065,0.02249012395235101,9.787954284470455,-0.05423779836197034,-0.008516566393895402,-0.06534811221542884,21.919493348635914,40.988672160473975,30.805207981356862
12.4,-0.12008074846194056,-0.03414007072208118,9.839907594747906,0.017018921680209916,-0.05372787234335544,-0.02663888849735636,21.735845393472903,41.19475958464896,30.761755489704814
12.42,-0.07978026800581602,-0.025336057727007012,9.829723948987617,0.04450853958004824,0.008407267349423746,-0.02028444926283553,21.976457702322143,41.02745767115813,31.088537548535573
12.44,-0.10107685410981304,-0.025315392575891552,9.781950490490921,-0.03584331591647668,0.017723391442146255,-0.014355223403258097,21.838813346437053,41.1123794666108,30.775216912557827
12.46,0.08214530837911185,-0.039615551283088635,9.72257580760568,0.04786212107397435,0.01279319341452054,-0.033685250880191614,21.876759724606664,40.86043107119386,30.85491563523405
12.48,0.02988341716143752,0.046269279814852154,9.738211190026748,0.006085153879564189,0.030239265902149853,-0.026469605338151646,21.931286037968825,41.213623105444185,30.816395105164865
12.5,0.05137952607962616,-0.03535794943034957,9.744813480983167,-0.003226012945626551,0.003448947385040063,-0.0033522022921090465,21.926617263187307,41.133503876929694,30.864366787685142
12.52,0.01618701209876705,-0.1016509522165228,9.75982295462936,-0.015721558289464897,0.012317797780829986,-0.027647263459524545,21.987961674570293,40.70370192295957,30.75098767690585
12.540000000000001,-0.10225931335790267,-0.05518591078206264,9.797155227365744,-0.0473045766215999,0.0019949036306192765,0.014392778641600892,22.05937238706831,40.823509590368225,30.79748224993799
12.56,-0.0635692970419055,-0.01856353812412956,9.825771160968197,0.02860731250958719,0.019001623026959815,0.018813140844718065,21.921508790621854,40.96514536335898,30.86699083485736
12.58,0.0013199719185867584,0.04866974619501123,9.776728403647017,-0.0278194035660033,-0.05347134835622791,0.07317240787726366,22.018123194057857,40.71278597673993,30.699344503364898
12.6,-0.1082161797690845,0.008598059836725347,9.735242889203796,-0.027953813623603208,-0.24372662533126058,0.03302175782795078,21.967949906127647,40.84242631585295,30.9423543743585
12.620000000000001,-0.20688903442528156,0.2626727334542357,9.310514354323239,-0.060266731666143214,-0.05130292956149122,0.027031391262140703,22.084061083193667,40.8912979145194,30.947643042908805
12.64,-0.47926456459967876,0.754517340641873,7.943426334072641,-0.23680896594051853,-0.04814460347608622,0.0205399164183901,21.938127461344735,40.79032595647819,30.866382468954413
12.66,-0.6774783335419077,0.7668879496480496,7.2712782108765905,-0.30115105068487474,0.15212392920018997,0.06874889543944131,21.949799419463456,40.860090781777004,30.79041617590171
12.68,-0.7663300445030063,0.8315673369773959,8.468521302497003,-0.31631288877947056,0.2885300584759434,0.08563421896412639,21.909299363696157,40.679392090171554,30.391267458590953
12.700000000000001,-0.9025360159673125,0.5857554622254815,9.52391878731752,-0.3540024454328124,0.29212932167063627,0.07067086794206076,21.933461589514266,40.45777593550669,30.820839183003965
12.72,-1.0280297467942447,0.3512419829551954,9.796823544654343,-0.3774596561377239,0.2672046448060879,0.11957219591427445,21.85063637096503,40.847512401398305,30.70877931891024
12.74,-0.9558028925846881,0.023725984289178,10.141019517675307,-0.41265755178868013,0.21327352801405386,0.05226086353017999,21.83433103684946,40.82335766744492,30.71956160721702
12.76,-1.074115965148217,-0.299142529741774,11.077474562705548,-0.3119993354761954,0.08478387282647187,0.08667199648098203,22.042669857731926,40.99545560110426,30.500312212336688
12.780000000000001,-0.8915489890579863,-0.5877936144302174,12.357949052099325,-0.37068010904147436,-0.03560215906277026,0.10488435748839893,21.80047885361078,40.3688956295923,30.79832552206667
12.8,-0.7738730019580535,-0.7541217217407882,12.782867537907254,-0.32311774985449915,-0.18447781612324485,0.06598045552385591,21.893727385976046,40.72383980347355,30.541576681657904
12.82,-0.673300773974829,-0.8301078805418819,11.788617870076967,-0.27789949414553755,-0.22153967832990204,0.05273283927613669,22.05967398141118,40.35195590568003,30.733882719020986
12.84,-0.4430112256940627,-0.692056932659612,10.71658321995148,-0.17258847751834902,-0.2555691854938716,0.03597922635360285,21.879390545375927,40.804892177671796,30.82613162404224
12.86,-0.33259220284497437,-0.35582011063329866,10.0722593598239,-0.0723296141570292,-0.2904334894000823,-0.007487146306376362,22.025132523644906,40.6185254748832,30.641755640820442
12.88,0.029137729229241547,0.029720196629828242,9.74101659875274,0.03551449774507067,-0.2594996958180841,0.034564829810374675,21.83760961357631,40.410156561627936,30.84886288614458
12.9,-0.0418337367323513,-0.04425412484970285,9.727274440342967,-0.05065709646208698,-0.019762981450028645,-0.03557720550153008,21.772617380644437,40.60770811797951,30.58885791122228
12.92,-0.06345427331321853,0.03817100580572075,9.856229803721357,-0.010871850827382425,-0.008887637123294856,0.007181098477116325,21.696625568239245,40.41280113622861,30.752479704253286
12.94,0.03713659045356092,0.06296747171111548,9.77060137463966,0.011294515545892614,0.013177244060902659,0.010236732745035951,22.06208402403907,40.497714311988375,30.499651858791786
12.96,-0.0750779961947366,-0.08864453882069886,9.637934211363081,0.01578584110702514,-0.0352564231414617,-0.03335590083868694,21.741524066785544,40.46121691695833,30.789579283774074
12.98,-0.12014152296726782,-0.08356292504296192,9.69042038369711,-0.002790442950254743,-0.027613194196548823,-0.0006606638598162145,21.975368973029298,40.63362695492145,30.760542931105288
13.0,-0.12962426710552982,-0.03898400376994153,9.764040343988961,0.01435756702502726,0.013341636411481839,-0.03210822952783047,21.744119813160754,40.618133898126594,30.699080420498216
