time,accel_x,accel_y,accel_z,gyro_x,gyro_y,gyro_z,mag_x,mag_y,mag_z
0.0,-0.10408778488636017,-9.756733894348145,-0.8877371549606323,0.038179077208042145,0.03298672288656235,0.07620543986558914,-15.594855308532715,37.16749572753906,-27.024263381958008
0.01,-0.12801600992679596,-9.724431037902832,-0.8817551136016846,0.04108068719506264,0.04001167416572571,0.07223481684923172,-15.828704833984375,37.37211227416992,-27.652734756469727
0.02,-0.12203395366668701,-9.688538551330566,-0.867398202419281,0.04688390716910362,0.04764748737215996,0.06933320313692093,-15.536393165588379,36.99210739135742,-27.272727966308594
0.03,-0.08374878764152527,-9.68973445892334,-0.8745766282081604,0.05360342189669609,0.057879481464624405,0.06551529467105865,-15.52177619934082,37.094417572021484,-27.038877487182617
0.04,-0.07537391036748886,-9.725627899169922,-0.8566304445266724,0.05650503188371658,0.06185010448098183,0.06520986557006836,-15.609471321105957,37.079803466796875,-26.848873138427734
0.06,-0.08374878764152527,-9.742377281188965,-0.882951557636261,0.055436018854379654,0.0705549344420433,0.06582073122262955,-15.872551918029785,36.86056900024414,-27.24349594116211
0.063,-0.12442676723003387,-9.81655502319336,-0.8865407705307007,0.056352317333221436,0.09010262042284012,0.07712173461914062,-15.156386375427246,37.021339416503906,-26.658872604370117
0.07,-0.14715859293937683,-9.876375198364258,-0.9020940661430359,0.053908854722976685,0.0985020250082016,0.07880160957574844,-15.638701438903809,37.88365936279297,-27.41888427734375
0.08,-0.1375872939825058,-9.913464546203613,-0.8709874153137207,0.03833179175853729,0.1137736514210701,0.07696902006864548,-15.28792667388916,37.13826370239258,-27.331188201904297
0.09,-0.05503491684794426,-9.955338478088379,-0.9200402498245239,0.026114489883184433,0.12095130980014801,0.07269296050071716,-15.85793685913086,37.37211227416992,-27.228879928588867
0.1,-0.010767702013254166,-9.929017066955566,-0.9427720904350281,0.01618792861700058,0.11881328374147415,0.06612616032361984,-15.536393165588379,36.729026794433594,-27.71119499206543
0.12,0.061016976833343506,-9.90030288696289,-0.9798608422279358,0.0138971833512187,0.11163561791181564,0.06185010448098183,-15.755626678466797,36.75825881958008,-27.272727966308594
0.123,0.16390834748744965,-9.841679573059082,-0.9810572266578674,0.01725694164633751,0.08888089656829834,0.0659734457731247,-15.609471321105957,36.99210739135742,-26.702720642089844
0.13,0.15912269055843353,-9.818947792053223,-1.0109676122665405,0.020922133699059486,0.07223481684923172,0.07422012835741043,-15.624086380004883,37.73750305175781,-26.43963623046875
0.14,0.12083754688501358,-9.741181373596191,-1.0552347898483276,0.02687807008624077,0.05803219974040985,0.08979719132184982,-15.609471321105957,37.18210983276367,-26.585792541503906
0.15,0.035892337560653687,-9.714859962463379,-1.0923235416412354,0.035124752670526505,0.04764748737215996,0.1033889427781105,-15.594855308532715,37.34288024902344,-27.214263916015625
0.16,-0.061016976833343506,-9.67657470703125,-1.1282157897949219,0.03955352306365967,0.03985895588994026,0.11209376901388168,-15.302543640136719,36.56825256347656,-27.652734756469727
0.18,-0.1615155190229416,-9.693324089050293,-1.1808578968048096,0.04459316283464432,0.03252857178449631,0.11804971098899841,-15.755626678466797,37.474422454833984,-27.301958084106445
0.184,-0.27397817373275757,-9.640682220458984,-1.1617152690887451,0.05421429127454758,0.031001411378383636,0.11178833991289139,-15.609471321105957,36.88979721069336,-26.761180877685547
0.19,-0.27756741642951965,-9.663414001464844,-1.1258230209350586,0.060475654900074005,0.032070424407720566,0.10873401165008545,-15.551008224487305,37.474422454833984,-27.038877487182617
0.2,-0.2907279431819916,-9.772287368774414,-1.0564311742782593,0.0679587572813034,0.029168814420700073,0.11301006376743317,-15.346389770507812,36.99210739135742,-26.89272117614746
0.21,-0.2751745879650116,-9.817750930786133,-1.007378339767456,0.07895433157682419,0.04046982154250145,0.13209959864616394,-15.127155303955078,37.19672393798828,-27.185035705566406
0.22,-0.2620140612125397,-9.866804122924805,-1.026520848274231,0.08888089656829834,0.06643159687519073,0.15027284622192383,-15.551008224487305,37.094417572021484,-27.901199340820312
0.239,-0.2799602448940277,-9.93140983581543,-1.0408778190612793,0.07620543986558914,0.11209376901388168,0.16233743727207184,-15.024847030639648,37.31365203857422,-26.86349105834961
0.243,-0.2679961323738098,-9.943374633789062,-1.098305583000183,0.06994406878948212,0.11911872029304504,0.16432274878025055,-15.697164535522461,36.94826126098633,-26.95118522644043
0.25,-0.2512463629245758,-9.796216011047363,-1.1736794710159302,0.06765332818031311,0.1241583600640297,0.17363843321800232,-15.594855308532715,37.51826858520508,-26.644256591796875
0.26,-0.2763710021972656,-9.677770614624023,-1.171286702156067,0.07941248267889023,0.128434419631958,0.19853119552135468,-15.18561840057373,36.831336975097656,-27.1704158782959
0.27,-0.3565305471420288,-9.605986595153809,-1.148554801940918,0.1014036312699318,0.14217887818813324,0.22678370773792267,-14.703303337097168,36.919029235839844,-26.921951293945312
0.28,-0.47258248925209045,-9.548558235168457,-1.1282157897949219,0.12370020896196365,0.16203199326992035,0.24388794600963593,-15.331774711608887,37.664424896240234,-27.1704158782959
0.301,-0.47018963098526,-9.585646629333496,-1.137787103652954,0.13286319375038147,0.18387043476104736,0.2353358417749405,-14.527915000915527,37.18210983276367,-27.535808563232422
0.307,-0.31345975399017334,-9.546165466308594,-1.2071789503097534,0.12324206531047821,0.18570303916931152,0.2151772677898407,-14.39637565612793,36.81671905517578,-27.287343978881836
0.31,-0.2105683833360672,-9.538987159729004,-1.2035897970199585,0.12217304855585098,0.18295413255691528,0.20983220636844635,-14.600994110107422,37.13826370239258,-27.08272361755371
0.32,-0.13878370821475983,-9.564111709594727,-1.2382856607437134,0.11667525768280029,0.17470745742321014,0.20494529604911804,-14.498684883117676,37.035953521728516,-27.05349349975586
0.33,-0.07657032459974289,-9.611968040466309,-1.2598210573196411,0.11362093687057495,0.15515977144241333,0.1996002048254013,-15.112540245056152,36.96287536621094,-27.301958084106445
0.34,-0.04307080805301666,-9.602396965026855,-1.2335000038146973,0.1085812970995903,0.12828169763088226,0.19043724238872528,-15.01023006439209,37.45980453491211,-26.98041534423828
0.359,0.010767702013254166,-9.6466646194458,-1.2059825658798218,0.09865473955869675,0.09529497474431992,0.1765400469303131,-14.878690719604492,37.065185546875,-27.462730407714844
0.363,0.016749758273363113,-9.640682220458984,-1.2119646072387695,0.09941831976175308,0.08414668589830399,0.17333300411701202,-14.659457206726074,36.99210739135742,-26.454252243041992
0.37,-0.07178467512130737,-9.66221809387207,-1.2047861814498901,0.0988074541091919,0.0708603635430336,0.16982053220272064,-14.86407470703125,37.4451904296875,-27.185035705566406
0.38,-0.11485548317432404,-9.704092025756836,-1.1653046607971191,0.09636398404836655,0.0555887334048748,0.1673770695924759,-14.849458694458008,36.6851806640625,-27.60888671875
0.39,-0.16510476171970367,-9.686145782470703,-1.1964112520217896,0.10064005106687546,0.03940080478787422,0.1722639948129654,-14.790996551513672,37.4451904296875,-27.50657844543457
0.4,-0.17706885933876038,-9.645467758178711,-1.1497513055801392,0.10980302840471268,0.03481931984424591,0.16554446518421173,-14.557147026062012,37.035953521728516,-28.06197166442871
0.42,-0.05862415209412575,-9.629914283752441,-1.0839486122131348,0.12339477986097336,0.010995574295520782,0.13927727937698364,-14.235603332519531,37.24057388305664,-27.988893508911133
0.423,-0.05623133108019829,-9.626324653625488,-1.0815558433532715,0.1235474944114685,0.0007635815418325365,0.13408491015434265,-14.86407470703125,36.71440887451172,-27.63811683654785
0.43,-0.05623133108019829,-9.600004196166992,-1.093519926071167,0.12629638612270355,-0.012828170321881771,0.1290452778339386,-14.644840240478516,37.51826858520508,-27.681964874267578
0.44,-0.15553347766399384,-9.572486877441406,-1.0815558433532715,0.12858712673187256,-0.036651913076639175,0.11728612333536148,-14.279450416564941,36.831336975097656,-27.871967315673828
0.45,-0.2955136001110077,-9.523433685302734,-1.0971091985702515,0.13041973114013672,-0.04917465150356293,0.10720684379339218,-14.776381492614746,36.86056900024414,-27.755043029785156
0.46,-0.34576284885406494,-9.485148429870605,-1.0683952569961548,0.13347405195236206,-0.058948494493961334,0.09407324343919754,-14.498684883117676,37.16749572753906,-28.105815887451172
0.479,-0.31345975399017334,-9.451648712158203,-0.9738787412643433,0.1333213448524475,-0.0754418596625328,0.06811147183179855,-14.264835357666016,37.57673263549805,-28.17889404296875
0.483,-0.2955136001110077,-9.436095237731934,-0.9810572266578674,0.13209959864616394,-0.07910704612731934,0.06429356336593628,-14.045600891113281,37.16749572753906,-28.208127975463867
0.49,-0.2560320198535919,-9.448060035705566,-0.9547362327575684,0.13072516024112701,-0.0936150997877121,0.05009094625711441,-14.542531967163086,37.3867301940918,-27.740427017211914
0.5,-0.1579262912273407,-9.487541198730469,-0.865005373954773,0.12232576310634613,-0.11423180252313614,0.029016099870204926,-14.469453811645508,37.26980209350586,-28.295820236206055
0.51,-0.1579262912273407,-9.562914848327637,-0.7956134676933289,0.10674870014190674,-0.12980885803699493,0.009926560334861279,-14.235603332519531,37.22595977783203,-28.427358627319336
0.52,-0.07178467512130737,-9.535398483276367,-0.8159525394439697,0.08888089656829834,-0.13057243824005127,-0.005345070734620094,-14.250219345092773,37.708274841308594,-28.675825119018555
0.539,0.33858439326286316,-9.189635276794434,-0.7920242547988892,0.059864792972803116,-0.13087788224220276,-0.018325956538319588,-14.045600891113281,37.78135299682617,-28.485822677612305
0.542,0.4091726541519165,-9.148957252502441,-0.7728817462921143,0.060933806002140045,-0.13759739696979523,-0.019089538604021072,-14.264835357666016,37.4451904296875,-28.500438690185547
0.55,0.6245266795158386,-9.120243072509766,-0.7106683254241943,0.07024950534105301,-0.1797470897436142,-0.031612277030944824,-14.367143630981445,37.51826858520508,-28.63197898864746
0.56,0.8985048532485962,-9.129814147949219,-0.6221339106559753,0.09269880503416061,-0.2321287989616394,-0.04199698567390442,-14.63022518157959,37.41596221923828,-28.573516845703125
0.57,1.00259268283844,-9.282955169677734,-0.4247260093688965,0.10949759185314178,-0.28008171916007996,-0.04046982154250145,-14.337912559509277,37.50365447998047,-28.17889404296875
0.58,0.9930213689804077,-9.482755661010742,-0.25244277715682983,0.11591167747974396,-0.3248275816440582,-0.03497203439474106,-14.644840240478516,37.69365692138672,-29.128910064697266
0.6,0.8315058350563049,-10.204191207885742,-0.1339980661869049,0.10155634582042694,-0.39125916361808777,-0.07238753139972687,-13.694826126098633,37.679039001464844,-27.959659576416016
0.604,0.8099704384803772,-10.346565246582031,-0.1902294009923935,0.09529497474431992,-0.4031710624694824,-0.09758572280406952,-14.498684883117676,37.56211853027344,-28.441978454589844
0.61,0.8147560954093933,-10.461421012878418,-0.3649054169654846,0.08857545256614685,-0.4164573848247528,-0.14844025671482086,-14.11867904663086,37.8251953125,-29.26045036315918
0.62,0.8614161610603333,-10.62413215637207,-0.5096712112426758,0.07971791177988052,-0.44364088773727417,-0.23869559168815613,-13.870213508605957,37.79596710205078,-28.1496639251709
0.63,0.9475577473640442,-10.835896492004395,-0.5910272002220154,0.06414084881544113,-0.4908302128314972,-0.33108893036842346,-13.972522735595703,37.94212341308594,-29.026599884033203
0.64,0.9607182741165161,-10.972288131713867,-0.62931227684021,0.03787364438176155,-0.5371032357215881,-0.39996400475502014,-13.914060592651367,37.73750305175781,-28.251972198486328
0.653,0.9355936050415039,-10.934002876281738,-0.638883650302887,0.01191187184303999,-0.5852088928222656,-0.4444044530391693,-13.855597496032715,38.278282165527344,-29.333528518676758
0.66,0.9415756464004517,-10.752148628234863,-0.6508477926254272,0.0004581489192787558,-0.613461434841156,-0.44394633173942566,-13.49020767211914,38.04443359375,-28.924291610717773
0.67,0.8685945868492126,-10.549954414367676,-0.6879364848136902,-0.0039706239476799965,-0.6517932415008545,-0.4395175576210022,-13.899443626403809,38.08827590942383,-28.646595001220703
0.68,0.787238597869873,-10.526025772094727,-0.7286145091056824,-0.006719517521560192,-0.688903272151947,-0.44715335965156555,-13.680211067199707,37.839813232421875,-28.924291610717773
0.69,0.7322037220001221,-10.535597801208496,-0.7417749762535095,-0.015271631069481373,-0.720820963382721,-0.46532657742500305,-13.943290710449219,37.56211853027344,-28.52967071533203
0.71,0.6699903011322021,-10.453045845031738,-0.6879364848136902,-0.04306599870324135,-0.755182147026062,-0.4899139106273651,-13.680211067199707,38.08827590942383,-28.953521728515625
0.713,0.4402793347835541,-10.201799392700195,-0.7465606331825256,-0.08292495459318161,-0.763428807258606,-0.5096142888069153,-13.738672256469727,38.45366668701172,-28.763521194458008
0.72,0.3613162338733673,-10.067800521850586,-0.7118647694587708,-0.10216721147298813,-0.7577782869338989,-0.5233587622642517,-13.840982437133789,38.219818115234375,-29.216602325439453
0.73,0.2823530435562134,-9.92303466796875,-0.6532405614852905,-0.13255774974822998,-0.7408268451690674,-0.5340489149093628,-13.782519340515137,38.1028938293457,-29.538145065307617
0.74,0.26440688967704773,-9.9469633102417,-0.5838487148284912,-0.16569718718528748,-0.7145596146583557,-0.5351179242134094,-13.928675651550293,38.71674728393555,-29.333528518676758
0.75,0.25004997849464417,-10.009177207946777,-0.5359922647476196,-0.19486600160598755,-0.6885978579521179,-0.5384777188301086,-14.425606727600098,39.038291931152344,-29.391992568969727
0.769,0.35533416271209717,-10.027122497558594,-0.3732803165912628,-0.24068090319633484,-0.6618725061416626,-0.5412266254425049,-13.753289222717285,38.73136520385742,-28.778135299682617
0.773,0.37926235795021057,-9.93978500366211,-0.38763725757598877,-0.3075706362724304,-0.6155994534492493,-0.5574145317077637,-14.162525177001953,38.599822998046875,-27.901199340820312
0.78,0.4163511395454407,-9.77707290649414,-0.3672982454299927,-0.34315353631973267,-0.5925393104553223,-0.5786421298980713,-14.235603332519531,38.90675354003906,-28.485822677612305
0.79,0.5204389095306396,-9.597611427307129,-0.41515469551086426,-0.3767511248588562,-0.5499314665794373,-0.6059783101081848,-14.001753807067871,38.570594787597656,-28.16427993774414
0.8,0.6508477926254272,-9.507880210876465,-0.4809573292732239,-0.40225476026535034,-0.498924195766449,-0.6319400668144226,-14.323297500610352,38.67290496826172,-29.085063934326172
0.81,0.7908278107643127,-9.431309700012207,-0.5635097026824951,-0.41034871339797974,-0.4662429094314575,-0.6485861539840698,-14.337912559509277,38.7459831237793,-29.143524169921875
0.83,0.9643074870109558,-9.397810935974121,-0.5503491759300232,-0.41111230850219727,-0.4470006227493286,-0.6663012504577637,-14.63022518157959,38.8629035949707,-28.222742080688477
0.833,1.1569297313690186,-9.345169067382812,-0.6029912829399109,-0.40653079748153687,-0.4109595715999603,-0.6898195743560791,-14.776381492614746,39.038291931152344,-28.018123626708984
0.84,1.262213945388794,-9.345169067382812,-0.6197410225868225,-0.4046982228755951,-0.40393462777137756,-0.7041748762130737,-14.527915000915527,38.8629035949707,-27.871967315673828
0.85,1.5242280960083008,-9.430113792419434,-0.6125625967979431,-0.4069889783859253,-0.40225476026535034,-0.7266241908073425,-14.893306732177734,38.64366912841797,-27.287343978881836
0.86,1.672582983970642,-9.549755096435547,-0.6819544434547424,-0.4138611853122711,-0.40485095977783203,-0.7496843934059143,-14.674072265625,38.833675384521484,-26.848873138427734
0.87,1.9417754411697388,-9.69810962677002,-0.7393822073936462,-0.42149701714515686,-0.413555771112442,-0.7658722400665283,-15.375621795654297,38.96521759033203,-27.681964874267578
0.89,1.9094724655151367,-9.757929801940918,-0.7525426745414734,-0.4358523488044739,-0.42210787534713745,-0.764345109462738,-15.22946548461914,38.8629035949707,-27.126571655273438
0.893,1.868794322013855,-9.716055870056152,-0.8578268885612488,-0.4473060667514801,-0.4326452910900116,-0.7648032903671265,-15.85793685913086,39.30137634277344,-26.99502944946289
0.9,2.0003998279571533,-9.671788215637207,-0.9032905101776123,-0.4482223689556122,-0.4384485185146332,-0.7689266204833984,-15.56562328338623,38.71674728393555,-26.95118522644043
0.91,1.9298113584518433,-9.649056434631348,-0.9343971610069275,-0.44119739532470703,-0.4534147381782532,-0.7739662528038025,-16.07716941833496,38.89213943481445,-27.024263381958008
0.92,1.9465612173080444,-9.586843490600586,-0.9918249249458313,-0.4303545355796814,-0.45784348249435425,-0.7747297883033752,-16.106401443481445,38.848289489746094,-27.60888671875
0.93,1.9537396430969238,-9.561718940734863,-0.9906285405158997,-0.42531490325927734,-0.4521929919719696,-0.7762569785118103,-16.60333251953125,39.49137496948242,-27.185035705566406
0.95,1.9657037258148193,-9.481559753417969,-1.0683952569961548,-0.42867469787597656,-0.43799036741256714,-0.7748825550079346,-16.413330078125,38.96521759033203,-27.009645462036133
0.953,2.008774518966675,-9.373882293701172,-1.2167502641677856,-0.4222606122493744,-0.39584067463874817,-0.7588472962379456,-17.202571868896484,38.97983169555664,-26.351943969726562
0.96,1.9298113584518433,-9.339186668395996,-1.2658032178878784,-0.41493022441864014,-0.37598752975463867,-0.7444919943809509,-16.42794418334961,38.468284606933594,-27.360422134399414
0.97,1.9405790567398071,-9.372685432434082,-1.3734800815582275,-0.3962987959384918,-0.33826664090156555,-0.7269296646118164,-17.056415557861328,38.71674728393555,-25.942707061767578
0.98,2.001595973968506,-9.415757179260254,-1.4021941423416138,-0.38026362657546997,-0.30436357855796814,-0.7147123217582703,-17.23180389404297,38.585208892822266,-26.366558074951172
0.99,2.1750757694244385,-9.418149948120117,-1.4871392250061035,-0.36621370911598206,-0.2834414541721344,-0.7011205554008484,-17.056415557861328,39.24291229248047,-26.161941528320312
1.009,2.6021945476531982,-9.399006843566895,-1.6498512029647827,-0.3426953852176666,-0.247094988822937,-0.6592763066291809,-17.61180877685547,39.30137634277344,-25.080385208129883
1.013,2.6464619636535645,-9.407382011413574,-1.6941183805465698,-0.33490684628486633,-0.2393064647912979,-0.6417139768600464,-17.9918155670166,38.87752151489258,-25.650394439697266
1.02,2.7601208686828613,-9.404989242553711,-1.7647066116333008,-0.32391127943992615,-0.22708913683891296,-0.6155994534492493,-17.52411651611328,38.71674728393555,-25.89885902404785
1.03,2.80558443069458,-9.396614074707031,-1.7611173391342163,-0.31154128909111023,-0.21945331990718842,-0.5729916095733643,-17.962583541870117,38.819061279296875,-25.591930389404297
1.04,2.8486552238464355,-9.30209732055664,-1.7682960033416748,-0.294895201921463,-0.22220222651958466,-0.5262603759765625,-18.211048126220703,38.92136764526367,-25.825780868530273
1.05,2.9527430534362793,-9.239884376525879,-1.7491532564163208,-0.2791654169559479,-0.24694228172302246,-0.4784601926803589,-17.88950538635254,39.038291931152344,-25.723472595214844
1.07,2.898904800415039,-9.174081802368164,-1.7096717357635498,-0.22418753802776337,-0.2816088795661926,-0.3877466917037964,-18.35720443725586,39.19906234741211,-24.96346092224121
1.073,3.091526985168457,-9.245866775512695,-1.7395819425582886,-0.20983220636844635,-0.2955060601234436,-0.3660609722137451,-18.386436462402344,38.92136764526367,-25.007307052612305
1.08,2.8773691654205322,-9.273384094238281,-1.750349760055542,-0.19120082259178162,-0.3039054572582245,-0.32910364866256714,-17.947969436645508,38.43905258178711,-25.855012893676758
1.09,2.7457637786865234,-9.378667831420898,-1.7742778062820435,-0.16523903608322144,-0.2971859276294708,-0.2791654169559479,-18.28412628173828,39.08213806152344,-24.612686157226562
1.2,2.20737886428833,-10.140782356262207,-1.1629117727279663,0.07742717117071152,-0.11972958594560623,0.4294382631778717,-17.52411651611328,39.00905990600586,-24.334989547729492
1.21,1.6713865995407104,-10.12881851196289,-1.0325030088424683,0.0277943667024374,-0.10293079167604446,0.4482223689556122,-17.757965087890625,39.30137634277344,-24.94884490966797
1.22,1.2335000038146973,-10.05583667755127,-1.0887342691421509,-0.003359758760780096,-0.03405573591589928,0.45585817098617554,-17.304880142211914,39.1259880065918,-24.97807502746582
1.23,0.8901299834251404,-9.859625816345215,-1.2897313833236694,0.003512475173920393,0.043218713253736496,0.4642575979232788,-17.42180633544922,38.93598175048828,-25.606548309326172
1.246,0.6484549045562744,-9.635896682739258,-1.3663017749786377,0.04612032324075699,0.16462817788124084,0.48609599471092224,-17.129493713378906,39.155216217041016,-24.39345359802246
1.25,0.6113661527633667,-9.597611427307129,-1.397408366203308,0.06414084881544113,0.20601430535316467,0.4948008358478546,-17.173341751098633,39.1844482421875,-24.59807014465332
1.26,0.6113661527633667,-9.46480941772461,-1.3698909282684326,0.11071932315826416,0.3006984293460846,0.5248859524726868,-16.807950973510742,39.038291931152344,-24.70037841796875
1.27,0.6484549045562744,-9.347561836242676,-1.239482045173645,0.15592335164546967,0.4173736572265625,0.5818491578102112,-16.69102668762207,39.35983657836914,-25.05115509033203
1.28,0.576670229434967,-9.262616157531738,-1.1294121742248535,0.17852537333965302,0.4954116940498352,0.6310237646102905,-16.340251922607422,39.330604553222656,-24.74422836303711
1.29,0.46061834692955017,-9.144170761108398,-0.9906285405158997,0.18157969415187836,0.5647448897361755,0.671493649482727,-16.661794662475586,39.1844482421875,-24.802688598632812
1.303,0.2225324958562851,-9.06879711151123,-1.093519926071167,0.16508632898330688,0.6162103414535522,0.6849326491355896,-16.2525577545166,39.24291229248047,-25.036537170410156
1.31,0.10767702013254166,-9.042476654052734,-1.1928220987319946,0.16554446518421173,0.6336199641227722,0.6763805150985718,-16.70564079284668,38.87752151489258,-25.15346336364746
1.32,0.019142581149935722,-9.016155242919922,-1.2454640865325928,0.17852537333965302,0.6542366743087769,0.6600399017333984,-16.851797103881836,39.213680267333984,-24.904998779296875
1.33,0.06939185410737991,-8.980262756347656,-1.2370892763137817,0.19120082259178162,0.6695082783699036,0.6621778607368469,-16.398714065551758,39.24291229248047,-24.77345848083496
1.34,0.17228323221206665,-8.897710800170898,-1.1856435537338257,0.20173825323581696,0.6684393286705017,0.6844744682312012,-16.32563591003418,38.64366912841797,-24.714996337890625
1.359,0.2632104754447937,-8.815157890319824,-1.1868400573730469,0.20815233886241913,0.6511823534965515,0.717308521270752,-16.208711624145508,39.213680267333984,-24.13037109375
1.363,0.22372892498970032,-8.71107006072998,-1.200000524520874,0.2174680233001709,0.5884159207344055,0.7521278262138367,-16.194095611572266,39.023677825927734,-24.96346092224121
1.37,0.09930214285850525,-8.721837997436523,-1.1940184831619263,0.2220495045185089,0.5258022546768188,0.7661777138710022,-15.828704833984375,39.929847717285156,-24.057292938232422
1.38,-0.33379876613616943,-8.784051895141602,-1.2335000038146973,0.23060162365436554,0.46547931432724,0.7692320346832275,-16.35486602783203,39.403682708740234,-24.94884490966797
1.39,-0.7369893193244934,-8.890532493591309,-1.25862455368042,0.24159719049930573,0.42149701714515686,0.7715228199958801,-16.06255531311035,39.35983657836914,-24.641918182373047
1.4,-1.2514461278915405,-9.058029174804688,-1.2669994831085205,0.256868839263916,0.408974289894104,0.763428807258606,-15.56562328338623,39.25752639770508,-24.422683715820312
1.42,-1.7180465459823608,-9.323633193969727,-1.2323036193847656,0.2727513313293457,0.4375322163105011,0.7502952218055725,-15.434082984924316,39.140602111816406,-25.34346580505371
1.423,-2.1056838035583496,-9.735198020935059,-1.124626636505127,0.29764407873153687,0.5578727126121521,0.7214318513870239,-15.434082984924316,39.023677825927734,-25.168079376220703
1.43,-2.1810576915740967,-9.996016502380371,-1.1294121742248535,0.312304824590683,0.6447682976722717,0.7098253965377808,-15.4633150100708,39.24291229248047,-24.13037109375
1.44,-2.128415822982788,-10.222138404846191,-1.1054840087890625,0.327729195356369,0.7747297883033752,0.688903272151947,-15.083308219909668,38.96521759033203,-24.87576675415039
1.45,-2.0039889812469482,-10.381260871887207,-1.1868400573730469,0.33979377150535583,0.9048441052436829,0.6765332818031311,-14.717918395996094,39.05290985107422,-25.15346336364746
1.46,-1.8580267429351807,-10.39801025390625,-1.2897313833236694,0.35445454716682434,1.0225883722305298,0.663705050945282,-15.492546081542969,38.99444580078125,-25.25577163696289
1.48,-1.6223337650299072,-10.487741470336914,-1.3280165195465088,0.36682456731796265,1.1207849979400635,0.6629414558410645,-15.054078102111816,38.90675354003906,-24.75884246826172
1.483,-1.164108157157898,-10.466205596923828,-1.3351950645446777,0.3637702465057373,1.2405145168304443,0.6818782687187195,-15.214850425720215,39.1259880065918,-25.007307052612305
1.49,-0.9702895283699036,-10.365707397460938,-1.2981061935424805,0.35323283076286316,1.279762625694275,0.7018841505050659,-15.390236854553223,39.1259880065918,-24.919614791870117
1.5,-0.6867400407791138,-10.185050010681152,-1.2610174417495728,0.33490684628486633,1.309389591217041,0.7342600226402283,-15.112540245056152,39.418296813964844,-25.22654151916504
1.51,-0.4091726541519165,-10.035497665405273,-1.2131609916687012,0.31154128909111023,1.3158036470413208,0.76846843957901,-15.244080543518066,39.593685150146484,-24.49576187133789
1.52,-0.15194423496723175,-9.865607261657715,-1.160519003868103,0.28130343556404114,1.2979358434677124,0.7996225953102112,-15.755626678466797,39.05290985107422,-24.59807014465332
1.54,0.008374879136681557,-9.656235694885254,-1.0995019674301147,0.24373522400856018,1.2487612962722778,0.8358163237571716,-15.448699951171875,39.330604553222656,-24.437299728393555
1.544,0.28953152894973755,-9.433703422546387,-1.0959126949310303,0.2076941728591919,1.1888965368270874,0.8600982427597046,-15.28792667388916,39.345218658447266,-24.2911434173584
1.55,0.14476576447486877,-9.30927562713623,-1.1904292106628418,0.18799376487731934,1.1527026891708374,0.8772024512290955,-15.770242691040039,39.47676086425781,-23.998830795288086
1.56,0.20458632707595825,-9.169296264648438,-1.3244272470474243,0.1748601794242859,1.1076513528823853,0.8924740552902222,-15.331774711608887,39.140602111816406,-25.007307052612305
1.57,0.06221338361501694,-9.07119083404541,-1.3986047506332397,0.1742493212223053,1.0821477174758911,0.9088147878646851,-15.28792667388916,39.60830307006836,-25.489622116088867
1.58,-0.1782652735710144,-8.995816230773926,-1.4763715267181396,0.1823432743549347,1.0598511695861816,0.9039278030395508,-15.507162094116211,38.90675354003906,-25.67962646484375
1.6,-0.31824538111686707,-8.928817749023438,-1.5278172492980957,0.194713294506073,1.0554224252700806,0.8863654732704163,-15.346389770507812,39.579071044921875,-25.065771102905273
1.604,-0.4941178560256958,-9.013762474060059,-1.534995675086975,0.20693059265613556,1.085965633392334,0.8549058437347412,-14.980999946594238,38.70213317871094,-24.992692947387695
1.61,-0.3672982454299927,-9.034101486206055,-1.470389485359192,0.2122756689786911,1.0936014652252197,0.8437576293945312,-15.258696556091309,38.804443359375,-24.890382766723633
1.62,-0.3517449200153351,-9.102296829223633,-1.444068431854248,0.22113321721553802,1.1246027946472168,0.8272642493247986,-15.784857749938965,38.71674728393555,-25.29962158203125
1.63,-0.2679961323738098,-9.175277709960938,-1.428515076637268,0.2405281811952591,1.1733193397521973,0.8055785298347473,-15.01023006439209,39.16983413696289,-24.68576431274414
1.64,-0.1746760457754135,-9.259027481079102,-1.4572290182113647,0.2541199326515198,1.2073750495910645,0.7887797355651855,-15.4633150100708,39.28675842285156,-24.890382766723633
1.661,0.07657032459974289,-9.343972206115723,-1.5050853490829468,0.26969701051712036,1.2333369255065918,0.7704537510871887,-15.784857749938965,38.97983169555664,-24.802688598632812
1.665,0.4989035129547119,-9.394221305847168,-1.5409777164459229,0.27809640765190125,1.231046199798584,0.7426593899726868,-15.624086380004883,38.96521759033203,-24.48114585876465
1.67,0.5551348328590393,-9.396614074707031,-1.574477195739746,0.2773328125476837,1.216843605041504,0.7354817390441895,-15.624086380004883,39.140602111816406,-24.46653175354004
1.68,0.8422735333442688,-9.364311218261719,-1.6857434511184692,0.27320948243141174,1.1514809131622314,0.7144068479537964,-15.828704833984375,38.4244384765625,-25.197309494018555
1.69,1.0456634759902954,-9.279365539550781,-1.8245272636413574,0.2675589621067047,1.08718740940094,0.7102835774421692,-15.711779594421387,38.89213943481445,-24.641918182373047
1.7,1.1617152690887451,-9.214759826660156,-1.903490424156189,0.2695443034172058,0.9940304756164551,0.6982190012931824,-15.989476203918457,39.1259880065918,-25.021923065185547
1.72,1.3399806022644043,-9.134600639343262,-1.9106688499450684,0.2802344262599945,0.7428121566772461,0.6879869699478149,-15.901782989501953,39.30137634277344,-25.12423324584961
1.723,1.25862455368042,-9.232706069946289,-1.8544374704360962,0.28267788887023926,0.6733261942863464,0.6853907704353333,-16.223325729370117,38.819061279296875,-25.13884925842285
1.73,1.3794622421264648,-9.31166934967041,-1.781456470489502,0.279928982257843,0.570242702960968,0.6759223937988281,-15.551008224487305,39.19906234741211,-25.591930389404297
1.74,1.0037890672683716,-9.476773262023926,-1.6929219961166382,0.26862797141075134,0.43218716979026794,0.6574437022209167,-16.281789779663086,39.1259880065918,-24.831920623779297
1.75,0.7585247159004211,-9.647860527038574,-1.5589239597320557,0.2460259646177292,0.31062498688697815,0.6249151229858398,-15.624086380004883,39.28675842285156,-24.70037841796875
1.76,0.31106695532798767,-9.759126663208008,-1.5517455339431763,0.21288654208183289,0.2298380434513092,0.5786421298980713,-15.390236854553223,39.05290985107422,-24.56884002685547
1.781,-0.06221338361501694,-9.69212818145752,-1.6163517236709595,0.18646661937236786,0.19028452038764954,0.5210680365562439,-15.097925186157227,38.775211334228516,-24.39345359802246
1.784,-0.4654039740562439,-9.637092590332031,-1.6893328428268433,0.17409659922122955,0.15913039445877075,0.4343251883983612,-15.097925186157227,39.929847717285156,-24.890382766723633
1.79,-0.5276173949241638,-9.590433120727539,-1.6773686408996582,0.17806722223758698,0.15302173793315887,0.38667771220207214,-14.995615005493164,39.4621467590332,-24.612686157226562
1.8,-0.7046862840652466,-9.55095100402832,-1.6462620496749878,0.18555031716823578,0.1514945775270462,0.32589662075042725,-15.024847030639648,39.140602111816406,-25.036537170410156
1.81,-0.6281159520149231,-9.626324653625488,-1.5708880424499512,0.1895209401845932,0.1699732542037964,0.2721404433250427,-15.492546081542969,39.31599044799805,-24.70037841796875
1.82,-0.5455635190010071,-9.650253295898438,-1.5720844268798828,0.18539761006832123,0.1765400469303131,0.222965806722641,-15.214850425720215,39.330604553222656,-25.34346580505371
1.839,-0.41994035243988037,-9.67657470703125,-1.5972089767456055,0.18585574626922607,0.1817324161529541,0.1485929638147354,-14.820228576660156,39.038291931152344,-25.635778427124023
1.843,-0.0849451944231987,-9.78425121307373,-1.6857434511184692,0.18707747757434845,0.17211127281188965,0.13545936346054077,-15.22946548461914,39.330604553222656,-25.665008544921875
1.85,-0.05862415209412575,-9.80817985534668,-1.7922240495681763,0.19074267148971558,0.1485929638147354,0.12476921826601028,-15.41946792602539,39.73984146118164,-25.358083724975586
1.86,0.03110669180750847,-9.906285285949707,-1.9250258207321167,0.20494529604911804,0.11881328374147415,0.11331550031900406,-15.14177131652832,39.25752639770508,-26.220401763916016
1.87,0.044267214834690094,-10.135995864868164,-1.9633108377456665,0.21395555138587952,0.08536841720342636,0.10216721147298813,-15.784857749938965,39.769073486328125,-25.25577163696289
1.88,0.22612173855304718,-10.401598930358887,-1.8424733877182007,0.2151772677898407,0.030085112899541855,0.08231408894062042,-15.755626678466797,39.403682708740234,-25.591930389404297
1.899,0.2464607208967209,-10.85145092010498,-1.683350682258606,0.2054034322500229,-0.13148874044418335,0.015577062964439392,-15.244080543518066,39.374454498291016,-25.723472595214844
1.904,0.3696911036968231,-11.839686393737793,-1.1258230209350586,0.19349156320095062,-0.17867808043956757,-0.009468411095440388,-15.56562328338623,39.5059928894043,-25.957321166992188
1.91,0.4773681163787842,-12.223733901977539,-0.8757730722427368,0.16401731967926025,-0.2664899528026581,-0.06108652427792549,-15.667933464050293,39.4621467590332,-25.694242477416992
1.92,0.45224347710609436,-12.254840850830078,-0.9451649785041809,0.1039998009800911,-0.403781920671463,-0.14309518039226532,-15.536393165588379,39.60830307006836,-25.31423568725586
1.93,0.19740787148475647,-12.007183074951172,-1.4045867919921875,0.06352998316287994,-0.5435173511505127,-0.222965806722641,-15.79947280883789,39.35983657836914,-26.103479385375977
1.94,-0.11485548317432404,-11.736795425415039,-1.753938913345337,0.06780604273080826,-0.6843218207359314,-0.3113885521888733,-15.41946792602539,39.447532653808594,-26.147327423095703
1.96,-0.3924228847026825,-11.283354759216309,-1.5529417991638184,0.11392636597156525,-0.8686503767967224,-0.38209620118141174,-15.638701438903809,39.900611877441406,-26.629642486572266
1.963,-0.40677982568740845,-11.25105094909668,-1.53858482837677,0.1160643994808197,-0.8900306224822998,-0.38499781489372253,-15.22946548461914,39.87138366699219,-27.126571655273438
1.97,-0.5312066078186035,-11.187642097473145,-1.4739786386489868,0.12095130980014801,-0.9512698650360107,-0.39416077733039856,-15.302543640136719,39.900611877441406,-26.702720642089844
1.98,-0.5527420043945312,-11.163713455200195,-1.3758729696273804,0.1212567538022995,-1.0267117023468018,-0.408974289894104,-15.054078102111816,40.29523468017578,-25.825780868530273
1.99,-0.5682953596115112,-11.13619613647461,-1.2382856607437134,0.10613783448934555,-1.1233811378479004,-0.44364088773727417,-14.790996551513672,40.48523712158203,-26.205787658691406
2.0,-0.4929214417934418,-11.216355323791504,-0.8566304445266724,0.06841690838336945,-1.2131783962249756,-0.47540587186813354,-15.448699951171875,40.64601135253906,-27.111955642700195
2.012,-0.39960137009620667,-11.290533065795898,-0.3696911036968231,-0.007788531482219696,-1.342529058456421,-0.512210488319397,-14.937153816223145,40.48523712158203,-26.731950759887695
2.02,-0.3888336718082428,-11.203194618225098,-0.09451649338006973,-0.0679587572813034,-1.4271339178085327,-0.5287038683891296,-14.849458694458008,40.002925872802734,-26.351943969726562
2.03,-0.40797626972198486,-10.88853931427002,0.11246266216039658,-0.15195272862911224,-1.5277739763259888,-0.5424483418464661,-14.922536849975586,40.45600509643555,-25.89885902404785
2.04,-0.503689169883728,-10.463812828063965,0.29312074184417725,-0.2577851414680481,-1.633301019668579,-0.5600107312202454,-14.323297500610352,40.03215408325195,-26.43963623046875
2.05,-0.6065804958343506,-9.81416130065918,0.39481574296951294,-0.3344487249851227,-1.7018705606460571,-0.5815436840057373,-14.410990715026855,40.514469146728516,-26.381174087524414
2.06,-0.760917603969574,-9.375079154968262,0.4283152222633362,-0.39736783504486084,-1.7498234510421753,-0.6055201292037964,-14.571762084960938,40.10523223876953,-26.52733039855957
2.076,-0.7633103728294373,-8.967103004455566,0.751346230506897,-0.47021350264549255,-1.8102991580963135,-0.6479753255844116,-14.469453811645508,40.339080810546875,-27.126571655273438
2.08,-0.760917603969574,-8.950352668762207,0.8985048532485962,-0.4914410710334778,-1.8286250829696655,-0.6606507897377014,-13.943290710449219,40.35369873046875,-27.009645462036133
2.09,-0.714257538318634,-9.034101486206055,1.2227323055267334,-0.5320636034011841,-1.8881844282150269,-0.6927211284637451,-13.987138748168945,40.777549743652344,-26.483484268188477
2.1,-0.7920242547988892,-9.278169631958008,1.6139588356018066,-0.5656611919403076,-1.9475911855697632,-0.7205155491828918,-13.344051361083984,40.309852600097656,-26.61502456665039
2.111,-1.0923235416412354,-9.66819953918457,1.8664016723632812,-0.6047565937042236,-2.0088303089141846,-0.7567093372344971,-13.592517852783203,40.42677688598633,-26.30809783935547
2.129,-1.5708880424499512,-9.943374633789062,1.9369899034500122,-0.6459900140762329,-2.051438093185425,-0.8199338316917419,-12.817889213562012,40.134464263916016,-26.366558074951172
2.133,-2.3150558471679688,-10.240083694458008,1.8233308792114258,-0.7092145085334778,-2.0389153957366943,-0.9648616313934326,-13.504822731018066,39.91522979736328,-26.0304012298584
2.14,-2.772084951400757,-10.365707397460938,1.5936198234558105,-0.7287622690200806,-2.0094411373138428,-1.0192285776138306,-13.300204277038574,39.68138122558594,-26.556564331054688
2.15,-3.3403801918029785,-10.457830429077148,1.2406784296035767,-0.7577782869338989,-1.8387043476104736,-1.1505646705627441,-13.504822731018066,39.98830795288086,-25.88424301147461
2.16,-3.860819101333618,-10.49970531463623,0.769292414188385,-0.7683157920837402,-1.6099352836608887,-1.245248794555664,-12.949429512023926,39.213680267333984,-25.13884925842285
2.17,-3.968496322631836,-10.431509971618652,0.4091726541519165,-0.7719809412956238,-1.3203850984573364,-1.3148874044418335,-13.387897491455078,39.68138122558594,-25.635778427124023
2.188,-3.7184462547302246,-10.262815475463867,0.13519448041915894,-0.765566885471344,-1.0227410793304443,-1.352913737297058,-13.519438743591309,39.49137496948242,-25.650394439697266
2.192,-2.964707136154175,-10.131211280822754,-0.1052841916680336,-0.7518223524093628,-0.6994407176971436,-1.3617713451385498,-14.45483684539795,39.75445556640625,-25.518856048583984
2.2,-2.342573404312134,-10.01874828338623,-0.2632104754447937,-0.7295258641242981,-0.5021312236785889,-1.352913737297058,-14.337912559509277,39.79830551147461,-25.080385208129883
2.21,-1.384247899055481,-9.79262638092041,-0.5491527915000916,-0.6867652535438538,-0.38438695669174194,-1.3477214574813843,-15.083308219909668,39.75445556640625,-24.68576431274414
2.22,-0.5359922647476196,-9.610772132873535,-0.5084748268127441,-0.6472117304801941,-0.3604104816913605,-1.351386547088623,-15.054078102111816,39.1259880065918,-25.13884925842285
2.23,0.20817556977272034,-9.408578872680664,-0.3720839321613312,-0.621097207069397,-0.39217546582221985,-1.3419182300567627,-15.667933464050293,38.950599670410156,-25.065771102905273
2.249,0.8350950479507446,-9.249455451965332,-0.2871387004852295,-0.6136141419410706,-0.4628831148147583,-1.3095422983169556,-16.32563591003418,38.71674728393555,-25.007307052612305
2.253,1.3914263248443604,-9.218348503112793,-0.19142581522464752,-0.5968153476715088,-0.587652325630188,-1.2220358848571777,-16.413330078125,39.06752395629883,-24.203449249267578
2.26,1.6319050788879395,-9.218348503112793,-0.10767702013254166,-0.5920811891555786,-0.6760751008987427,-1.167057991027832,-16.35486602783203,39.023677825927734,-24.086524963378906
2.27,1.6677974462509155,-9.138189315795898,-0.20578275620937347,-0.5911648273468018,-0.7947356700897217,-1.0832167863845825,-17.012569427490234,38.7459831237793,-24.188833236694336
2.28,1.444068431854248,-9.060422897338867,-0.43190446496009827,-0.5490151047706604,-0.8923214077949524,-1.0230464935302734,-17.53873062133789,38.395206451416016,-23.794212341308594
2.29,0.7764708995819092,-9.164510726928711,-0.33020952343940735,-0.508087158203125,-0.9462302327156067,-0.9813550114631653,-17.97719955444336,38.70213317871094,-22.493423461914062
2.31,0.26081767678260803,-9.218348503112793,-0.2667997181415558,-0.4925100803375244,-0.901637077331543,-0.9430232048034668,-17.480268478393555,38.64366912841797,-23.136510848999023
2.314,-0.1375872939825058,-9.253045082092285,-0.2787638306617737,-0.49586984515190125,-0.7368561625480652,-0.912327229976654,-18.06489372253418,38.87752151489258,-22.66880989074707
2.32,-0.1698903888463974,-9.275776863098145,-0.32183465361595154,-0.49357911944389343,-0.5972734689712524,-0.902553379535675,-18.00642967224121,38.278282165527344,-23.22420310974121
2.33,0.0,-9.363115310668945,-0.35413771867752075,-0.48090362548828125,-0.45555275678634644,-0.9020951986312866,-17.933351516723633,38.93598175048828,-22.47880744934082
2.34,0.11844471842050552,-9.406185150146484,-0.5623133182525635,-0.4686863422393799,-0.31291571259498596,-0.9095783829689026,-18.240280151367188,38.1467399597168,-23.706518173217773
2.35,0.2512463629245758,-9.436095237731934,-0.8243273496627808,-0.43707406520843506,-0.17791450023651123,-0.9330966472625732,-18.88336753845215,37.92750549316406,-22.332651138305664
2.37,0.5539384484291077,-9.390631675720215,-0.9020940661430359,-0.42638394236564636,-0.10201448947191238,-0.9550877809524536,-18.605670928955078,37.81058120727539,-23.39959144592285
2.373,0.7657032608985901,-9.17886734008789,-1.1976077556610107,-0.39904773235321045,0.06108652427792549,-0.9428704977035522,-18.985675811767578,37.91289138793945,-21.8503360748291
2.38,1.007378339767456,-9.09392261505127,-1.3351950645446777,-0.3675881624221802,0.13988813757896423,-0.9275988340377808,-19.584917068481445,37.51826858520508,-22.259572982788086
2.39,1.5720844268798828,-9.129814147949219,-1.368694543838501,-0.32039880752563477,0.21166479587554932,-0.8946121335029602,-19.511838912963867,37.50365447998047,-21.806488037109375
2.4,2.0650060176849365,-8.986245155334473,-1.5649060010910034,-0.2635883390903473,0.23228150606155396,-0.8316929936408997,-19.877227783203125,37.050567626953125,-22.405729293823242
2.41,2.4849462509155273,-8.83669376373291,-1.7204394340515137,-0.21578815579414368,0.18646661937236786,-0.7808384895324707,-21.20724868774414,37.635196685791016,-21.00263023376465
2.43,3.0173492431640625,-8.707481384277344,-1.5756735801696777,-0.19135352969169617,0.0858265683054924,-0.726471483707428,-22.084184646606445,37.26980209350586,-21.938030242919922
2.433,3.263810157775879,-8.507680892944336,-1.4656038284301758,-0.1944078654050827,-0.0708603635430336,-0.6505715250968933,-21.324174880981445,36.96287536621094,-21.01724624633789
2.44,3.3020951747894287,-8.315058708190918,-1.5098711252212524,-0.194713294506073,-0.16951508820056915,-0.5943718552589417,-21.82110595703125,36.69979476928711,-21.528793334960938
2.45,3.249452829360962,-8.185846328735352,-1.5337992906570435,-0.18478672206401825,-0.290313720703125,-0.5233587622642517,-21.952646255493164,37.299034118652344,-20.695703506469727
2.46,3.0376882553100586,-8.188239097595215,-1.5254243612289429,-0.16279558837413788,-0.40744709968566895,-0.4352414906024933,-22.1718807220459,36.6851806640625,-21.178016662597656
2.47,2.9012973308563232,-8.402396202087402,-1.588834285736084,-0.1492038369178772,-0.4879285991191864,-0.375071257352829,-22.318035125732422,36.99210739135742,-20.534931182861328
2.49,2.6141586303710938,-8.630910873413086,-1.6295121908187866,-0.13775010406970978,-0.5242750644683838,-0.32391127943992615,-22.011106491088867,36.26132583618164,-19.394912719726562
2.493,2.400001049041748,-8.956335067749023,-1.7156537771224976,-0.13179416954517365,-0.4977024495601654,-0.25763240456581116,-21.83572006225586,36.655948638916016,-20.140310287475586
2.5,2.3856441974639893,-9.087940216064453,-1.8221343755722046,-0.13072516024112701,-0.4764748811721802,-0.23686298727989197,-21.718795776367188,36.26132583618164,-20.4326229095459
2.51,2.1332013607025146,-9.139386177062988,-2.0135602951049805,-0.1134682148694992,-0.38347065448760986,-0.19013181328773499,-21.908798217773438,36.39286804199219,-19.760305404663086
2.52,2.183450698852539,-9.181260108947754,-2.1619153022766113,-0.08170322328805923,-0.30054569244384766,-0.14477506279945374,-21.689563751220703,36.31978988647461,-20.695703506469727
2.53,2.2887346744537354,-9.1716890335083,-2.2097716331481934,-0.0503963828086853,-0.22311851382255554,-0.09147706627845764,-22.259572982788086,36.50979232788086,-20.724933624267578
2.55,2.4263219833374023,-9.22313404083252,-2.17627215385437,0.005650503095239401,-0.09651671350002289,0.03726277872920036,-21.733409881591797,35.852088928222656,-19.26337242126465
2.554,2.726621150970459,-9.500701904296875,-2.0829520225524902,0.015882495790719986,-0.07070764899253845,0.06994406878948212,-22.142648696899414,35.852088928222656,-19.891843795776367
2.56,2.829512596130371,-9.647860527038574,-2.0650060176849365,0.03176499158143997,-0.03237585723400116,0.11652254313230515,-21.76264190673828,35.530548095703125,-19.482608795166016
2.57,3.018545627593994,-10.079764366149902,-2.187039852142334,0.057879481464624405,0.021838432177901268,0.1794416606426239,-22.405729293823242,35.296695709228516,-19.584917068481445
2.58,3.2685956954956055,-10.354939460754395,-2.4909281730651855,0.12660181522369385,0.08567384630441666,0.26022857427597046,-22.025724411010742,35.13592529296875,-19.71645736694336
2.59,3.6155548095703125,-10.587043762207031,-2.644068956375122,0.23411409556865692,0.14706581830978394,0.37919458746910095,-21.908798217773438,35.16515350341797,-19.45337677001953
2.609,4.1551361083984375,-11.525030136108398,-2.4358932971954346,0.42012259364128113,0.10537425428628922,0.6458372473716736,-22.142648696899414,35.42823791503906,-19.00029182434082
2.613,4.163511276245117,-11.699705123901367,-2.3234305381774902,0.45524731278419495,0.04993823170661926,0.7028005123138428,-21.981876373291016,35.15053939819336,-18.81028938293457
2.62,4.043870449066162,-12.355340003967285,-2.117647886276245,0.4980078935623169,-0.05314527824521065,0.7715228199958801,-21.908798217773438,35.20900344848633,-19.584917068481445
2.63,3.728017568588257,-13.109078407287598,-1.8604196310043335,0.5432119369506836,-0.18081609904766083,0.8607090711593628,-21.36802101135254,34.975154876708984,-19.394912719726562
2.64,3.238685369491577,-13.74078369140625,-1.5002998113632202,0.5803219676017761,-0.24068090319633484,0.9743300676345825,-21.309558868408203,34.975154876708984,-18.985675811767578
2.65,2.469392776489258,-14.158331871032715,-1.0971091985702515,0.5772676467895508,-0.2272418737411499,1.0966558456420898,-20.768781661987305,35.19438934326172,-18.956445693969727
2.669,0.45104703307151794,-14.568699836730957,-1.2179466485977173,0.5222897529602051,-0.05451972037553787,1.2366966009140015,-20.534931182861328,35.07746124267578,-19.935691833496094
2.673,0.005982056725770235,-14.580663681030273,-1.2993026971817017,0.508698046207428,0.020922133699059486,1.2557861804962158,-20.447237014770508,34.916690826416016,-18.927213668823242
2.68,-0.5910272002220154,-14.403595924377441,-1.4955140352249146,0.49495354294776917,0.1472185254096985,1.2754865884780884,-19.81876564025879,34.88745880126953,-19.74568748474121
2.69,-1.1210373640060425,-14.06860065460205,-1.7371891736984253,0.4963279962539673,0.3263547420501709,1.29243803024292,-19.80415153503418,34.63899612426758,-18.678749084472656
2.7,-1.3914263248443604,-13.84247875213623,-1.8951154947280884,0.5302309989929199,0.502436637878418,1.310611367225647,-19.117216110229492,34.30283737182617,-18.664133071899414
2.71,-1.6223337650299072,-13.555339813232422,-1.636690616607666,0.5514585971832275,0.6768386363983154,1.3269519805908203,-19.044137954711914,34.84361267089844,-19.55568504333496
2.725,-1.753938913345337,-12.964313507080078,-1.1748758554458618,0.4993823170661926,0.8407033085823059,1.3463469743728638,-18.44489860534668,34.56591796875,-19.46799087524414
2.73,-1.8352948427200317,-12.687942504882812,-1.0995019674301147,0.4726569652557373,0.8799513578414917,1.3497066497802734,-17.80181312561035,34.65361022949219,-19.36568260192871
2.74,-1.9968103170394897,-11.971291542053223,-1.1868400573730469,0.4291328191757202,0.9225592017173767,1.351081132888794,-17.88950538635254,34.6682243347168,-19.584917068481445
2.75,-2.30069899559021,-11.203194618225098,-1.3160523176193237,0.39904773235321045,0.9259189963340759,1.3469579219818115,-17.43642234802246,34.902076721191406,-19.847997665405273
2.76,-2.603391170501709,-10.429117202758789,-1.3866406679153442,0.3828597962856293,0.9010262489318848,1.3336715698242188,-17.012569427490234,34.27360534667969,-20.257234573364258
2.77,-2.932404041290283,-9.835697174072266,-1.4333007335662842,0.36453381180763245,0.874453604221344,1.3197743892669678,-17.31949806213379,34.60976028442383,-20.169540405273438
2.789,-3.535395383834839,-9.087940216064453,-1.2227323055267334,0.3410155177116394,0.8556694388389587,1.3202325105667114,-16.837182998657227,34.40514373779297,-20.2718505859375
2.793,-3.6191442012786865,-9.002994537353516,-1.0564311742782593,0.3344487249851227,0.8637634515762329,1.315956473350525,-16.617948532104492,34.65361022949219,-21.20724868774414
2.8,-3.8572299480438232,-8.947959899902344,-0.8338987231254578,0.32299500703811646,0.8865181803703308,1.3032809495925903,-16.42794418334961,34.419761657714844,-21.236480712890625
2.81,-3.974478244781494,-8.95274543762207,-0.6436693072319031,0.3022255599498749,0.941343367099762,1.2643383741378784,-16.384098052978516,34.77053451538086,-20.724933624267578
2.82,-4.034298896789551,-8.933603286743164,-0.607776939868927,0.28588491678237915,1.0351110696792603,1.1962268352508545,-15.974861145019531,34.200523376464844,-21.10494041442871
2.839,-3.8739798069000244,-9.036494255065918,-0.8111668825149536,0.30940327048301697,1.1330022811889648,1.1481212377548218,-16.121017456054688,34.69745635986328,-21.00263023376465
2.843,-3.7734811305999756,-9.339186668395996,-1.026520848274231,0.37048977613449097,1.2773191928863525,1.1201741695404053,-15.594855308532715,34.50745391845703,-21.66033363342285
2.85,-3.6885359287261963,-9.604789733886719,-1.0911270380020142,0.4086688458919525,1.3768901824951172,1.1163562536239624,-16.13563346862793,34.56591796875,-21.046478271484375
2.86,-3.3367910385131836,-9.905089378356934,-1.1593225002288818,0.445931613445282,1.508684515953064,1.1189523935317993,-16.13563346862793,34.346683502197266,-21.601871490478516
2.87,-3.080759048461914,-10.169495582580566,-1.1964112520217896,0.4573853313922882,1.655597448348999,1.126282811164856,-16.179479598999023,34.361297607421875,-21.616485595703125
2.88,-2.390429735183716,-10.30469036102295,-1.171286702156067,0.4450153112411499,1.7438675165176392,1.1270463466644287,-16.091785430908203,34.87284469604492,-21.82110595703125
2.89,-1.8999011516571045,-10.28913688659668,-1.1892328262329102,0.41691553592681885,1.7999144792556763,1.129337191581726,-16.033323287963867,34.63899612426758,-22.025724411010742
2.903,-1.290927767753601,-10.086943626403809,-1.1904292106628418,0.3790418803691864,1.8017469644546509,1.1171197891235352,-16.42794418334961,34.361297607421875,-21.908798217773438
2.91,-0.9212366938591003,-9.938589096069336,-1.2131609916687012,0.3510947823524475,1.7847955226898193,1.1078040599822998,-16.04793930053711,34.785152435302734,-21.879568099975586
2.92,-0.5024927258491516,-9.730413436889648,-1.1102696657180786,0.30573806166648865,1.7017178535461426,1.1006264686584473,-16.384098052978516,34.58053207397461,-22.011106491088867
2.93,-0.0849451944231987,-9.316454887390137,-1.0217353105545044,0.2684752643108368,1.6001615524291992,1.102917194366455,-16.69102668762207,34.96053695678711,-20.98801612854004
2.94,0.1375872939825058,-8.895318031311035,-1.0480562448501587,0.24205534160137177,1.4885258674621582,1.107040524482727,-16.617948532104492,34.49283981323242,-21.55802345275879
2.959,0.3242274522781372,-8.459823608398438,-1.0253244638442993,0.22892174124717712,1.3744467496871948,1.119257926940918,-16.661794662475586,34.975154876708984,-21.908798217773438
2.963,0.22133608162403107,-7.9034929275512695,-0.9702895283699036,0.2180788815021515,1.218370795249939,1.1398744583129883,-16.778718948364258,34.785152435302734,-21.4703311920166
2.97,0.20937196910381317,-7.598408222198486,-0.9176474213600159,0.21700987219810486,1.1035280227661133,1.1485792398452759,-16.588716506958008,34.87284469604492,-21.309558868408203
2.98,-0.29431718587875366,-7.075576305389404,-0.8554341197013855,0.22602012753486633,1.013272762298584,1.1508700847625732,-16.457176208496094,34.49283981323242,-21.733409881591797
2.99,-0.558724045753479,-6.679564476013184,-0.7549355626106262,0.23411409556865692,0.963181734085083,1.1383473873138428,-16.720256805419922,35.092079162597656,-21.19263458251953
3.0,-0.8889335989952087,-6.343372344970703,-0.6664010882377625,0.23945917189121246,0.9427177309989929,1.112691044807434,-16.164865493774414,34.6682243347168,-21.455713272094727
3.02,-1.1341978311538696,-6.175874710083008,-0.5814558863639832,0.23900103569030762,0.9534079432487488,1.0737483501434326,-16.13563346862793,34.56591796875,-20.90032196044922
3.023,-1.2598210573196411,-6.104090690612793,-0.46061834692955017,0.21212296187877655,0.9949467182159424,1.0070112943649292,-16.04793930053711,34.2882194519043,-22.508039474487305
3.03,-1.3495519161224365,-6.099304676055908,-0.40319061279296875,0.19349156320095062,1.0280861854553223,0.9737191796302795,-15.726396560668945,35.0043830871582,-21.426483154296875
3.04,-1.0911270380020142,-6.096912384033203,-0.36610186100006104,0.16691893339157104,1.0821477174758911,0.9323330521583557,-15.945630073547363,34.682838439941406,-21.29494285583496
3.05,-1.117448091506958,-6.1124653816223145,-0.6221339106559753,0.14523321390151978,1.152855396270752,0.902553379535675,-15.916398048400879,35.092079162597656,-21.514177322387695
3.06,-0.9296115636825562,-6.137589454650879,-0.6747759580612183,0.14355333149433136,1.1968377828598022,0.8756753206253052,-16.23794174194336,34.741302490234375,-21.309558868408203
3.08,-0.8602197170257568,-6.300302028656006,-0.8207381367683411,0.15012012422084808,1.224173903465271,0.8550586104393005,-16.13563346862793,35.07746124267578,-20.73954963684082
3.083,-0.696311354637146,-6.514459133148193,-0.882951557636261,0.16203199326992035,1.2243266105651855,0.8170322775840759,-16.574100494384766,34.85823059082031,-21.674949645996094
3.09,-0.7106683254241943,-6.653243064880371,-1.0552347898483276,0.1768454760313034,1.2250901460647583,0.7919867634773254,-16.340251922607422,35.01900100708008,-20.944168090820312
3.1,-0.4833501875400543,-6.874579429626465,-1.1318050622940063,0.2079996019601822,1.2134836912155151,0.7709118723869324,-16.6325626373291,34.902076721191406,-20.856473922729492
3.11,-0.4833501875400543,-7.089932918548584,-1.4009976387023926,0.24862214922904968,1.1804970502853394,0.7431175708770752,-16.15024757385254,35.57439422607422,-21.119556427001953
3.12,-0.5910272002220154,-7.558926582336426,-1.5170494318008423,0.285121351480484,1.1603385210037231,0.7199047207832336,-16.544870376586914,34.58053207397461,-21.309558868408203
3.14,-0.5443671345710754,-7.981259346008301,-1.6402798891067505,0.31352660059928894,1.0763444900512695,0.6604980230331421,-16.574100494384766,34.82899475097656,-21.20724868774414
3.144,-0.7250252366065979,-8.50289535522461,-1.9106688499450684,0.3514002561569214,0.9935723543167114,0.5752823352813721,-16.6325626373291,34.33206558227539,-20.768781661987305
3.15,-0.9990034103393555,-8.764909744262695,-1.9812570810317993,0.38087448477745056,0.934471070766449,0.5175555348396301,-17.14410972595215,34.88745880126953,-21.075708389282227
3.16,-1.2610174417495728,-9.133403778076172,-2.1607186794281006,0.41813725233078003,0.8959865570068359,0.44577890634536743,-17.14410972595215,35.04823303222656,-22.215726852416992
3.17,-1.25862455368042,-9.559326171875,-1.8771692514419556,0.4291328191757202,0.891252338886261,0.39584067463874817,-17.392576217651367,35.01900100708008,-21.38263702392578
3.18,-1.23589289188385,-9.81655502319336,-1.8927226066589355,0.37751469016075134,0.8828530311584473,0.34773504734039307,-17.15872573852539,34.65361022949219,-21.601871490478516
3.2,-1.0899306535720825,-9.853643417358398,-2.334198474884033,0.3568980097770691,0.8515461683273315,0.3022255599498749,-17.3341121673584,35.16515350341797,-21.38263702392578
3.205,-0.7716853022575378,-9.8871431350708,-2.4777677059173584,0.3367394804954529,0.7246388792991638,0.2571742534637451,-17.933351516723633,35.06284713745117,-21.01724624633789
3.21,-0.7585247159004211,-9.870392799377441,-2.5663022994995117,0.33307427167892456,0.6684393286705017,0.23869559168815613,-18.18181800842285,34.59514617919922,-20.90032196044922
3.22,-0.6592226028442383,-9.826126098632812,-2.726621150970459,0.33597588539123535,0.5364924073219299,0.19333885610103607,-18.225666046142578,34.902076721191406,-20.666471481323242
3.23,-0.7645068168640137,-9.82971477508545,-2.7254250049591064,0.3481931984424591,0.3585779070854187,0.13515393435955048,-18.72259521484375,35.369773864746094,-21.8503360748291
3.24,-1.117448091506958,-10.042675971984863,-2.6428725719451904,0.3449861407279968,0.22876903414726257,0.07422012835741043,-18.225666046142578,34.85823059082031,-22.405729293823242
3.259,-1.246660590171814,-10.327422142028809,-2.5088744163513184,0.33368512988090515,0.038179077208042145,-0.04306599870324135,-18.386436462402344,35.0043830871582,-21.791873931884766
3.263,-1.3902299404144287,-10.724631309509277,-2.3078773021698,0.33139437437057495,0.02076941914856434,-0.0555887334048748,-18.28412628173828,34.87284469604492,-22.215726852416992
3.27,-1.408176064491272,-11.058429718017578,-2.1990039348602295,0.33368512988090515,-0.03497203439474106,-0.09789115190505981,-19.117216110229492,35.311309814453125,-22.1718807220459
3.28,-1.322034478187561,-11.59442138671875,-2.043470621109009,0.3484986424446106,-0.1310305893421173,-0.17608189582824707,-18.5325927734375,35.2674674987793,-21.777257919311523
3.29,-1.0169496536254883,-12.191431045532227,-1.9501503705978394,0.3649919927120209,-0.2681698203086853,-0.2551889419555664,-18.868751525878906,35.472084045410156,-22.288803100585938
3.3,-0.9607182741165161,-12.715458869934082,-1.9896320104599,0.3845396637916565,-0.4712825417518616,-0.346818745136261,-18.547208786010742,35.23823165893555,-21.864952087402344
3.319,-1.56969153881073,-13.905887603759766,-1.820937991142273,0.43967023491859436,-0.9593638181686401,-0.5818491578102112,-18.839519500732422,35.63285446166992,-22.873428344726562
3.323,-1.6331013441085815,-14.017154693603516,-1.7778671979904175,0.4479169249534607,-1.0749701261520386,-0.653931200504303,-18.50336265563965,35.369773864746094,-22.610347747802734
3.33,-1.9154545068740845,-14.317453384399414,-1.683350682258606,0.45723262429237366,-1.2270755767822266,-0.7590000629425049,-18.62028694152832,35.530548095703125,-22.230342864990234
3.34,-2.2013967037200928,-14.584254264831543,-1.3519446849822998,0.46502113342285156,-1.3898711204528809,-0.8872817754745483,-18.474130630493164,35.83747482299805,-22.917274475097656
3.35,-2.266003131866455,-14.755339622497559,-1.057627558708191,0.4648684561252594,-1.5015066862106323,-0.9712757468223572,-18.269512176513672,35.48670196533203,-22.66880989074707
3.36,-2.361715793609619,-14.760126113891602,-0.7549355626106262,0.45692721009254456,-1.5758795738220215,-1.0178542137145996,-17.90412139892578,35.63285446166992,-22.858814239501953
3.38,-2.4562323093414307,-14.609378814697266,-0.5371886491775513,0.3940081000328064,-1.6673567295074463,-1.0493137836456299,-17.71411895751953,35.179771423339844,-24.203449249267578
3.383,-2.7110679149627686,-14.21456241607666,-0.3517449200153351,0.3649919927120209,-1.6804903745651245,-1.053742527961731,-17.71411895751953,36.115169525146484,-23.867290496826172
3.39,-2.8390841484069824,-13.971691131591797,-0.2991028130054474,0.30604347586631775,-1.6858352422714233,-1.0604619979858398,-18.211048126220703,36.58287048339844,-24.68576431274414
3.4,-2.9347968101501465,-12.9954195022583,-0.18065811693668365,0.19165895879268646,-1.65529203414917,-1.0655016899108887,-17.655654907226562,36.20286560058594,-24.554224014282227
3.41,-2.682354211807251,-11.990433692932129,-0.09930214285850525,0.06490442901849747,-1.596496343612671,-1.0542006492614746,-17.34872817993164,36.55363845825195,-24.96346092224121
3.42,-2.249253273010254,-11.124231338500977,0.1663011610507965,-0.052381694316864014,-1.5711452960968018,-1.0282388925552368,-17.480268478393555,36.30517578125,-24.612686157226562
3.44,-0.8255237936973572,-10.042675971984863,0.8877371549606323,-0.2399173229932785,-1.6824755668640137,-0.9611964225769043,-17.684886932373047,35.910552978515625,-25.738086700439453
3.443,-0.558724045753479,-9.93978500366211,1.0887342691421509,-0.2811506986618042,-1.7438675165176392,-0.9447030425071716,-17.480268478393555,36.3636360168457,-25.372699737548828
3.45,-0.2883351147174835,-9.80817985534668,1.3603196144104004,-0.3428480923175812,-1.8562666177749634,-0.9294314384460449,-16.76410484313965,36.524410247802734,-25.13884925842285
3.46,-0.1627119481563568,-9.767501831054688,1.7850456237792969,-0.41752639412879944,-2.02929425239563,-0.9334020614624023,-17.290266036987305,36.30517578125,-25.738086700439453
3.47,-0.47138604521751404,-9.845268249511719,2.0374884605407715,-0.4902193546295166,-2.1952970027923584,-0.9686795473098755,-16.6325626373291,37.065185546875,-25.489622116088867
3.48,-0.9535397887229919,-9.972087860107422,2.251646041870117,-0.5581781268119812,-2.3157901763916016,-1.0277807712554932,-16.515640258789062,36.831336975097656,-25.986553192138672
3.5,-2.137986898422241,-10.529616355895996,2.3222343921661377,-0.7099781036376953,-2.367102861404419,-1.1998920440673828,-15.843321800231934,36.729026794433594,-25.387313842773438
3.505,-2.486142635345459,-10.792826652526855,2.24566388130188,-0.7457137107849121,-2.3264801502227783,-1.2460123300552368,-16.121017456054688,36.50979232788086,-25.25577163696289
3.51,-2.6979076862335205,-10.931610107421875,2.1403796672821045,-0.7787004113197327,-2.2681427001953125,-1.2904528379440308,-16.04793930053711,37.13826370239258,-24.831920623779297
3.52,-3.0903303623199463,-11.124231338500977,1.7706886529922485,-0.8335255980491638,-2.0815231800079346,-1.3745994567871094,-16.23794174194336,36.4074821472168,-26.4104061126709
3.53,-3.3164520263671875,-11.211569786071777,1.3674980401992798,-0.8665122985839844,-1.8197674751281738,-1.4460707902908325,-16.106401443481445,37.19672393798828,-25.40192985534668
3.54,-3.400200843811035,-11.225926399230957,0.9140582084655762,-0.8816311955451965,-1.423621416091919,-1.517236590385437,-15.945630073547363,36.6851806640625,-25.095001220703125
3.559,-2.6691935062408447,-10.703095436096191,0.13160523772239685,-0.8483390808105469,-0.9268352389335632,-1.6087136268615723,-16.223325729370117,37.065185546875,-25.694242477416992
3.563,-2.3222343921661377,-10.517650604248047,-0.017946168780326843,-0.8252789378166199,-0.8129088878631592,-1.6299411058425903,-16.676410675048828,37.1236457824707,-25.475008010864258
3.57,-1.7551352977752686,-10.243673324584961,-0.22013966739177704,-0.7880162000656128,-0.671493649482727,-1.648267149925232,-16.822566986083984,36.88979721069336,-24.276527404785156
3.58,-0.8542376756668091,-9.82971477508545,-0.4582255482673645,-0.7415904402732849,-0.5287038683891296,-1.649794340133667,-17.34872817993164,36.159019470214844,-24.101139068603516
3.59,0.03469592705368996,-9.285347938537598,-0.6771687865257263,-0.6844744682312012,-0.44547346234321594,-1.6198618412017822,-18.16720199584961,37.26980209350586,-24.510377883911133
3.609,0.9643074870109558,-8.683552742004395,-0.8123632073402405,-0.6443100571632385,-0.4615086615085602,-1.5619823932647705,-19.00029182434082,37.15288162231445,-23.56036376953125
3.613,1.6378871202468872,-8.194220542907715,-0.8111668825149536,-0.6174320578575134,-0.5694791078567505,-1.4637858867645264,-19.482608795166016,37.065185546875,-23.29728126525879
3.62,1.9130616188049316,-7.8556365966796875,-0.8410770893096924,-0.6065891981124878,-0.6647740602493286,-1.388802170753479,-20.02338409423828,36.90441131591797,-23.677288055419922
3.63,2.080559253692627,-7.416553497314453,-0.787238597869873,-0.587041437625885,-0.8199338316917419,-1.2834279537200928,-19.672609329223633,37.24057388305664,-22.434959411621094
3.64,2.0195422172546387,-7.0959153175354,-0.5994020700454712,-0.5581781268119812,-1.0639744997024536,-1.1675162315368652,-19.950305938720703,36.831336975097656,-22.858814239501953
3.65,1.9525432586669922,-6.893721580505371,-0.10648059844970703,-0.5694791078567505,-1.2825114727020264,-1.088714599609375,-20.666471481323242,37.25518798828125,-22.142648696899414
3.669,1.6390833854675293,-6.612565040588379,0.13998012244701385,-0.6091853976249695,-1.4674509763717651,-1.0062477588653564,-20.564163208007812,37.13826370239258,-23.063430786132812
3.673,1.0109676122665405,-6.2536420822143555,0.28953152894973755,-0.6673702597618103,-1.5963436365127563,-0.9271407127380371,-20.491085052490234,37.3867301940918,-22.244956970214844
3.68,0.5946164131164551,-6.095715522766113,0.40797626972198486,-0.6942483186721802,-1.6258177757263184,-0.8875871896743774,-20.09646224975586,36.465946197509766,-22.493423461914062
3.69,0.14476576447486877,-5.918646335601807,0.5575276613235474,-0.731511116027832,-1.6212363243103027,-0.8436048626899719,-20.35954475402832,37.26980209350586,-21.57263946533203
3.7,-0.37806597352027893,-5.7918267250061035,0.5527420043945312,-0.7712173461914062,-1.542281985282898,-0.8231408596038818,-20.46185302734375,36.34901809692383,-21.718795776367188
3.71,-0.7262216210365295,-5.861218452453613,0.4989035129547119,-0.7825183272361755,-1.437824010848999,-0.8257370591163635,-20.257234573364258,36.34901809692383,-20.754165649414062
3.73,-0.9762716293334961,-6.061019420623779,0.5252245664596558,-0.7930558323860168,-1.3022119998931885,-0.8387179970741272,-20.09646224975586,35.895938873291016,-20.856473922729492
3.734,-1.2957134246826172,-6.417550086975098,0.3278166949748993,-0.8048149347305298,-1.034194827079773,-0.8591819405555725,-20.30108070373535,36.115169525146484,-19.891843795776367
3.74,-1.3519446849822998,-6.49770975112915,0.1866401582956314,-0.8005388975143433,-0.9250026345252991,-0.8691084980964661,-20.02338409423828,36.100555419921875,-19.570301055908203
3.75,-1.2825528383255005,-6.703492164611816,-0.06939185410737991,-0.7596108913421631,-0.6333145499229431,-0.9004153609275818,-19.81876564025879,36.4074821472168,-19.24875831604004
3.76,-1.2993026971817017,-6.969095706939697,-0.22133608162403107,-0.7188356518745422,-0.39996400475502014,-0.9306531548500061,-20.944168090820312,35.282081604003906,-19.599531173706055
3.77,-0.9332008361816406,-7.262216091156006,-0.26081767678260803,-0.6940956115722656,-0.16814064979553223,-0.9563094973564148,-20.4326229095459,35.852088928222656,-18.517976760864258
3.789,-0.5611169338226318,-7.500302314758301,-0.4737788736820221,-0.6734789609909058,0.07284567505121231,-0.9619600176811218,-21.061092376708984,34.726688385009766,-19.16106414794922
3.793,0.10767702013254166,-7.739584445953369,-0.7860422134399414,-0.6081163287162781,0.39935314655303955,-0.9364563822746277,-21.324174880981445,35.41362380981445,-17.78719711303711
3.8,0.5407779216766357,-7.909474849700928,-0.9236294627189636,-0.554818332195282,0.5082398653030396,-0.9272934198379517,-21.733409881591797,34.81438064575195,-17.42180633544922
3.81,1.3543375730514526,-8.465806007385254,-0.8578268885612488,-0.5041165351867676,0.6203336119651794,-0.8941540122032166,-22.917274475097656,34.902076721191406,-17.377958297729492
3.82,2.1128623485565186,-9.010172843933105,-0.8243273496627808,-0.4715879559516907,0.6748533248901367,-0.8466591835021973,-22.917274475097656,34.49283981323242,-17.465654373168945
3.83,2.8139593601226807,-9.500701904296875,-0.9032905101776123,-0.45723262429237366,0.7011205554008484,-0.7576255798339844,-23.01958465576172,34.87284469604492,-17.24641990661621
3.85,3.565305471420288,-9.66939640045166,-1.3938192129135132,-0.4164573848247528,0.7017314434051514,-0.6281222105026245,-23.50189971923828,34.30283737182617,-16.96872329711914
3.854,4.526023864746094,-9.779465675354004,-2.328216314315796,-0.2612975835800171,0.5691736936569214,-0.43157631158828735,-24.437299728393555,34.05436706542969,-16.179479598999023
3.86,4.685146808624268,-9.91705322265625,-2.6153552532196045,-0.1508837193250656,0.43890663981437683,-0.350789338350296,-24.028060913085938,34.03975296020508,-15.81408977508545
3.87,4.844269275665283,-10.200602531433105,-3.0029923915863037,0.009621127508580685,0.21273382008075714,-0.26160305738449097,-24.159603118896484,34.46360778808594,-16.04793930053711
3.88,4.731806755065918,-10.429117202758789,-3.4193434715270996,0.21303924918174744,-0.017867807298898697,-0.15515977144241333,-24.40806770324707,34.112831115722656,-15.989476203918457
3.89,4.7473602294921875,-10.686345100402832,-3.053241491317749,0.403781920671463,-0.17363843321800232,0.035124752670526505,-24.028060913085938,33.981292724609375,-16.179479598999023
3.909,4.773681163787842,-11.24506950378418,-2.344965934753418,0.4427245557308197,-0.38728857040405273,0.5184718370437622,-24.174217224121094,34.84361267089844,-15.097925186157227
3.913,3.9457645416259766,-11.906685829162598,-1.9250258207321167,0.4216497242450714,-0.4314235746860504,0.6058256030082703,-24.276527404785156,34.93130874633789,-15.18561840057373
3.92,3.3296124935150146,-12.034701347351074,-1.8149559497833252,0.3874412775039673,-0.4619668424129486,0.7199047207832336,-23.83806037902832,34.6682243347168,-15.404851913452148
3.93,2.499303102493286,-12.155538558959961,-1.8664016723632812,0.3355177044868469,-0.42638394236564636,0.8474227786064148,-23.151124954223633,34.6682243347168,-15.361004829406738
3.94,1.7970097064971924,-12.477373123168945,-2.090130567550659,0.32910364866256714,-0.33368512988090515,0.9650143384933472,-22.82958221435547,34.56591796875,-14.761765480041504
3.95,1.3124631643295288,-13.445269584655762,-1.939382791519165,0.3735440969467163,-0.1459967941045761,1.1227703094482422,-22.084184646606445,35.13592529296875,-15.302543640136719
3.971,1.0133603811264038,-14.970694541931152,-1.7216358184814453,0.3900374472141266,0.014355332590639591,1.2330315113067627,-21.64571762084961,35.325927734375,-14.922536849975586
3.975,0.5718846321105957,-15.607185363769531,-1.887937068939209,0.4170682430267334,0.1927279680967331,1.3200798034667969,-21.397253036499023,35.04823303222656,-15.302543640136719
3.98,0.41036906838417053,-15.510275840759277,-1.8963117599487305,0.42989641427993774,0.23289236426353455,1.3255774974822998,-21.178016662597656,34.755916595458984,-15.4633150100708
3.99,-0.0729810893535614,-15.212368965148926,-1.9453648328781128,0.4593706429004669,0.31383201479911804,1.324813961982727,-20.841859817504883,35.22361755371094,-15.200233459472656
4.0,-0.5694918036460876,-14.82114315032959,-1.7670994997024536,0.48884493112564087,0.4059199392795563,1.3280209302902222,-20.008769989013672,34.93130874633789,-14.513299942016602
4.01,-1.1856435537338257,-14.193026542663574,-1.7395819425582886,0.5085453391075134,0.4963279962539673,1.3422236442565918,-20.052616119384766,35.369773864746094,-13.870213508605957
4.03,-1.9704893827438354,-13.097114562988281,-1.939382791519165,0.6062837243080139,0.7612908482551575,1.3767374753952026,-18.97106170654297,35.22361755371094,-14.878690719604492
4.033,-2.7589244842529297,-11.73320484161377,-2.128415822982788,0.624609649181366,0.7924449443817139,1.3735305070877075,-19.74568748474121,35.07746124267578,-14.63022518157959
4.04,-3.1824538707733154,-10.983055114746094,-1.9860427379608154,0.6682865619659424,0.8775079250335693,1.3578007221221924,-19.102602005004883,35.325927734375,-15.039462089538574
4.05,-3.5341989994049072,-10.070194244384766,-1.712064504623413,0.6835582256317139,1.0129672288894653,1.334587812423706,-19.219526290893555,35.76439666748047,-15.258696556091309
4.06,-3.662214994430542,-9.22313404083252,-1.5852450132369995,0.6685919761657715,1.228450059890747,1.3298536539077759,-19.014907836914062,35.12131118774414,-14.805611610412598
4.07,-3.524627685546875,-8.659625053405762,-1.4404791593551636,0.6397286653518677,1.3962851762771606,1.3362677097320557,-19.117216110229492,35.79362487792969,-14.747150421142578
4.089,-3.1334011554718018,-8.685946464538574,-1.270588755607605,0.521373450756073,1.5621352195739746,1.3495540618896484,-19.380298614501953,35.79362487792969,-15.346389770507812
4.093,-2.5471596717834473,-9.103493690490723,-1.0839486122131348,0.5007568001747131,1.5642731189727783,1.3466523885726929,-18.91259765625,35.88132095336914,-15.097925186157227
4.1,-2.2133607864379883,-9.402596473693848,-0.9643074870109558,0.4375322163105011,1.5427402257919312,1.3321443796157837,-19.380298614501953,35.3843879699707,-15.41946792602539
4.11,-1.9010975360870361,-9.707681655883789,-0.8662018179893494,0.3326161205768585,1.4414892196655273,1.2889256477355957,-19.599531173706055,35.82286071777344,-15.901782989501953
4.12,-1.7706886529922485,-9.911070823669434,-0.9499505758285522,0.26633724570274353,1.3322970867156982,1.2539536952972412,-19.891843795776367,35.866703033447266,-15.536393165588379
4.13,-1.8221343755722046,-9.991230964660645,-1.1341978311538696,0.22678370773792267,1.2525792121887207,1.2287553548812866,-19.847997665405273,35.895938873291016,-15.609471321105957
4.151,-2.228914260864258,-9.998409271240234,-1.6019947528839111,0.2623666226863861,1.2270755767822266,1.2214250564575195,-20.125694274902344,35.69131851196289,-15.81408977508545
4.154,-2.341376781463623,-9.9469633102417,-1.657029628753662,0.27351492643356323,1.2397509813308716,1.2244794368743896,-19.847997665405273,35.545162200927734,-15.843321800231934
4.16,-2.389233350753784,-9.856036186218262,-1.7084753513336182,0.3168863356113434,1.2770137786865234,1.2308934926986694,-19.979537963867188,35.80824279785156,-16.07716941833496
4.17,-2.455035924911499,-9.69810962677002,-1.7647066116333008,0.3732386529445648,1.359786033630371,1.2412781715393066,-20.578777313232422,35.866703033447266,-15.784857749938965
4.18,-2.4837498664855957,-9.687341690063477,-1.7264214754104614,0.41890081763267517,1.4701999425888062,1.251968264579773,-20.37415885925293,35.07746124267578,-17.42180633544922
4.19,-2.4741785526275635,-9.728019714355469,-1.6534403562545776,0.4430300295352936,1.6100881099700928,1.2594513893127441,-20.388774871826172,35.88132095336914,-17.114879608154297
4.206,-1.9669002294540405,-9.620343208312988,-1.4608181715011597,0.44135013222694397,1.8519906997680664,1.249066710472107,-20.593395233154297,35.77901077270508,-17.582576751708984
4.21,-1.6654045581817627,-9.554540634155273,-1.3890334367752075,0.4294382631778717,1.8987218141555786,1.2444851398468018,-21.00263023376465,36.33440399169922,-16.924875259399414
4.22,-0.9332008361816406,-9.165706634521484,-1.1341978311538696,0.39645153284072876,1.9478964805603027,1.2443324327468872,-20.841859817504883,35.866703033447266,-18.313358306884766
4.23,-0.3002992272377014,-8.831908226013184,-0.9463613033294678,0.35124751925468445,1.9587393999099731,1.260367751121521,-21.178016662597656,36.17363357543945,-17.52411651611328
4.24,0.18424732983112335,-8.405985832214355,-0.8518447875976562,0.29764407873153687,1.9182696342468262,1.2904528379440308,-21.19263458251953,35.6474723815918,-17.88950538635254
4.25,0.6616154909133911,-7.929814338684082,-0.865005373954773,0.24236077070236206,1.8176295757293701,1.3322970867156982,-21.163402557373047,35.74978256225586,-18.474130630493164
4.27,1.3124631643295288,-6.969095706939697,-0.9415756464004517,0.1492038369178772,1.4306464195251465,1.4326316118240356,-21.806488037109375,36.451332092285156,-18.28412628173828
4.274,1.5098711252212524,-6.727420330047607,-0.92482590675354,0.14523321390151978,1.373683214187622,1.442100167274475,-21.879568099975586,36.495174407958984,-18.605670928955078
4.28,1.3698909282684326,-6.4319071769714355,-0.9104689955711365,0.13866640627384186,1.2023354768753052,1.4665347337722778,-21.616485595703125,35.95439910888672,-18.81028938293457
4.29,1.2215359210968018,-6.080162525177002,-0.8506484627723694,0.14294245839118958,0.9750936627388,1.4859296083450317,-21.8503360748291,36.21747970581055,-18.62028694152832
4.3,1.0911270380020142,-5.849254608154297,-0.8434699773788452,0.15974126756191254,0.7728971838951111,1.4869987964630127,-21.48494529724121,35.44285202026367,-18.72259521484375
4.31,0.7477570176124573,-5.747560024261475,-0.8099704384803772,0.17638733983039856,0.5543602108955383,1.4735596179962158,-21.38263702392578,36.04209518432617,-18.44489860534668
4.322,-0.08374878764152527,-5.7164530754089355,-0.8315058350563049,0.19639316201210022,0.43157631158828735,1.4546228647232056,-20.534931182861328,35.88132095336914,-18.43028450012207
4.33,-0.42711883783340454,-5.714060306549072,-0.8063812255859375,0.20173825323581696,0.39706239104270935,1.4356859922409058,-20.447237014770508,36.115169525146484,-17.80181312561035
4.34,-0.8997012972831726,-5.654239654541016,-0.8685945868492126,0.20601430535316467,0.3995058536529541,1.3900238275527954,-20.08184814453125,35.25284957885742,-18.591054916381836
4.35,-1.4333007335662842,-5.685346603393555,-0.8578268885612488,0.22586742043495178,0.4509712755680084,1.3382529020309448,-20.213388442993164,35.63285446166992,-18.839519500732422
4.36,-1.7898313999176025,-5.886343479156494,-0.8039883971214294,0.23396137356758118,0.5789475440979004,1.3012956380844116,-20.286466598510742,35.559776306152344,-19.17568016052246
4.37,-1.939382791519165,-6.330212116241455,-0.6400800943374634,0.20723602175712585,0.7848091125488281,1.2574660778045654,-20.038002014160156,36.100555419921875,-18.91259765625
4.385,-2.0063817501068115,-6.904489517211914,-0.769292414188385,0.1385136991739273,1.0476338863372803,1.1832458972930908,-19.52645492553711,35.925167083740234,-18.517976760864258
4.39,-2.0039889812469482,-6.961917400360107,-0.8195416927337646,0.12140946835279465,1.1296424865722656,1.1566733121871948,-20.067232131958008,35.95439910888672,-19.292604446411133
4.4,-1.8077774047851562,-7.0408806800842285,-1.1198409795761108,0.1088867262005806,1.2617422342300415,1.0980302095413208,-19.774919509887695,35.80824279785156,-19.17568016052246
4.41,-1.8580267429351807,-7.195217609405518,-1.566102385520935,0.1472185254096985,1.3194688558578491,1.0114400386810303,-20.125694274902344,36.21747970581055,-19.044137954711914
4.42,-1.3734800815582275,-7.642675399780273,-1.84965181350708,0.242513507604599,1.3041971921920776,0.902553379535675,-20.140310287475586,35.735164642333984,-18.079509735107422
4.44,-1.5206387042999268,-8.315058708190918,-2.117647886276245,0.3162754774093628,1.249372124671936,0.797179102897644,-20.344928741455078,36.31978988647461,-18.211048126220703
4.443,-1.1365907192230225,-9.134600639343262,-2.2133607864379883,0.4199698567390442,1.1065824031829834,0.6394231915473938,-20.754165649414062,36.05670928955078,-18.649517059326172
4.45,-1.054038405418396,-9.68375301361084,-2.2791635990142822,0.45921796560287476,1.0413724184036255,0.565203070640564,-20.798011779785156,36.93364715576172,-18.196434020996094
4.46,-0.6795615553855896,-10.432705879211426,-2.482553482055664,0.493731826543808,0.9017897844314575,0.46181410551071167,-20.768781661987305,36.97748947143555,-17.918737411499023
4.47,-0.5108676552772522,-10.947163581848145,-2.662015199661255,0.5154175162315369,0.6772968769073486,0.35643988847732544,-20.724933624267578,36.88979721069336,-18.985675811767578
4.48,-0.6137589812278748,-11.33958625793457,-2.746960163116455,0.5241223573684692,0.4911356270313263,0.2684752643108368,-21.4703311920166,36.77287292480469,-18.956445693969727
4.499,-0.802791953086853,-11.514262199401855,-2.840280294418335,0.5180137157440186,0.33505958318710327,0.20005835592746735,-21.353404998779297,36.7436408996582,-18.591054916381836
4.504,-1.3986047506332397,-11.364710807800293,-3.049652338027954,0.5135849714279175,0.16065755486488342,0.10445795953273773,-21.455713272094727,36.845951080322266,-19.36568260192871
4.51,-1.6354942321777344,-11.294122695922852,-3.119044303894043,0.5209153294563293,0.12171489745378494,0.07192938029766083,-21.806488037109375,37.021339416503906,-18.854137420654297
4.52,-1.9836498498916626,-11.229516983032227,-3.1310083866119385,0.5419901609420776,0.04749477282166481,-0.015118913725018501,-22.157264709472656,36.845951080322266,-18.576440811157227
4.53,-1.8699908256530762,-11.520244598388672,-2.95393967628479,0.5590943694114685,0.00427605677396059,-0.06872233748435974,-21.64571762084961,37.211341857910156,-19.614147186279297
4.54,-1.3052847385406494,-11.934203147888184,-2.654836893081665,0.5619960427284241,-0.06444628536701202,-0.10262536257505417,-22.347267150878906,37.18210983276367,-19.24875831604004
4.56,-0.6149553656578064,-12.30867862701416,-2.3784656524658203,0.5468770861625671,-0.21700987219810486,-0.12996158003807068,-22.128032684326172,37.56211853027344,-19.05875587463379
4.563,-0.0813559740781784,-12.819546699523926,-1.9537396430969238,0.4963279962539673,-0.6505715250968933,-0.19792033731937408,-22.595731735229492,37.8251953125,-19.17568016052246
4.57,-0.19262221455574036,-12.971490859985352,-1.8640087842941284,0.4665483236312866,-0.9405797719955444,-0.26282477378845215,-22.44957733154297,37.15288162231445,-19.321834564208984
4.58,-1.0707881450653076,-13.203594207763672,-1.7754743099212646,0.4360050857067108,-1.3376421928405762,-0.3880521357059479,-22.566499710083008,37.839813232421875,-20.286466598510742
4.59,-1.9082759618759155,-13.366307258605957,-1.5050853490829468,0.4323398768901825,-1.6789631843566895,-0.5291619896888733,-22.639577865600586,37.73750305175781,-19.71645736694336
4.6,-2.5938196182250977,-13.585250854492188,-0.9882357120513916,0.4352414906024933,-1.9248363971710205,-0.6528621912002563,-22.434959411621094,37.18210983276367,-19.24875831604004
4.619,-3.1274189949035645,-13.835299491882324,-0.3349951505661011,0.35781431198120117,-2.1653645038604736,-0.8350527882575989,-22.186494827270508,36.919029235839844,-19.044137954711914
4.623,-3.6957144737243652,-13.728819847106934,0.4043869972229004,0.314442902803421,-2.183384895324707,-0.8778132796287537,-22.186494827270508,37.035953521728516,-18.72259521484375
4.63,-3.9517464637756348,-13.426127433776855,0.7417749762535095,0.2431243658065796,-2.177276372909546,-0.9376780986785889,-21.83572006225586,37.065185546875,-19.570301055908203
4.64,-4.179064750671387,-12.53599739074707,0.849452018737793,0.14966197311878204,-2.1345157623291016,-1.0076221227645874,-21.938030242919922,36.495174407958984,-19.33645248413086
4.65,-4.232903003692627,-11.675777435302734,0.9308079481124878,0.06643159687519073,-2.071138620376587,-1.0745118856430054,-21.879568099975586,36.78749084472656,-18.021047592163086
4.66,-4.2006001472473145,-10.892127990722656,1.054038405418396,-0.0074830991216003895,-1.9892826080322266,-1.135140299797058,-21.26571273803711,35.969017028808594,-18.664133071899414
4.68,-3.9601213932037354,-10.29631519317627,1.1629117727279663,-0.07391469925642014,-1.9043724536895752,-1.1785117387771606,-21.236480712890625,35.76439666748047,-18.196434020996094
4.683,-3.407379150390625,-10.079764366149902,1.5266207456588745,-0.17318028211593628,-1.800678014755249,-1.2151635885238647,-21.66033363342285,35.662086486816406,-17.50950050354004
4.69,-3.1896326541900635,-10.25085163116455,1.8113667964935303,-0.23167064785957336,-1.7763960361480713,-1.2273809909820557,-21.806488037109375,35.48670196533203,-16.369482040405273
4.7,-2.8486552238464355,-10.604989051818848,2.011167287826538,-0.33169981837272644,-1.7745635509490967,-1.2612839937210083,-21.82110595703125,34.37591552734375,-17.23180389404297
4.71,-2.537588357925415,-10.968698501586914,2.1104695796966553,-0.4495968222618103,-1.803274154663086,-1.3242030143737793,-21.4703311920166,34.989768981933594,-16.720256805419922
4.72,-2.2923240661621094,-11.20917797088623,2.0997018814086914,-0.5760459303855896,-1.8608481884002686,-1.4106405973434448,-21.353404998779297,33.84975051879883,-16.2525577545166
4.739,-2.20737886428833,-11.388638496398926,1.994417667388916,-0.7826710939407349,-1.9514089822769165,-1.623679757118225,-20.505699157714844,32.69511795043945,-15.755626678466797
4.743,-2.100898265838623,-11.497512817382812,1.6713865995407104,-0.8190175890922546,-1.9536997079849243,-1.6667457818984985,-20.344928741455078,32.65127182006836,-15.56562328338623
4.75,-2.24566388130188,-11.520244598388672,1.5840485095977783,-0.8565858006477356,-1.9399553537368774,-1.7201964855194092,-20.505699157714844,32.242034912109375,-14.674072265625
4.76,-2.455035924911499,-11.465209007263184,1.5684951543807983,-0.8776606321334839,-1.8748981952667236,-1.7597500085830688,-20.476469039916992,31.81818199157715,-15.171003341674805
4.77,-2.6273193359375,-11.279766082763672,1.576870083808899,-0.8959865570068359,-1.7712037563323975,-1.7864753007888794,-20.052616119384766,31.65740966796875,-14.966383934020996
4.78,-2.682354211807251,-11.11226749420166,1.4225330352783203,-0.9153815507888794,-1.5748106241226196,-1.8165605068206787,-19.599531173706055,30.99970817565918,-15.492546081542969
4.799,-2.565105676651001,-10.898110389709473,1.2023932933807373,-0.9318749308586121,-1.38070809841156,-1.8361080884933472,-18.737211227416992,30.47354507446289,-14.177140235900879
4.803,-2.2887346744537354,-10.716256141662598,0.8745766282081604,-0.9695958495140076,-1.1447614431381226,-1.8510743379592896,-19.117216110229492,29.771995544433594,-14.703303337097168
4.81,-2.018345832824707,-10.558329582214355,0.6412764191627502,-0.9778425097465515,-1.0144944190979004,-1.8562666177749634,-19.131834030151367,29.611223220825195,-13.460975646972656
4.82,-1.6271193027496338,-10.235298156738281,0.39003005623817444,-0.9766207933425903,-0.8495608568191528,-1.8593209981918335,-19.27798843383789,29.1873722076416,-14.35252857208252
4.83,-1.1569297313690186,-9.812965393066406,0.09212366491556168,-0.9552405476570129,-0.6827946305274963,-1.846798300743103,-18.854137420654297,28.80736541748047,-14.557147026062012
4.84,-0.6137589812278748,-9.19322395324707,-0.22372892498970032,-0.9243918061256409,-0.5818491578102112,-1.8151861429214478,-18.839519500732422,28.73428726196289,-14.615609169006348
4.859,0.15194423496723175,-8.295915603637695,-0.751346230506897,-0.8106181621551514,-0.4634940028190613,-1.7096590995788574,-19.146448135375977,28.13504981994629,-15.594855308532715
4.863,0.3672982454299927,-8.02074146270752,-0.9044869542121887,-0.7922922372817993,-0.4622722566127777,-1.6939293146133423,-19.570301055908203,28.33966636657715,-15.41946792602539
4.87,0.6711867451667786,-7.646264553070068,-0.9930213689804077,-0.734107255935669,-0.4813618063926697,-1.6450600624084473,-19.36568260192871,28.427358627319336,-15.4633150100708
4.88,1.1066803932189941,-7.328019142150879,-0.8949156999588013,-0.6701191663742065,-0.570242702960968,-1.5512923002243042,-19.45337677001953,27.652734756469727,-16.32563591003418
4.891,1.4871392250061035,-6.953542709350586,-0.7357929348945618,-0.6517932415008545,-0.6540839672088623,-1.4561500549316406,-19.55568504333496,27.272727966308594,-15.916398048400879
4.9,1.5625131130218506,-6.63649320602417,-0.6041877269744873,-0.6458372473716736,-0.7325801253318787,-1.3603968620300293,-18.3718204498291,27.491960525512695,-16.106401443481445
4.916,1.6486546993255615,-6.299105644226074,-0.3158525824546814,-0.6653849482536316,-0.8663595914840698,-1.260367751121521,-18.985675811767578,27.272727966308594,-16.106401443481445
4.92,1.5756735801696777,-6.198606967926025,-0.23688943684101105,-0.6743952035903931,-0.9129380583763123,-1.2377656698226929,-18.81028938293457,26.921951293945312,-16.164865493774414
4.93,1.3387842178344727,-6.034698486328125,-0.038285162299871445,-0.6997461318969727,-1.0299187898635864,-1.2095131874084473,-18.649517059326172,27.50657844543457,-16.369482040405273
4.94,1.0001999139785767,-6.088537216186523,0.39481574296951294,-0.7553348541259766,-1.1073459386825562,-1.1957685947418213,-17.845659255981445,26.54194450378418,-15.536393165588379
4.95,0.5467599630355835,-6.034698486328125,0.33738797903060913,-0.8103127479553223,-1.1162035465240479,-1.1788172721862793,-17.743350982666016,26.86349105834961,-16.004093170166016
4.96,0.21655045449733734,-6.068197727203369,0.3852444291114807,-0.8463537693023682,-1.0702358484268188,-1.1574369668960571,-17.31949806213379,26.43963623046875,-16.267173767089844
4.976,-0.15074782073497772,-6.10050106048584,0.11126624792814255,-0.8694139719009399,-0.8610145449638367,-1.1128437519073486,-16.807950973510742,25.913476943969727,-14.790996551513672
4.98,-0.17946170270442963,-6.172286033630371,0.07178467512130737,-0.8683449029922485,-0.8266533613204956,-1.1087204217910767,-16.837182998657227,25.270387649536133,-15.56562328338623
4.99,-0.24287149310112,-6.367300987243652,-0.08973085135221481,-0.8535314798355103,-0.6423248052597046,-1.1081095933914185,-16.574100494384766,25.67962646484375,-14.878690719604492
5.0,-0.10767702013254166,-6.51326322555542,-0.4127618968486786,-0.816726803779602,-0.4732678234577179,-1.1134545803070068,-16.15024757385254,24.802688598632812,-15.536393165588379
5.01,-0.037088751792907715,-6.809973239898682,-0.647258460521698,-0.750142514705658,-0.3199406564235687,-1.1423178911209106,-15.960245132446289,25.31423568725586,-14.425606727600098
5.029,0.33858439326286316,-7.317251682281494,-0.6305087208747864,-0.6922630071640015,-0.19318613409996033,-1.1791225671768188,-15.960245132446289,24.817304611206055,-14.206372261047363
5.033,0.802791953086853,-7.744369983673096,-0.574277400970459,-0.6757696866989136,0.008246680721640587,-1.1830931901931763,-16.194095611572266,24.583454132080078,-14.001753807067871
5.04,1.2502497434616089,-7.920242786407471,-0.5288137793540955,-0.6901249885559082,0.09193521738052368,-1.1551461219787598,-15.901782989501953,23.85267448425293,-13.811750411987305
5.05,1.8927226066589355,-7.9381890296936035,-0.7537391185760498,-0.7029531598091125,0.18906280398368835,-1.0893254280090332,-16.179479598999023,23.911136627197266,-13.344051361083984
5.06,2.4981067180633545,-7.89631462097168,-1.1150553226470947,-0.6701191663742065,0.2513710558414459,-1.002277135848999,-15.81408977508545,23.648056030273438,-12.774043083190918
5.07,2.9312076568603516,-7.987241268157959,-1.5266207456588745,-0.5824600458145142,0.27870726585388184,-0.8973610401153564,-16.267173767089844,23.83806037902832,-12.116340637207031
5.089,3.290131092071533,-8.291130065917969,-1.8149559497833252,-0.4648684561252594,0.2588541507720947,-0.7988590598106384,-15.755626678466797,23.39959144592285,-11.56094741821289
5.093,3.5808589458465576,-8.931209564208984,-2.155933141708374,-0.2970332205295563,0.1791362315416336,-0.6638578176498413,-15.18561840057373,23.5895938873291,-12.028646469116211
5.1,3.8045878410339355,-9.276973724365234,-2.197807550430298,-0.2171625941991806,0.1258382350206375,-0.5815436840057373,-14.425606727600098,23.764982223510742,-11.619409561157227
5.11,4.2484564781188965,-9.724431037902832,-1.9860427379608154,-0.1498146951198578,0.03039054572582245,-0.44577890634536743,-14.63022518157959,23.50189971923828,-10.800935745239258
5.12,4.718646049499512,-10.091730117797852,-2.008774518966675,-0.10522153228521347,-0.04520402476191521,-0.26313018798828125,-13.899443626403809,23.896520614624023,-10.596317291259766
5.13,4.989035129547119,-10.376474380493164,-2.396411657333374,-0.017562376335263252,-0.13759739696979523,-0.05711590126156807,-13.592517852783203,24.305757522583008,-10.596317291259766
5.15,5.249852657318115,-10.65284538269043,-2.4574286937713623,0.144622340798378,-0.28328877687454224,0.19349156320095062,-12.61327075958252,23.83806037902832,-10.347851753234863
5.153,4.673182487487793,-11.467601776123047,-2.139183282852173,0.18448129296302795,-0.4384485185146332,0.39797869324684143,-12.452499389648438,25.168079376220703,-10.4063138961792
5.16,3.915853977203369,-11.721240997314453,-2.313859462738037,0.16233743727207184,-0.5199990272521973,0.46273043751716614,-11.780181884765625,24.817304611206055,-10.304004669189453
5.17,2.8869404792785645,-11.790633201599121,-2.5974087715148926,0.1258382350206375,-0.5589417219161987,0.5083925724029541,-11.414791107177734,25.650394439697266,-10.625548362731934
5.18,2.097308874130249,-11.61715316772461,-2.9838497638702393,0.11453723162412643,-0.4437935948371887,0.5864306092262268,-10.800935745239258,25.606548309326172,-11.429407119750977
5.19,1.8125630617141724,-11.453245162963867,-3.293720245361328,0.18509215116500854,-0.1434006243944168,0.7585418820381165,-10.157849311828613,26.746564865112305,-11.429407119750977
5.209,1.8664016723632812,-11.899506568908691,-3.214756965637207,0.361174076795578,0.24923300743103027,1.0393872261047363,-10.084770202636719,27.652734756469727,-12.23326587677002
5.213,2.183450698852539,-13.074382781982422,-2.39401912689209,0.3888157308101654,0.32620203495025635,1.1065824031829834,-9.763227462768555,27.784273147583008,-12.42326831817627
5.22,2.2576282024383545,-13.83649730682373,-1.990828275680542,0.40194934606552124,0.41661009192466736,1.1847730875015259,-9.441683769226074,27.63811683654785,-12.730195999145508
5.23,2.341376781463623,-14.58784294128418,-1.5996018648147583,0.3929390609264374,0.5140430927276611,1.2753338813781738,-8.900906562805176,28.23735809326172,-12.160186767578125
5.24,2.3030917644500732,-14.91685676574707,-1.5720844268798828,0.3752239942550659,0.5975789427757263,1.3564262390136719,-9.339374542236328,27.886581420898438,-12.978660583496094
5.25,2.008774518966675,-14.79123306274414,-1.92741858959198,0.3969096839427948,0.593913733959198,1.379180908203125,-8.94475269317627,28.69044303894043,-13.899443626403809
5.27,1.6175479888916016,-14.23729419708252,-2.1619153022766113,0.4518875777721405,0.546571671962738,1.379180908203125,-8.94475269317627,29.201988220214844,-14.235603332519531
5.274,0.7680960297584534,-13.093524932861328,-2.1954145431518555,0.5419901609420776,0.4466952085494995,1.3839151859283447,-9.0762939453125,29.36275863647461,-14.922536849975586
5.28,0.47018963098526,-12.606585502624512,-2.1068801879882812,0.5700899958610535,0.417679101228714,1.3898711204528809,-8.94475269317627,28.99736976623535,-15.594855308532715
5.29,-0.2620140612125397,-11.639884948730469,-1.9860427379608154,0.6116288304328918,0.3856086730957031,1.4260648488998413,-9.427068710327148,29.34814453125,-17.027183532714844
5.3,-1.210768222808838,-10.752148628234863,-1.6737794876098633,0.6391177773475647,0.3923282027244568,1.4679092168807983,-9.573224067687988,29.216602325439453,-17.72873306274414
5.31,-2.0673987865448,-10.009177207946777,-1.4428720474243164,0.5986478924751282,0.4285219609737396,1.507615327835083,-9.529377937316895,30.166616439819336,-18.09412384033203
5.326,-3.5030922889709473,-8.762516021728516,-1.8041881322860718,0.5763513445854187,0.5396994352340698,1.500285029411316,-9.514761924743652,30.093538284301758,-18.766441345214844
5.33,-3.926621675491333,-8.522037506103516,-1.781456470489502,0.5881105065345764,0.588874101638794,1.4808900356292725,-9.792458534240723,30.47354507446289,-18.649517059326172
5.34,-4.661218643188477,-8.350950241088867,-1.6007983684539795,0.6227771043777466,0.7438811659812927,1.4376713037490845,-9.485530853271484,30.488161087036133,-19.54106903076172
5.35,-5.020142078399658,-8.665606498718262,-1.1832507848739624,0.6507241725921631,1.0169378519058228,1.3901766538619995,-9.836304664611816,30.780473709106445,-19.570301055908203
5.36,-4.985445499420166,-9.141778945922852,-0.8279166221618652,0.62964928150177,1.2489140033721924,1.3361150026321411,-9.923998832702637,30.605087280273438,-20.549545288085938
5.37,-4.485345840454102,-9.31166934967041,-0.8901299834251404,0.5842925906181335,1.4282029867172241,1.2762501239776611,-10.435544967651367,30.89739990234375,-20.666471481323242
5.386,-3.2925240993499756,-9.387042999267578,-1.2263215780258179,0.5630649924278259,1.6407840251922607,1.2382237911224365,-10.260157585144043,31.233558654785156,-20.856473922729492
5.39,-2.888136863708496,-9.45763111114502,-1.2717852592468262,0.5693264007568359,1.6633859872817993,1.2441797256469727,-10.815550804138184,31.774335861206055,-20.871089935302734
5.4,-2.166700839996338,-9.713663101196289,-1.2873386144638062,0.6114761233329773,1.754404902458191,1.3124439716339111,-11.137094497680664,31.67202377319336,-21.718795776367188
5.41,-1.657029628753662,-10.107282638549805,-1.2717852592468262,0.645684540271759,1.8008307218551636,1.3857477903366089,-11.590178489685059,31.67202377319336,-21.441099166870117
5.42,-1.470389485359192,-10.381260871887207,-1.290927767753601,0.6626361012458801,1.843896746635437,1.4578298330307007,-11.312481880187988,31.81818199157715,-22.215726852416992
5.439,-1.345962643623352,-10.614561080932617,-1.325623631477356,0.6649268269538879,1.8787161111831665,1.5105170011520386,-12.350189208984375,32.490501403808594,-22.303421020507812
5.443,-1.1270194053649902,-10.718648910522461,-1.3351950645446777,0.6275113224983215,1.9173531532287598,1.542281985282898,-12.481730461120605,31.905874252319336,-22.44957733154297
5.45,-0.9308079481124878,-10.691131591796875,-1.325623631477356,0.5965099334716797,1.9222402572631836,1.5421292781829834,-12.598654747009277,33.11897277832031,-22.814966201782227
5.46,-0.27278175950050354,-10.517650604248047,-1.2550355195999146,0.5505422949790955,1.8903225660324097,1.5331189632415771,-13.139432907104492,32.03741455078125,-22.94650650024414
5.47,0.3565305471420288,-10.176674842834473,-1.1617152690887451,0.5051855444908142,1.8164077997207642,1.5270103216171265,-12.905582427978516,33.13358688354492,-22.902660369873047
5.48,0.6903292536735535,-9.710074424743652,-1.0504491329193115,0.45692721009254456,1.6969836950302124,1.5335772037506104,-13.256357192993164,32.69511795043945,-22.522653579711914
5.499,1.4871392250061035,-9.259027481079102,-0.8590232729911804,0.41401392221450806,1.5433509349822998,1.5517504215240479,-13.037124633789062,33.30897521972656,-23.00497055053711
5.504,1.8424733877182007,-8.356932640075684,-0.8602197170257568,0.3462078869342804,1.2237156629562378,1.5845844745635986,-13.139432907104492,33.45513153076172,-23.2095890045166
5.51,1.887937068939209,-7.897511005401611,-0.8853443264961243,0.31810805201530457,1.0296133756637573,1.6038267612457275,-12.861736297607422,33.38205337524414,-23.370359420776367
5.52,1.734796404838562,-7.35194730758667,-0.9678966999053955,0.29275718331336975,0.7568620443344116,1.6255124807357788,-13.095585823059082,33.352821350097656,-23.29728126525879
5.53,1.3124631643295288,-6.826723098754883,-1.0217353105545044,0.2820670008659363,0.5120577812194824,1.6310101747512817,-12.481730461120605,33.9082145690918,-23.326513290405273
5.54,0.8015955090522766,-6.332605361938477,-1.0145567655563354,0.2843577563762665,0.29275718331336975,1.6187928915023804,-12.496346473693848,33.425899505615234,-24.378835678100586
5.56,0.349352091550827,-6.01675271987915,-0.9152546525001526,0.2866485118865967,0.08032877743244171,1.5838208198547363,-11.824028015136719,33.70359420776367,-24.203449249267578
5.564,-0.4402793347835541,-5.8157548904418945,-0.6400800943374634,0.2822197377681732,-0.028557950630784035,1.5477797985076904,-10.64016342163086,33.89359664916992,-24.378835678100586
5.57,-0.6149553656578064,-5.8133625984191895,-0.4905286133289337,0.2721404433250427,-0.0455094613134861,1.5247195959091187,-10.990938186645508,33.5282096862793,-25.065771102905273
5.58,-1.0887342691421509,-5.828916072845459,-0.36251261830329895,0.2515237629413605,-0.03741549327969551,1.4940236806869507,-10.537854194641113,33.46974563598633,-25.25577163696289
5.59,-1.5720844268798828,-5.962913990020752,-0.2955136001110077,0.23105978965759277,0.048258356750011444,1.471268892288208,-10.21631145477295,33.84975051879883,-25.109615325927734
5.6,-1.8424733877182007,-6.288337707519531,-0.13519448041915894,0.20066924393177032,0.23121249675750732,1.455997347831726,-9.850920677185059,33.67436599731445,-25.24115753173828
5.62,-1.990828275680542,-6.619743347167969,0.004785645287483931,0.1641700267791748,0.41859540343284607,1.4538593292236328,-9.061677932739258,33.10435485839844,-25.621164321899414
5.623,-2.389233350753784,-7.071987152099609,-0.06221338361501694,0.12018773704767227,0.6985243558883667,1.42499577999115,-9.003214836120605,33.352821350097656,-25.40192985534668
5.63,-2.4765713214874268,-7.277770042419434,-0.17347964644432068,0.09666942805051804,0.864068865776062,1.3886494636535645,-8.696288108825684,33.01666259765625,-26.147327423095703
5.64,-2.5016961097717285,-7.314858913421631,-0.39840495586395264,0.07299839705228806,1.0201449394226074,1.299310326576233,-8.871675491333008,32.943580627441406,-25.43115997314453
5.65,-2.7864418029785156,-7.251449108123779,-0.8745766282081604,0.08552113175392151,1.178053617477417,1.168279767036438,-8.447822570800781,33.045894622802734,-24.87576675415039
5.66,-2.5004994869232178,-7.53021240234375,-1.3435698747634888,0.18295413255691528,1.3466523885726929,0.9903652667999268,-8.564746856689453,32.66588592529297,-25.25577163696289
5.68,-2.014756679534912,-8.13679313659668,-1.502692461013794,0.2883284091949463,1.4275920391082764,0.8700248003005981,-8.579362869262695,32.052032470703125,-24.788074493408203
5.683,-1.2658032178878784,-8.98265552520752,-1.4309078454971313,0.3784310221672058,1.4274393320083618,0.7472409009933472,-8.491668701171875,32.402809143066406,-24.714996337890625
5.69,-0.48454657196998596,-9.480362892150879,-1.215553879737854,0.3923282027244568,1.3646730184555054,0.6937901973724365,-8.623209953308105,32.972816467285156,-24.13037109375
5.7,0.1411765217781067,-9.704092025756836,-1.2634103298187256,0.3741549551486969,1.2206615209579468,0.6487388610839844,-8.550130844116211,32.70973205566406,-24.934228897094727
5.71,0.48454657196998596,-9.633503913879395,-1.6797614097595215,0.3646865487098694,0.949895441532135,0.5739078521728516,-8.652440071105957,32.5051155090332,-24.422683715820312
5.72,0.3445664644241333,-9.601200103759766,-2.2336997985839844,0.3878994286060333,0.6795875430107117,0.49556440114974976,-8.740134239196777,32.5489616394043,-24.788074493408203
5.739,-0.234496608376503,-9.56052303314209,-2.548356056213379,0.4331034719944,0.19165895879268646,0.29535335302352905,-8.491668701171875,32.5489616394043,-25.065771102905273
5.743,-1.1234301328659058,-9.58923625946045,-2.726621150970459,0.43875396251678467,0.14813482761383057,0.270766019821167,-8.623209953308105,32.78281021118164,-24.67115020751953
5.75,-1.5278172492980957,-9.737591743469238,-2.671586275100708,0.45234569907188416,0.048258356750011444,0.20433442294597626,-8.52090072631836,32.797428131103516,-24.2911434173584
5.76,-1.956132411956787,-10.016355514526367,-2.468196392059326,0.4465424716472626,-0.04871650040149689,0.11255192011594772,-8.491668701171875,32.00818634033203,-25.913476943969727
5.77,-2.1918253898620605,-10.460224151611328,-2.0542380809783936,0.41202861070632935,-0.1036943718791008,0.03756821155548096,-8.140894889831543,31.993568420410156,-25.43115997314453
5.78,-2.242074728012085,-10.814361572265625,-1.7012969255447388,0.3556762933731079,-0.15363259613513947,-0.041233401745557785,-8.082432746887207,32.03741455078125,-25.76732063293457
5.799,-2.142772674560547,-11.145767211914062,-1.5170494318008423,0.251676470041275,-0.32131510972976685,-0.21303924918174744,-7.673194885253906,32.46126937866211,-25.942707061767578
5.803,-1.8592231273651123,-12.017951011657715,-1.0217353105545044,0.22479841113090515,-0.38866299390792847,-0.24587324261665344,-7.468576908111572,31.788951873779297,-26.54194450378418
5.81,-1.9286149740219116,-12.284750938415527,-0.9798608422279358,0.18096882104873657,-0.5035056471824646,-0.290313720703125,-7.351651668548584,32.51972961425781,-26.731950759887695
5.82,-2.4849462509155273,-12.632906913757324,-1.2418749332427979,0.15454889833927155,-0.6922630071640015,-0.36483925580978394,-7.293189525604248,32.15433883666992,-27.05349349975586
5.83,-3.314059257507324,-12.867403030395508,-1.4787644147872925,0.1621847152709961,-0.8785768747329712,-0.46303585171699524,-6.620871067047119,32.402809143066406,-27.185035705566406
5.84,-4.121636867523193,-13.25025463104248,-1.612762451171875,0.18478672206401825,-1.0013607740402222,-0.5865833163261414,-6.0654778480529785,31.978952407836914,-27.915815353393555
5.859,-4.754538536071777,-14.141581535339355,-1.3938192129135132,0.2200642079114914,-1.0157161951065063,-0.8126034736633301,-5.904706001281738,32.35895919799805,-28.485822677612305
5.863,-4.754538536071777,-14.188241004943848,-1.3387842178344727,0.2099849283695221,-0.9998337030410767,-0.8552113175392151,-5.773165702819824,32.32973098754883,-28.71967315673828
5.87,-4.462614059448242,-14.096117973327637,-1.1545369625091553,0.18096882104873657,-0.9821186065673828,-0.9124799370765686,-6.0800933837890625,33.2651252746582,-28.99736976623535
5.88,-4.107280254364014,-13.76231861114502,-1.0671988725662231,0.11728612333536148,-0.9932668805122375,-0.9686795473098755,-5.583162784576416,32.63665771484375,-29.596609115600586
5.89,-3.724428415298462,-13.415359497070312,-0.867398202419281,0.03222314268350601,-1.0600038766860962,-1.0207557678222656,-4.750072956085205,33.11897277832031,-30.327388763427734
5.9,-3.5270204544067383,-12.868599891662598,-0.5335994362831116,-0.08628471195697784,-1.1951578855514526,-1.1033753156661987,-4.633148193359375,33.14820098876953,-31.686643600463867
5.918,-2.7840490341186523,-11.479565620422363,0.08853442966938019,-0.3171917796134949,-1.5514450073242188,-1.3264938592910767,-3.946214437484741,34.21514129638672,-32.052032470703125
5.922,-2.6739792823791504,-11.306086540222168,0.19381862878799438,-0.33826664090156555,-1.5864169597625732,-1.3501648902893066,-4.472376346588135,34.31745147705078,-33.060508728027344
5.93,-2.142772674560547,-10.88016414642334,0.696311354637146,-0.4132503271102905,-1.6978999376296997,-1.4213306903839111,-4.01929235458374,35.23823165893555,-33.11897277832031
5.94,-1.7324036359786987,-10.6624174118042,1.1006983518600464,-0.48777589201927185,-1.7931948900222778,-1.4587461948394775,-4.1216020584106445,35.39900588989258,-34.46360778808594
5.95,-1.5708880424499512,-10.722237586975098,1.3160523176193237,-0.5491678714752197,-1.8764253854751587,-1.478141188621521,-3.9754457473754883,36.115169525146484,-35.74978256225586
5.96,-1.6199408769607544,-10.998608589172363,1.4644074440002441,-0.5885686278343201,-1.9633208513259888,-1.4789047241210938,-4.413913726806641,36.26132583618164,-35.69131851196289
5.98,-2.6249263286590576,-11.57168960571289,1.537388563156128,-0.6548475623130798,-2.0567831993103027,-1.5638149976730347,-4.06313943862915,37.299034118652344,-37.19672393798828
5.983,-2.81276273727417,-11.586047172546387,1.5050853490829468,-0.6615670323371887,-2.052507162094116,-1.5853480100631714,-4.545454502105713,37.51826858520508,-37.50365447998047
5.99,-3.067598581314087,-11.607583045959473,1.399801254272461,-0.6777549982070923,-2.0027215480804443,-1.6614007949829102,-4.603917121887207,38.234432220458984,-37.95673751831055
6.0,-3.321237564086914,-11.722436904907227,1.1437692642211914,-0.6918048858642578,-1.855044960975647,-1.75303053855896,-4.647763729095459,39.564453125,-37.649810791015625
6.01,-3.3367910385131836,-11.796615600585938,1.042074203491211,-0.6931793689727783,-1.6723963022232056,-1.8413004875183105,-5.188541412353516,40.149078369140625,-38.219818115234375
6.029,-3.2171499729156494,-11.758330345153809,1.0456634759902954,-0.6934847235679626,-1.4715744256973267,-1.9266688823699951,-6.357789993286133,41.21601867675781,-38.92136764526367
6.033,-2.7912275791168213,-11.432906150817871,1.073180913925171,-0.6884450912475586,-1.3119858503341675,-1.9912679195404053,-6.796258926391602,41.9614143371582,-38.73136520385742
6.04,-2.575873613357544,-11.25942611694336,1.0001999139785767,-0.7000515460968018,-1.204473614692688,-2.021047592163086,-6.913183689117432,42.619117736816406,-39.06752395629883
6.05,-2.1535403728485107,-10.960323333740234,0.6735795140266418,-0.7226535677909851,-1.0444267988204956,-2.0528125762939453,-7.497807502746582,43.379127502441406,-39.09675598144531
6.06,-1.7766706943511963,-10.700701713562012,0.41156551241874695,-0.7486153841018677,-0.8973610401153564,-2.0818285942077637,-7.9947381019592285,43.84682846069336,-38.61444091796875
6.07,-1.25862455368042,-10.36929702758789,0.24526430666446686,-0.7831292152404785,-0.7525859475135803,-2.1067216396331787,-9.047061920166016,45.132999420166016,-38.32212829589844
6.08,-0.6831508874893188,-9.694520950317383,-0.008374879136681557,-0.8006916046142578,-0.6837109327316284,-2.1061105728149414,-10.084770202636719,45.132999420166016,-38.71674728393555
6.092,-0.09571290761232376,-8.958727836608887,-0.2153540402650833,-0.7877107262611389,-0.6597344279289246,-2.0751092433929443,-10.479392051696777,45.746856689453125,-37.8251953125
6.1,0.21774685382843018,-8.505288124084473,-0.4175475239753723,-0.7542658448219299,-0.6688974499702454,-2.0366246700286865,-10.932476043701172,46.477638244628906,-38.00058364868164
6.11,0.6005984544754028,-7.936992645263672,-0.6843472719192505,-0.679129421710968,-0.6918048858642578,-1.9674441814422607,-12.116340637207031,47.04764938354492,-37.605960845947266
6.12,0.9595218300819397,-7.524230480194092,-0.6281159520149231,-0.5771149396896362,-0.7761042714118958,-1.8654296398162842,-12.335575103759766,47.456886291503906,-37.43057632446289
6.13,1.31365966796875,-7.237092018127441,-0.3278166949748993,-0.5531384348869324,-0.8526151180267334,-1.761582612991333,-13.227126121520996,47.98304748535156,-36.422096252441406
6.15,1.5361920595169067,-6.838686943054199,-0.30987051129341125,-0.5618432760238647,-0.9402742981910706,-1.6427693367004395,-13.738672256469727,47.99766159057617,-36.30517578125
6.153,1.4309078454971313,-6.374479293823242,-0.28953152894973755,-0.5528330206871033,-1.0503827333450317,-1.497536063194275,-14.527915000915527,48.6407470703125,-36.80210494995117
6.16,1.3399806022644043,-6.291926860809326,-0.02392822690308094,-0.5546656250953674,-1.089020013809204,-1.4640913009643555,-14.63022518157959,48.24612808227539,-35.910552978515625
6.17,1.1748758554458618,-6.179464340209961,0.2021934986114502,-0.6096435189247131,-1.1468994617462158,-1.3781119585037231,-15.258696556091309,49.210758209228516,-35.925167083740234
6.18,0.6927221417427063,-6.161518096923828,0.31824538111686707,-0.6632469296455383,-1.129337191581726,-1.3187053203582764,-15.989476203918457,48.34843444824219,-36.64133071899414
6.19,0.48574298620224,-6.130411148071289,0.3170489966869354,-0.7017314434051514,-1.072068452835083,-1.2669343948364258,-16.588716506958008,49.7223014831543,-36.18824768066406
6.21,0.16749757528305054,-6.1435723304748535,0.2584248483181,-0.7281513810157776,-0.9986119866371155,-1.2376130819320679,-16.98333740234375,49.853843688964844,-35.969017028808594
6.213,-0.06699903309345245,-6.215356349945068,0.13280165195465088,-0.7432702779769897,-0.8712465763092041,-1.242194414138794,-17.114879608154297,49.42999267578125,-35.6036262512207
6.22,-0.12323036044836044,-6.247659683227539,-0.04785645380616188,-0.7394523620605469,-0.7988590598106384,-1.2600622177124023,-17.52411651611328,49.4007568359375,-35.6036262512207
6.23,-0.23569302260875702,-6.262016773223877,-0.30149564146995544,-0.720210075378418,-0.7037167549133301,-1.303586483001709,-18.63490104675293,50.160770416259766,-35.720550537109375
6.24,-0.1495514065027237,-6.344569206237793,-0.24287149310112,-0.6953173279762268,-0.5951354503631592,-1.354135513305664,-18.43028450012207,49.89768981933594,-36.422096252441406
6.25,0.019142581149935722,-6.577868938446045,-0.04785645380616188,-0.7130324244499207,-0.49984046816825867,-1.3910928964614868,-19.292604446411133,50.365386962890625,-35.51593017578125
6.27,0.17706885933876038,-6.690331935882568,-0.1579262912273407,-0.7625125646591187,-0.38148534297943115,-1.3994922637939453,-20.198772430419922,49.7223014831543,-35.6036262512207
6.274,0.7740780711174011,-6.726224422454834,-0.4737788736820221,-0.7632761001586914,-0.1745547503232956,-1.359480619430542,-21.061092376708984,49.590763092041016,-35.939781188964844
6.28,0.8757730722427368,-6.756134510040283,-0.605384111404419,-0.7422012686729431,-0.06062837690114975,-1.3103058338165283,-21.075708389282227,49.780765533447266,-36.539024353027344
6.291,1.3028918504714966,-6.987041473388672,-0.9523433446884155,-0.7017314434051514,0.0933096632361412,-1.239292860031128,-22.595731735229492,49.6784553527832,-35.939781188964844
6.301,1.7168502807617188,-7.350750923156738,-1.1676974296569824,-0.6369796991348267,0.2379319965839386,-1.1643091440200806,-23.22420310974121,49.89768981933594,-36.0274772644043
6.31,2.3569302558898926,-7.963313102722168,-1.2837493419647217,-0.5723807215690613,0.33505958318710327,-1.0958921909332275,-24.101139068603516,49.6199951171875,-35.895938873291016
6.331,2.794816732406616,-8.520841598510742,-1.4883357286453247,-0.5038110613822937,0.39904773235321045,-1.0367910861968994,-24.349605560302734,49.70768737792969,-37.050567626953125
6.335,3.8632121086120605,-9.169296264648438,-1.621137261390686,-0.41294488310813904,0.3649919927120209,-0.9143125414848328,-25.080385208129883,49.13768005371094,-37.211341857910156
6.34,4.394418716430664,-9.272187232971191,-1.7288143634796143,-0.38759398460388184,0.3205515146255493,-0.8666650652885437,-25.29962158203125,48.9622917175293,-37.854427337646484
6.35,4.9052863121032715,-9.256633758544922,-1.8113667964935303,-0.327729195356369,0.18188512325286865,-0.7461718320846558,-26.468870162963867,49.12306213378906,-37.35749816894531
6.36,5.3347978591918945,-9.31765079498291,-1.7706886529922485,-0.2681698203086853,-0.00855211354792118,-0.6049093008041382,-26.907337188720703,48.27535629272461,-37.31365203857422
6.37,5.254638671875,-9.45763111114502,-1.753938913345337,-0.2177734524011612,-0.204487144947052,-0.4534147381782532,-27.1704158782959,48.36305236816406,-37.26980209350586
6.39,4.9292144775390625,-9.641878128051758,-1.798206090927124,-0.15546520054340363,-0.3715587854385376,-0.2684752643108368,-27.331188201904297,47.529964447021484,-37.679039001464844
6.394,4.028316974639893,-9.974480628967285,-2.0195422172546387,-0.0988074541091919,-0.4491386413574219,-0.11194105446338654,-27.798887252807617,47.57380676269531,-37.56211853027344
6.4,3.5150563716888428,-10.13479995727539,-2.1918253898620605,-0.054367005825042725,-0.43676862120628357,-0.02275473065674305,-28.032737731933594,47.19380569458008,-37.708274841308594
6.41,3.1094729900360107,-10.381260871887207,-2.4502503871917725,0.028099801391363144,-0.3553708493709564,0.11087203770875931,-28.368898391723633,46.974571228027344,-37.971351623535156
6.42,3.0209386348724365,-10.604989051818848,-2.6847469806671143,0.15974126756191254,-0.22189679741859436,0.27718010544776917,-27.842735290527344,46.40456008911133,-37.854427337646484
6.43,3.376272678375244,-10.962716102600098,-2.3509480953216553,0.28756481409072876,-0.0009162978385575116,0.5380195379257202,-28.07658576965332,46.78456497192383,-38.30751037597656
6.45,3.8835508823394775,-11.800204277038574,-2.1092729568481445,0.322536826133728,0.15622878074645996,0.7490735054016113,-27.331188201904297,46.097633361816406,-38.96521759033203
6.453,3.7160534858703613,-12.524033546447754,-2.1104695796966553,0.31932979822158813,0.2405281811952591,0.9246972799301147,-27.594270706176758,45.790706634521484,-38.87752151489258
6.46,3.460021495819092,-12.769296646118164,-2.2121644020080566,0.31642818450927734,0.2658790946006775,0.9905179738998413,-27.287343978881836,45.32300567626953,-37.86904525756836
6.47,3.221935510635376,-13.000205039978027,-2.4191436767578125,0.34834590554237366,0.3306308090686798,1.0813841819763184,-27.009645462036133,45.717628479003906,-37.4451904296875
6.48,3.0580272674560547,-13.406984329223633,-2.427518606185913,0.45036038756370544,0.4356996417045593,1.2160799503326416,-26.673486709594727,45.39608383178711,-38.24905014038086
6.49,2.9766714572906494,-14.155938148498535,-2.063809394836426,0.5174028873443604,0.5190827250480652,1.3243557214736938,-26.658872604370117,46.22917175292969,-38.570594787597656
6.51,2.740978240966797,-14.018350601196289,-1.856830358505249,0.5839871764183044,0.6713408827781677,1.5306755304336548,-25.460391998291016,46.78456497192383,-38.760597229003906
6.513,2.589033842086792,-13.710872650146484,-2.0362918376922607,0.5858197212219238,0.6846271753311157,1.5505287647247314,-25.270387649536133,45.98070526123047,-38.93598175048828
6.52,2.149951219558716,-13.138988494873047,-2.368894338607788,0.6096435189247131,0.6928738951683044,1.5847371816635132,-24.68576431274414,46.00994110107422,-38.848289489746094
6.53,1.4333007335662842,-12.497712135314941,-2.2923240661621094,0.6583600044250488,0.6276640295982361,1.5714508295059204,-24.904998779296875,46.346099853515625,-39.403682708740234
6.54,0.6496513485908508,-11.918649673461914,-2.139183282852173,0.6505715250968933,0.5836817622184753,1.5424346923828125,-24.174217224121094,46.69687271118164,-39.60830307006836
6.55,-0.11964112520217896,-10.971091270446777,-2.1475582122802734,0.6490443348884583,0.5809328556060791,1.5236506462097168,-24.144987106323242,47.57380676269531,-39.05290985107422
6.569,-0.778863787651062,-10.102496147155762,-2.266003131866455,0.6821837425231934,0.683863639831543,1.4984524250030518,-22.405729293823242,48.24612808227539,-38.99444580078125
6.573,-1.5672988891601562,-9.349953651428223,-2.0279171466827393,0.6805039048194885,0.7026477456092834,1.4897475242614746,-22.37649917602539,48.27535629272461,-38.68751907348633
6.58,-1.891526222229004,-9.113064765930176,-1.856830358505249,0.6727153658866882,0.7631233930587769,1.467145562171936,-22.025724411010742,48.479976654052734,-39.43291473388672
6.59,-2.227717876434326,-8.992227554321289,-1.6785650253295898,0.645684540271759,0.8848382830619812,1.4220943450927734,-21.66033363342285,48.50920867919922,-38.950599670410156
6.6,-2.472982168197632,-9.102296829223633,-1.262213945388794,0.6097962260246277,0.9769262671470642,1.378722906112671,-20.62262535095215,48.87459945678711,-39.140602111816406
6.61,-2.366501569747925,-9.418149948120117,-0.9882357120513916,0.5580253601074219,1.0755809545516968,1.3451251983642578,-20.286466598510742,49.590763092041016,-39.43291473388672
6.629,-1.8017953634262085,-9.747162818908691,-1.1748758554458618,0.4531092941761017,1.2244794368743896,1.3297008275985718,-19.614147186279297,50.3215446472168,-38.62905502319336
6.633,-1.7551352977752686,-9.737591743469238,-1.2287143468856812,0.4424191415309906,1.253495454788208,1.3364204168319702,-19.614147186279297,50.21923065185547,-37.95673751831055
6.64,-1.5625131130218506,-9.828518867492676,-1.3758729696273804,0.44715335965156555,1.293965220451355,1.352608323097229,-18.78105926513672,50.0,-38.32212829589844
6.65,-1.2873386144638062,-10.06301498413086,-1.4572290182113647,0.48059821128845215,1.3376421928405762,1.3817771673202515,-18.88336753845215,50.43846893310547,-38.24905014038086
6.66,-1.1976077556610107,-10.249655723571777,-1.466800332069397,0.5300782918930054,1.3800973892211914,1.4162909984588623,-18.34259033203125,50.3215446472168,-38.4244384765625
6.67,-1.1449655294418335,-10.431509971618652,-1.4428720474243164,0.5719225406646729,1.4196507930755615,1.4515684843063354,-17.69950294494629,50.73078155517578,-37.31365203857422
6.69,-1.2550355195999146,-10.601400375366211,-1.4237295389175415,0.6331618428230286,1.5308282375335693,1.5077680349349976,-16.530254364013672,51.06694030761719,-36.77287292480469
6.693,-1.2023932933807373,-10.637292861938477,-1.3746765851974487,0.6432411074638367,1.5717562437057495,1.5161675214767456,-16.574100494384766,51.03771209716797,-37.065185546875
6.7,-1.1294121742248535,-10.637292861938477,-1.2765707969665527,0.6537785530090332,1.6300938129425049,1.5251778364181519,-16.04793930053711,51.169246673583984,-37.50365447998047
6.71,-0.7597211599349976,-10.621739387512207,-1.109073281288147,0.6534730792045593,1.7050775289535522,1.5358679294586182,-15.492546081542969,51.52002716064453,-37.050567626953125
6.72,-0.37806597352027893,-10.431509971618652,-0.9463613033294678,0.6368269920349121,1.7406604290008545,1.5436564683914185,-14.805611610412598,50.950016021728516,-36.94826126098633
6.73,-0.03110669180750847,-10.1874418258667,-0.867398202419281,0.6053674817085266,1.7573065757751465,1.5622878074645996,-14.498684883117676,51.56386947631836,-36.80210494995117
6.746,0.6664010882377625,-9.383453369140625,-0.9535397887229919,0.5193881988525391,1.6238324642181396,1.5957326889038086,-13.139432907104492,51.183860778808594,-35.79362487792969
6.75,0.9918249249458313,-9.117850303649902,-1.0013961791992188,0.4928155243396759,1.5612187385559082,1.6033685207366943,-12.61327075958252,51.63694763183594,-36.0274772644043
