time,accel_x,accel_y,accel_z,gyro_x,gyro_y,gyro_z,mag_x,mag_y,mag_z
0.0,74.46924591064453,23.75048065185547,12.105083465576172,1.7320060729980469,0.0,-7.72741174697876,-44.70000076293945,-12.15000057220459,4.950000286102295
0.01,72.93695831298828,24.44001007080078,15.974113464355469,-1.8652373552322388,4.929555892944336,-0.7993874549865723,-43.80000305175781,-11.850000381469727,5.400000095367432
0.02,72.09420013427734,25.129541397094727,16.58702850341797,2.131699800491333,7.460949420928955,-3.4640121459960938,-43.80000305175781,-11.850000381469727,5.400000095367432
0.03,71.48128509521484,25.359384536743164,15.437812805175781,11.724349021911621,3.597243309020996,-2.131699800491333,-44.400001525878906,-12.450000762939453,4.950000286102295
0.04,72.01758575439453,25.435998916625977,15.974113464355469,7.9938740730285645,11.058192253112793,-2.6646246910095215,-44.70000076293945,-11.700000762939453,6.0
0.061,72.13250732421875,24.516624450683594,15.284584045410156,7.460949420928955,15.588054656982422,-10.392036437988281,-43.80000305175781,-12.300000190734863,6.600000381469727
0.064,73.58818054199219,25.014619827270508,16.70195198059082,8.127105712890625,13.722817420959473,-9.859111785888672,-43.20000076293945,-11.40000057220459,7.050000190734863
0.07,73.47325897216797,22.448034286499023,16.242263793945312,8.793261528015137,3.597243309020996,-3.0643184185028076,-43.20000076293945,-11.40000057220459,7.050000190734863
0.08,73.74140930175781,22.409727096557617,15.820884704589844,-0.9326186776161194,12.124042510986328,-10.658498764038086,-43.650001525878906,-12.450000762939453,6.300000190734863
0.09,73.58818054199219,22.333112716674805,15.016432762145996,-5.462480545043945,10.525267601013184,-7.06125545501709,-43.95000076293945,-10.950000762939453,4.950000286102295
0.1,74.12448120117188,22.409727096557617,15.782577514648438,0.2664624750614166,-5.728943347930908,-8.926492691040039,-43.5,-13.050000190734863,5.850000381469727
0.119,72.20912170410156,22.83110809326172,14.518439292907715,-3.597243309020996,0.9326186776161194,-0.6661561727523804,-43.20000076293945,-11.40000057220459,6.0
0.123,73.0518798828125,22.869415283203125,16.1656494140625,2.398162364959717,1.8652373552322388,2.2649309635162354,-43.20000076293945,-11.40000057220459,6.0
0.13,73.43495178222656,23.903709411621094,15.207969665527344,9.059723854064941,-5.728943347930908,5.062787055969238,-44.55000305175781,-11.100000381469727,4.650000095367432
0.14,73.6264877319336,24.708162307739258,15.437812805175781,8.260336875915527,-3.197549819946289,0.0,-43.05000305175781,-11.550000190734863,6.150000095367432
0.15,72.89865112304688,24.746469497680664,14.326903343200684,-5.329249382019043,3.3307809829711914,-8.526799201965332,-43.20000076293945,-11.700000762939453,6.750000476837158
0.16,71.40467071533203,25.780763626098633,15.552734375,2.6646246910095215,2.797856092453003,-8.127105712890625,-42.75,-13.050000190734863,6.600000381469727
0.18,70.33206939697266,25.244462966918945,16.66364288330078,-2.531393527984619,-6.9280242919921875,3.3307809829711914,-42.75,-13.050000190734863,6.600000381469727
0.184,71.51959228515625,24.516624450683594,16.242263793945312,-1.7320060729980469,-4.663093090057373,-4.929555892944336,-42.75,-13.050000190734863,6.600000381469727
0.19,70.10222625732422,24.478317260742188,16.510414123535156,-8.660030364990234,-1.8652373552322388,-6.261868000030518,-43.650001525878906,-11.40000057220459,6.750000476837158
0.2,70.29376220703125,24.325088500976562,16.548721313476562,-0.6661561727523804,8.39356803894043,4.796324729919434,-42.30000305175781,-11.100000381469727,6.600000381469727
0.21,72.78372955322266,24.478317260742188,16.58702850341797,5.728943347930908,10.125574111938477,-0.2664624750614166,-43.5,-13.800000190734863,5.400000095367432
0.22,72.66880798339844,23.788787841796875,16.66364288330078,2.2649309635162354,17.053598403930664,-6.5283308029174805,-43.80000305175781,-11.100000381469727,5.850000381469727
0.239,72.70711517333984,23.02264404296875,15.591041564941406,-0.6661561727523804,15.055130004882812,-1.9984685182571411,-43.80000305175781,-11.100000381469727,5.850000381469727
0.243,72.09420013427734,23.75048065185547,16.66364288330078,10.392036437988281,10.658498764038086,5.062787055969238,-42.30000305175781,-11.850000381469727,5.100000381469727
0.25,73.0518798828125,22.984336853027344,14.326903343200684,4.396630764007568,19.85145378112793,1.3323123455047607,-42.75,-12.750000953674316,5.400000095367432
0.26,75.23539733886719,24.66985511779785,14.403517723083496,2.2649309635162354,26.912710189819336,-3.86370587348938,-42.0,-12.300000190734863,5.850000381469727
0.27,74.08617401123047,25.321077346801758,14.633360862731934,4.663093090057373,5.595712184906006,5.196018218994141,-43.95000076293945,-12.90000057220459,5.700000286102295
0.28,73.81802368164062,25.09123420715332,14.633360862731934,-3.4640121459960938,-3.0643184185028076,-6.794793128967285,-43.95000076293945,-12.90000057220459,5.700000286102295
0.3,74.2394027709961,25.39769172668457,14.020444869995117,-11.857580184936523,-0.39969372749328613,-7.460949420928955,-43.650001525878906,-11.700000762939453,4.200000286102295
0.304,71.02159881591797,23.13756561279297,15.744270324707031,-20.91730499267578,-15.987748146057129,-15.188361167907715,-43.20000076293945,-12.450000762939453,5.25
0.31,70.83006286621094,22.946029663085938,15.705963134765625,-9.592649459838867,-22.649311065673828,-5.462480545043945,-43.20000076293945,-12.450000762939453,5.25
0.32,71.40467071533203,21.56696891784668,16.318878173828125,-14.522205352783203,-15.188361167907715,-13.722817420959473,-43.20000076293945,-12.90000057220459,4.5
0.33,72.32404327392578,23.099258422851562,16.203956604003906,-15.854516983032227,-13.58958625793457,-9.192955017089844,-43.20000076293945,-12.90000057220459,4.5
0.34,72.4772720336914,22.90772247314453,17.353174209594727,-7.194486618041992,-9.992342948913574,-3.9969370365142822,-43.95000076293945,-10.5,6.0
0.359,72.51557922363281,23.44402313232422,16.740259170532227,-4.796324729919434,-6.5283308029174805,1.9984685182571411,-43.95000076293945,-12.450000762939453,6.0
0.363,71.213134765625,23.903709411621094,17.238252639770508,-2.9310872554779053,9.459418296813965,5.8621745109558105,-45.45000076293945,-11.700000762939453,4.950000286102295
0.37,72.24742889404297,24.478317260742188,16.35718536376953,0.7993874549865723,16.25421142578125,0.9326186776161194,-45.45000076293945,-11.700000762939453,4.950000286102295
0.38,73.20510864257812,24.938005447387695,16.47210693359375,9.459418296813965,13.856048583984375,5.728943347930908,-45.45000076293945,-11.700000762939453,4.950000286102295
0.39,73.81802368164062,26.31706428527832,15.016432762145996,17.453292846679688,16.920366287231445,-1.9984685182571411,-45.0,-12.300000190734863,4.650000095367432
0.4,73.43495178222656,26.393678665161133,12.48815631866455,8.260336875915527,23.448698043823242,-0.5329249501228333,-43.20000076293945,-13.65000057220459,5.700000286102295
0.42,75.08216857910156,26.66183090209961,12.48815631866455,8.660030364990234,17.986217498779297,0.39969372749328613,-43.95000076293945,-12.15000057220459,5.25
0.423,72.59219360351562,26.585216522216797,9.921571731567383,2.6646246910095215,23.182235717773438,-0.9326186776161194,-43.20000076293945,-12.450000762939453,5.25
0.43,72.17081451416016,27.044902801513672,11.338939666748047,0.0,15.321592330932617,-7.860642910003662,-43.20000076293945,-12.450000762939453,5.25
0.44,70.6385269165039,27.121517181396484,12.449849128723145,1.9984685182571411,5.728943347930908,-8.793261528015137,-43.80000305175781,-11.100000381469727,6.900000095367432
0.45,71.51959228515625,26.738445281982422,11.492168426513672,6.5283308029174805,-13.323123931884766,-2.531393527984619,-43.95000076293945,-12.450000762939453,5.700000286102295
0.46,73.0901870727539,26.85336685180664,11.1474027633667,0.9326186776161194,-9.859111785888672,-17.053598403930664,-42.45000076293945,-12.90000057220459,6.300000190734863
0.48,73.85633087158203,25.933992385864258,11.91354751586914,-0.39969372749328613,-15.321592330932617,-15.321592330932617,-43.650001525878906,-10.950000762939453,6.750000476837158
0.483,72.05589294433594,25.359384536743164,14.173673629760742,4.663093090057373,-31.975496292114258,-2.6646246910095215,-43.20000076293945,-12.15000057220459,6.750000476837158
0.49,70.5619125366211,24.89969825744629,14.97812557220459,5.595712184906006,-25.7136287689209,-11.191424369812012,-43.20000076293945,-12.15000057220459,6.750000476837158
0.5,71.36636352539062,25.167848587036133,14.020444869995117,5.329249382019043,-30.110260009765625,-7.9938740730285645,-43.05000305175781,-11.550000190734863,5.850000381469727
0.51,71.97927856445312,24.36339569091797,14.288596153259277,2.2649309635162354,-15.854516983032227,-16.387441635131836,-45.0,-11.550000190734863,5.100000381469727
0.52,73.32003021240234,23.52063751220703,15.093047142028809,7.327718257904053,-11.990811347961426,-3.9969370365142822,-45.0,-11.550000190734863,5.100000381469727
0.54,71.63451385498047,24.095245361328125,15.093047142028809,7.72741174697876,-4.263399600982666,-10.392036437988281,-42.30000305175781,-11.550000190734863,5.100000381469727
0.543,71.40467071533203,23.865402221679688,15.629348754882812,12.523736000061035,8.793261528015137,-4.663093090057373,-44.70000076293945,-11.700000762939453,6.750000476837158
0.55,72.13250732421875,23.673866271972656,15.437812805175781,19.718223571777344,11.191424369812012,-1.8652373552322388,-42.45000076293945,-10.950000762939453,5.700000286102295
0.56,71.59620666503906,25.474306106567383,15.935806274414062,19.31852912902832,8.260336875915527,-0.1332312375307083,-43.05000305175781,-11.550000190734863,5.400000095367432
0.57,72.86034393310547,24.66985511779785,16.089035034179688,15.588054656982422,20.117916107177734,-2.531393527984619,-43.05000305175781,-11.550000190734863,5.400000095367432
0.58,73.24341583251953,24.66985511779785,14.939818382263184,7.860642910003662,17.986217498779297,-6.661561965942383,-43.650001525878906,-13.200000762939453,5.700000286102295
0.599,72.82203674316406,23.712173461914062,14.058752059936523,11.990811347961426,12.790199279785156,4.130168437957764,-43.5,-11.850000381469727,6.150000095367432
0.604,72.01758575439453,22.869415283203125,14.595053672790527,-2.797856092453003,19.98468589782715,-12.124042510986328,-42.75,-12.300000190734863,4.650000095367432
0.61,72.24742889404297,21.413740158081055,13.48414421081543,-7.860642910003662,22.116384506225586,-9.992342948913574,-44.25,-11.850000381469727,6.150000095367432
0.62,74.46924591064453,20.915746688842773,12.7946138381958,-7.06125545501709,7.460949420928955,-7.860642910003662,-44.25,-11.850000381469727,6.150000095367432
0.63,72.89865112304688,20.226215362548828,12.871228218078613,-7.9938740730285645,8.39356803894043,-5.329249382019043,-42.75,-11.550000190734863,4.650000095367432
0.64,73.77971649169922,20.341136932373047,12.373234748840332,-19.31852912902832,10.658498764038086,-8.127105712890625,-43.05000305175781,-11.550000190734863,5.850000381469727
0.659,73.664794921875,23.482330322265625,11.683704376220703,-11.990811347961426,10.525267601013184,-3.3307809829711914,-43.5,-10.800000190734863,6.900000095367432
0.663,73.93294525146484,24.708162307739258,11.262324333190918,-2.9310872554779053,6.5283308029174805,1.5987749099731445,-44.70000076293945,-10.200000762939453,7.050000190734863
0.67,73.54987335205078,25.167848587036133,11.338939666748047,-13.856048583984375,3.4640121459960938,-5.062787055969238,-42.150001525878906,-10.5,5.700000286102295
0.68,73.89463806152344,25.933992385864258,12.22000503540039,-7.327718257904053,-4.929555892944336,-10.92496109008789,-42.150001525878906,-10.5,5.700000286102295
0.69,73.20510864257812,26.355371475219727,11.1474027633667,-3.86370587348938,-11.990811347961426,-8.39356803894043,-43.5,-8.850000381469727,4.650000095367432
0.7,72.17081451416016,26.815059661865234,11.262324333190918,-14.655436515808105,-4.263399600982666,-14.12251091003418,-42.75,-12.300000190734863,6.150000095367432
0.716,71.63451385498047,27.27474594116211,11.185709953308105,-9.859111785888672,-17.586523056030273,-13.856048583984375,-43.80000305175781,-11.850000381469727,6.600000381469727
0.72,71.213134765625,27.006595611572266,14.633360862731934,-15.188361167907715,-6.9280242919921875,-13.58958625793457,-43.5,-10.050000190734863,4.650000095367432
0.73,71.44297790527344,27.389667510986328,14.135366439819336,-11.191424369812012,-18.2526798248291,-11.457886695861816,-43.5,-10.050000190734863,4.650000095367432
0.74,70.52360534667969,27.46628189086914,12.564770698547363,-21.050535202026367,-13.722817420959473,-13.056661605834961,-44.25,-11.550000190734863,5.100000381469727
0.75,70.06391906738281,27.734432220458984,14.211980819702148,-18.519142150878906,-12.790199279785156,-15.588054656982422,-45.45000076293945,-10.950000762939453,4.5
0.76,71.13652038574219,27.006595611572266,15.016432762145996,-9.192955017089844,-11.857580184936523,-6.9280242919921875,-44.25,-11.100000381469727,4.350000381469727
0.779,71.32805633544922,26.585216522216797,13.637372970581055,-6.395099639892578,-5.995405673980713,-17.32006072998047,-42.75,-11.100000381469727,5.400000095367432
0.783,70.33206939697266,25.780763626098633,14.09705924987793,-6.661561965942383,-2.797856092453003,-6.261868000030518,-42.75,-11.100000381469727,5.400000095367432
0.79,69.91069030761719,28.155811309814453,13.21599292755127,-7.460949420928955,7.9938740730285645,-10.658498764038086,-43.5,-10.350000381469727,3.9000000953674316
0.8,69.91069030761719,26.54690933227539,13.21599292755127,-2.2649309635162354,13.58958625793457,-8.260336875915527,-42.150001525878906,-10.200000762939453,5.25
0.81,71.1748275756836,26.66183090209961,11.951854705810547,-1.3323123455047607,12.390504837036133,-10.658498764038086,-44.400001525878906,-11.700000762939453,4.5
0.82,72.4772720336914,25.28277015686035,12.564770698547363,-0.1332312375307083,2.398162364959717,-14.788667678833008,-42.45000076293945,-10.950000762939453,4.950000286102295
0.839,71.05990600585938,25.665842056274414,13.445837020874023,2.2649309635162354,-12.25727367401123,3.86370587348938,-42.900001525878906,-9.450000762939453,4.5
0.843,71.44297790527344,24.78477668762207,14.211980819702148,-2.131699800491333,-9.326186180114746,2.6646246910095215,-42.900001525878906,-9.450000762939453,4.5
0.85,72.4006576538086,23.980323791503906,14.250288963317871,-2.131699800491333,-7.860642910003662,0.1332312375307083,-43.80000305175781,-10.800000190734863,2.5500001907348633
0.86,72.89865112304688,23.673866271972656,13.522451400756836,-0.9326186776161194,-8.793261528015137,3.86370587348938,-44.400001525878906,-10.200000762939453,4.950000286102295
0.87,74.85232543945312,24.746469497680664,15.591041564941406,10.258805274963379,-11.724349021911621,17.053598403930664,-43.05000305175781,-8.850000381469727,4.650000095367432
0.88,73.664794921875,25.09123420715332,14.786589622497559,0.1332312375307083,-5.595712184906006,14.255742073059082,-43.05000305175781,-8.850000381469727,4.650000095367432
0.899,73.43495178222656,25.014619827270508,15.85919189453125,-1.5987749099731445,-6.5283308029174805,21.983154296875,-43.80000305175781,-10.800000190734863,5.100000381469727
0.904,70.98329162597656,25.09123420715332,16.318878173828125,-11.591117858886719,2.398162364959717,6.9280242919921875,-43.80000305175781,-10.800000190734863,5.100000381469727
0.91,72.63050079345703,26.355371475219727,15.054739952087402,-11.058192253112793,-3.9969370365142822,14.522205352783203,-43.650001525878906,-11.40000057220459,3.0
0.92,70.25545501708984,26.700138092041016,15.399505615234375,-17.053598403930664,9.992342948913574,4.396630764007568,-43.20000076293945,-9.0,4.200000286102295
0.93,69.48931121826172,27.734432220458984,15.437812805175781,-25.18070411682129,21.583459854125977,-2.6646246910095215,-44.25,-11.100000381469727,5.100000381469727
0.949,67.72718048095703,27.15982437133789,17.046716690063477,-20.91730499267578,12.790199279785156,3.9969370365142822,-44.25,-11.100000381469727,5.100000381469727
0.952,68.26348114013672,29.726408004760742,16.089035034179688,-16.387441635131836,24.914241790771484,-2.531393527984619,-43.05000305175781,-11.100000381469727,6.150000095367432
0.96,69.87238311767578,31.028854370117188,15.437812805175781,-17.586523056030273,27.578866958618164,3.0643184185028076,-44.25,-10.800000190734863,5.400000095367432
0.97,67.72718048095703,30.37763023376465,17.00840950012207,-8.660030364990234,25.580398559570312,15.321592330932617,-43.20000076293945,-12.450000762939453,5.25
0.98,66.9227294921875,29.496564865112305,18.23423957824707,-23.182235717773438,34.64012145996094,3.0643184185028076,-43.650001525878906,-11.700000762939453,4.5
0.99,66.19488525390625,31.143775939941406,18.004396438598633,-35.839202880859375,48.09647750854492,0.2664624750614166,-43.650001525878906,-11.700000762939453,4.5
1.01,68.03363800048828,32.790985107421875,16.548721313476562,-37.304744720458984,64.75038146972656,-3.0643184185028076,-45.150001525878906,-11.700000762939453,5.700000286102295
1.013,69.83407592773438,32.71437072753906,15.169661521911621,-27.445634841918945,64.75038146972656,5.062787055969238,-45.0,-11.850000381469727,6.150000095367432
1.02,71.2514419555664,32.02484130859375,14.786589622497559,-20.91730499267578,79.9387435913086,1.1990811824798584,-45.150001525878906,-11.700000762939453,6.750000476837158
1.03,70.40868377685547,32.21637725830078,13.599065780639648,-12.25727367401123,75.8085708618164,2.131699800491333,-44.55000305175781,-13.500000953674316,6.600000381469727
1.04,69.48931121826172,31.143775939941406,11.875240325927734,-2.531393527984619,70.21286010742188,12.124042510986328,-44.55000305175781,-13.500000953674316,6.600000381469727
1.05,67.42072296142578,29.688100814819336,11.60708999633789,-9.992342948913574,67.41500854492188,10.92496109008789,-44.70000076293945,-11.700000762939453,7.050000190734863
1.069,68.53163146972656,31.7183837890625,10.611102104187012,-26.64624786376953,68.34762573242188,7.06125545501709,-44.400001525878906,-12.15000057220459,5.25
1.073,69.64253997802734,31.488540649414062,8.274360656738281,-21.050535202026367,46.897396087646484,3.3307809829711914,-44.25,-13.050000190734863,6.900000095367432
1.08,71.63451385498047,31.488540649414062,8.772355079650879,-19.98468589782715,39.569679260253906,5.995405673980713,-44.70000076293945,-12.15000057220459,6.300000190734863
1.09,70.6002197265625,31.22039031982422,10.879252433776855,-33.30780792236328,37.17151641845703,3.4640121459960938,-44.70000076293945,-12.15000057220459,6.300000190734863
1.1,69.14454650878906,30.224401473999023,10.15141487121582,-30.776416778564453,28.378253936767578,-2.131699800491333,-45.150001525878906,-12.450000762939453,7.050000190734863
1.11,69.18285369873047,28.61549949645996,10.994174003601074,-22.249616622924805,13.722817420959473,12.523736000061035,-44.400001525878906,-11.40000057220459,8.550000190734863
1.13,70.40868377685547,29.53487205505371,12.871228218078613,-19.185298919677734,13.323123931884766,12.390504837036133,-44.70000076293945,-11.40000057220459,8.25
1.133,70.6385269165039,29.994558334350586,12.756306648254395,-38.90352249145508,27.17917251586914,9.326186180114746,-45.30000305175781,-11.850000381469727,6.600000381469727
1.14,70.14053344726562,28.807035446166992,13.982137680053711,-43.03369140625,29.7105655670166,11.591117858886719,-45.30000305175781,-11.850000381469727,6.600000381469727
1.15,66.9227294921875,30.14778709411621,13.982137680053711,-35.439510345458984,28.24502182006836,16.520673751831055,-46.05000305175781,-12.750000953674316,5.100000381469727
1.16,67.15257263183594,29.53487205505371,12.871228218078613,-45.69831466674805,33.84073257446289,16.387441635131836,-44.25,-13.800000190734863,7.350000381469727
1.17,65.62027740478516,30.186094284057617,15.169661521911621,-42.36753463745117,28.77794647216797,9.992342948913574,-45.150001525878906,-12.450000762939453,7.500000476837158
1.189,67.65056610107422,30.875625610351562,15.744270324707031,-42.76722717285156,25.447166442871094,17.32006072998047,-44.55000305175781,-12.750000953674316,8.40000057220459
1.193,68.7997817993164,29.15180015563965,15.399505615234375,-53.29249572753906,38.50382614135742,5.329249382019043,-45.0,-11.550000190734863,6.900000095367432
1.2,70.75344848632812,28.117504119873047,15.476119995117188,-59.02143859863281,44.23276901245117,4.396630764007568,-45.0,-11.550000190734863,6.900000095367432
1.21,69.60423278808594,25.89568519592285,14.518439292907715,-63.28483963012695,42.500762939453125,8.793261528015137,-44.70000076293945,-12.450000762939453,8.550000190734863
1.22,68.37840270996094,24.05693817138672,15.169661521911621,-53.95865249633789,20.91730499267578,7.327718257904053,-45.30000305175781,-13.500000953674316,7.950000286102295
1.23,68.49332427978516,24.05693817138672,13.713987350463867,-59.82082748413086,23.715160369873047,5.462480545043945,-44.400001525878906,-12.450000762939453,7.800000190734863
1.25,70.25545501708984,24.286781311035156,15.744270324707031,-65.54976654052734,9.059723854064941,-7.327718257904053,-44.400001525878906,-12.450000762939453,7.800000190734863
1.254,75.46524047851562,23.788787841796875,19.728221893310547,-74.20980072021484,-12.656967163085938,7.06125545501709,-45.0,-12.300000190734863,7.950000286102295
1.26,73.664794921875,22.256498336791992,19.843143463134766,-83.40275573730469,-19.584991455078125,5.595712184906006,-45.0,-12.300000190734863,7.950000286102295
1.27,71.71112823486328,21.490354537963867,21.911733627319336,-101.65543365478516,-14.788667678833008,1.1990811824798584,-45.0,-12.300000190734863,7.650000095367432
1.28,69.45100402832031,20.724210739135742,23.788787841796875,-102.72128295898438,-20.117916107177734,2.9310872554779053,-46.05000305175781,-12.300000190734863,7.650000095367432
1.29,68.49332427978516,21.26051139831543,25.09123420715332,-94.72740936279297,-29.977027893066406,5.329249382019043,-46.05000305175781,-12.300000190734863,7.650000095367432
1.31,69.4126968383789,24.66985511779785,25.244462966918945,-97.12557220458984,-11.724349021911621,14.12251091003418,-43.95000076293945,-12.450000762939453,7.500000476837158
1.313,73.43495178222656,25.857378005981445,23.865402221679688,-88.99846649169922,3.9969370365142822,12.124042510986328,-45.45000076293945,-11.700000762939453,6.750000476837158
1.32,71.97927856445312,27.504589080810547,21.56696891784668,-82.6033706665039,13.856048583984375,17.453292846679688,-45.45000076293945,-11.700000762939453,6.750000476837158
1.33,72.66880798339844,27.46628189086914,20.264522552490234,-70.87902069091797,18.78560447692871,26.379785537719727,-45.150001525878906,-12.450000762939453,7.500000476837158
1.34,74.6990966796875,29.419950485229492,22.792800903320312,-66.74884796142578,30.90964698791504,26.379785537719727,-45.150001525878906,-12.450000762939453,7.500000476837158
1.35,80.44517517089844,31.641769409179688,25.014619827270508,-61.41960144042969,28.644716262817383,30.90964698791504,-45.900001525878906,-13.200000762939453,6.750000476837158
1.37,85.11865997314453,31.756690979003906,27.351360321044922,-60.88667678833008,20.650842666625977,44.89892578125,-45.0,-11.550000190734863,7.650000095367432
1.373,86.1146469116211,31.948226928710938,26.43198585510254,-66.21592712402344,26.779478073120117,50.36140823364258,-45.150001525878906,-12.90000057220459,7.800000190734863
1.38,83.20330047607422,33.13574981689453,24.05693817138672,-60.48698043823242,28.77794647216797,57.55589294433594,-45.150001525878906,-12.90000057220459,7.800000190734863
1.39,82.39884948730469,33.672054290771484,17.42978858947754,-52.226646423339844,19.98468589782715,67.14854431152344,-45.150001525878906,-12.90000057220459,7.800000190734863
1.4,80.2536392211914,35.31926345825195,16.089035034179688,-52.493106842041016,14.388973236083984,65.68299865722656,-44.400001525878906,-13.65000057220459,8.40000057220459
1.41,78.3765869140625,35.85556411743164,16.778566360473633,-72.21133422851562,4.263399600982666,46.63093185424805,-46.05000305175781,-12.750000953674316,7.950000286102295
1.431,77.99351501464844,36.35355758666992,17.42978858947754,-76.34149932861328,-14.788667678833008,43.83307647705078,-44.55000305175781,-12.750000953674316,8.700000762939453
1.435,78.29997253417969,39.035064697265625,19.651607513427734,-53.558956146240234,-36.771820068359375,48.62940216064453,-44.55000305175781,-12.750000953674316,8.700000762939453
1.44,86.30618286132812,48.91832733154297,21.56696891784668,-38.63705825805664,-32.24195861816406,43.69984436035156,-45.45000076293945,-12.450000762939453,7.050000190734863
1.45,90.32844543457031,53.74504089355469,23.75048065185547,-23.848390579223633,-33.17457962036133,38.23736572265625,-45.900001525878906,-12.90000057220459,7.500000476837158
1.46,92.51195526123047,55.315635681152344,27.88766098022461,-1.7320060729980469,-30.24349021911621,32.24195861816406,-45.150001525878906,-13.65000057220459,6.300000190734863
1.47,86.88079071044922,54.20472717285156,20.072986602783203,5.462480545043945,-9.326186180114746,18.385910034179688,-44.400001525878906,-12.450000762939453,8.25
1.49,79.25765228271484,51.676448822021484,4.252102375030518,15.45482349395752,31.575803756713867,-3.597243309020996,-44.400001525878906,-12.450000762939453,8.25
1.493,73.51156616210938,47.65419006347656,-2.6431987285614014,64.75038146972656,27.045940399169922,-17.186830520629883,-44.25,-12.750000953674316,7.650000095367432
1.5,72.01758575439453,41.67826461791992,3.9456443786621094,85.93415069580078,-9.859111785888672,-6.9280242919921875,-43.80000305175781,-13.500000953674316,6.150000095367432
1.51,73.39664459228516,38.38384246826172,8.121131896972656,65.28330993652344,-51.82695007324219,-13.323123931884766,-43.650001525878906,-13.65000057220459,6.750000476837158
1.52,77.61044311523438,30.0711727142334,11.836933135986328,31.709033966064453,-99.12403869628906,-21.316997528076172,-44.25,-13.800000190734863,7.350000381469727
1.53,80.36856079101562,23.980323791503906,7.6997528076171875,23.182235717773438,-130.96630859375,-15.188361167907715,-44.25,-13.800000190734863,7.350000381469727
1.55,81.441162109375,21.0689754486084,0.8044517636299133,33.97396469116211,-140.95864868164062,-25.313934326171875,-44.25,-12.300000190734863,5.400000095367432
1.554,78.45320129394531,22.984336853027344,-5.631162166595459,51.027565002441406,-168.9372100830078,-22.51607894897461,-44.70000076293945,-12.15000057220459,5.700000286102295
1.56,70.98329162597656,24.554933547973633,-9.921571731567383,51.82695007324219,-184.6584930419922,-40.36906433105469,-45.900001525878906,-11.40000057220459,5.25
1.57,67.72718048095703,27.27474594116211,-9.730035781860352,69.67993927001953,-232.2220458984375,-45.43185043334961,-45.150001525878906,-11.40000057220459,3.0
1.58,64.81582641601562,29.305028915405273,-7.240066051483154,76.20826721191406,-268.7274169921875,-67.28177642822266,-45.150001525878906,-11.40000057220459,3.0
1.59,63.781532287597656,31.10546875,-3.026270866394043,84.4686050415039,-300.30322265625,-98.99080657958984,-45.30000305175781,-9.600000381469727,1.8000000715255737
1.609,60.64033889770508,33.59543991088867,-0.38307225704193115,98.4578857421875,-326.1500549316406,-115.11178588867188,-44.400001525878906,-11.40000057220459,0.45000001788139343
1.613,59.5677375793457,33.288978576660156,7.010222434997559,114.3124008178711,-330.4134826660156,-145.2220458984375,-43.650001525878906,-8.700000762939453,-1.2000000476837158
1.62,57.001155853271484,31.7183837890625,11.875240325927734,117.9096450805664,-312.8269348144531,-161.6094970703125,-43.80000305175781,-9.15000057220459,-1.0500000715255737
1.63,57.34592056274414,29.113492965698242,12.066776275634766,125.90351867675781,-268.4609375,-164.5405731201172,-43.80000305175781,-9.15000057220459,-1.0500000715255737
1.64,59.91250228881836,27.925968170166016,12.7946138381958,132.83154296875,-228.4915771484375,-170.13629150390625,-43.80000305175781,-9.15000057220459,-1.0500000715255737
1.65,68.53163146972656,30.4925537109375,15.437812805175781,132.0321502685547,-174.39968872070312,-180.12863159179688,-42.75,-8.850000381469727,-4.650000095367432
1.67,77.95520782470703,33.863590240478516,18.004396438598633,133.76416015625,-133.76416015625,-160.54364013671875,-41.70000076293945,-7.500000476837158,-5.700000286102295
1.674,84.69728088378906,31.60346221923828,19.19192123413086,112.71363067626953,-103.65390014648438,-159.8774871826172,-42.0,-6.450000286102295,-5.400000095367432
1.68,94.15916442871094,27.044902801513672,16.318878173828125,91.3966293334961,-90.99693298339844,-151.88360595703125,-41.400001525878906,-5.850000381469727,-6.300000190734863
1.69,98.29634857177734,29.34333610534668,13.943830490112305,50.36140823364258,-65.54976654052734,-148.15313720703125,-41.400001525878906,-5.850000381469727,-6.300000190734863
1.7,104.88518524169922,27.964275360107422,11.03248119354248,28.511484146118164,-65.68299865722656,-141.4915771484375,-40.650001525878906,-5.550000190734863,-7.050000190734863
1.71,110.0566635131836,26.2021427154541,11.951854705810547,18.385910034179688,-73.0107192993164,-132.9647674560547,-40.20000076293945,-3.6000001430511475,-7.500000476837158
1.729,105.61302185058594,21.56696891784668,15.667655944824219,7.460949420928955,-76.87442779541016,-126.43644714355469,-40.20000076293945,-2.8500001430511475,-6.0
1.733,97.49188995361328,16.510414123535156,12.449849128723145,31.042879104614258,-71.01225280761719,-136.4287872314453,-39.150001525878906,-1.6500000953674316,-9.300000190734863
1.74,83.39483642578125,14.633360862731934,6.665457725524902,62.21898651123047,-75.14241790771484,-131.23277282714844,-39.150001525878906,-1.6500000953674316,-9.300000190734863
1.75,77.26567840576172,11.262324333190918,6.282385349273682,82.7365951538086,-82.20367431640625,-114.71209716796875,-40.650001525878906,-0.45000001788139343,-6.750000476837158
1.76,73.0135726928711,11.109095573425293,5.4013190269470215,92.59571075439453,-80.60489654541016,-109.38284301757812,-39.30000305175781,-0.30000001192092896,-7.650000095367432
1.77,71.48128509521484,11.875240325927734,5.2480902671813965,115.91117858886719,-83.26952362060547,-107.25114440917969,-39.900001525878906,0.9000000357627869,-10.350000381469727
1.79,70.79175567626953,12.449849128723145,5.975927352905273,131.63246154785156,-87.13323211669922,-86.20060729980469,-37.95000076293945,1.350000023841858,-11.850000381469727
1.794,68.7231674194336,13.637372970581055,7.393294811248779,126.5696792602539,-55.29096221923828,-76.07503509521484,-37.95000076293945,1.350000023841858,-11.850000381469727
1.8,66.11827087402344,13.522451400756836,10.611102104187012,115.2450180053711,-56.09035110473633,-70.3460922241211,-38.25,1.0500000715255737,-11.700000762939453
1.81,63.66661071777344,12.986149787902832,12.143390655517578,96.99234008789062,-50.62786865234375,-50.76110076904297,-37.650001525878906,-0.9000000357627869,-11.850000381469727
1.82,62.40247344970703,12.7946138381958,13.752294540405273,81.53751373291016,-46.63093185424805,-46.897396087646484,-37.05000305175781,2.700000047683716,-13.950000762939453
1.83,61.98109436035156,14.058752059936523,11.60708999633789,76.34149932861328,-32.24195861816406,-49.16232681274414,-39.150001525878906,2.1000001430511475,-13.65000057220459
1.849,58.99312973022461,14.020444869995117,8.810662269592285,67.14854431152344,-29.84379768371582,-41.168453216552734,-39.150001525878906,2.1000001430511475,-13.65000057220459
1.853,56.92454147338867,15.85919189453125,6.627150535583496,60.88667678833008,-24.64777946472168,-35.306278228759766,-37.5,0.75,-13.950000762939453
1.86,56.38823699951172,15.744270324707031,5.324704647064209,47.297088623046875,-2.6646246910095215,-42.500762939453125,-38.55000305175781,1.8000000715255737,-14.700000762939453
1.87,56.38823699951172,16.740259170532227,5.4013190269470215,33.97396469116211,5.062787055969238,-46.63093185424805,-38.70000076293945,0.9000000357627869,-14.850000381469727
1.88,55.89024353027344,18.732234954833984,8.197746276855469,23.04900360107422,10.392036437988281,-42.90045928955078,-38.400001525878906,0.45000001788139343,-14.40000057220459
1.89,58.15037155151367,21.605276107788086,8.810662269592285,-5.329249382019043,4.130168437957764,-51.82695007324219,-38.400001525878906,0.45000001788139343,-14.40000057220459
1.909,57.95883560180664,20.149600982666016,8.006210327148438,-24.381317138671875,6.395099639892578,-49.02909469604492,-38.400001525878906,0.15000000596046448,-14.40000057220459
1.913,57.76729965209961,18.4257755279541,2.3367409706115723,-34.373661041259766,17.986217498779297,-50.76110076904297,-37.80000305175781,2.700000047683716,-14.700000762939453
1.92,59.10805130004883,19.728221893310547,2.7964274883270264,-30.509952545166016,20.251148223876953,-44.09954071044922,-37.95000076293945,0.15000000596046448,-16.350000381469727
1.93,57.76729965209961,21.6818904876709,0.7661445140838623,-36.5053596496582,46.09800720214844,-30.24349021911621,-38.25,1.5,-14.250000953674316
1.94,55.89024353027344,24.554933547973633,-0.2298433631658554,-26.113323211669922,57.55589294433594,-26.64624786376953,-38.25,1.5,-14.250000953674316
1.95,56.34992980957031,27.313053131103516,0.2298433631658554,-21.583459854125977,65.949462890625,1.8652373552322388,-37.05000305175781,1.5,-15.000000953674316
1.969,55.315635681152344,30.645782470703125,-0.1149216815829277,-31.575803756713867,80.47166442871094,22.382848739624023,-38.25,0.0,-15.450000762939453
1.973,59.031436920166016,33.82528305053711,-1.2641384601593018,-82.20367431640625,90.99693298339844,7.327718257904053,-38.70000076293945,2.1000001430511475,-15.15000057220459
1.98,65.12228393554688,38.38384246826172,-6.703764915466309,-114.04593658447266,77.80704498291016,19.584991455078125,-39.0,0.75,-14.700000762939453
1.99,68.68486022949219,41.79318618774414,-11.568782806396484,-166.93873596191406,54.75803756713867,9.592649459838867,-39.0,0.75,-14.700000762939453
2.0,74.2777099609375,46.696510314941406,-18.23423957824707,-199.04747009277344,26.113323211669922,-4.796324729919434,-38.25,0.30000001192092896,-12.450000762939453
2.01,73.47325897216797,51.369991302490234,-25.627534866333008,-192.65237426757812,19.185298919677734,-39.9693717956543,-38.55000305175781,1.8000000715255737,-12.450000762939453
2.03,71.7877426147461,53.553504943847656,-29.95625114440918,-159.74424743652344,14.92189884185791,-49.96171569824219,-38.55000305175781,2.700000047683716,-12.0
2.033,65.65858459472656,53.93657684326172,-23.865402221679688,-72.0781021118164,28.111791610717773,-53.026031494140625,-38.55000305175781,2.700000047683716,-12.0
2.04,65.3138198852539,54.587799072265625,-19.421764373779297,-26.379785537719727,46.231239318847656,-57.822357177734375,-38.55000305175781,2.700000047683716,-12.0
2.05,62.51739501953125,52.55751419067383,-10.955866813659668,24.64777946472168,60.48698043823242,-53.29249572753906,-39.150001525878906,4.350000381469727,-11.850000381469727
2.06,60.831878662109375,53.8216552734375,-4.6734819412231445,58.355281829833984,36.771820068359375,-44.23276901245117,-37.650001525878906,4.800000190734863,-9.75
2.07,62.555702209472656,54.66441345214844,-1.4939818382263184,42.76722717285156,21.316997528076172,-50.89433288574219,-40.20000076293945,5.100000381469727,-11.550000190734863
2.089,67.72718048095703,53.859962463378906,-2.9496564865112305,30.776416778564453,-7.194486618041992,-49.29555892944336,-38.25,3.450000047683716,-10.950000762939453
2.093,76.5761489868164,49.60786056518555,-16.931795120239258,46.897396087646484,-25.447166442871094,-63.81776428222656,-38.55000305175781,5.700000286102295,-10.200000762939453
2.1,78.989501953125,49.79939651489258,-19.49837875366211,63.151607513427734,-19.85145378112793,-52.226646423339844,-38.55000305175781,5.700000286102295,-10.200000762939453
2.11,79.10442352294922,48.19049072265625,-21.14558982849121,68.61408996582031,8.660030364990234,-50.89433288574219,-38.25,3.750000238418579,-10.200000762939453
2.12,78.49150848388672,46.84973907470703,-18.004396438598633,80.8713607788086,19.31852912902832,-33.70750427246094,-37.5,4.200000286102295,-13.500000953674316
2.13,70.83006286621094,42.7508659362793,-13.79060173034668,83.26952362060547,26.513015747070312,-5.8621745109558105,-40.05000305175781,4.200000286102295,-11.700000762939453
2.149,64.16460418701172,39.954437255859375,-11.91354751586914,78.20673370361328,33.17457962036133,10.791729927062988,-39.30000305175781,3.750000238418579,-12.450000762939453
2.153,66.73119354248047,39.533058166503906,-7.967903137207031,82.6033706665039,18.91883659362793,30.110260009765625,-39.30000305175781,3.750000238418579,-12.750000953674316
2.16,72.55388641357422,40.375816345214844,-11.30063247680664,84.4686050415039,24.781009674072266,40.102603912353516,-39.30000305175781,3.750000238418579,-12.750000953674316
2.17,88.14492797851562,44.16823196411133,-14.403517723083496,61.01990509033203,14.388973236083984,44.89892578125,-38.55000305175781,3.750000238418579,-10.65000057220459
2.18,120.9742202758789,49.3014030456543,-18.4257755279541,41.568145751953125,6.395099639892578,35.439510345458984,-39.45000076293945,3.6000001430511475,-13.350000381469727
2.19,142.69442749023438,59.18466567993164,-18.387468338012695,44.36600112915039,-11.191424369812012,29.444103240966797,-39.45000076293945,3.6000001430511475,-13.350000381469727
2.203,138.1358642578125,72.32404327392578,-20.83913230895996,44.49923324584961,-21.45022964477539,-5.196018218994141,-37.95000076293945,4.050000190734863,-12.600000381469727
2.21,79.94718170166016,64.58598327636719,-11.568782806396484,41.967838287353516,-6.661561965942383,-7.72741174697876,-37.95000076293945,4.050000190734863,-12.600000381469727
2.22,49.79939651489258,49.9143180847168,6.01423454284668,107.65084075927734,4.929555892944336,-29.177640914916992,-39.30000305175781,3.450000047683716,-11.40000057220459
2.23,27.811046600341797,25.70414924621582,24.78477668762207,210.2388916015625,17.32006072998047,-10.125574111938477,-40.20000076293945,4.050000190734863,-13.65000057220459
2.24,20.30282974243164,12.02846908569336,25.39769172668457,249.5421142578125,26.379785537719727,27.578866958618164,-40.20000076293945,4.050000190734863,-13.65000057220459
2.25,17.966089248657227,7.5848307609558105,20.877439498901367,217.1669158935547,39.30321502685547,37.03828430175781,-39.900001525878906,2.1000001430511475,-12.300000190734863
2.268,27.811046600341797,5.592854976654053,16.625335693359375,108.84992218017578,20.91730499267578,83.00305938720703,-39.900001525878906,2.1000001430511475,-14.100000381469727
2.272,62.249244689941406,12.22000503540039,21.835119247436523,94.46094512939453,7.460949420928955,95.39356231689453,-38.70000076293945,0.15000000596046448,-14.40000057220459
2.28,68.22517395019531,12.564770698547363,21.605276107788086,62.35221862792969,-1.1990811824798584,98.99080657958984,-38.70000076293945,0.15000000596046448,-14.40000057220459
2.29,79.79395294189453,10.955866813659668,21.45204734802246,49.29555892944336,-16.25421142578125,94.86064147949219,-38.70000076293945,0.15000000596046448,-14.40000057220459
2.3,86.57433319091797,9.193734169006348,19.153614044189453,37.03828430175781,-1.9984685182571411,63.418067932128906,-39.45000076293945,-1.350000023841858,-14.850000381469727
2.319,86.26787567138672,9.691728591918945,11.492168426513672,19.718223571777344,22.51607894897461,60.88667678833008,-41.70000076293945,-2.8500001430511475,-13.65000057220459
2.323,81.05809020996094,16.625335693359375,7.354987621307373,-6.261868000030518,82.86982727050781,57.02296829223633,-42.0,-2.25,-13.950000762939453
2.33,74.2394027709961,22.677879333496094,7.469909191131592,-9.192955017089844,99.12403869628906,70.07962799072266,-42.0,-2.25,-13.950000762939453
2.34,71.59620666503906,23.63555908203125,12.60307788848877,-17.053598403930664,90.59724426269531,75.14241790771484,-41.25,-3.0,-13.500000953674316
2.35,70.67683410644531,25.09123420715332,17.468095779418945,-42.76722717285156,89.13169860839844,71.67840576171875,-40.80000305175781,-4.5,-13.500000953674316
2.36,68.7231674194336,28.07919692993164,16.855180740356445,-31.042879104614258,80.33843994140625,71.14547729492188,-41.25,-3.0,-12.450000762939453
2.37,68.37840270996094,31.52684783935547,15.322891235351562,-8.660030364990234,66.34915924072266,79.67227935791016,-42.150001525878906,-3.1500000953674316,-11.850000381469727
2.386,69.10623931884766,34.74465560913086,12.105083465576172,-20.251148223876953,92.46247863769531,77.94027709960938,-42.150001525878906,-3.1500000953674316,-11.850000381469727
2.39,71.71112823486328,41.37180709838867,3.1028854846954346,-50.76110076904297,103.92036437988281,69.4134750366211,-42.900001525878906,-5.550000190734863,-11.550000190734863
2.4,71.05990600585938,42.71255874633789,0.5746083855628967,-111.5145492553711,117.24349212646484,78.47319793701172,-42.150001525878906,-4.800000190734863,-11.100000381469727
2.41,70.25545501708984,42.7508659362793,0.8810662031173706,-180.12863159179688,124.30474090576172,58.08882141113281,-42.0,-4.950000286102295,-11.700000762939453
2.42,67.03765106201172,42.7891731262207,0.8044517636299133,-238.084228515625,121.24042510986328,41.035221099853516,-42.45000076293945,-5.850000381469727,-11.850000381469727
2.439,65.19889831542969,44.398075103759766,1.072602391242981,-260.86676025390625,93.2618637084961,27.978559494018555,-42.45000076293945,-5.850000381469727,-11.850000381469727
2.443,64.35614013671875,43.63193130493164,6.473921298980713,-231.2894287109375,43.30015182495117,4.929555892944336,-42.75,-3.450000047683716,-9.15000057220459
2.45,65.81181335449219,42.59763717651367,2.7964274883270264,-179.19601440429688,13.722817420959473,-26.246553421020508,-42.30000305175781,-2.25,-7.950000286102295
2.46,66.84611511230469,41.21857833862305,-0.15322890877723694,-116.57733154296875,11.591117858886719,-21.45022964477539,-42.45000076293945,-3.1500000953674316,-7.050000190734863
2.47,66.8844223022461,38.38384246826172,-7.4316020011901855,-41.30168533325195,14.92189884185791,-26.779478073120117,-42.30000305175781,-3.750000238418579,-7.950000286102295
2.48,63.704917907714844,34.05512619018555,-10.228029251098633,31.309341430664062,13.722817420959473,-22.915773391723633,-42.30000305175781,-3.750000238418579,-7.950000286102295
2.49,60.7935676574707,31.335311889648438,-10.687716484069824,75.67534637451172,37.83767318725586,-26.246553421020508,-44.400001525878906,-1.6500000953674316,-7.500000476837158
2.504,58.61005783081055,30.14778709411621,-11.798625946044922,130.69984436035156,24.248085021972656,-6.261868000030518,-43.5,-3.450000047683716,-7.650000095367432
2.51,57.15438461303711,31.373619079589844,-0.4596867263317108,148.68606567382812,25.447166442871094,-11.857580184936523,-42.45000076293945,-2.8500001430511475,-7.050000190734863
2.52,55.89024353027344,30.722396850585938,-0.2298433631658554,174.39968872070312,17.053598403930664,-6.9280242919921875,-43.650001525878906,-3.6000001430511475,-6.300000190734863
2.53,56.15839385986328,31.373619079589844,6.244078159332275,171.7350616455078,29.577335357666016,-19.584991455078125,-43.650001525878906,-3.6000001430511475,-6.300000190734863
2.54,62.44078063964844,31.60346221923828,7.316680431365967,154.54823303222656,40.23583221435547,-23.848390579223633,-43.80000305175781,-3.450000047683716,-6.600000381469727
2.55,66.8844223022461,33.59543991088867,8.810662269592285,141.89126586914062,35.972434997558594,-17.186830520629883,-43.20000076293945,-4.350000381469727,-7.050000190734863
2.563,72.43896484375,32.86759948730469,7.623138427734375,102.8545150756836,47.830013275146484,-14.12251091003418,-44.25,-6.150000095367432,-6.150000095367432
2.57,75.00555419921875,31.335311889648438,7.354987621307373,65.949462890625,43.96630859375,-11.457886695861816,-43.95000076293945,-3.6000001430511475,-7.800000190734863
2.58,72.20912170410156,27.849353790283203,9.040505409240723,39.30321502685547,24.51454734802246,-9.992342948913574,-43.95000076293945,-3.6000001430511475,-7.800000190734863
2.59,66.73119354248047,22.448034286499023,3.332728862762451,6.128636837005615,13.989279747009277,-19.98468589782715,-44.400001525878906,-5.100000381469727,-6.300000190734863
2.6,60.563724517822266,18.693927764892578,1.1109095811843872,-14.788667678833008,-8.39356803894043,-25.7136287689209,-44.400001525878906,-4.350000381469727,-6.300000190734863
2.62,56.847923278808594,14.288596153259277,-2.9879636764526367,-40.23583221435547,-3.9969370365142822,-55.82388687133789,-43.80000305175781,-4.5,-5.850000381469727
2.623,57.1160774230957,11.185709953308105,-13.713987350463867,-74.60948944091797,-14.522205352783203,-41.83460998535156,-43.650001525878906,-5.850000381469727,-5.700000286102295
2.63,63.32184600830078,11.224017143249512,-18.732234954833984,-87.39968872070312,-13.056661605834961,-48.09647750854492,-43.650001525878906,-5.850000381469727,-5.700000286102295
2.64,72.24742889404297,14.901511192321777,-15.054739952087402,-96.32618713378906,-28.378253936767578,-23.448698043823242,-44.55000305175781,-4.950000286102295,-6.900000095367432
2.65,80.63671112060547,24.59324073791504,-7.891288757324219,-86.3338394165039,-72.0781021118164,9.592649459838867,-43.5,-3.450000047683716,-5.850000381469727
2.66,80.40686798095703,30.301015853881836,7.240066051483154,-65.15007781982422,-126.03675079345703,27.978559494018555,-43.05000305175781,-2.700000047683716,-6.900000095367432
2.679,70.17884063720703,29.95625114440918,10.72602367401123,-39.70290756225586,-140.5589599609375,13.989279747009277,-43.5,-2.700000047683716,-8.40000057220459
2.683,57.26930618286133,27.77273941040039,5.937620162963867,6.128636837005615,-121.50688934326172,13.722817420959473,-43.5,-2.700000047683716,-8.40000057220459
2.69,45.08760452270508,27.044902801513672,-4.558559894561768,4.263399600982666,-85.53445434570312,17.053598403930664,-43.5,-2.700000047683716,-8.40000057220459
2.7,40.03105163574219,32.86759948730469,-13.675680160522461,-34.373661041259766,-41.434913635253906,19.052066802978516,-43.05000305175781,-3.750000238418579,-8.40000057220459
2.71,40.29920196533203,35.54910659790039,-11.645397186279297,-49.82848358154297,-40.9019889831543,-2.9310872554779053,-42.900001525878906,-3.6000001430511475,-7.050000190734863
2.72,52.4042854309082,37.15800857543945,-1.800439715385437,-10.791729927062988,-58.4885139465332,-12.523736000061035,-41.70000076293945,-4.050000190734863,-8.25
2.74,66.8844223022461,36.430171966552734,9.040505409240723,3.597243309020996,-67.41500854492188,-11.058192253112793,-42.75,-4.200000286102295,-8.700000762939453
2.743,75.65677642822266,40.60565948486328,5.592854976654053,-75.8085708618164,-72.87748718261719,-15.055130004882812,-42.75,-4.200000286102295,-8.700000762939453
2.75,72.74542236328125,36.96647262573242,7.967903137207031,-102.58805084228516,-112.31393432617188,-11.591117858886719,-42.900001525878906,-3.6000001430511475,-9.0
2.76,65.35212707519531,30.14778709411621,7.967903137207031,-134.43031311035156,-143.4900360107422,-31.176109313964844,-41.70000076293945,-4.050000190734863,-10.050000190734863
2.77,53.13212585449219,24.44001007080078,1.5705963373184204,-142.69065856933594,-148.0198974609375,-48.22970962524414,-42.75,-3.450000047683716,-10.200000762939453
2.78,46.23682403564453,23.558944702148438,-4.6734819412231445,-158.4119415283203,-132.6983184814453,-51.693721771240234,-43.80000305175781,-1.0500000715255737,-8.700000762939453
2.799,45.164222717285156,30.454246520996094,-12.105083465576172,-198.781005859375,-142.02450561523438,-41.30168533325195,-43.80000305175781,-1.0500000715255737,-8.700000762939453
2.804,51.982906341552734,33.13574981689453,-7.316680431365967,-231.02296447753906,-197.9816131591797,-59.55436325073242,-39.75,-1.8000000715255737,-10.65000057220459
2.81,64.7009048461914,35.43418502807617,-7.316680431365967,-220.8973846435547,-197.58192443847656,-62.618682861328125,-42.150001525878906,0.45000001788139343,-11.100000381469727
2.82,69.29777526855469,39.07337188720703,-8.695740699768066,-179.32923889160156,-177.86370849609375,-73.27718353271484,-40.650001525878906,-0.45000001788139343,-12.300000190734863
2.83,71.94097137451172,41.41011428833008,-5.975927352905273,-122.57273864746094,-185.4578857421875,-61.28636932373047,-40.5,0.75,-11.700000762939453
2.84,68.99131774902344,40.52904510498047,-3.6391866207122803,-108.84992218017578,-156.41346740722656,-71.01225280761719,-40.5,0.75,-11.700000762939453
2.86,61.751251220703125,40.375816345214844,-7.469909191131592,-100.58958435058594,-146.5543670654297,-63.018375396728516,-39.75,2.25,-12.750000953674316
2.863,48.650177001953125,34.09343338012695,-5.171475887298584,-30.776416778564453,-110.71515655517578,-71.81163787841797,-40.650001525878906,1.6500000953674316,-14.100000381469727
2.878,36.04710006713867,26.048913955688477,-4.022258758544922,67.01531219482422,-74.8759536743164,-80.60489654541016,-37.5,2.25,-15.000000953674316
2.882,30.454246520996094,30.60747528076172,1.1109095811843872,79.67227935791016,-73.41041564941406,-82.33690643310547,-37.5,2.25,-15.000000953674316
2.89,30.14778709411621,33.212364196777344,0.689530074596405,97.5252685546875,-75.00918579101562,-83.40275573730469,-37.5,2.25,-15.000000953674316
2.9,30.68408966064453,40.069358825683594,4.405331134796143,101.65543365478516,-112.04747009277344,-75.00918579101562,-36.900001525878906,2.8500001430511475,-15.600000381469727
2.91,38.613685607910156,45.93036651611328,6.435614109039307,67.28177642822266,-148.68606567382812,-112.4471664428711,-36.900001525878906,3.6000001430511475,-14.850000381469727
2.929,54.472877502441406,52.05952072143555,6.435614109039307,61.41960144042969,-177.86370849609375,-146.68759155273438,-36.900001525878906,4.350000381469727,-14.100000381469727
2.933,72.32404327392578,57.15438461303711,1.4173674583435059,34.10719680786133,-195.5834503173828,-212.77027893066406,-36.45000076293945,3.6000001430511475,-16.650001525878906
2.94,95.92129516601562,62.2109375,-14.173673629760742,42.36753463745117,-177.06431579589844,-199.5803985595703,-36.45000076293945,3.6000001430511475,-16.650001525878906
2.95,109.13729095458984,65.69689178466797,-24.59324073791504,48.22970962524414,-141.35833740234375,-216.6339874267578,-35.25,6.150000095367432,-16.80000114440918
2.96,130.972412109375,69.64253997802734,-38.000770568847656,60.75344467163086,-134.83001708984375,-239.1500701904297,-33.75,6.450000286102295,-17.25
2.97,138.36570739746094,73.7031021118164,-37.96246337890625,106.98468017578125,-145.35528564453125,-195.31700134277344,-33.45000076293945,7.500000476837158,-16.650001525878906
2.98,131.35548400878906,65.96504211425781,-35.97048568725586,123.50535583496094,-133.36447143554688,-188.52220153808594,-33.150001525878906,6.750000476837158,-18.150001525878906
2.999,113.96400451660156,58.80159378051758,-29.113492965698242,102.45481872558594,-171.60183715820312,-167.73812866210938,-31.950000762939453,9.0,-18.900001525878906
3.003,93.3547134399414,48.42033386230469,-27.696125030517578,81.53751373291016,-165.60643005371094,-184.25880432128906,-31.80000114440918,9.15000057220459,-19.80000114440918
3.01,94.65715789794922,49.3014030456543,-36.88985824584961,39.03675079345703,-176.53138732910156,-205.04287719726562,-31.80000114440918,9.15000057220459,-19.80000114440918
3.02,105.80455780029297,53.170433044433594,-46.35174560546875,19.85145378112793,-154.41500854492188,-261.6661376953125,-30.30000114440918,10.350000381469727,-19.80000114440918
3.03,115.22814178466797,65.35212707519531,-41.37180709838867,33.97396469116211,-152.949462890625,-280.3185119628906,-29.700000762939453,9.450000762939453,-20.400001525878906
3.04,127.33322143554688,78.91288757324219,-38.38384246826172,44.36600112915039,-181.59417724609375,-290.57733154296875,-29.700000762939453,9.450000762939453,-20.400001525878906
3.052,135.2628173828125,88.06831359863281,-44.66622543334961,63.418067932128906,-168.1378173828125,-259.4012145996094,-27.450000762939453,13.200000762939453,-21.75
3.06,123.1577377319336,88.45138549804688,-43.86177444458008,90.06431579589844,-153.0826873779297,-209.83920288085938,-27.450000762939453,13.200000762939453,-21.75
3.07,109.32882690429688,83.96944427490234,-32.982521057128906,109.24961853027344,-153.882080078125,-125.7702865600586,-27.150001525878906,14.850000381469727,-22.5
3.08,91.28612518310547,69.68084716796875,-20.64759635925293,67.14854431152344,-169.33689880371094,-63.684532165527344,-25.950000762939453,15.90000057220459,-22.200000762939453
3.09,82.16899871826172,47.76911163330078,-18.157625198364258,7.594180583953857,-180.9280242919922,-59.15467071533203,-25.950000762939453,15.90000057220459,-22.200000762939453
3.11,79.83226013183594,32.063148498535156,-28.653806686401367,-19.98468589782715,-181.72740173339844,-87.53292083740234,-24.0,15.000000953674316,-24.150001525878906
3.113,82.4754638671875,33.51882553100586,-36.8132438659668,-37.304744720458984,-163.0750274658203,-77.67381286621094,-23.400001525878906,14.40000057220459,-25.500001907348633
3.12,81.97746276855469,31.641769409179688,-37.88584899902344,-55.02450180053711,-147.75344848632812,-88.59877014160156,-23.400001525878906,14.40000057220459,-25.500001907348633
3.13,77.68705749511719,29.34333610534668,-37.88584899902344,-57.02296829223633,-126.7029037475586,-95.52679443359375,-21.450000762939453,13.65000057220459,-27.30000114440918
3.14,71.13652038574219,28.577192306518555,-34.05512619018555,-55.95711898803711,-120.4410400390625,-78.3399658203125,-21.450000762939453,13.65000057220459,-27.30000114440918
3.15,59.83588790893555,26.85336685180664,-27.925968170166016,-59.82082748413086,-105.25267791748047,-81.8039779663086,-19.80000114440918,14.550000190734863,-26.850000381469727
3.169,50.98691940307617,27.083209991455078,-20.187908172607422,-59.4211311340332,-91.3966293334961,-69.28024291992188,-20.25,14.250000953674316,-28.650001525878906
3.173,41.14196014404297,26.240449905395508,-14.556746482849121,-39.83613967895508,-76.4747314453125,-47.0306282043457,-18.150001525878906,14.850000381469727,-27.750001907348633
3.18,32.02484130859375,25.052927017211914,-14.633360862731934,-33.97396469116211,-55.55742645263672,-10.125574111938477,-18.150001525878906,14.850000381469727,-27.750001907348633
3.19,27.198131561279297,24.938005447387695,-13.48414421081543,-23.315465927124023,-25.447166442871094,24.248085021972656,-18.150001525878906,14.850000381469727,-27.750001907348633
3.2,21.605276107788086,22.17988395690918,-12.717999458312988,2.797856092453003,-1.4655436277389526,87.79938507080078,-19.05000114440918,16.200000762939453,-28.650001525878906
3.21,15.131354331970215,17.774553298950195,-12.143390655517578,14.255742073059082,25.980091094970703,126.5696792602539,-18.150001525878906,14.850000381469727,-29.250001907348633
3.23,9.155426979064941,15.284584045410156,-9.461885452270508,27.31240463256836,42.500762939453125,165.60643005371094,-18.0,14.550000190734863,-27.900001525878906
3.233,3.3710360527038574,11.070788383483887,-7.623138427734375,31.709033966064453,72.87748718261719,222.09646606445312,-18.0,14.550000190734863,-27.900001525878906
3.24,-5.171475887298584,6.512228488922119,-5.822698593139648,27.84532928466797,77.67381286621094,231.82235717773438,-20.55000114440918,13.500000953674316,-28.200000762939453
3.25,-9.078812599182129,5.2480902671813965,-5.937620162963867,32.108726501464844,77.80704498291016,261.2664489746094,-20.700000762939453,13.65000057220459,-28.80000114440918
3.26,-13.21599292755127,5.286397457122803,-5.631162166595459,12.790199279785156,102.58805084228516,296.43951416015625,-20.700000762939453,10.950000762939453,-28.500001907348633
3.27,-17.161638259887695,9.002198219299316,-5.975927352905273,1.3323123455047607,119.37519073486328,311.8943176269531,-20.700000762939453,11.700000762939453,-28.05000114440918
3.289,-17.1999454498291,11.836933135986328,-6.703764915466309,-7.594180583953857,133.49769592285156,323.75189208984375,-20.700000762939453,11.700000762939453,-28.05000114440918
3.293,-17.085023880004883,15.361198425292969,-5.094861030578613,-15.321592330932617,166.67227172851562,336.6753234863281,-24.150001525878906,10.200000762939453,-26.250001907348633
3.3,-11.109095573425293,16.740259170532227,-3.8307228088378906,-25.447166442871094,191.8529815673828,328.94793701171875,-24.30000114440918,9.600000381469727,-26.850000381469727
3.31,-6.550535678863525,15.284584045410156,-4.443638324737549,-19.584991455078125,220.09800720214844,334.54364013671875,-25.200000762939453,9.0,-26.250001907348633
3.32,3.6774938106536865,18.157625198364258,-5.861005783081055,20.251148223876953,230.88973999023438,345.73504638671875,-26.250001907348633,7.200000286102295,-25.350000381469727
3.33,20.187908172607422,30.109479904174805,-2.1068975925445557,49.69525146484375,254.0719757080078,352.3966369628906,-26.250001907348633,7.200000286102295,-25.350000381469727
3.35,42.32948684692383,41.180267333984375,0.6129156351089478,95.12710571289062,261.0,360.25726318359375,-28.950000762939453,5.550000190734863,-24.0
3.353,64.66259765625,51.33168411254883,4.290409564971924,177.86370849609375,263.1316833496094,374.3797912597656,-31.500001907348633,3.450000047683716,-22.80000114440918
3.36,89.71552276611328,50.144161224365234,-2.5665841102600098,240.21592712402344,282.5834655761719,333.34454345703125,-31.80000114440918,2.25,-21.30000114440918
3.37,92.24380493164062,48.765098571777344,-4.405331134796143,274.3231201171875,323.8851318359375,290.57733154296875,-31.05000114440918,2.25,-22.05000114440918
3.38,86.07633972167969,59.5294303894043,-4.8267107009887695,286.713623046875,354.9280090332031,260.0673828125,-31.05000114440918,2.25,-22.05000114440918
3.39,77.61044311523438,63.20692443847656,-7.6997528076171875,212.1041259765625,375.3124084472656,245.67840576171875,-32.400001525878906,-1.6500000953674316,-18.450000762939453
3.41,68.34009552001953,49.99093246459961,-13.905523300170898,37.17151641845703,409.6860656738281,174.0,-35.70000076293945,-2.8500001430511475,-18.900001525878906
3.414,66.57795715332031,37.924156188964844,-16.66364288330078,-307.2312316894531,352.79632568359375,113.91270446777344,-37.20000076293945,-4.800000190734863,-15.90000057220459
3.42,70.6002197265625,30.68408966064453,-21.490354537963867,-456.3169860839844,287.9126892089844,96.32618713378906,-36.30000305175781,-4.950000286102295,-14.700000762939453
3.43,72.51557922363281,25.20615577697754,-22.103269577026367,-582.6201782226562,191.58651733398438,51.960182189941406,-36.30000305175781,-4.950000286102295,-14.700000762939453
3.44,74.08617401123047,35.6257209777832,-31.373619079589844,-567.4318237304688,121.10719299316406,22.116384506225586,-37.05000305175781,-1.5,-12.0
3.45,66.76950073242188,53.668426513671875,-39.72459411621094,-399.42724609375,84.06890869140625,29.977027893066406,-36.30000305175781,-1.8000000715255737,-11.700000762939453
3.47,55.96685791015625,63.20692443847656,-45.81544494628906,-143.75650024414062,79.80551147460938,80.33843994140625,-39.0,-2.700000047683716,-10.950000762939453
3.473,47.002967834472656,45.010990142822266,-58.38021469116211,73.9433364868164,138.42726135253906,59.287899017333984,-38.25,-1.8000000715255737,-9.90000057220459
3.48,42.21456527709961,25.28277015686035,-70.6385269165039,148.15313720703125,168.9372100830078,30.643184661865234,-38.25,-1.8000000715255737,-9.90000057220459
3.49,47.65419006347656,22.06496238708496,-73.74140930175781,223.29554748535156,188.78866577148438,-3.597243309020996,-39.0,-0.75,-8.700000762939453
3.5,64.7009048461914,22.256498336791992,-75.54185485839844,271.2587890625,210.1056671142578,-39.569679260253906,-39.30000305175781,-2.25,-9.450000762939453
3.51,89.44737243652344,23.75048065185547,-61.71294403076172,315.8912658691406,190.5206756591797,-100.58958435058594,-39.150001525878906,-2.4000000953674316,-8.550000190734863
3.53,115.57290649414062,21.26051139831543,-31.756690979003906,368.3843688964844,163.4747314453125,-144.1562042236328,-38.70000076293945,-0.9000000357627869,-7.500000476837158
3.533,138.44232177734375,29.190107345581055,-7.316680431365967,395.83001708984375,119.5084228515625,-138.02755737304688,-38.70000076293945,-0.9000000357627869,-7.500000476837158
3.54,152.61599731445312,52.289363861083984,16.28057098388672,355.7274169921875,85.26799011230469,-153.882080078125,-38.25,-1.5,-6.900000095367432
3.55,151.62001037597656,57.53745651245117,27.657817840576172,294.0413513183594,47.9632453918457,-101.12251281738281,-39.30000305175781,-0.75,-6.600000381469727
3.56,134.64990234375,51.63814163208008,28.807035446166992,211.43797302246094,-7.594180583953857,-66.34915924072266,-40.05000305175781,-1.0500000715255737,-7.350000381469727
3.57,111.2824935913086,33.94020462036133,22.90772247314453,59.4211311340332,-43.16691970825195,-81.40428924560547,-38.70000076293945,-1.6500000953674316,-8.25
3.59,92.1288833618164,27.657817840576172,14.863204002380371,-42.23430252075195,-80.33843994140625,-79.40581512451172,-38.70000076293945,-1.6500000953674316,-8.25
3.593,82.24561309814453,31.335311889648438,26.31706428527832,-4.529861927032471,-125.37059783935547,-85.26799011230469,-37.650001525878906,-1.350000023841858,-7.500000476837158
3.6,77.1124496459961,36.123714447021484,27.198131561279297,25.313934326171875,-141.0918731689453,-84.20214080810547,-36.75,-1.8000000715255737,-7.350000381469727
3.61,76.95922088623047,39.18829345703125,22.984336853027344,61.552833557128906,-138.2940216064453,-76.4747314453125,-38.25,0.75,-8.700000762939453
3.62,82.4754638671875,41.86980056762695,16.242263793945312,102.8545150756836,-119.24195861816406,-63.28483963012695,-37.05000305175781,0.30000001192092896,-9.450000762939453
3.63,99.06249237060547,45.279144287109375,11.224017143249512,131.0995330810547,-89.13169860839844,-37.70444107055664,-37.05000305175781,0.30000001192092896,-9.450000762939453
3.65,124.15372467041016,50.68046188354492,8.810662269592285,86.20060729980469,-31.575803756713867,-63.81776428222656,-36.45000076293945,-0.9000000357627869,-9.300000190734863
3.654,143.3839569091797,59.759273529052734,3.9456443786621094,-37.70444107055664,66.74884796142578,-56.889739990234375,-36.900001525878906,0.9000000357627869,-11.550000190734863
3.66,122.88958740234375,58.112064361572266,1.7621324062347412,-67.5482406616211,92.3292465209961,-27.71209716796875,-37.20000076293945,1.350000023841858,-10.800000190734863
3.67,100.4415512084961,45.010990142822266,7.2783732414245605,-88.33231353759766,93.92802429199219,-1.1990811824798584,-35.55000305175781,0.0,-10.950000762939453
3.68,80.90486145019531,31.7183837890625,12.411541938781738,-49.02909469604492,85.66768646240234,-4.396630764007568,-35.55000305175781,0.0,-10.950000762939453
3.69,76.88260650634766,23.63555908203125,15.974113464355469,21.050535202026367,62.618682861328125,-11.457886695861816,-37.20000076293945,0.15000000596046448,-9.75
3.709,81.59439086914062,22.754493713378906,14.135366439819336,58.888206481933594,51.29402542114258,-0.5329249501228333,-36.45000076293945,0.9000000357627869,-9.0
3.713,87.49370574951172,29.64979362487793,6.282385349273682,61.28636932373047,72.74425506591797,3.86370587348938,-37.20000076293945,1.6500000953674316,-10.050000190734863
3.72,93.16317749023438,37.00477981567383,2.2218191623687744,43.96630859375,100.85604858398438,3.86370587348938,-37.80000305175781,-0.30000001192092896,-7.950000286102295
3.73,95.30838012695312,42.63594436645508,4.367023944854736,19.98468589782715,119.5084228515625,38.10413360595703,-37.80000305175781,-0.30000001192092896,-7.950000286102295
3.74,92.93333435058594,45.777137756347656,8.236053466796875,-2.797856092453003,119.90811157226562,51.4272575378418,-36.75,0.75,-10.200000762939453
3.75,87.76185607910156,47.19450378417969,7.163451671600342,-41.30168533325195,128.3016815185547,44.49923324584961,-38.400001525878906,0.15000000596046448,-7.500000476837158
3.77,78.52981567382812,45.20252990722656,3.8307228088378906,-70.21286010742188,139.2266387939453,40.102603912353516,-37.95000076293945,-0.45000001788139343,-7.800000190734863
3.773,71.213134765625,41.71657180786133,4.788403511047363,-74.60948944091797,115.37825012207031,26.513015747070312,-39.0,-0.30000001192092896,-6.900000095367432
3.78,65.65858459472656,32.9442138671875,-0.6512228846549988,-62.085758209228516,114.04593658447266,21.583459854125977,-39.0,-0.30000001192092896,-6.900000095367432
3.79,63.168617248535156,27.811046600341797,-4.290409564971924,-42.500762939453125,126.7029037475586,1.4655436277389526,-37.5,0.0,-4.650000095367432
3.8,62.44078063964844,22.17988395690918,-9.155426979064941,-7.327718257904053,118.44257354736328,32.90811538696289,-37.650001525878906,-1.350000023841858,-4.200000286102295
3.81,60.29557418823242,22.409727096557617,-9.040505409240723,18.91883659362793,117.77641296386719,26.113323211669922,-39.900001525878906,0.45000001788139343,-4.950000286102295
3.829,61.40648651123047,21.030668258666992,-8.427590370178223,26.912710189819336,119.5084228515625,37.97090148925781,-41.25,0.30000001192092896,-3.9000000953674316
3.833,60.90849304199219,19.651607513427734,-7.2783732414245605,19.185298919677734,98.72434997558594,43.43338394165039,-41.25,0.30000001192092896,-3.9000000953674316
3.84,59.41450881958008,21.413740158081055,-5.324704647064209,9.592649459838867,84.20214080810547,51.960182189941406,-38.25,-1.5,-3.3000001907348633
3.85,60.563724517822266,22.946029663085938,-5.477933406829834,-8.127105712890625,63.81776428222656,47.0306282043457,-39.0,-1.8000000715255737,-3.6000001430511475
3.86,59.337894439697266,26.738445281982422,-2.9879636764526367,-37.03828430175781,47.56355285644531,37.57120895385742,-40.05000305175781,-3.0,-3.3000001907348633
3.87,57.53745651245117,28.883649826049805,0.727837324142456,-64.75038146972656,29.31087303161621,44.89892578125,-37.95000076293945,-2.8500001430511475,-2.25
3.89,56.15839385986328,32.40791320800781,1.1492167711257935,-92.19601440429688,4.263399600982666,43.56661605834961,-37.95000076293945,-2.8500001430511475,-2.25
3.893,54.166419982910156,34.3998908996582,-1.1875240802764893,-152.949462890625,-16.520673751831055,27.71209716796875,-39.150001525878906,-4.050000190734863,-3.450000047683716
3.9,51.82967758178711,36.77493667602539,-5.477933406829834,-178.39662170410156,-28.24502182006836,18.78560447692871,-39.150001525878906,-4.050000190734863,-3.450000047683716
3.91,51.33168411254883,35.31926345825195,-6.818686485290527,-202.24502563476562,-51.560489654541016,15.721285820007324,-39.150001525878906,-1.6500000953674316,-3.750000238418579
3.92,52.174442291259766,34.01681900024414,-8.810662269592285,-215.83460998535156,-73.41041564941406,0.7993874549865723,-38.70000076293945,-3.1500000953674316,-3.750000238418579
3.93,51.33168411254883,33.13574981689453,-8.312667846679688,-198.6477813720703,-89.39816284179688,-30.776416778564453,-38.70000076293945,-3.1500000953674316,-3.750000238418579
3.949,53.170433044433594,31.680076599121094,-9.883264541625977,-156.94639587402344,-113.77947998046875,-52.626338958740234,-38.55000305175781,-2.700000047683716,-2.8500001430511475
3.953,50.5655403137207,23.75048065185547,-17.085023880004883,-81.67074584960938,-126.96936798095703,-46.09800720214844,-38.25,-2.25,-3.3000001907348633
3.96,49.722782135009766,21.222204208374023,-20.072986602783203,-51.160797119140625,-124.17151641845703,-31.575803756713867,-38.25,-2.25,-3.3000001907348633
3.97,47.99895477294922,17.353174209594727,-26.393678665161133,-26.64624786376953,-128.7013702392578,-31.709033966064453,-39.150001525878906,0.15000000596046448,-4.5
3.98,47.04127502441406,13.024456977844238,-35.66402816772461,-9.859111785888672,-152.54977416992188,-19.31852912902832,-39.150001525878906,0.15000000596046448,-4.5
3.99,47.65419006347656,12.411541938781738,-26.85336685180664,29.177640914916992,-187.58958435058594,-32.37519073486328,-39.30000305175781,-0.75,-7.950000286102295
4.01,50.41231155395508,12.02846908569336,-18.195932388305664,104.85298156738281,-193.05206298828125,-26.113323211669922,-36.30000305175781,-1.8000000715255737,-7.350000381469727
4.013,62.2109375,17.851167678833008,-13.369222640991211,131.0995330810547,-137.62786865234375,-28.111791610717773,-36.75,-1.5,-7.950000286102295
4.02,64.66259765625,19.536685943603516,-13.369222640991211,112.84685516357422,-122.17304229736328,-18.78560447692871,-36.75,-1.5,-7.950000286102295
4.03,70.25545501708984,22.60126495361328,-6.052541732788086,71.2787094116211,-124.8376693725586,-16.920366287231445,-36.75,-1.5,-7.950000286102295
4.04,71.28974914550781,25.665842056274414,12.373234748840332,55.55742645263672,-153.34915161132812,-9.459418296813965,-36.30000305175781,-1.0500000715255737,-8.40000057220459
4.05,64.39444732666016,24.36339569091797,11.836933135986328,45.43185043334961,-197.18223571777344,-4.929555892944336,-37.20000076293945,-1.6500000953674316,-8.550000190734863
4.069,55.43055725097656,23.44402313232422,6.435614109039307,17.053598403930664,-210.1056671142578,-2.797856092453003,-36.0,-0.75,-10.65000057220459
4.073,49.64616775512695,27.351360321044922,1.800439715385437,-35.306278228759766,-218.49923706054688,-27.84532928466797,-33.150001525878906,-0.45000001788139343,-10.800000190734863
4.08,50.450618743896484,31.182083129882812,1.37906014919281,-69.94640350341797,-220.49769592285156,-42.633995056152344,-33.150001525878906,-0.45000001788139343,-10.800000190734863
4.09,53.476890563964844,39.341522216796875,1.800439715385437,-83.40275573730469,-216.76722717285156,-42.36753463745117,-34.20000076293945,-0.45000001788139343,-12.300000190734863
4.1,58.68667221069336,47.539268493652344,5.5545477867126465,-33.17457962036133,-175.33230590820312,-34.373661041259766,-34.80000305175781,-1.5,-13.200000762939453
4.11,62.249244689941406,48.841712951660156,5.324704647064209,5.196018218994141,-135.4961700439453,-20.91730499267578,-33.75,-0.30000001192092896,-15.000000953674316
4.129,57.46084213256836,48.61186981201172,0.9193734526634216,-144.82235717773438,-113.91270446777344,-39.43644714355469,-33.75,-0.30000001192092896,-15.000000953674316
4.133,35.817256927490234,52.71074295043945,4.060565948486328,-218.63246154785156,-161.07656860351562,-38.77029037475586,-33.150001525878906,-0.15000000596046448,-14.40000057220459
4.14,32.599449157714844,53.055511474609375,4.788403511047363,-309.49615478515625,-196.915771484375,-76.20826721191406,-32.55000305175781,-0.30000001192092896,-14.40000057220459
4.15,27.313053131103516,49.49293899536133,3.294421434402466,-280.185302734375,-220.76416015625,-127.90198516845703,-32.25,1.0500000715255737,-16.05000114440918
4.16,26.048913955688477,47.309425354003906,-6.818686485290527,-212.37059020996094,-206.37518310546875,-158.67840576171875,-31.650001525878906,3.1500000953674316,-15.90000057220459
4.17,40.29920196533203,53.32366180419922,-18.34916114807129,-244.74578857421875,-183.05972290039062,-213.9693603515625,-31.650001525878906,3.1500000953674316,-15.90000057220459
4.189,66.27149963378906,67.03765106201172,-27.083209991455078,-250.6079559326172,-172.80091857910156,-207.84072875976562,-30.000001907348633,3.0,-16.80000114440918
4.193,107.14531707763672,78.45320129394531,-46.0452880859375,-191.18682861328125,-188.52220153808594,-269.9264831542969,-28.650001525878906,5.100000381469727,-17.700000762939453
4.2,112.31678771972656,77.8019790649414,-48.68848419189453,-109.64930725097656,-191.58651733398438,-233.9540557861328,-29.250001907348633,5.700000286102295,-16.80000114440918
4.21,113.69584655761719,80.48348236083984,-54.81764221191406,-12.790199279785156,-167.73812866210938,-222.09646606445312,-27.30000114440918,4.950000286102295,-17.25
4.22,120.24638366699219,73.12849426269531,-63.24523162841797,103.12097930908203,-140.42572021484375,-268.4609375,-27.30000114440918,4.950000286102295,-17.25
4.23,119.78669738769531,75.9632339477539,-64.31783294677734,225.42726135253906,-143.62327575683594,-294.0413513183594,-25.950000762939453,9.450000762939453,-18.900001525878906
4.249,110.78450012207031,80.67501831054688,-44.512996673583984,337.208251953125,-135.36293029785156,-289.37823486328125,-25.05000114440918,8.40000057220459,-19.5
4.253,89.7921371459961,69.29777526855469,-12.411541938781738,346.134765625,-122.03981018066406,-266.9953918457031,-24.750001907348633,6.450000286102295,-19.80000114440918
4.26,90.63490295410156,67.19087982177734,-10.917559623718262,328.814697265625,-97.39203643798828,-280.185302734375,-24.150001525878906,7.800000190734863,-20.400001525878906
4.27,94.77207946777344,65.58197021484375,-16.012420654296875,272.4578857421875,-67.94792938232422,-280.3185119628906,-24.150001525878906,7.800000190734863,-20.400001525878906
4.28,102.77828979492188,59.72096633911133,-22.17988395690918,180.26187133789062,-57.02296829223633,-278.85296630859375,-22.200000762939453,8.700000762939453,-22.200000762939453
4.29,110.01835632324219,51.1401481628418,-21.56696891784668,123.2388916015625,-67.14854431152344,-270.1929626464844,-22.5,6.900000095367432,-22.05000114440918
4.303,115.22814178466797,45.20252990722656,-20.379444122314453,62.485450744628906,-65.016845703125,-178.79632568359375,-20.700000762939453,7.800000190734863,-22.950000762939453
4.31,117.2584228515625,32.52283477783203,-23.9420166015625,29.044410705566406,-70.47932434082031,-163.34149169921875,-22.650001525878906,6.750000476837158,-25.500001907348633
4.32,113.77246856689453,24.286781311035156,-26.087221145629883,-7.460949420928955,-89.39816284179688,-133.89739990234375,-22.650001525878906,6.750000476837158,-25.500001907348633
4.33,105.45979309082031,19.345149993896484,-25.167848587036133,-33.57427215576172,-121.24042510986328,-139.7595672607422,-20.25,8.850000381469727,-23.850000381469727
4.34,93.2780990600586,20.570980072021484,-28.309040069580078,-70.07962799072266,-123.77182006835938,-127.10260009765625,-21.0,10.050000190734863,-23.100000381469727
4.35,80.36856079101562,36.430171966552734,-31.41192626953125,-104.18682861328125,-103.65390014648438,-111.91423797607422,-21.0,9.15000057220459,-22.80000114440918
4.369,72.17081451416016,52.97889709472656,-34.13174057006836,-73.81010437011719,-43.69984436035156,-39.30321502685547,-21.0,10.800000190734863,-19.80000114440918
4.373,60.678646087646484,50.60384750366211,-30.68408966064453,-62.485450744628906,-27.578866958618164,-23.04900360107422,-21.0,10.800000190734863,-19.80000114440918
4.38,59.5294303894043,46.16020965576172,-28.73042106628418,-35.17304611206055,-18.2526798248291,-12.390504837036133,-19.200000762939453,14.40000057220459,-21.450000762939453
4.39,53.43858337402344,39.60967254638672,-25.014619827270508,-31.309341430664062,-14.788667678833008,-17.453292846679688,-18.450000762939453,13.65000057220459,-24.0
4.4,50.06754684448242,22.792800903320312,3.754108190536499,-43.56661605834961,-23.182235717773438,5.196018218994141,-19.5,12.300000190734863,-23.850000381469727
4.419,42.59763717651367,37.42616271972656,-20.226215362548828,25.846860885620117,42.101070404052734,41.568145751953125,-18.150001525878906,14.100000381469727,-25.500001907348633
4.423,35.702335357666016,24.861391067504883,-30.0711727142334,36.5053596496582,90.99693298339844,66.34915924072266,-18.150001525878906,14.100000381469727,-25.500001907348633
4.43,27.504589080810547,15.782577514648438,-7.661445617675781,31.309341430664062,102.8545150756836,77.80704498291016,-18.75,10.800000190734863,-26.100000381469727
4.44,25.972299575805664,14.748282432556152,-4.711789131164551,36.5053596496582,106.85145568847656,109.915771484375,-18.900001525878906,10.950000762939453,-25.200000762939453
4.45,22.946029663085938,11.60708999633789,-2.719813108444214,40.36906433105469,115.91117858886719,125.7702865600586,-19.200000762939453,11.40000057220459,-24.0
4.46,20.187908172607422,6.856993675231934,-1.6089035272598267,65.54976654052734,126.7029037475586,172.6676788330078,-20.25,9.15000057220459,-24.150001525878906
4.47,18.387468338012695,4.750096321105957,-0.8044517636299133,88.06584930419922,127.23583221435547,225.02755737304688,-20.25,9.15000057220459,-24.150001525878906
4.486,15.169661521911621,1.1875240802764893,-0.3064578175544739,75.27565002441406,138.6937255859375,234.8866729736328,-22.650001525878906,8.700000762939453,-22.950000762939453
4.49,13.292608261108398,-0.5746083855628967,0.038307227194309235,48.49617004394531,149.21897888183594,236.88514709472656,-22.200000762939453,6.750000476837158,-22.950000762939453
4.5,14.211980819702148,-0.2298433631658554,0.6512228846549988,14.12251091003418,154.14854431152344,251.4073486328125,-21.450000762939453,5.850000381469727,-23.700000762939453
4.51,14.595053672790527,3.179499864578247,0.38307225704193115,-27.31240463256836,160.14395141601562,252.60643005371094,-22.950000762939453,5.100000381469727,-22.200000762939453
4.52,17.851167678833008,9.461885452270508,1.800439715385437,-59.4211311340332,176.9310760498047,261.79937744140625,-22.950000762939453,5.100000381469727,-22.200000762939453
4.54,24.631547927856445,19.728221893310547,0.8044517636299133,-48.49617004394531,190.38743591308594,292.9754943847656,-23.700000762939453,3.1500000953674316,-20.700000762939453
4.543,35.28095626831055,31.258697509765625,2.719813108444214,-9.592649459838867,213.0367431640625,316.15771484375,-25.200000762939453,2.8500001430511475,-21.450000762939453
4.55,49.224788665771484,38.34553527832031,-5.784391403198242,-0.39969372749328613,245.81163024902344,313.0934143066406,-25.950000762939453,2.4000000953674316,-20.400001525878906
4.56,55.89024353027344,35.12772750854492,-15.322891235351562,4.396630764007568,294.30780029296875,290.9770202636719,-26.400001525878906,2.1000001430511475,-20.700000762939453
4.57,60.946800231933594,37.46446990966797,-16.089035034179688,25.313934326171875,309.0964660644531,292.44256591796875,-26.400001525878906,2.1000001430511475,-20.700000762939453
4.58,60.065731048583984,42.32948684692383,-10.266336441040039,79.13935852050781,285.1148376464844,270.9923400878906,-30.000001907348633,-0.75,-17.55000114440918
4.599,61.29156494140625,45.66221618652344,-11.568782806396484,112.04747009277344,266.8621826171875,243.28024291992188,-30.450000762939453,-2.4000000953674316,-16.650001525878906
4.604,59.91250228881836,52.63412857055664,-11.224017143249512,194.117919921875,241.14854431152344,203.71055603027344,-30.150001525878906,-2.4000000953674316,-16.350000381469727
4.61,59.68265914916992,50.71876907348633,-12.60307788848877,221.43031311035156,241.54823303222656,184.79173278808594,-29.55000114440918,-3.750000238418579,-16.05000114440918
4.62,56.92454147338867,47.34773254394531,-15.437812805175781,211.43797302246094,289.2450256347656,130.96630859375,-29.55000114440918,-3.750000238418579,-16.05000114440918
4.63,60.257266998291016,42.559329986572266,-18.693927764892578,112.58039855957031,361.5895690917969,71.94486999511719,-31.650001525878906,-4.800000190734863,-13.65000057220459
4.64,63.66661071777344,40.145973205566406,-12.717999458312988,-37.97090148925781,396.76263427734375,61.01990509033203,-30.150001525878906,-5.850000381469727,-13.050000190734863
4.66,67.72718048095703,32.599449157714844,0.9193734526634216,-185.5911102294922,354.9280090332031,25.580398559570312,-32.25,-5.700000286102295,-10.200000762939453
4.664,65.08397674560547,30.60747528076172,4.865017890930176,-435.1332092285156,204.7764129638672,5.062787055969238,-34.05000305175781,-7.650000095367432,-9.450000762939453
4.67,61.138336181640625,32.71437072753906,-12.48815631866455,-507.61102294921875,114.71209716796875,7.860642910003662,-34.05000305175781,-7.650000095367432,-9.450000762939453
4.68,56.733001708984375,28.423961639404297,-25.5892276763916,-500.5497741699219,32.24195861816406,-0.2664624750614166,-32.25,-5.400000095367432,-7.650000095367432
4.69,52.51920700073242,25.09123420715332,-52.05952072143555,-385.97088623046875,17.986217498779297,-0.2664624750614166,-33.45000076293945,-5.100000381469727,-8.25
4.7,55.73701477050781,27.925968170166016,-65.35212707519531,-232.48851013183594,34.24042892456055,7.594180583953857,-34.80000305175781,-3.0,-6.150000095367432
4.72,59.91250228881836,27.964275360107422,-71.67282104492188,-35.705970764160156,44.89892578125,-31.042879104614258,-33.30000305175781,-3.0,-6.150000095367432
4.723,68.49332427978516,27.964275360107422,-59.5677375793457,239.28330993652344,62.485450744628906,-9.592649459838867,-33.30000305175781,-3.0,-6.150000095367432
4.73,86.61264038085938,26.54690933227539,-59.37620162963867,313.35986328125,112.04747009277344,-5.595712184906006,-33.30000305175781,-3.0,-6.150000095367432
4.74,102.47183227539062,23.63555908203125,-63.36015319824219,367.185302734375,198.6477813720703,-11.857580184936523,-32.400001525878906,-2.8500001430511475,-5.700000286102295
4.75,128.75059509277344,24.708162307739258,-55.46886444091797,400.0934143066406,232.88819885253906,-19.718223571777344,-33.30000305175781,-3.750000238418579,-4.650000095367432
4.76,156.2551727294922,33.51882553100586,-17.659631729125977,426.3399658203125,172.53445434570312,-51.960182189941406,-34.05000305175781,-3.750000238418579,-3.9000000953674316
4.78,166.32998657226562,59.5294303894043,32.75267791748047,425.27410888671875,51.693721771240234,-20.38437843322754,-33.900001525878906,-3.6000001430511475,-6.300000190734863
4.783,156.90640258789062,71.02159881591797,52.13613510131836,264.0643005371094,-77.00765228271484,-5.8621745109558105,-34.5,-3.6000001430511475,-6.300000190734863
4.79,115.95597839355469,45.432373046875,30.837318420410156,159.07809448242188,-137.3614044189453,1.1990811824798584,-34.5,-5.400000095367432,-4.350000381469727
4.8,90.2518310546875,33.51882553100586,27.198131561279297,71.14547729492188,-174.79937744140625,-18.2526798248291,-33.75,-5.700000286102295,-5.100000381469727
4.81,69.52761840820312,22.37141990661621,24.401702880859375,45.96477508544922,-201.31239318847656,-41.30168533325195,-34.5,-4.200000286102295,-5.850000381469727
4.82,49.26309585571289,23.558944702148438,20.11129379272461,63.151607513427734,-214.50228881835938,-32.64165496826172,-32.55000305175781,-8.100000381469727,-5.850000381469727
4.84,39.26490783691406,28.92195701599121,14.020444869995117,108.71669006347656,-185.5911102294922,-48.8958625793457,-32.55000305175781,-8.100000381469727,-5.850000381469727
4.843,55.16240692138672,35.54910659790039,9.768342971801758,128.03521728515625,-95.79325866699219,-44.63246536254883,-32.55000305175781,-6.150000095367432,-5.850000381469727
4.85,98.79434204101562,46.811431884765625,16.318878173828125,136.4287872314453,-59.287899017333984,-64.61714935302734,-32.55000305175781,-6.150000095367432,-5.850000381469727
4.86,122.12344360351562,56.77130889892578,20.226215362548828,133.49769592285156,-14.12251091003418,-89.5313949584961,-33.30000305175781,-4.200000286102295,-9.15000057220459
4.87,150.35586547851562,69.29777526855469,23.558944702148438,64.21745300292969,36.10566711425781,-88.19908142089844,-33.75,-5.400000095367432,-9.15000057220459
4.88,150.1260223388672,84.19928741455078,19.881450653076172,-19.85145378112793,76.74119567871094,-55.4241943359375,-33.75,-5.400000095367432,-9.15000057220459
4.9,109.4820556640625,76.34630584716797,10.074800491333008,-74.8759536743164,104.45329284667969,-28.24502182006836,-32.55000305175781,-3.450000047683716,-7.950000286102295
4.904,79.94718170166016,57.307613372802734,13.867216110229492,-146.5543670654297,110.31546783447266,-11.457886695861816,-31.950000762939453,-2.8500001430511475,-7.500000476837158
4.91,73.85633087158203,47.884033203125,12.143390655517578,-158.545166015625,109.38284301757812,-17.453292846679688,-31.950000762939453,-2.8500001430511475,-7.500000476837158
4.92,84.314208984375,50.18246841430664,12.679692268371582,-154.6814727783203,120.70750427246094,-26.779478073120117,-31.200000762939453,-5.550000190734863,-6.750000476837158
4.93,102.39521789550781,50.37400436401367,9.921571731567383,-135.62939453125,117.64318084716797,-26.779478073120117,-31.200000762939453,-5.550000190734863,-6.750000476837158
4.94,107.87315368652344,46.619895935058594,5.4013190269470215,-151.48391723632812,148.8192901611328,-34.24042892456055,-33.900001525878906,-3.1500000953674316,-5.700000286102295
4.96,104.23396301269531,22.48634147644043,-14.67166805267334,-177.06431579589844,166.2725830078125,-29.577335357666016,-33.0,-3.750000238418579,-5.400000095367432
4.963,95.07853698730469,2.298433542251587,-24.286781311035156,-130.30015563964844,107.3843765258789,25.7136287689209,-32.400001525878906,-1.6500000953674316,-2.700000047683716
4.97,86.68925476074219,2.8347349166870117,-9.155426979064941,-70.87902069091797,56.62327575683594,49.82848358154297,-32.400001525878906,-1.6500000953674316,-2.700000047683716
4.98,80.94316864013672,8.580819129943848,-5.018246650695801,-23.04900360107422,32.77488327026367,57.422664642333984,-32.400001525878906,-1.6500000953674316,-2.700000047683716
4.99,71.8643569946289,25.014619827270508,-7.6997528076171875,9.992342948913574,32.37519073486328,61.81929397583008,-34.5,-4.200000286102295,-2.1000001430511475
5.0,66.4630355834961,35.31926345825195,-3.6774938106536865,46.09800720214844,46.63093185424805,71.67840576171875,-34.05000305175781,-3.0,-3.3000001907348633
5.019,62.44078063964844,35.0128059387207,-2.183511972427368,53.29249572753906,85.53445434570312,43.16691970825195,-33.900001525878906,-5.100000381469727,-3.0
5.023,55.928550720214844,35.93217849731445,-0.1149216815829277,46.231239318847656,123.50535583496094,28.24502182006836,-33.900001525878906,-5.100000381469727,-3.450000047683716
5.03,53.63011932373047,32.599449157714844,3.2178070545196533,41.035221099853516,125.37059783935547,27.31240463256836,-33.900001525878906,-5.100000381469727,-3.450000047683716
5.04,53.59181213378906,29.15180015563965,4.941632270812988,34.64012145996094,125.23736572265625,36.10566711425781,-35.55000305175781,-3.750000238418579,-2.5500001907348633
5.05,52.174442291259766,26.163835525512695,4.865017890930176,-7.594180583953857,129.6339874267578,22.116384506225586,-34.650001525878906,-4.800000190734863,-0.45000001788139343
5.06,50.71876907348633,22.792800903320312,2.6815059185028076,-41.701377868652344,112.4471664428711,23.98162269592285,-34.5,-6.150000095367432,-2.8500001430511475
5.08,51.7913703918457,19.000385284423828,-2.1068975925445557,-78.07350158691406,87.13323211669922,31.975496292114258,-34.5,-6.150000095367432,-2.8500001430511475
5.084,54.12811279296875,17.8128604888916,-8.044517517089844,-118.8422622680664,52.226646423339844,38.77029037475586,-36.0,-3.750000238418579,-0.30000001192092896
5.09,54.702720642089844,17.774553298950195,-13.560758590698242,-158.0122528076172,34.773353576660156,35.972434997558594,-34.20000076293945,-5.100000381469727,0.15000000596046448
5.1,55.660400390625,20.877439498901367,-13.752294540405273,-199.44715881347656,-1.4655436277389526,36.905052185058594,-33.45000076293945,-4.800000190734863,-0.45000001788139343
5.111,58.226985931396484,26.623523712158203,-17.659631729125977,-230.3568115234375,-46.897396087646484,45.96477508544922,-34.05000305175781,-5.400000095367432,-0.6000000238418579
5.12,62.63231658935547,34.284969329833984,-17.851167678833008,-245.14547729492188,-89.7978515625,31.176109313964844,-34.05000305175781,-5.400000095367432,-0.6000000238418579
5.139,64.93074798583984,42.94240188598633,-11.568782806396484,-230.75650024414062,-117.11026000976562,24.11485481262207,-33.900001525878906,-6.750000476837158,0.15000000596046448
5.143,64.16460418701172,45.24083709716797,-7.6997528076171875,-179.19601440429688,-146.68759155273438,5.462480545043945,-34.650001525878906,-5.850000381469727,-2.25
5.15,56.92454147338867,40.682273864746094,-11.185709953308105,-151.6171417236328,-150.55130004882812,-2.9310872554779053,-34.20000076293945,-5.850000381469727,-0.45000001788139343
5.16,53.170433044433594,38.34553527832031,-14.441824913024902,-116.0444107055664,-137.8943328857422,-10.525267601013184,-33.45000076293945,-4.050000190734863,-0.9000000357627869
5.17,47.615882873535156,33.557132720947266,-13.139378547668457,-77.4073486328125,-137.76109313964844,-22.382848739624023,-33.45000076293945,-4.050000190734863,-0.9000000357627869
5.18,44.85776138305664,30.569168090820312,-11.185709953308105,-59.95405578613281,-134.43031311035156,-38.63705825805664,-32.70000076293945,-4.350000381469727,-2.25
5.2,42.061336517333984,26.776752471923828,-11.683704376220703,-75.27565002441406,-117.64318084716797,-58.4885139465332,-33.150001525878906,-3.1500000953674316,-2.700000047683716
5.204,41.86980056762695,24.9763126373291,-15.322891235351562,-73.67687225341797,-130.96630859375,-62.8851432800293,-33.0,-4.5,-3.6000001430511475
5.21,46.96466064453125,24.59324073791504,-7.163451671600342,-40.502296447753906,-150.6845245361328,-67.814697265625,-34.5,-4.200000286102295,-3.6000001430511475
5.22,52.902278900146484,22.639572143554688,0.3447650372982025,16.920366287231445,-167.2052001953125,-73.0107192993164,-34.5,-4.200000286102295,-3.6000001430511475
5.23,62.28755187988281,25.321077346801758,1.2641384601593018,44.49923324584961,-150.6845245361328,-65.81623077392578,-33.75,-4.200000286102295,-5.100000381469727
5.24,70.5619125366211,32.292991638183594,0.1149216815829277,63.018375396728516,-137.09494018554688,-51.560489654541016,-31.200000762939453,-5.100000381469727,-4.200000286102295
5.26,73.97125244140625,33.212364196777344,2.2218191623687744,75.67534637451172,-118.57579803466797,-43.16691970825195,-31.80000114440918,-2.25,-5.100000381469727
5.263,70.75344848632812,30.530860900878906,3.179499864578247,91.92955017089844,-103.65390014648438,-22.782541275024414,-32.25,-3.0,-5.850000381469727
5.27,56.92454147338867,25.665842056274414,0.49799394607543945,76.87442779541016,-93.39509582519531,-8.260336875915527,-32.25,-3.0,-5.850000381469727
5.28,46.88804626464844,22.677879333496094,-2.4899697303771973,42.90045928955078,-102.05513000488281,-10.658498764038086,-31.05000114440918,-2.25,-6.150000095367432
5.29,39.91613006591797,19.038692474365234,-1.4939818382263184,49.02909469604492,-86.86676788330078,-13.989279747009277,-30.450000762939453,-4.050000190734863,-6.0
5.3,40.22258758544922,14.173673629760742,-0.1149216815829277,100.58958435058594,-71.14547729492188,-9.859111785888672,-31.650001525878906,-4.050000190734863,-7.500000476837158
5.319,41.29519271850586,13.522451400756836,1.9153614044189453,150.6845245361328,-22.782541275024414,-5.595712184906006,-31.05000114440918,-4.950000286102295,-7.350000381469727
5.322,48.88002014160156,22.448034286499023,7.086836814880371,150.95098876953125,-34.64012145996094,4.130168437957764,-31.05000114440918,-4.950000286102295,-7.350000381469727
5.33,48.26710510253906,23.9420166015625,8.848969459533691,51.29402542114258,-60.75344467163086,-13.056661605834961,-30.000001907348633,-4.200000286102295,-7.650000095367432
5.34,42.63594436645508,29.611486434936523,7.738059997558594,-77.94027709960938,-120.97396087646484,-51.960182189941406,-29.55000114440918,-3.450000047683716,-6.600000381469727
5.35,40.91211700439453,27.619510650634766,4.865017890930176,-97.12557220458984,-131.7657012939453,-106.58499145507812,-29.250001907348633,-3.750000238418579,-7.950000286102295
5.36,42.980709075927734,27.734432220458984,2.298433542251587,-192.91883850097656,-124.8376693725586,-137.3614044189453,-30.750001907348633,-3.750000238418579,-8.700000762939453
5.379,57.6906852722168,40.49073791503906,7.6997528076171875,-302.03521728515625,-158.4119415283203,-179.9954071044922,-30.750001907348633,-3.750000238418579,-8.700000762939453
5.383,94.88700103759766,60.372188568115234,10.649409294128418,-451.1209716796875,-232.88819885253906,-172.2679901123047,-29.700000762939453,-2.1000001430511475,-8.550000190734863
5.39,102.05045318603516,64.47106170654297,7.086836814880371,-537.0551147460938,-264.73046875,-194.78407287597656,-29.700000762939453,0.45000001788139343,-9.75
5.4,111.20587921142578,69.79576873779297,-4.481945514678955,-600.7396240234375,-279.11944580078125,-207.30780029296875,-27.30000114440918,1.8000000715255737,-8.700000762939453
5.41,113.84908294677734,78.52981567382812,-25.129541397094727,-539.5864868164062,-257.0030517578125,-218.23277282714844,-25.950000762939453,1.350000023841858,-9.300000190734863
5.42,110.97603607177734,81.70931243896484,-41.60165023803711,-358.7917175292969,-226.2266387939453,-230.4900360107422,-25.950000762939453,1.350000023841858,-9.300000190734863
5.439,102.9315185546875,79.14273071289062,-61.17664337158203,55.02450180053711,-91.92955017089844,-273.6569519042969,-24.750001907348633,5.700000286102295,-9.90000057220459
5.442,90.74982452392578,89.60060119628906,-50.144161224365234,134.16384887695312,-54.75803756713867,-274.3231201171875,-24.750001907348633,5.700000286102295,-9.90000057220459
5.45,87.83847045898438,93.08656311035156,-43.44039535522461,269.3935546875,2.9310872554779053,-274.8560485839844,-25.05000114440918,5.700000286102295,-10.65000057220459
5.46,80.10041046142578,92.39703369140625,-30.645782470703125,362.9219055175781,32.77488327026367,-269.9264831542969,-23.400001525878906,7.050000190734863,-9.0
5.47,78.64473724365234,86.38279724121094,-17.276559829711914,386.7702941894531,41.568145751953125,-259.134765625,-23.400001525878906,7.050000190734863,-9.0
5.48,79.98548889160156,76.46122741699219,-12.986149787902832,416.2143859863281,37.57120895385742,-259.5344543457031,-22.200000762939453,7.050000190734863,-11.550000190734863
5.499,85.84649658203125,69.10623931884766,-10.572794914245605,434.0673828125,16.78713607788086,-206.90811157226562,-24.750001907348633,7.650000095367432,-12.0
5.504,111.81879425048828,57.001155853271484,-2.451662540435791,386.3705749511719,-13.056661605834961,-170.53598022460938,-24.0,6.450000286102295,-11.40000057220459
5.51,118.06287384033203,52.289363861083984,1.2258312702178955,335.8759460449219,-32.24195861816406,-165.07350158691406,-23.25,6.150000095367432,-12.0
5.52,121.9319076538086,44.35976791381836,-0.26815059781074524,239.5497589111328,-71.01225280761719,-134.69677734375,-23.25,6.150000095367432,-12.0
5.53,126.87353515625,32.75267791748047,-3.869029998779297,127.90198516845703,-85.00152587890625,-94.0612564086914,-23.700000762939453,6.300000190734863,-13.050000190734863
5.54,123.00450897216797,22.48634147644043,-5.5545477867126465,19.98468589782715,-94.72740936279297,-68.61408996582031,-23.400001525878906,6.300000190734863,-14.100000381469727
5.559,110.20989227294922,13.254301071166992,-4.022258758544922,-102.32159423828125,-103.12097930908203,-37.57120895385742,-23.700000762939453,6.300000190734863,-13.350000381469727
5.563,83.35652923583984,4.9799394607543945,-11.760318756103516,-100.9892807006836,-96.59264373779297,-42.101070404052734,-23.700000762939453,6.300000190734863,-13.350000381469727
5.57,78.79796600341797,8.772355079650879,-14.556746482849121,-108.45022583007812,-83.66921997070312,-27.84532928466797,-23.700000762939453,6.300000190734863,-13.350000381469727
5.58,74.08617401123047,16.70195198059082,-17.468095779418945,-100.9892807006836,-67.814697265625,9.326186180114746,-24.0,10.350000381469727,-11.700000762939453
5.59,68.45501708984375,25.129541397094727,-16.089035034179688,-73.67687225341797,-47.163856506347656,11.857580184936523,-23.700000762939453,10.950000762939453,-13.050000190734863
5.6,62.862159729003906,28.232425689697266,-15.361198425292969,-48.362937927246094,-23.315465927124023,12.790199279785156,-23.55000114440918,10.050000190734863,-13.950000762939453
5.613,58.226985931396484,27.006595611572266,-10.764330863952637,-57.55589294433594,-31.176109313964844,17.053598403930664,-22.200000762939453,9.450000762939453,-14.100000381469727
5.62,50.41231155395508,31.641769409179688,-8.121131896972656,-49.16232681274414,7.460949420928955,33.97396469116211,-22.200000762939453,9.450000762939453,-14.100000381469727
5.63,47.38603973388672,28.73042106628418,-21.528661727905273,-25.846860885620117,31.042879104614258,56.356815338134766,-22.200000762939453,9.450000762939453,-14.100000381469727
5.64,43.86177444458008,22.218191146850586,-10.113107681274414,-46.63093185424805,41.701377868652344,65.41653442382812,-21.75,7.650000095367432,-15.000000953674316
5.65,44.819454193115234,21.911733627319336,-4.367023944854736,-69.54670715332031,38.63705825805664,95.52679443359375,-21.30000114440918,8.40000057220459,-14.700000762939453
5.66,47.46265411376953,23.788787841796875,-1.1875240802764893,-78.60643005371094,36.63859176635742,147.75344848632812,-21.75,7.650000095367432,-15.750000953674316
5.679,49.416324615478516,23.52063751220703,1.7621324062347412,-67.14854431152344,54.091880798339844,219.16539001464844,-21.0,8.100000381469727,-15.000000953674316
5.683,46.77312469482422,23.903709411621094,5.094861030578613,-45.43185043334961,47.297088623046875,246.74424743652344,-21.0,8.100000381469727,-15.000000953674316
5.69,45.12591552734375,23.252487182617188,5.746084213256836,-6.5283308029174805,46.497703552246094,265.52984619140625,-22.650001525878906,5.850000381469727,-13.65000057220459
5.7,42.59763717651367,20.800825119018555,4.711789131164551,30.643184661865234,70.74578857421875,277.1209716796875,-22.80000114440918,7.200000286102295,-13.950000762939453
5.71,40.29920196533203,16.778566360473633,2.5665841102600098,87.53292083740234,71.94486999511719,299.5038146972656,-23.25,5.400000095367432,-13.500000953674316
5.729,39.533058166503906,16.510414123535156,-0.5363011956214905,108.84992218017578,96.19295501708984,278.9862060546875,-23.55000114440918,4.5,-14.700000762939453
5.733,37.694313049316406,15.207969665527344,-6.971915245056152,112.98008728027344,126.83613586425781,273.25726318359375,-23.55000114440918,4.5,-14.700000762939453
5.74,38.07738494873047,15.322891235351562,-11.798625946044922,101.9218978881836,144.82235717773438,269.3935546875,-23.25,2.700000047683716,-12.750000953674316
5.75,37.08139419555664,21.298818588256836,-8.504204750061035,85.13475799560547,184.39202880859375,242.6140899658203,-24.450000762939453,0.9000000357627869,-13.65000057220459
5.76,38.76691436767578,24.66985511779785,-2.8347349166870117,114.71209716796875,197.848388671875,231.95558166503906,-24.750001907348633,-1.5,-13.950000762939453
5.77,40.107666015625,31.41192626953125,0.38307225704193115,151.75038146972656,216.50076293945312,219.9647674560547,-24.750001907348633,1.0500000715255737,-12.0
5.78,40.29920196533203,33.365596771240234,-2.7964274883270264,172.80091857910156,259.134765625,209.57273864746094,-24.750001907348633,1.0500000715255737,-12.0
5.793,40.7205810546875,37.234622955322266,-4.9799394607543945,165.3399658203125,313.7595520019531,176.7978515625,-27.150001525878906,-2.4000000953674316,-11.550000190734863
5.8,39.456443786621094,42.21456527709961,-11.338939666748047,136.69525146484375,344.6692199707031,180.12863159179688,-27.150001525878906,-2.4000000953674316,-11.550000190734863
5.81,39.533058166503906,42.367794036865234,-14.556746482849121,85.4012222290039,372.3813171386719,178.26339721679688,-28.200000762939453,-5.850000381469727,-9.75
5.82,37.84754180908203,32.484527587890625,-14.480132102966309,-2.6646246910095215,365.9862060546875,158.545166015625,-28.500001907348633,-4.950000286102295,-9.450000762939453
5.83,37.502777099609375,24.823083877563477,-14.058752059936523,-50.09494400024414,305.89892578125,122.70597076416016,-28.500001907348633,-4.950000286102295,-9.450000762939453
5.849,45.279144287109375,23.367408752441406,4.443638324737549,-28.378253936767578,218.23277282714844,96.8591079711914,-30.750001907348633,-6.450000286102295,-8.40000057220459
5.853,50.60384750366211,29.381643295288086,8.504204750061035,-25.447166442871094,178.39662170410156,65.949462890625,-29.55000114440918,-7.650000095367432,-4.350000381469727
5.86,60.33388137817383,41.333499908447266,-5.5545477867126465,-57.689125061035156,205.7090301513672,37.57120895385742,-29.55000114440918,-7.650000095367432,-4.350000381469727
5.87,57.920528411865234,40.260894775390625,-17.966089248657227,-159.61102294921875,210.2388916015625,19.85145378112793,-29.250001907348633,-6.450000286102295,-6.150000095367432
5.88,47.34773254394531,23.980323791503906,-23.367408752441406,-271.7917175292969,160.6768798828125,11.990811347961426,-29.250001907348633,-6.450000286102295,-6.150000095367432
5.89,36.315250396728516,11.91354751586914,-26.01060676574707,-314.8254089355469,70.87902069091797,21.716691970825195,-30.900001525878906,-6.300000190734863,-4.200000286102295
5.91,27.006595611572266,7.508216381072998,-31.7183837890625,-255.40428161621094,-17.053598403930664,34.906585693359375,-30.450000762939453,-5.850000381469727,-2.25
5.914,25.81907081604004,7.508216381072998,-42.82748031616211,-180.12863159179688,-34.24042892456055,24.781009674072266,-31.650001525878906,-4.350000381469727,-1.2000000476837158
5.92,36.39186477661133,13.10107135772705,-58.724979400634766,-142.29095458984375,-11.324655532836914,15.055130004882812,-31.650001525878906,-4.350000381469727,-1.2000000476837158
5.93,45.010990142822266,21.75850486755371,-59.452816009521484,-96.59264373779297,37.304744720458984,-2.131699800491333,-31.650001525878906,-4.350000381469727,-1.2000000476837158
5.94,62.93877410888672,34.3998908996582,-61.48310089111328,-63.151607513427734,87.26646423339844,-29.84379768371582,-29.400001525878906,-6.750000476837158,-2.700000047683716
5.95,95.69145202636719,51.71475601196289,-49.109867095947266,65.68299865722656,112.31393432617188,-102.98774719238281,-28.950000762939453,-6.750000476837158,-2.25
5.969,149.43649291992188,71.09821319580078,-1.5322890281677246,272.32464599609375,102.72128295898438,-172.134765625,-28.200000762939453,-5.550000190734863,-1.2000000476837158
5.973,175.94509887695312,109.71189880371094,60.87018585205078,426.073486328125,-15.854516983032227,-154.14854431152344,-28.200000762939453,-5.550000190734863,-1.2000000476837158
5.98,171.50144958496094,99.56048583984375,51.44660568237305,316.15771484375,-51.4272575378418,-156.81317138671875,-28.950000762939453,-4.350000381469727,-1.2000000476837158
5.99,172.26759338378906,87.18724822998047,21.413740158081055,-13.722817420959473,-68.4808578491211,-148.55282592773438,-29.55000114440918,-4.200000286102295,-1.350000023841858
6.0,141.31536865234375,69.91069030761719,18.157625198364258,-80.20520782470703,-151.75038146972656,-123.50535583496094,-29.55000114440918,-2.700000047683716,-1.8000000715255737
6.01,106.30255889892578,45.164222717285156,28.500577926635742,-49.16232681274414,-199.98008728027344,-129.6339874267578,-28.200000762939453,-4.050000190734863,-1.9500000476837158
6.03,83.01176452636719,19.306842803955078,14.441824913024902,1.0658499002456665,-199.31393432617188,-124.43797302246094,-28.200000762939453,-4.050000190734863,-1.9500000476837158
6.034,73.47325897216797,6.129156112670898,3.5625722408294678,14.522205352783203,-145.2220458984375,-137.22817993164062,-28.500001907348633,-1.8000000715255737,-2.8500001430511475
6.04,91.78411865234375,13.713987350463867,3.600879430770874,24.381317138671875,-116.9770278930664,-130.56661987304688,-28.650001525878906,-1.350000023841858,-4.200000286102295
6.05,109.13729095458984,25.51261329650879,10.649409294128418,38.37059783935547,-108.18376159667969,-114.84532928466797,-27.30000114440918,-3.0,-3.9000000953674316
6.06,129.2485809326172,38.2689208984375,18.272546768188477,43.30015182495117,-97.39203643798828,-81.93721008300781,-28.05000114440918,-1.5,-3.9000000953674316
6.07,135.64588928222656,40.873809814453125,17.774553298950195,55.82388687133789,-84.4686050415039,-54.62480926513672,-28.05000114440918,-1.5,-3.9000000953674316
6.089,114.73014831542969,34.70634841918945,10.266336441040039,75.5421142578125,-47.830013275146484,-27.045940399169922,-27.450000762939453,-0.9000000357627869,-6.300000190734863
6.093,89.7921371459961,26.66183090209961,5.899312973022461,94.32771301269531,11.191424369812012,5.196018218994141,-26.700000762939453,-1.6500000953674316,-6.300000190734863
6.1,76.80599212646484,30.99054718017578,5.018246650695801,110.71515655517578,43.30015182495117,7.860642910003662,-26.400001525878906,-1.350000023841858,-6.750000476837158
6.11,81.441162109375,35.0128059387207,9.27034854888916,134.83001708984375,66.21592712402344,32.90811538696289,-27.000001907348633,-1.5,-5.100000381469727
6.12,93.9676284790039,42.1379508972168,17.276559829711914,151.88360595703125,68.88054656982422,47.0306282043457,-27.000001907348633,-1.5,-5.100000381469727
6.13,107.52838897705078,52.4042854309082,15.782577514648438,105.11944580078125,108.45022583007812,54.62480926513672,-25.650001525878906,-1.350000023841858,-4.200000286102295
6.15,121.39559936523438,63.704917907714844,13.599065780639648,34.906585693359375,136.29556274414062,61.01990509033203,-26.400001525878906,-2.4000000953674316,-4.200000286102295
6.153,123.92388153076172,74.12448120117188,13.867216110229492,-43.96630859375,152.68299865722656,91.79632568359375,-26.55000114440918,-2.700000047683716,-5.400000095367432
6.16,103.23797607421875,57.920528411865234,14.67166805267334,-47.163856506347656,150.01837158203125,93.12863159179688,-26.400001525878906,-1.350000023841858,-4.200000286102295
6.17,90.32844543457031,48.4969482421875,11.683704376220703,-74.47626495361328,174.79937744140625,86.0673828125,-26.400001525878906,-1.350000023841858,-4.200000286102295
6.18,74.35432434082031,38.99675750732422,3.5242648124694824,-99.65696716308594,179.9954071044922,98.19142150878906,-28.80000114440918,-3.750000238418579,-2.8500001430511475
6.19,61.48310089111328,33.51882553100586,-1.4939818382263184,-115.91117858886719,162.00918579101562,98.59111785888672,-27.900001525878906,-2.4000000953674316,-2.25
6.21,53.974884033203125,25.435998916625977,-3.8307228088378906,-122.83920288085938,136.9617156982422,73.41041564941406,-28.05000114440918,-4.200000286102295,-1.350000023841858
6.213,49.3014030456543,18.464082717895508,-4.098873138427734,-91.3966293334961,73.41041564941406,57.15620040893555,-28.80000114440918,-5.400000095367432,-0.6000000238418579
6.22,49.99093246459961,18.54069709777832,-4.9799394607543945,-52.3598747253418,57.422664642333984,45.96477508544922,-28.80000114440918,-5.400000095367432,-0.6000000238418579
6.23,55.35394287109375,22.06496238708496,-3.9456443786621094,-13.189892768859863,48.362937927246094,23.848390579223633,-27.900001525878906,-5.100000381469727,-0.9000000357627869
6.24,64.85413360595703,27.964275360107422,-5.20978307723999,1.4655436277389526,65.81623077392578,14.92189884185791,-29.700000762939453,-5.850000381469727,-1.2000000476837158
6.25,73.39664459228516,32.369606018066406,-3.141192674636841,-4.929555892944336,72.21133422851562,15.987748146057129,-28.650001525878906,-5.850000381469727,-2.25
6.27,77.26567840576172,36.58340072631836,-1.37906014919281,-22.782541275024414,66.08269500732422,23.182235717773438,-30.150001525878906,-5.550000190734863,-0.9000000357627869
6.274,75.2737045288086,34.62973403930664,0.4596867263317108,-56.22358322143555,65.81623077392578,26.779478073120117,-30.150001525878906,-5.550000190734863,-0.9000000357627869
6.28,66.30980682373047,26.623523712158203,-0.38307225704193115,-71.2787094116211,63.684532165527344,21.983154296875,-30.150001525878906,-4.350000381469727,-1.6500000953674316
6.29,62.2109375,24.286781311035156,0.038307227194309235,-78.07350158691406,42.76722717285156,31.975496292114258,-29.400001525878906,-4.800000190734863,0.15000000596046448
6.3,55.622093200683594,18.88546371459961,-3.7924153804779053,-108.71669006347656,27.84532928466797,32.108726501464844,-29.250001907348633,-6.150000095367432,-0.30000001192092896
6.31,49.37801742553711,14.441824913024902,-6.129156112670898,-132.83154296875,-2.9310872554779053,31.176109313964844,-29.250001907348633,-6.150000095367432,-0.30000001192092896
6.329,46.16020965576172,14.709975242614746,-9.27034854888916,-181.46095275878906,-29.044410705566406,28.511484146118164,-29.250001907348633,-6.150000095367432,-0.30000001192092896
6.333,45.81544494628906,19.99637222290039,-9.040505409240723,-248.47625732421875,-87.39968872070312,19.31852912902832,-29.700000762939453,-5.550000190734863,-0.15000000596046448
6.34,47.07958221435547,31.52684783935547,-6.780379295349121,-290.57733154296875,-113.24655151367188,-7.860642910003662,-28.650001525878906,-6.750000476837158,-0.9000000357627869
6.35,49.837703704833984,36.35355758666992,-5.324704647064209,-351.73046875,-156.5467071533203,-11.591117858886719,-28.80000114440918,-5.400000095367432,-1.0500000715255737
6.36,52.02121353149414,39.533058166503906,-4.903325080871582,-371.04901123046875,-201.578857421875,-32.108726501464844,-28.500001907348633,-6.150000095367432,-1.8000000715255737
6.37,52.09782791137695,40.79719543457031,-7.393294811248779,-367.71820068359375,-228.0918731689453,-65.68299865722656,-28.500001907348633,-6.150000095367432,-1.8000000715255737
6.39,50.25908279418945,39.456443786621094,-12.29662036895752,-366.9188232421875,-225.2940216064453,-84.20214080810547,-27.30000114440918,-3.450000047683716,-0.30000001192092896
6.393,48.4969482421875,35.77894973754883,-20.072986602783203,-301.6355285644531,-205.7090301513672,-97.12557220458984,-28.650001525878906,-2.8500001430511475,-2.25
6.4,45.50898742675781,25.780763626098633,-21.298818588256836,-228.35833740234375,-194.117919921875,-90.59724426269531,-28.05000114440918,-1.8000000715255737,-2.8500001430511475
6.41,42.02302932739258,21.75850486755371,-20.456058502197266,-146.28790283203125,-174.66615295410156,-103.25421142578125,-27.30000114440918,-3.450000047683716,-4.350000381469727
6.42,38.422149658203125,20.034679412841797,-20.379444122314453,-51.82695007324219,-144.02296447753906,-91.13016510009766,-27.30000114440918,-3.450000047683716,-4.350000381469727
6.43,35.66402816772461,17.42978858947754,-18.34916114807129,29.044410705566406,-139.89280700683594,-87.9326171875,-27.900001525878906,-1.350000023841858,-5.700000286102295
6.45,34.55311965942383,14.326903343200684,-19.574993133544922,109.51607513427734,-127.90198516845703,-95.66002655029297,-27.30000114440918,-0.30000001192092896,-3.9000000953674316
6.453,38.230613708496094,14.135366439819336,-8.96389102935791,187.4563446044922,-99.25727081298828,-89.39816284179688,-26.400001525878906,-0.45000001788139343,-6.0
6.46,45.777137756347656,20.64759635925293,-3.3710360527038574,206.6416473388672,-76.20826721191406,-83.26952362060547,-25.80000114440918,-0.30000001192092896,-6.150000095367432
6.47,50.22077560424805,22.562957763671875,0.9959878921508789,259.5344543457031,-77.67381286621094,-58.888206481933594,-25.80000114440918,-0.30000001192092896,-6.150000095367432
6.48,52.02121353149414,22.06496238708496,8.848969459533691,309.3629455566406,-57.15620040893555,-45.43185043334961,-25.200000762939453,-0.15000000596046448,-7.050000190734863
6.49,47.845726013183594,21.0689754486084,9.615114212036133,329.0811462402344,-46.63093185424805,-7.460949420928955,-22.950000762939453,-0.45000001788139343,-6.750000476837158
6.51,41.25688552856445,17.391481399536133,9.117119789123535,332.0122375488281,-38.63705825805664,47.430320739746094,-24.30000114440918,-1.5,-7.650000095367432
6.513,41.25688552856445,18.579004287719727,8.65743350982666,324.4180603027344,-39.16998291015625,57.689125061035156,-24.30000114440918,-1.5,-7.650000095367432
6.52,41.86980056762695,18.272546768188477,8.695740699768066,325.084228515625,-33.4410400390625,62.618682861328125,-24.30000114440918,-1.5,-7.650000095367432
6.53,42.52102279663086,18.310853958129883,9.768342971801758,326.81622314453125,-25.846860885620117,70.21286010742188,-24.750001907348633,-3.0,-8.700000762939453
6.54,42.21456527709961,16.931795120239258,9.423578262329102,293.37518310546875,-41.434913635253906,59.15467071533203,-25.950000762939453,-3.1500000953674316,-10.050000190734863
6.55,49.60786056518555,20.11129379272461,13.48414421081543,126.03675079345703,-101.12251281738281,27.71209716796875,-25.500001907348633,-4.200000286102295,-9.90000057220459
6.569,68.07194519042969,28.040889739990234,13.637372970581055,-174.79937744140625,-195.84991455078125,-45.96477508544922,-24.900001525878906,-4.800000190734863,-9.0
6.573,118.40763854980469,52.82566452026367,1.1109095811843872,-452.4532775878906,-250.4747314453125,-158.9448699951172,-24.900001525878906,-4.800000190734863,-9.0
6.58,124.9964828491211,63.24523162841797,1.723825216293335,-560.37060546875,-280.98468017578125,-230.4900360107422,-22.650001525878906,-3.1500000953674316,-11.550000190734863
6.59,123.65573120117188,90.17520904541016,8.312667846679688,-709.4563598632812,-324.01837158203125,-283.3828430175781,-24.150001525878906,-3.6000001430511475,-10.800000190734863
6.6,101.97383880615234,104.65534210205078,4.137180328369141,-830.4302978515625,-385.4379577636719,-353.46246337890625,-22.200000762939453,-1.350000023841858,-11.550000190734863
6.61,82.93515014648438,101.24600219726562,-23.405715942382812,-883.7227783203125,-373.58038330078125,-451.7871398925781,-21.75,0.30000001192092896,-11.40000057220459
6.63,74.77571105957031,93.46963500976562,-67.34410858154297,-667.0888061523438,-255.80397033691406,-485.2281799316406,-18.75,4.200000286102295,-10.950000762939453
6.633,97.26204681396484,89.8687515258789,-103.5827407836914,-28.111791610717773,-100.85604858398438,-415.01531982421875,-18.150001525878906,7.050000190734863,-12.300000190734863
6.64,100.21170806884766,85.84649658203125,-94.5039291381836,303.5007629394531,-19.052066802978516,-327.08270263671875,-18.150001525878906,7.050000190734863,-12.300000190734863
6.65,96.9555892944336,69.91069030761719,-59.98911666870117,596.7427368164062,54.35834503173828,-239.1500701904297,-18.75,8.40000057220459,-11.700000762939453
6.66,71.74943542480469,48.61186981201172,-5.899312973022461,678.0137939453125,70.07962799072266,-195.5834503173828,-17.55000114440918,8.100000381469727,-13.200000762939453
6.67,66.19488525390625,41.41011428833008,16.28057098388672,628.3185424804688,44.36600112915039,-105.65237426757812,-17.55000114440918,8.100000381469727,-13.200000762939453
6.689,78.4148941040039,45.31745147705078,18.655620574951172,478.3001403808594,11.990811347961426,-37.57120895385742,-15.300000190734863,5.700000286102295,-14.250000953674316
6.693,142.3496551513672,53.63011932373047,-4.290409564971924,239.81622314453125,-3.7304747104644775,-41.967838287353516,-15.750000953674316,5.400000095367432,-15.000000953674316
6.7,156.0636444091797,57.34592056274414,-6.856993675231934,98.85757446289062,-5.062787055969238,-75.27565002441406,-15.750000953674316,5.400000095367432,-15.000000953674316
6.71,167.78565979003906,66.15657806396484,-6.665457725524902,-20.91730499267578,-16.12097930908203,-73.54364013671875,-16.5,3.750000238418579,-15.450000762939453
6.72,148.05743408203125,74.81401824951172,1.800439715385437,-69.81317138671875,-33.4410400390625,-58.08882141113281,-16.5,3.750000238418579,-15.450000762939453
6.73,97.5685043334961,52.94058609008789,1.4173674583435059,-86.0673828125,-32.108726501464844,-58.4885139465332,-16.5,3.750000238418579,-15.450000762939453
6.749,68.53163146972656,38.843528747558594,-4.405331134796143,-88.73200225830078,-24.781009674072266,-43.30015182495117,-15.750000953674316,5.700000286102295,-13.500000953674316
6.753,54.74102783203125,25.244462966918945,-18.847156524658203,-80.8713607788086,11.990811347961426,-11.324655532836914,-13.950000762939453,5.850000381469727,-11.100000381469727
6.76,53.89826965332031,21.720197677612305,-20.76251792907715,-75.8085708618164,35.57273864746094,2.131699800491333,-13.950000762939453,5.850000381469727,-11.100000381469727
6.77,54.894256591796875,20.264522552490234,-21.14558982849121,-69.67993927001953,60.88667678833008,40.23583221435547,-13.950000762939453,6.300000190734863,-13.350000381469727
6.78,61.90447998046875,18.88546371459961,-14.786589622497559,-59.82082748413086,72.21133422851562,82.20367431640625,-13.950000762939453,6.300000190734863,-13.350000381469727
6.79,66.27149963378906,19.958065032958984,-10.036493301391602,-61.01990509033203,72.21133422851562,104.32006072998047,-13.800000190734863,8.40000057220459,-13.500000953674316
6.803,67.22918701171875,22.103269577026367,-7.6997528076171875,-66.74884796142578,89.39816284179688,126.96936798095703,-15.000000953674316,8.100000381469727,-14.700000762939453
6.81,64.7009048461914,25.167848587036133,-6.971915245056152,-59.287899017333984,93.79479217529297,123.9050521850586,-15.000000953674316,8.100000381469727,-14.700000762939453
6.82,61.636329650878906,25.474306106567383,-7.316680431365967,-43.96630859375,91.66309356689453,135.89585876464844,-15.750000953674316,8.100000381469727,-15.000000953674316
6.83,57.53745651245117,24.66985511779785,-8.542511940002441,-39.9693717956543,101.78866577148438,157.21286010742188,-15.750000953674316,8.100000381469727,-15.000000953674316
6.84,50.18246841430664,23.252487182617188,-6.89530086517334,-19.584991455078125,112.04747009277344,139.7595672607422,-16.80000114440918,8.100000381469727,-15.000000953674316
6.85,44.32146072387695,22.48634147644043,-6.473921298980713,9.192955017089844,109.51607513427734,152.28330993652344,-18.450000762939453,6.300000190734863,-15.15000057220459
6.869,39.647979736328125,20.11129379272461,-9.155426979064941,54.091880798339844,116.9770278930664,153.882080078125,-16.950000762939453,4.350000381469727,-14.850000381469727
6.872,32.063148498535156,16.318878173828125,-9.84495735168457,74.07656860351562,124.97090148925781,148.68606567382812,-16.950000762939453,4.350000381469727,-14.850000381469727
6.88,30.37763023376465,15.629348754882812,-8.925583839416504,94.32771301269531,131.7657012939453,158.27871704101562,-18.30000114440918,3.450000047683716,-15.000000953674316
6.89,30.722396850585938,14.480132102966309,-5.937620162963867,117.9096450805664,143.62327575683594,162.5421142578125,-18.900001525878906,2.4000000953674316,-14.100000381469727
6.9,30.79901123046875,15.284584045410156,-5.861005783081055,121.64012145996094,161.7427215576172,141.35833740234375,-17.700000762939453,1.350000023841858,-12.600000381469727
6.919,29.15180015563965,17.8128604888916,-4.788403511047363,129.2342987060547,186.5237274169922,155.21438598632812,-20.700000762939453,3.1500000953674316,-11.850000381469727
6.923,26.31706428527832,14.36521053314209,-8.236053466796875,107.91730499267578,211.5712127685547,161.47625732421875,-20.700000762939453,3.1500000953674316,-11.850000381469727
6.93,25.51261329650879,13.905523300170898,-4.520252704620361,116.0444107055664,215.7013702392578,163.87442016601562,-21.0,-0.75,-11.700000762939453
6.94,24.89969825744629,15.131354331970215,-3.5242648124694824,109.38284301757812,232.0888214111328,148.28636169433594,-21.30000114440918,0.75,-12.450000762939453
6.95,27.734432220458984,19.99637222290039,-3.141192674636841,111.91423797607422,241.14854431152344,155.21438598632812,-22.200000762939453,0.45000001788139343,-11.100000381469727
6.96,31.794998168945312,21.6818904876709,-2.75812029838562,122.70597076416016,242.34762573242188,151.35069274902344,-22.200000762939453,0.15000000596046448,-11.100000381469727
6.97,37.234622955322266,23.21417999267578,-4.6734819412231445,116.9770278930664,260.2005920410156,132.16539001464844,-22.200000762939453,0.15000000596046448,-11.100000381469727
6.989,44.704532623291016,26.815059661865234,-7.240066051483154,74.34303283691406,283.915771484375,116.31086730957031,-23.700000762939453,-2.8500001430511475,-10.800000190734863
6.993,65.65858459472656,40.33750915527344,3.064578056335449,42.633995056152344,296.3062744140625,109.38284301757812,-23.700000762939453,-2.1000001430511475,-11.100000381469727
7.0,69.68084716796875,43.74685287475586,7.086836814880371,-20.38437843322754,278.18682861328125,102.05513000488281,-24.900001525878906,-3.1500000953674316,-9.75
7.01,77.30398559570312,49.64616775512695,6.512228488922119,-164.4073486328125,271.39202880859375,73.67687225341797,-24.30000114440918,-2.25,-8.40000057220459
7.02,80.75163269042969,56.005165100097656,-6.358999729156494,-399.9601745605469,229.69065856933594,55.15773391723633,-24.30000114440918,-2.25,-8.40000057220459
7.039,84.73558807373047,40.64396667480469,-18.157625198364258,-627.5191040039062,87.0,-4.796324729919434,-23.700000762939453,-1.6500000953674316,-7.800000190734863
7.043,89.8304443359375,34.782962799072266,-21.337125778198242,-648.8361206054688,-83.80245208740234,-49.29555892944336,-24.150001525878906,-2.1000001430511475,-6.0
7.05,89.8304443359375,48.4969482421875,-27.811046600341797,-536.1224975585938,-128.7013702392578,-77.00765228271484,-24.450000762939453,-0.45000001788139343,-6.750000476837158
7.06,87.11063385009766,57.001155853271484,-31.373619079589844,-338.4073486328125,-129.36753845214844,-77.67381286621094,-24.0,1.5,-5.100000381469727
7.07,83.35652923583984,56.69469451904297,-37.924156188964844,-196.64930725097656,-81.53751373291016,-75.00918579101562,-24.0,1.5,-5.100000381469727
7.08,77.53382873535156,54.97087097167969,-44.16823196411133,-130.69984436035156,-14.655436515808105,-63.81776428222656,-24.150001525878906,0.45000001788139343,-8.25
