time,accel_x,accel_y,accel_z,gyro_x,gyro_y,gyro_z,mag_x,mag_y,mag_z
57.58,9.867562,0.006708,-0.797566,0.043418,-0.013966,-0.029659,0.0,0.0,0.0
57.59,9.820398,-0.043264,-0.975658,0.040553,-0.01197,-0.052602,0.0,0.0,0.0
57.6,10.010304,-0.11822,-0.830613,0.062726,-0.004207,-0.064046,0.0,0.0,0.0
57.61,9.897335,-0.060244,-1.157271,0.112863,0.000952,-0.061192,0.0,0.0,0.0
57.62,9.846368,0.205154,-1.013309,0.139006,0.018038,-0.079194,0.0,0.0,0.0
57.63,9.888677,-0.281685,-0.900114,0.216976,0.04147,-0.066737,0.0,0.0,0.0
57.64,9.660512,-0.102486,-0.703025,0.231253,0.054935,-0.053157,0.0,0.0,0.0
57.65,9.580068,-0.011029,-0.823365,0.211414,0.028429,-0.049458,0.0,0.0,0.0
57.66,9.775388,0.202653,-0.665494,0.186276,0.01841,-0.04639,0.0,0.0,0.0
57.67,10.026426,0.368506,-0.440901,0.1439,0.009895,-0.039714,0.0,0.0,0.0
57.68,10.068809,0.298398,-0.509576,0.086103,0.005677,-0.03111,0.0,0.0,0.0
57.69,10.078323,-0.047695,-0.911741,0.046801,-0.008505,-0.026699,0.0,0.0,0.0
57.7,10.119059,-0.376145,-1.123507,0.161263,0.026586,-0.015803,0.0,0.0,0.0
57.71,9.915723,-0.380368,-1.190307,0.250177,0.032554,-0.011472,0.0,0.0,0.0
57.72,9.919143,-0.95179,-1.479244,0.331064,0.027487,0.014476,0.0,0.0,0.0
57.73,9.796702,-1.380398,-1.671816,0.430998,0.01995,0.049536,0.0,0.0,0.0
57.74,9.627594,-1.689811,-1.693293,0.546383,0.014623,0.100275,0.0,0.0,0.0
57.75,9.368791,-1.439892,-1.455445,0.594027,0.007349,0.150884,0.0,0.0,0.0
57.76,9.314432,-0.774473,-1.346748,0.568506,-0.017271,0.20055,0.0,0.0,0.0
57.77,9.309826,-0.288355,-1.106381,0.413072,-0.054062,0.234518,0.0,0.0,0.0
57.78,9.524411,-0.063145,-0.886307,0.337118,-0.072354,0.260718,0.0,0.0,0.0
57.79,9.625442,0.1441,-0.632331,0.26027,-0.08619,0.275986,0.0,0.0,0.0
57.8,9.731414,0.001181,-0.604561,0.194482,-0.084452,0.290234,0.0,0.0,0.0
57.81,9.768827,-0.070957,-0.594397,0.129533,-0.089361,0.303169,0.0,0.0,0.0
57.82,9.790806,0.100147,-0.606987,0.092511,-0.089377,0.305085,0.0,0.0,0.0
57.83,9.767048,-0.208064,-0.722136,-0.015711,-0.100123,0.315506,0.0,0.0,0.0
57.84,9.798494,-0.420222,-0.861096,-0.006896,-0.094727,0.320097,0.0,0.0,0.0
57.85,9.792071,-0.453052,-0.962119,-0.028295,-0.103304,0.326202,0.0,0.0,0.0
57.86,9.698936,-0.257802,-1.002896,-0.012309,-0.081093,0.328052,0.0,0.0,0.0
57.87,9.547615,-0.335207,-1.01124,-0.116525,-0.111697,0.335738,0.0,0.0,0.0
57.88,9.830725,-0.952092,-0.997413,-0.203452,-0.121805,0.344965,0.0,0.0,0.0
57.89,10.167288,-1.737708,-1.336269,-0.199414,-0.147684,0.381041,0.0,0.0,0.0
57.9,10.248949,-2.447761,-1.310137,-0.211651,-0.168495,0.44012,0.0,0.0,0.0
57.91,10.269208,-2.646662,-1.510212,-0.144517,-0.186784,0.505794,0.0,0.0,0.0
57.92,9.988123,-2.353179,-1.440709,-0.057885,-0.19414,0.568839,0.0,0.0,0.0
57.93,9.760108,-2.017475,-1.360562,-0.069925,-0.224021,0.623891,0.0,0.0,0.0
57.94,9.586537,-1.414477,-1.212002,-0.040307,-0.224991,0.664764,0.0,0.0,0.0
57.95,9.42499,-0.642218,-1.01192,-0.128491,-0.258963,0.685594,0.0,0.0,0.0
57.96,9.451897,-0.987471,-1.15209,-0.202704,-0.277018,0.695948,0.0,0.0,0.0
57.97,9.03737,-0.766963,-1.163807,-0.169242,-0.256078,0.694193,0.0,0.0,0.0
57.98,8.759847,-0.905379,-1.230075,-0.203683,-0.282826,0.704744,0.0,0.0,0.0
57.99,8.376798,-0.99797,-1.288788,-0.173544,-0.289865,0.691002,0.0,0.0,0.0
58.0,8.05866,-0.689394,-1.247869,-0.118339,-0.284222,0.673892,0.0,0.0,0.0
58.01,7.836227,-0.333948,-1.020553,-0.075526,-0.282842,0.647287,0.0,0.0,0.0
58.02,7.805802,0.254822,-1.110218,-0.045506,-0.260694,0.604279,0.0,0.0,0.0
58.03,7.64841,0.804622,-0.859858,0.000257,-0.246744,0.533193,0.0,0.0,0.0
58.04,7.51622,1.389738,-0.975773,-0.019369,-0.23748,0.419926,0.0,0.0,0.0
58.05,7.702785,1.760537,-1.029436,-0.005783,-0.220154,0.291816,0.0,0.0,0.0
58.06,10.955484,6.073871,0.383956,0.210926,-0.176609,0.202353,0.0,0.0,0.0
58.07,16.264487,7.532545,2.308771,-0.40077,-0.180564,0.182214,0.0,0.0,0.0
58.08,18.238064,0.993844,0.336153,-0.729437,-0.120015,0.176393,0.0,0.0,0.0
58.09,13.750777,-2.999799,-1.131895,-0.243234,0.10177,0.132565,0.0,0.0,0.0
58.1,8.701032,-2.677754,-1.46855,-0.125486,0.026831,0.033085,0.0,0.0,0.0
58.11,7.929835,-2.044105,-2.293092,-0.099872,-0.036361,-0.048696,0.0,0.0,0.0
58.12,7.475646,-1.682365,-2.230986,0.037661,-0.047999,-0.032497,0.0,0.0,0.0
58.13,7.790829,-0.476541,-1.736031,0.220148,-0.031127,0.044935,0.0,0.0,0.0
58.14,8.45817,-0.020832,-0.916104,0.311384,-0.023563,0.137194,0.0,0.0,0.0
58.15,8.966899,-0.417173,-0.699287,0.3617,-0.026618,0.200213,0.0,0.0,0.0
58.16,9.496673,-0.037785,-0.867421,0.36739,-0.025784,0.215993,0.0,0.0,0.0
58.17,9.970904,0.008458,-1.609789,0.236497,-0.050991,0.215654,0.0,0.0,0.0
58.18,10.253333,0.885799,-1.603429,0.146339,-0.060458,0.210958,0.0,0.0,0.0
58.19,10.247528,1.552182,-1.070157,-0.003596,-0.07948,0.227293,0.0,0.0,0.0
58.2,9.702049,0.780551,-0.814268,-0.126241,-0.124234,0.236169,0.0,0.0,0.0
58.21,9.18776,-0.520759,-1.221029,-0.103347,-0.118416,0.241231,0.0,0.0,0.0
58.22,8.753778,-1.575856,-1.672007,-0.023634,-0.112346,0.245477,0.0,0.0,0.0
58.23,9.384539,-2.353933,-1.725924,0.054458,-0.117924,0.254799,0.0,0.0,0.0
58.24,10.33717,-2.857367,-1.280484,0.117164,-0.06918,0.269442,0.0,0.0,0.0
58.25,10.527803,-3.189384,-1.168415,0.158509,-0.022619,0.274324,0.0,0.0,0.0
58.26,10.061206,-2.004775,-1.296237,0.185018,0.023224,0.252589,0.0,0.0,0.0
58.27,10.014188,-1.686959,-1.209675,0.143897,0.027029,0.252217,0.0,0.0,0.0
58.28,9.94629,-1.711408,-1.368368,0.142408,0.030727,0.257961,0.0,0.0,0.0
58.29,9.809036,-1.433423,-1.182319,0.129003,0.033798,0.278743,0.0,0.0,0.0
58.3,9.763435,-1.482479,-1.082422,0.090794,0.01654,0.290232,0.0,0.0,0.0
58.31,9.474416,-1.592353,-1.065359,0.08052,0.003113,0.306722,0.0,0.0,0.0
58.32,9.638964,-1.817514,-1.018256,0.056633,-0.02163,0.305779,0.0,0.0,0.0
58.33,9.771058,-1.966862,-1.126412,0.046602,-0.028138,0.301208,0.0,0.0,0.0
58.34,9.917153,-1.798339,-1.226677,0.066723,-0.019021,0.286187,0.0,0.0,0.0
58.35,9.745246,-1.913783,-1.578144,0.039718,-0.008409,0.278441,0.0,0.0,0.0
58.36,9.83032,-1.775604,-1.833935,0.060883,0.016039,0.281166,0.0,0.0,0.0
58.37,9.659962,-1.498073,-1.954888,0.060972,0.051901,0.282048,0.0,0.0,0.0
58.38,9.870262,-1.565059,-1.798802,0.055484,0.079093,0.294829,0.0,0.0,0.0
58.39,9.806398,-2.026297,-1.550202,0.033056,0.096936,0.299794,0.0,0.0,0.0
58.4,9.613949,-2.520689,-1.281132,0.051389,0.111211,0.295995,0.0,0.0,0.0
58.41,9.461912,-2.201573,-1.089278,0.016293,0.111238,0.286851,0.0,0.0,0.0
58.42,9.522,-2.394209,-1.22473,-0.035346,0.09588,0.264336,0.0,0.0,0.0
58.43,9.43726,-2.32427,-1.371453,-0.022387,0.10498,0.238295,0.0,0.0,0.0
58.44,9.550868,-2.190252,-1.287361,-0.041163,0.095229,0.214929,0.0,0.0,0.0
58.45,9.568426,-2.170117,-1.162829,-0.050418,0.097072,0.193478,0.0,0.0,0.0
58.46,9.592563,-2.264286,-1.000982,-0.060282,0.090895,0.178854,0.0,0.0,0.0
58.47,9.573155,-2.122677,-0.997502,-0.084056,0.088139,0.163994,0.0,0.0,0.0
58.48,9.618496,-2.0252,-0.9552,-0.101675,0.07971,0.153352,0.0,0.0,0.0
58.49,9.558012,-2.074887,-0.95899,-0.141437,0.066807,0.148256,0.0,0.0,0.0
58.5,9.588049,-2.611787,-1.045953,-0.175421,0.044563,0.138203,0.0,0.0,0.0
58.51,9.332918,-2.581776,-1.029992,-0.163505,0.038937,0.102846,0.0,0.0,0.0
58.52,9.263513,-2.447533,-1.030316,-0.183067,0.009469,0.082499,0.0,0.0,0.0
58.53,9.558446,-2.354682,-0.960767,-0.175362,-0.011988,0.064873,0.0,0.0,0.0
58.54,9.41462,-2.299256,-0.940059,-0.197231,-0.026702,0.037326,0.0,0.0,0.0
58.55,9.546337,-2.526471,-1.037516,-0.210827,-0.048644,0.018022,0.0,0.0,0.0
58.56,9.385349,-2.388938,-1.083471,-0.235199,-0.071335,-0.006152,0.0,0.0,0.0
58.57,9.50303,-2.368848,-0.995792,-0.236776,-0.097019,-0.034616,0.0,0.0,0.0
58.58,9.607822,-2.454252,-0.925688,-0.220321,-0.12265,-0.05319,0.0,0.0,0.0
58.59,9.51665,-2.265928,-0.804304,-0.177599,-0.140575,-0.073625,0.0,0.0,0.0
58.6,9.58636,-2.124863,-0.871186,-0.183877,-0.172271,-0.090728,0.0,0.0,0.0
58.61,9.582521,-2.275915,-1.146821,-0.167079,-0.187905,-0.110841,0.0,0.0,0.0
58.62,9.293193,-2.13565,-1.259916,-0.161723,-0.185123,-0.13307,0.0,0.0,0.0
58.63,9.334225,-2.284089,-1.555087,-0.212549,-0.206729,-0.154902,0.0,0.0,0.0
58.64,9.554652,-2.15949,-1.570247,-0.19169,-0.194165,-0.176627,0.0,0.0,0.0
58.65,9.370765,-2.000092,-1.481795,-0.191139,-0.182073,-0.20134,0.0,0.0,0.0
58.66,9.608133,-1.893515,-1.648067,-0.164459,-0.173605,-0.21972,0.0,0.0,0.0
58.67,9.356809,-1.764347,-1.654077,-0.125442,-0.151361,-0.238944,0.0,0.0,0.0
58.68,9.319248,-2.001879,-1.669856,-0.032782,-0.130961,-0.260855,0.0,0.0,0.0
58.69,9.536145,-1.990568,-1.672606,0.054319,-0.116799,-0.276033,0.0,0.0,0.0
58.7,9.429681,-2.202615,-1.862597,0.134208,-0.085146,-0.296084,0.0,0.0,0.0
58.71,9.036606,-1.952493,-1.830741,0.224456,-0.058311,-0.315859,0.0,0.0,0.0
58.72,8.998212,-1.409609,-1.858514,0.251312,-0.058017,-0.312943,0.0,0.0,0.0
58.73,9.357894,-0.568479,-1.706278,0.214693,-0.049252,-0.285302,0.0,0.0,0.0
58.74,9.735431,-0.582283,-1.105155,0.103985,-0.07527,-0.240825,0.0,0.0,0.0
58.75,10.381392,-1.515026,-1.521052,0.049083,-0.068933,-0.193367,0.0,0.0,0.0
58.76,10.112349,-1.752315,-1.651568,0.106099,0.000165,-0.188491,0.0,0.0,0.0
58.77,9.59565,-1.719448,-1.891757,0.063688,-0.003997,-0.204922,0.0,0.0,0.0
58.78,9.690519,-2.04471,-2.09526,0.106056,0.009062,-0.21655,0.0,0.0,0.0
58.79,9.831201,-1.643739,-1.586925,0.182534,0.072434,-0.227576,0.0,0.0,0.0
58.8,9.978186,-1.83679,-1.408373,0.122204,0.083602,-0.210047,0.0,0.0,0.0
58.81,9.786091,-2.378664,-1.461203,0.163944,0.090355,-0.221966,0.0,0.0,0.0
58.82,9.699767,-2.01026,-1.438341,0.12489,0.055603,-0.235796,0.0,0.0,0.0
58.83,9.591996,-1.792264,-1.591002,0.199903,0.032757,-0.268674,0.0,0.0,0.0
58.84,9.513001,-1.737974,-1.274532,0.17618,-0.014326,-0.286588,0.0,0.0,0.0
58.85,9.802891,-1.770715,-0.565887,0.192767,-0.054907,-0.28611,0.0,0.0,0.0
58.86,9.711603,-1.761671,-0.547356,0.19713,-0.123063,-0.304707,0.0,0.0,0.0
58.87,9.8553,-2.380175,-0.394822,0.214347,-0.226909,-0.314507,0.0,0.0,0.0
58.88,9.873896,-2.262063,-0.321049,0.384056,-0.274505,-0.338217,0.0,0.0,0.0
58.89,9.724702,-2.051577,-0.467016,0.458884,-0.347445,-0.348326,0.0,0.0,0.0
58.9,9.945328,-1.886738,-0.802039,0.606515,-0.390489,-0.344136,0.0,0.0,0.0
58.91,9.915848,-1.285606,-1.037491,0.698749,-0.351362,-0.309271,0.0,0.0,0.0
58.92,9.800892,-1.215017,-1.831974,0.700911,-0.345532,-0.268155,0.0,0.0,0.0
58.93,9.66086,-0.617072,-2.553432,0.746092,-0.282639,-0.231934,0.0,0.0,0.0
58.94,9.40314,-0.261567,-2.979391,0.645937,-0.262174,-0.19628,0.0,0.0,0.0
58.95,9.502971,-0.639084,-3.298766,0.59638,-0.224745,-0.16032,0.0,0.0,0.0
58.96,9.278044,-0.63108,-3.084305,0.607675,-0.157955,-0.12459,0.0,0.0,0.0
58.97,9.223031,-0.576648,-3.029896,0.571736,-0.123797,-0.071889,0.0,0.0,0.0
58.98,9.187269,-0.273659,-2.817554,0.560063,-0.084887,-0.009268,0.0,0.0,0.0
58.99,9.257429,-0.193998,-2.240536,0.456954,-0.114568,0.047522,0.0,0.0,0.0
59.0,9.659457,-0.76412,-2.037143,0.413735,-0.11721,0.114259,0.0,0.0,0.0
59.01,9.695363,-0.686236,-1.660349,0.436206,-0.100961,0.176307,0.0,0.0,0.0
59.02,9.688456,-0.689932,-1.437572,0.393884,-0.116702,0.234152,0.0,0.0,0.0
59.03,9.785996,-0.939467,-1.565017,0.375071,-0.133158,0.282269,0.0,0.0,0.0
59.04,10.028483,-0.936178,-1.50312,0.391074,-0.134848,0.338377,0.0,0.0,0.0
59.05,10.18127,-1.018243,-1.574683,0.396408,-0.147528,0.391833,0.0,0.0,0.0
59.06,10.182628,-0.789012,-1.3595,0.398654,-0.163606,0.440351,0.0,0.0,0.0
59.07,10.469715,-0.604305,-1.110638,0.360581,-0.187773,0.504258,0.0,0.0,0.0
59.08,10.450842,-0.702443,-1.388146,0.324851,-0.190566,0.575651,0.0,0.0,0.0
59.09,10.07423,-0.513589,-1.369593,0.280734,-0.205335,0.64858,0.0,0.0,0.0
59.1,10.276937,-0.951763,-1.577854,0.241738,-0.251151,0.728667,0.0,0.0,0.0
59.11,10.383023,-0.837148,-1.498819,0.237323,-0.216361,0.794909,0.0,0.0,0.0
59.12,10.528816,-0.949764,-1.990689,0.257334,-0.229343,0.872088,0.0,0.0,0.0
59.13,10.418717,-1.216089,-1.892415,0.252181,-0.231469,0.937412,0.0,0.0,0.0
59.14,10.614563,-1.237597,-1.885747,0.302815,-0.215265,1.007266,0.0,0.0,0.0
59.15,10.539359,-1.191928,-1.782963,0.306212,-0.204663,1.069282,0.0,0.0,0.0
59.16,10.920634,-1.402353,-1.739162,0.36702,-0.200876,1.138346,0.0,0.0,0.0
59.17,11.22218,-1.021275,-1.535236,0.417424,-0.179372,1.217436,0.0,0.0,0.0
59.18,11.653937,-1.009497,-1.474246,0.45862,-0.182786,1.304781,0.0,0.0,0.0
59.19,12.039078,-0.869744,-1.51395,0.547844,-0.156034,1.407122,0.0,0.0,0.0
59.2,12.373346,-0.690323,-1.583789,0.621166,-0.145233,1.525878,0.0,0.0,0.0
59.21,12.770862,-0.271952,-1.663753,0.726698,-0.122209,1.654998,0.0,0.0,0.0
59.22,13.044761,-0.204508,-1.535657,0.767339,-0.118233,1.791188,0.0,0.0,0.0
59.23,13.560174,0.016597,-1.146722,0.872251,-0.120888,1.918633,0.0,0.0,0.0
59.24,14.650834,0.846252,-0.187234,0.972344,-0.110161,2.066717,0.0,0.0,0.0
59.25,16.507689,1.872781,-0.693695,0.960245,-0.040803,2.238043,0.0,0.0,0.0
59.26,17.1034,3.580898,-1.154727,1.064299,0.015504,2.384418,0.0,0.0,0.0
59.27,18.339116,4.603517,-1.065505,1.108489,-0.059845,2.538064,0.0,0.0,0.0
59.28,19.817584,5.355861,0.01398,1.174844,-0.074361,2.704061,0.0,0.0,0.0
59.29,20.447109,5.137072,1.007449,0.959658,-0.1098,2.917559,0.0,0.0,0.0
59.3,20.632181,4.44769,1.143455,0.601035,-0.205535,3.149365,0.0,0.0,0.0
59.31,20.190951,3.811577,-0.206129,0.155721,-0.370706,3.388393,0.0,0.0,0.0
59.32,21.221142,3.392613,-0.338722,0.031117,-0.486615,3.695135,0.0,0.0,0.0
59.33,20.726582,3.176087,-1.804057,-0.492022,-0.607974,3.727559,0.0,0.0,0.0
59.34,21.324707,1.283476,-2.804016,-0.616148,-0.627732,3.712989,0.0,0.0,0.0
59.35,18.621882,1.29228,-1.786975,-0.726011,-0.525544,3.527893,0.0,0.0,0.0
59.36,16.752318,1.071708,-1.33724,-0.297551,-0.488087,3.261755,0.0,0.0,0.0
59.37,14.352394,2.595647,0.848268,-0.046606,-0.310106,2.85434,0.0,0.0,0.0
59.38,12.735156,-1.317541,-1.794687,0.673334,-0.187906,2.379464,0.0,0.0,0.0
59.39,10.810186,-5.039779,-3.525279,1.624695,-0.000334,2.007238,0.0,0.0,0.0
59.4,10.379124,-0.608971,-1.477355,2.741146,0.275195,1.802004,0.0,0.0,0.0
59.41,6.317582,4.628378,-0.777475,2.268533,0.243824,1.296121,0.0,0.0,0.0
59.42,6.043474,4.279721,0.09043,2.113308,0.148782,0.708855,0.0,0.0,0.0
59.43,5.251776,3.762156,1.015769,2.272792,0.29578,0.247354,0.0,0.0,0.0
59.44,3.523931,3.361543,1.329068,2.342071,0.348811,-0.253923,0.0,0.0,0.0
59.45,2.378143,3.200103,1.150469,2.397396,0.400537,-0.751183,0.0,0.0,0.0
59.46,1.83621,2.334407,0.660657,2.444451,0.422477,-1.170616,0.0,0.0,0.0
59.47,1.446992,1.853457,0.512266,2.525508,0.455685,-1.531929,0.0,0.0,0.0
59.48,1.017446,2.273831,0.238684,2.328125,0.401431,-1.876211,0.0,0.0,0.0
59.49,1.127078,2.728311,0.013844,1.943092,0.301594,-2.254397,0.0,0.0,0.0
59.5,1.253343,3.327743,0.206016,1.501544,0.220368,-2.621028,0.0,0.0,0.0
59.51,1.674586,4.053312,0.58341,0.918727,0.07586,-2.960509,0.0,0.0,0.0
59.52,2.532115,4.212852,0.614947,0.272348,-0.083118,-3.308971,0.0,0.0,0.0
59.53,3.445042,3.723616,0.414203,-0.317178,-0.185502,-3.643306,0.0,0.0,0.0
59.54,4.257686,2.877181,-0.11412,-0.779262,-0.256524,-3.963643,0.0,0.0,0.0
59.55,4.944563,2.291133,-0.63335,-1.072116,-0.267877,-4.246388,0.0,0.0,0.0
59.56,5.695398,1.7931,-0.911402,-1.246395,-0.247821,-4.507012,0.0,0.0,0.0
59.57,6.443836,1.464269,-1.122998,-1.339412,-0.201357,-4.738005,0.0,0.0,0.0
59.58,7.111899,1.023562,-1.389305,-1.395604,-0.145216,-4.94608,0.0,0.0,0.0
59.59,7.663308,0.751696,-1.614313,-1.387273,-0.066337,-5.147275,0.0,0.0,0.0
59.6,8.146122,0.618922,-1.755037,-1.362779,-0.009524,-5.353173,0.0,0.0,0.0
59.61,8.716028,0.856984,-1.765437,-1.335193,0.033949,-5.547481,0.0,0.0,0.0
59.62,9.581184,0.978144,-1.668852,-1.300921,0.076702,-5.734592,0.0,0.0,0.0
59.63,10.738281,1.051232,-1.405882,-1.324727,0.085541,-5.911191,0.0,0.0,0.0
59.64,12.234657,0.807813,-1.354905,-1.312982,0.100365,-6.044938,0.0,0.0,0.0
59.65,13.929997,0.351295,-1.637781,-1.065766,0.185059,-6.133829,0.0,0.0,0.0
59.66,15.340007,0.279522,-1.404003,-0.686343,0.301151,-6.183358,0.0,0.0,0.0
59.67,17.143599,-0.422841,-1.880032,-0.296366,0.301884,-6.242783,0.0,0.0,0.0
59.68,19.791312,-0.481416,-1.685927,0.368061,0.461008,-6.253779,0.0,0.0,0.0
59.69,21.782364,-0.378601,-1.718751,0.605978,0.432603,-6.249856,0.0,0.0,0.0
59.7,24.393606,-1.331208,-2.350061,0.804726,0.366631,-6.193462,0.0,0.0,0.0
59.71,26.490773,-4.066581,-2.203469,0.981322,0.278581,-6.099055,0.0,0.0,0.0
59.72,27.775963,-6.661112,-0.629337,1.276208,0.365687,-5.902537,0.0,0.0,0.0
59.73,25.281178,-7.698864,0.133245,1.228066,0.453528,-5.500539,0.0,0.0,0.0
59.74,20.073721,-8.75721,-1.321957,0.660789,0.338719,-4.915835,0.0,0.0,0.0
59.75,16.307937,-13.896516,-4.183673,-0.012474,-0.120359,-4.124531,0.0,0.0,0.0
59.76,17.265812,-22.324238,-5.773499,-0.046851,-0.472231,-3.114413,0.0,0.0,0.0
59.77,19.196242,-27.377861,-4.598124,0.834358,-0.417152,-2.011957,0.0,0.0,0.0
59.78,18.651329,-22.950125,-0.611439,1.645208,-0.260545,-0.689742,0.0,0.0,0.0
59.79,17.598862,-14.939188,3.45954,1.035594,-0.151983,0.650588,0.0,0.0,0.0
59.8,15.945047,-10.872573,3.481703,-0.254898,-0.095705,1.79312,0.0,0.0,0.0
59.81,16.06108,-10.317683,-0.302697,-1.406586,-0.260221,2.5677,0.0,0.0,0.0
59.82,15.831028,-15.272494,-2.754714,-1.932214,-0.502201,3.14349,0.0,0.0,0.0
59.83,18.724896,-10.27447,-3.336291,-0.400557,-0.213039,3.566907,0.0,0.0,0.0
59.84,15.856063,17.319266,4.390398,0.726526,0.498391,3.237422,0.0,0.0,0.0
59.85,12.761224,14.729875,6.836688,-2.348872,-0.430491,2.676133,0.0,0.0,0.0
59.86,19.215402,-11.517385,1.641945,-2.80313,-0.838851,3.214181,0.0,0.0,0.0
59.87,15.979775,-13.31336,-1.224561,-0.250485,-0.334714,3.402496,0.0,0.0,0.0
59.88,10.619624,-2.25172,1.029306,0.315967,-0.376702,3.07793,0.0,0.0,0.0
59.89,9.05371,1.333023,-0.381096,0.129247,-0.364227,2.76962,0.0,0.0,0.0
59.9,6.309848,0.380969,-0.718809,0.034126,-0.360002,2.461695,0.0,0.0,0.0
59.91,5.634547,0.766863,-1.504413,-0.19915,-0.299345,2.279587,0.0,0.0,0.0
59.92,6.49217,-0.574423,-2.791592,-0.875333,-0.451118,2.156196,0.0,0.0,0.0
59.93,11.490411,-5.332301,-4.29098,-1.216646,-0.545701,2.150544,0.0,0.0,0.0
59.94,14.644088,-0.955648,-1.678262,0.040669,-0.047829,2.216682,0.0,0.0,0.0
59.95,10.444647,1.742062,-0.550948,-0.786267,-0.342798,1.906209,0.0,0.0,0.0
59.96,12.977123,-5.467916,-0.562607,-0.771171,-0.466685,1.838714,0.0,0.0,0.0
59.97,9.875678,-4.101753,-0.763798,-0.286103,-0.23711,1.738581,0.0,0.0,0.0
59.98,8.647183,-0.020125,-1.364835,-0.331924,-0.346245,1.553912,0.0,0.0,0.0
59.99,9.567085,-1.891112,0.153715,-0.563825,-0.411486,1.416833,0.0,0.0,0.0
60.0,10.375004,-1.372525,0.229142,-0.173552,-0.307657,1.29746,0.0,0.0,0.0
60.01,10.223397,-1.225003,0.502076,-0.262668,-0.450769,1.170256,0.0,0.0,0.0
60.02,10.944802,-1.667933,-0.312496,-0.126097,-0.45488,1.067361,0.0,0.0,0.0
60.03,10.679472,-1.54948,-1.203407,0.064968,-0.377526,0.941123,0.0,0.0,0.0
60.04,9.986676,-1.111633,-1.08405,0.11601,-0.357961,0.82581,0.0,0.0,0.0
60.05,10.297112,-1.518638,-1.171614,0.132364,-0.319524,0.704816,0.0,0.0,0.0
60.06,10.239155,-1.135271,-0.931094,0.197334,-0.26735,0.581892,0.0,0.0,0.0
60.07,10.354214,-1.528738,-1.044519,0.263145,-0.232498,0.477528,0.0,0.0,0.0
60.08,10.152088,-1.358835,-0.764785,0.398618,-0.186375,0.395884,0.0,0.0,0.0
60.09,10.20029,-1.344844,-1.248899,0.53178,-0.151737,0.338269,0.0,0.0,0.0
60.1,10.298566,-1.181178,-1.498949,0.69415,-0.110287,0.30692,0.0,0.0,0.0
60.11,10.470438,-1.299205,-1.456808,0.847915,-0.052188,0.273796,0.0,0.0,0.0
60.12,10.384449,-1.080794,-1.3539,0.968914,0.003721,0.237368,0.0,0.0,0.0
60.13,10.217748,-0.73667,-1.039982,1.040271,0.036632,0.200782,0.0,0.0,0.0
60.14,9.94924,0.059418,-0.821381,1.002663,0.0614,0.178512,0.0,0.0,0.0
60.15,9.7048,0.514723,-1.008243,0.808445,0.043503,0.15845,0.0,0.0,0.0
60.16,9.51626,0.379973,-1.104505,0.606761,0.041986,0.175812,0.0,0.0,0.0
60.17,9.422424,-0.054409,-1.244282,0.453404,0.029412,0.192207,0.0,0.0,0.0
60.18,9.458664,-0.151653,-1.357546,0.392512,0.038874,0.209185,0.0,0.0,0.0
60.19,9.267683,-0.188272,-1.445841,0.340744,0.045384,0.229657,0.0,0.0,0.0
60.2,9.285244,-0.372179,-1.817774,0.352518,0.044289,0.244837,0.0,0.0,0.0
60.21,9.21743,-0.020215,-1.703313,0.343738,0.056008,0.278695,0.0,0.0,0.0
60.22,9.459283,-0.34072,-1.546242,0.341921,0.057647,0.327345,0.0,0.0,0.0
60.23,9.425371,-0.423586,-1.34973,0.396855,0.074515,0.379023,0.0,0.0,0.0
60.24,9.186995,-0.223806,-1.21264,0.429361,0.055064,0.429453,0.0,0.0,0.0
60.25,9.176052,-0.001091,-0.752606,0.443178,0.035643,0.497143,0.0,0.0,0.0
60.26,9.315243,0.198667,-0.597031,0.434194,0.037461,0.574817,0.0,0.0,0.0
60.27,9.426913,0.555384,-0.816524,0.398083,0.035822,0.66591,0.0,0.0,0.0
60.28,9.785893,0.415741,-0.695282,0.330192,0.014806,0.764446,0.0,0.0,0.0
60.29,10.406721,0.647567,-0.75155,0.262947,0.025727,0.854813,0.0,0.0,0.0
60.3,10.538673,0.341505,-1.011904,0.163276,0.038535,0.940563,0.0,0.0,0.0
60.31,10.784303,-0.230741,-0.767546,0.211303,0.018454,1.017175,0.0,0.0,0.0
60.32,10.719099,-0.274016,-0.24086,0.269451,0.050597,1.097891,0.0,0.0,0.0
60.33,10.472176,-0.451442,-0.029979,0.290864,0.085746,1.197582,0.0,0.0,0.0
60.34,10.429315,-0.219195,-0.144909,0.324598,0.128071,1.304213,0.0,0.0,0.0
60.35,10.832236,0.127282,-0.530296,0.28683,0.147709,1.41063,0.0,0.0,0.0
60.36,11.735538,-0.003402,-1.066167,0.28005,0.183781,1.528099,0.0,0.0,0.0
60.37,12.253496,0.400303,-1.016154,0.362482,0.226339,1.648036,0.0,0.0,0.0
60.38,12.5273,0.357194,-0.258044,0.329295,0.214352,1.773326,0.0,0.0,0.0
60.39,13.027054,0.072863,0.661209,0.379951,0.24004,1.919019,0.0,0.0,0.0
60.4,13.51085,0.146337,1.19962,0.448339,0.295072,2.074881,0.0,0.0,0.0
60.41,14.215598,0.147883,1.32977,0.559442,0.320651,2.238755,0.0,0.0,0.0
60.42,15.207249,0.309249,1.657182,0.800857,0.336401,2.391411,0.0,0.0,0.0
60.43,16.765721,-0.252614,2.520542,1.248116,0.36567,2.554034,0.0,0.0,0.0
60.44,17.897888,1.21907,4.371727,1.88676,0.493612,2.740377,0.0,0.0,0.0
60.45,19.662138,3.734727,5.982113,2.252554,0.567251,2.932693,0.0,0.0,0.0
60.46,22.15816,6.368984,7.423009,2.487682,0.798418,3.155438,0.0,0.0,0.0
60.47,23.416889,13.179954,8.614889,2.057176,0.943259,3.388432,0.0,0.0,0.0
60.48,25.553347,17.27748,7.203355,0.944556,0.9155,3.662593,0.0,0.0,0.0
60.49,25.868082,15.326341,4.424635,-0.309546,0.99069,3.990914,0.0,0.0,0.0
60.5,25.867645,5.378146,0.343461,-1.46059,0.934034,4.362139,0.0,0.0,0.0
60.51,25.416986,1.83283,-0.678643,-2.14279,1.121611,4.53096,0.0,0.0,0.0
60.52,22.447987,2.90042,-4.510094,-2.952099,0.90536,4.624486,0.0,0.0,0.0
60.53,18.482026,3.59201,-2.449607,-4.084431,0.670773,4.515906,0.0,0.0,0.0
60.54,16.646991,3.436181,-4.583403,-3.843468,0.615128,3.972977,0.0,0.0,0.0
60.55,13.408663,4.533828,-3.638872,-3.355462,0.924297,3.536951,0.0,0.0,0.0
60.56,9.762737,-0.342822,-8.650936,-2.389861,0.899615,3.190366,0.0,0.0,0.0
60.57,11.026866,-6.30036,-4.324061,-1.338718,1.066659,2.934504,0.0,0.0,0.0
60.58,9.96606,6.805056,-3.950586,0.315205,1.747745,2.049508,0.0,0.0,0.0
60.59,7.191595,9.23132,-1.474427,-0.860788,1.52429,1.396775,0.0,0.0,0.0
60.6,7.518679,5.315627,-2.102807,-0.517974,1.798825,1.042227,0.0,0.0,0.0
60.61,4.943837,6.044846,-0.325284,-0.520697,2.006347,0.643256,0.0,0.0,0.0
60.62,4.318175,6.356474,-1.477586,-0.650953,2.122659,0.135819,0.0,0.0,0.0
60.63,3.28938,7.313578,-1.970891,-0.776976,2.308632,-0.355074,0.0,0.0,0.0
60.64,3.077464,6.699695,-3.159713,-1.053787,2.369827,-0.871678,0.0,0.0,0.0
60.65,3.313716,5.947673,-4.378708,-1.211196,2.462742,-1.371748,0.0,0.0,0.0
60.66,3.824431,5.402225,-5.664784,-1.3164,2.557737,-1.839465,0.0,0.0,0.0
60.67,4.203904,4.885468,-6.801923,-1.398903,2.660406,-2.27576,0.0,0.0,0.0
60.68,4.650579,4.488633,-7.870711,-1.452018,2.789188,-2.683831,0.0,0.0,0.0
60.69,5.046142,4.318289,-8.527868,-1.525227,2.943027,-3.084959,0.0,0.0,0.0
60.7,5.801895,3.53174,-8.89273,-1.683472,3.077071,-3.456985,0.0,0.0,0.0
60.71,7.036538,2.568169,-9.485677,-1.822068,3.192135,-3.810175,0.0,0.0,0.0
60.72,8.29359,2.225046,-10.263704,-1.879671,3.300046,-4.10099,0.0,0.0,0.0
60.73,9.446096,2.201866,-11.066853,-1.987249,3.345849,-4.351766,0.0,0.0,0.0
60.74,10.249889,1.896024,-12.303146,-2.139015,3.299607,-4.586482,0.0,0.0,0.0
60.75,10.909513,1.494464,-13.404301,-2.24588,3.194042,-4.805402,0.0,0.0,0.0
60.76,11.372058,1.462477,-14.055222,-2.29629,3.030477,-4.991173,0.0,0.0,0.0
60.77,12.459575,1.525987,-14.555838,-2.449018,2.761831,-5.169658,0.0,0.0,0.0
60.78,13.357234,1.787152,-15.374068,-2.521394,2.559844,-5.319282,0.0,0.0,0.0
60.79,13.828362,2.091912,-15.379377,-2.720483,2.29086,-5.446887,0.0,0.0,0.0
60.8,15.099722,2.03568,-15.743995,-2.936386,2.008314,-5.598907,0.0,0.0,0.0
60.81,16.614663,1.845162,-16.247492,-3.159982,1.714525,-5.757133,0.0,0.0,0.0
60.82,18.235319,1.520458,-17.20226,-3.345718,1.427232,-5.894057,0.0,0.0,0.0
60.83,19.01498,0.643765,-17.577699,-3.44312,1.1511,-5.989182,0.0,0.0,0.0
60.84,18.975265,0.212374,-17.486039,-3.528593,0.911112,-6.039152,0.0,0.0,0.0
60.85,18.291464,-0.040736,-17.075884,-3.67557,0.67693,-6.041965,0.0,0.0,0.0
60.86,18.20556,-0.351482,-16.038351,-3.979117,0.434318,-5.990579,0.0,0.0,0.0
60.87,19.55489,-0.831231,-15.123232,-4.335554,0.192376,-5.872198,0.0,0.0,0.0
60.88,20.611145,-1.331126,-14.475155,-4.665493,-0.053594,-5.751591,0.0,0.0,0.0
60.89,21.6195,-2.220864,-14.797423,-4.946999,-0.347871,-5.614309,0.0,0.0,0.0
60.9,22.165191,-2.937023,-15.990384,-5.195956,-0.682613,-5.472583,0.0,0.0,0.0
60.91,22.369246,-3.915122,-17.103778,-5.336265,-1.033789,-5.3288,0.0,0.0,0.0
60.92,21.2786,-4.848371,-17.74817,-5.550634,-1.425097,-5.114134,0.0,0.0,0.0
60.93,20.13272,-8.748847,-14.546741,-5.818132,-1.893468,-4.774696,0.0,0.0,0.0
60.94,25.410593,-17.460801,-9.232064,-5.441167,-1.733944,-4.315069,0.0,0.0,0.0
60.95,22.226993,-16.858737,-14.28911,-4.815713,-1.122393,-3.349395,0.0,0.0,0.0
60.96,18.251993,-22.272404,-16.398927,-5.069224,-1.310842,-1.828532,0.0,0.0,0.0
60.97,16.796416,-26.02088,-14.557222,-4.717037,-1.265063,-0.57429,0.0,0.0,0.0
60.98,15.645578,-21.180227,-12.812517,-3.945857,-1.397269,0.210859,0.0,0.0,0.0
60.99,15.212441,-16.184491,-7.835507,-3.730146,-1.374106,0.996547,0.0,0.0,0.0
61.0,13.372495,-12.454574,-5.25629,-3.736628,-1.342375,1.393433,0.0,0.0,0.0
61.01,11.307834,-7.933461,-4.95027,-3.949549,-1.473105,1.580183,0.0,0.0,0.0
61.02,9.543942,-7.071647,-4.901632,-3.992285,-1.633384,1.515597,0.0,0.0,0.0
61.03,6.060455,-7.53081,-5.702107,-3.539865,-1.719736,1.174425,0.0,0.0,0.0
61.04,6.341666,-3.891767,-4.122109,-3.134889,-1.665183,0.919884,0.0,0.0,0.0
61.05,16.86897,-4.901485,14.976849,-3.12543,-0.896088,1.200534,0.0,0.0,0.0
61.06,6.063764,-15.038008,12.257488,-4.01391,-0.720407,1.471876,0.0,0.0,0.0
61.07,11.959148,-4.060884,3.275229,-5.063151,-0.851187,1.649579,0.0,0.0,0.0
61.08,21.206742,-11.738806,-19.692016,-5.880163,-2.195872,1.776461,0.0,0.0,0.0
61.09,40.296843,2.036304,15.773768,-1.204338,-0.680445,1.720287,0.0,0.0,0.0
61.1,16.357501,-5.835249,4.951496,-1.855265,-1.301007,1.287099,0.0,0.0,0.0
61.11,0.224436,-1.403435,4.627112,0.349759,-1.30369,1.137554,0.0,0.0,0.0
61.12,3.335643,-5.389171,2.061045,-0.993612,-1.801387,1.114366,0.0,0.0,0.0
61.13,10.849808,-12.995067,-3.284283,-0.457828,-1.748548,1.390663,0.0,0.0,0.0
61.14,12.170761,-1.963163,-5.035298,1.180362,-0.689057,1.195182,0.0,0.0,0.0
61.15,8.01246,1.825127,-3.641984,0.162554,-0.927571,1.01388,0.0,0.0,0.0
61.16,12.453671,-0.637793,-2.94565,0.303362,-0.686565,0.924974,0.0,0.0,0.0
61.17,10.418474,1.632909,1.006965,0.127746,-0.426544,0.783515,0.0,0.0,0.0
61.18,11.159017,0.769267,-0.813259,-0.19973,-0.557467,0.767183,0.0,0.0,0.0
61.19,10.794787,1.843713,-0.232387,-0.244879,-0.421921,0.771713,0.0,0.0,0.0
61.2,10.255581,1.173083,0.096921,-0.583118,-0.510931,0.752705,0.0,0.0,0.0
61.21,10.78334,-2.137971,0.017654,-0.678607,-0.463517,0.704439,0.0,0.0,0.0
61.22,10.527679,-2.823627,0.897901,-0.581092,-0.387341,0.617012,0.0,0.0,0.0
61.23,10.4373,-3.741846,-0.150515,-0.441712,-0.332999,0.523245,0.0,0.0,0.0
61.24,9.26617,-3.492148,-0.461881,-0.085759,-0.105626,0.417728,0.0,0.0,0.0
61.25,8.829453,-2.449139,0.582247,0.021535,-0.062829,0.311096,0.0,0.0,0.0
61.26,9.838307,-1.593547,1.337025,-0.035698,-0.025899,0.211059,0.0,0.0,0.0
61.27,10.228283,-1.34384,1.625273,-0.134818,-0.017716,0.123977,0.0,0.0,0.0
61.28,10.41289,-0.437075,1.628263,-0.09229,0.017898,0.048283,0.0,0.0,0.0
61.29,10.472334,0.136334,1.539531,-0.150705,0.009598,0.021864,0.0,0.0,0.0
61.3,10.59606,-0.211716,1.368523,-0.193279,0.018201,0.026899,0.0,0.0,0.0
61.31,10.443165,-1.114623,1.317871,-0.131773,0.0487,0.02834,0.0,0.0,0.0
61.32,10.16759,-1.374583,1.453674,0.007642,0.074812,0.005302,0.0,0.0,0.0
61.33,9.858047,-0.560319,1.183132,0.076336,0.106678,-0.02004,0.0,0.0,0.0
61.34,10.070798,-1.087916,0.889419,0.101556,0.109591,-0.018776,0.0,0.0,0.0
61.35,10.281098,-0.665859,1.791632,0.242603,0.1804,-0.021829,0.0,0.0,0.0
61.36,10.135357,-0.631297,1.754368,0.177799,0.181245,-0.019819,0.0,0.0,0.0
61.37,9.812384,-0.088883,1.601116,0.184391,0.228361,-0.018574,0.0,0.0,0.0
61.38,9.681947,0.410821,1.231429,0.111631,0.207439,-0.002467,0.0,0.0,0.0
61.39,9.853526,0.331242,1.033697,0.062272,0.218457,0.042279,0.0,0.0,0.0
61.4,10.155666,0.590734,1.006777,0.032466,0.242989,0.095331,0.0,0.0,0.0
61.41,9.662231,0.712282,1.158842,-0.103958,0.266721,0.139177,0.0,0.0,0.0
61.42,9.810205,0.716448,0.452688,-0.255377,0.206071,0.160538,0.0,0.0,0.0
61.43,9.910293,-0.027026,-0.12269,-0.342531,0.179037,0.173384,0.0,0.0,0.0
61.44,9.712794,-0.449242,0.533221,-0.30782,0.204909,0.218681,0.0,0.0,0.0
61.45,9.280694,-0.191669,0.654274,-0.330812,0.223199,0.253548,0.0,0.0,0.0
61.46,8.846656,-0.019212,0.559643,-0.505703,0.189903,0.287418,0.0,0.0,0.0
61.47,8.959618,-0.164203,-0.198692,-0.6167,0.179214,0.338223,0.0,0.0,0.0
61.48,9.034031,-0.156689,-1.063851,-0.67744,0.148082,0.358386,0.0,0.0,0.0
61.49,9.033571,-0.616446,-1.896358,-0.72866,0.149775,0.380787,0.0,0.0,0.0
61.5,9.21553,-1.098484,-2.733333,-0.616125,0.160981,0.392685,0.0,0.0,0.0
61.51,9.197583,-0.969808,-2.891225,-0.509632,0.173742,0.39774,0.0,0.0,0.0
61.52,8.987059,-0.042718,-2.862817,-0.465584,0.209776,0.420092,0.0,0.0,0.0
61.53,8.710917,0.466045,-2.528134,-0.611419,0.17645,0.464233,0.0,0.0,0.0
61.54,8.838454,-0.294035,-2.502695,-0.699482,0.192379,0.507456,0.0,0.0,0.0
61.55,8.655815,0.045709,-1.667781,-0.712519,0.229533,0.54447,0.0,0.0,0.0
61.56,9.568155,-0.87329,-0.065903,-0.730737,0.248961,0.59712,0.0,0.0,0.0
61.57,10.039407,-1.030953,1.461922,-0.63612,0.32224,0.650378,0.0,0.0,0.0
61.58,10.915739,-0.96118,2.686688,-0.577685,0.346967,0.725833,0.0,0.0,0.0
61.59,12.206414,-1.396751,3.811452,-0.389831,0.464377,0.821147,0.0,0.0,0.0
61.6,12.945473,-0.503387,4.584816,-0.251296,0.57009,0.902593,0.0,0.0,0.0
61.61,13.691512,0.041293,4.499742,-0.174034,0.68401,1.002584,0.0,0.0,0.0
61.62,13.342126,1.60165,3.456633,-0.163235,0.786759,1.10169,0.0,0.0,0.0
61.63,13.447376,1.95182,1.923313,-0.326384,0.84941,1.234179,0.0,0.0,0.0
61.64,13.48795,2.224348,1.325282,-0.455555,0.948146,1.363172,0.0,0.0,0.0
61.65,13.716143,1.441046,0.881967,-0.614987,1.008963,1.478793,0.0,0.0,0.0
61.66,14.03915,1.606992,0.87493,-0.555452,1.116392,1.574116,0.0,0.0,0.0
61.67,14.670206,1.547731,0.911183,-0.526556,1.196684,1.686955,0.0,0.0,0.0
61.68,15.696926,2.437666,1.232801,-0.401466,1.35616,1.82057,0.0,0.0,0.0
61.69,16.306147,4.211635,1.6874,-0.453539,1.491157,1.977729,0.0,0.0,0.0
61.7,17.393108,5.194036,1.228383,-0.635367,1.54766,2.122587,0.0,0.0,0.0
61.71,18.306436,6.942596,0.065174,-0.732477,1.627722,2.291092,0.0,0.0,0.0
61.72,19.074952,7.464198,-1.538072,-0.97534,1.557781,2.4356,0.0,0.0,0.0
61.73,19.523233,7.442599,-3.250004,-1.056251,1.546723,2.587948,0.0,0.0,0.0
61.74,19.147815,7.354089,-3.856717,-1.044319,1.628961,2.727465,0.0,0.0,0.0
61.75,17.537031,7.159297,-3.074852,-1.744078,1.759402,2.905512,0.0,0.0,0.0
61.76,18.595033,1.837359,-1.957695,-2.42083,1.806424,3.199765,0.0,0.0,0.0
61.77,19.180797,3.404692,-1.652139,-2.468194,2.113448,3.37995,0.0,0.0,0.0
61.78,17.886828,3.266197,-1.453038,-3.48541,2.017026,3.380701,0.0,0.0,0.0
61.79,16.475168,0.03035,-3.730895,-4.171784,1.825745,3.365518,0.0,0.0,0.0
61.8,14.820671,1.981921,-1.786391,-4.278226,1.813119,3.288615,0.0,0.0,0.0
61.81,12.660868,1.904885,1.292419,-5.053121,1.62831,2.884035,0.0,0.0,0.0
61.82,12.354381,-4.285628,-2.965875,-5.495438,1.340907,2.423831,0.0,0.0,0.0
61.83,11.42775,6.995375,-2.482689,-4.857092,1.533347,1.869332,0.0,0.0,0.0
61.84,9.976779,10.569641,-4.5365,-5.597153,1.258644,1.414268,0.0,0.0,0.0
61.85,8.316618,9.008055,-4.477156,-5.989383,1.15912,1.003176,0.0,0.0,0.0
61.86,7.335478,5.71614,-5.251357,-5.904286,1.118718,0.70281,0.0,0.0,0.0
61.87,6.831262,3.960808,-5.962142,-5.37542,1.159927,0.372051,0.0,0.0,0.0
61.88,6.572422,3.80058,-6.556761,-4.690858,1.270755,-0.026698,0.0,0.0,0.0
61.89,5.816022,4.109751,-6.915094,-4.082677,1.387564,-0.449018,0.0,0.0,0.0
61.9,4.925572,4.065817,-6.81193,-3.626108,1.473393,-0.87185,0.0,0.0,0.0
61.91,4.751941,3.02942,-6.561912,-3.250168,1.522061,-1.289476,0.0,0.0,0.0
61.92,5.139954,1.725875,-6.260503,-2.793184,1.62001,-1.6955,0.0,0.0,0.0
61.93,4.837232,1.123634,-5.977704,-2.360587,1.745763,-2.092364,0.0,0.0,0.0
61.94,4.567363,0.707654,-6.052773,-1.919582,1.80365,-2.506733,0.0,0.0,0.0
61.95,4.468578,1.08965,-5.887782,-1.492571,1.882128,-2.917788,0.0,0.0,0.0
61.96,4.43823,1.253483,-5.745716,-1.244926,1.905031,-3.294809,0.0,0.0,0.0
61.97,4.806363,1.380351,-6.004225,-1.033477,1.911245,-3.642784,0.0,0.0,0.0
61.98,5.15489,1.470379,-6.266775,-0.859005,1.881794,-3.946679,0.0,0.0,0.0
61.99,5.686771,1.456902,-6.807035,-0.728165,1.79889,-4.205246,0.0,0.0,0.0
62.0,6.104516,1.418043,-7.298737,-0.576104,1.704026,-4.439087,0.0,0.0,0.0
62.01,6.521712,1.405457,-7.774442,-0.530692,1.525734,-4.692765,0.0,0.0,0.0
62.02,7.032385,1.148366,-8.3213,-0.416724,1.362236,-4.966174,0.0,0.0,0.0
62.03,7.628318,1.561779,-8.376551,-0.362278,1.180487,-5.212433,0.0,0.0,0.0
62.04,8.655888,1.681456,-8.190618,-0.403782,0.947218,-5.444427,0.0,0.0,0.0
62.05,9.980598,1.717574,-8.30456,-0.48329,0.695076,-5.671119,0.0,0.0,0.0
62.06,11.404599,1.623928,-8.164865,-0.555275,0.481136,-5.866952,0.0,0.0,0.0
62.07,12.843201,1.098671,-8.325453,-0.575167,0.30972,-6.055815,0.0,0.0,0.0
62.08,14.276781,1.087874,-8.404668,-0.4478,0.187705,-6.218382,0.0,0.0,0.0
62.09,16.06356,1.537452,-8.082129,-0.322569,-0.008777,-6.337265,0.0,0.0,0.0
62.1,18.473346,1.731224,-7.569459,-0.341463,-0.272634,-6.405976,0.0,0.0,0.0
62.11,20.621179,0.91541,-6.825873,-0.477848,-0.550813,-6.427896,0.0,0.0,0.0
62.12,21.714115,-0.749724,-6.12662,-0.604429,-0.835191,-6.413365,0.0,0.0,0.0
62.13,22.322405,-2.738316,-5.465503,-0.669306,-1.106659,-6.338255,0.0,0.0,0.0
62.14,23.368988,-6.191157,-2.113836,-0.64758,-1.30251,-6.119028,0.0,0.0,0.0
62.15,27.66411,-9.257191,2.148632,0.222711,-0.718139,-5.835825,0.0,0.0,0.0
62.16,23.497952,-7.908628,2.362873,-0.1238,-0.291093,-5.339894,0.0,0.0,0.0
62.17,21.24496,-6.233012,-0.143112,-0.923905,-0.275805,-4.819106,0.0,0.0,0.0
62.18,20.477112,-11.183257,-5.198374,-2.015991,-0.549095,-4.030366,0.0,0.0,0.0
62.19,18.7387,-21.754057,-10.319051,-2.048612,-0.963471,-3.282214,0.0,0.0,0.0
62.2,17.914696,-28.228208,-9.025836,-0.640714,-1.039939,-2.322249,0.0,0.0,0.0
62.21,18.514774,-26.407843,-2.36275,0.471551,-1.052547,-1.155086,0.0,0.0,0.0
62.22,19.137513,-18.332983,3.352087,0.747247,-0.786727,0.255496,0.0,0.0,0.0
62.23,16.183633,-12.545566,5.123187,0.00898,-0.490533,1.449068,0.0,0.0,0.0
62.24,13.952277,-11.318431,3.540929,-0.887402,-0.412752,2.316857,0.0,0.0,0.0
62.25,13.531046,-10.991286,-0.865275,-1.168813,-0.493385,2.701117,0.0,0.0,0.0
62.26,12.598856,-9.319116,-3.782744,-1.035386,-0.656417,2.753261,0.0,0.0,0.0
62.27,13.75179,-6.424901,-3.469635,-0.490968,-0.817488,2.754354,0.0,0.0,0.0
62.28,15.433967,-3.234132,9.914375,-0.489819,-0.23694,3.024492,0.0,0.0,0.0
62.29,14.595256,9.329048,15.973036,-0.484973,0.369001,2.992063,0.0,0.0,0.0
62.3,8.513234,15.930499,8.955944,-3.061058,-0.189371,2.551566,0.0,0.0,0.0
62.31,9.413255,5.696874,-5.191541,-4.742233,-1.171242,2.279492,0.0,0.0,0.0
62.32,18.708638,-7.40087,-0.230956,-3.906575,-1.166909,2.653029,0.0,0.0,0.0
62.33,15.855184,-11.880647,-1.218597,-2.230625,-0.585089,2.775314,0.0,0.0,0.0
62.34,11.225555,-5.431663,-2.712726,-1.144945,-0.611337,2.339118,0.0,0.0,0.0
62.35,9.999808,0.506168,-2.941423,-0.899266,-0.67241,2.263915,0.0,0.0,0.0
62.36,7.024275,0.300355,-0.852464,-1.218793,-0.787489,2.120794,0.0,0.0,0.0
62.37,8.79088,-5.130241,-1.412374,-1.117375,-0.829845,2.020756,0.0,0.0,0.0
62.38,10.726189,-9.093044,-1.840968,-0.792397,-0.676936,1.988091,0.0,0.0,0.0
62.39,13.892359,-5.758892,-2.79292,0.584642,-0.237367,2.103626,0.0,0.0,0.0
62.4,9.527995,4.31127,-0.860941,0.296214,-0.199085,1.863061,0.0,0.0,0.0
62.41,12.839532,-2.702039,1.385513,-0.487231,-0.579825,1.672872,0.0,0.0,0.0
62.42,11.280604,-2.617711,0.775326,0.197577,-0.196671,1.54806,0.0,0.0,0.0
62.43,8.880593,0.965641,-0.97942,-0.285154,-0.462225,1.374126,0.0,0.0,0.0
62.44,10.035957,0.093645,0.087767,-0.450757,-0.433603,1.250389,0.0,0.0,0.0
62.45,9.541547,-1.136653,-0.238899,-0.529147,-0.502098,1.123077,0.0,0.0,0.0
62.46,9.958973,-1.674613,0.543571,-0.538676,-0.529594,0.975599,0.0,0.0,0.0
62.47,10.277239,-1.712307,0.491255,-0.468572,-0.551349,0.82681,0.0,0.0,0.0
62.48,10.225201,-2.14526,-0.016934,-0.327823,-0.563597,0.703512,0.0,0.0,0.0
62.49,10.323587,-2.251061,-0.219736,-0.11229,-0.565249,0.603569,0.0,0.0,0.0
62.5,9.962323,-1.601739,-0.334018,0.04843,-0.549587,0.515891,0.0,0.0,0.0
62.51,9.843002,-1.215008,-0.69929,0.046435,-0.569568,0.419552,0.0,0.0,0.0
62.52,9.929454,-1.335247,-1.242241,0.1314,-0.531635,0.353337,0.0,0.0,0.0
62.53,9.895559,-0.968188,-1.536875,0.225429,-0.472142,0.296471,0.0,0.0,0.0
62.54,9.825106,-0.654015,-1.584225,0.288175,-0.414237,0.246432,0.0,0.0,0.0
62.55,9.73144,-0.31194,-1.578862,0.327543,-0.361277,0.206192,0.0,0.0,0.0
62.56,9.702774,0.072597,-1.618383,0.347194,-0.31256,0.17682,0.0,0.0,0.0
62.57,9.513407,0.460912,-1.532984,0.325269,-0.283077,0.154141,0.0,0.0,0.0
62.58,9.591979,0.574622,-1.388738,0.25005,-0.290312,0.1508,0.0,0.0,0.0
62.59,9.704711,0.271799,-1.371548,0.175792,-0.286842,0.166564,0.0,0.0,0.0
62.6,9.574978,0.074674,-1.225076,0.15196,-0.288878,0.186432,0.0,0.0,0.0
62.61,9.61501,-0.134213,-1.305924,0.142453,-0.290352,0.218068,0.0,0.0,0.0
62.62,9.557807,0.017751,-1.193793,0.178899,-0.286268,0.259275,0.0,0.0,0.0
62.63,9.527741,0.078952,-1.282338,0.205304,-0.298143,0.299319,0.0,0.0,0.0
62.64,9.547086,0.185586,-1.250724,0.244143,-0.307322,0.342906,0.0,0.0,0.0
62.65,9.467349,0.313098,-1.16103,0.164913,-0.338195,0.390782,0.0,0.0,0.0
62.66,9.687365,0.009487,-1.228598,0.169518,-0.357496,0.434364,0.0,0.0,0.0
62.67,9.807863,0.163689,-1.028444,0.213963,-0.346187,0.482772,0.0,0.0,0.0
62.68,9.83928,0.03095,-1.089199,0.219005,-0.35678,0.535651,0.0,0.0,0.0
62.69,9.962454,-0.126779,-1.108369,0.308598,-0.345188,0.593957,0.0,0.0,0.0
62.7,9.973611,0.085793,-1.167463,0.364257,-0.361244,0.663124,0.0,0.0,0.0
62.71,10.141347,0.497461,-1.275957,0.432563,-0.343118,0.749737,0.0,0.0,0.0
62.72,10.165067,0.733667,-1.238067,0.354889,-0.318674,0.842768,0.0,0.0,0.0
62.73,10.454409,0.356147,-1.771128,0.330536,-0.311571,0.93096,0.0,0.0,0.0
62.74,10.210426,0.300761,-1.763877,0.315987,-0.270899,1.005664,0.0,0.0,0.0
62.75,10.512788,-0.372489,-1.86295,0.296473,-0.314536,1.065427,0.0,0.0,0.0
62.76,10.725511,-0.735684,-1.667864,0.442235,-0.268794,1.13093,0.0,0.0,0.0
62.77,10.906847,-0.48259,-1.282475,0.498006,-0.265194,1.198386,0.0,0.0,0.0
62.78,10.963383,-0.345371,-1.393517,0.542085,-0.251299,1.27123,0.0,0.0,0.0
62.79,11.274565,0.651169,-1.790646,0.525089,-0.254367,1.351949,0.0,0.0,0.0
62.8,11.729263,0.329004,-2.077993,0.361711,-0.28681,1.467735,0.0,0.0,0.0
62.81,12.081131,-0.421267,-1.352957,0.461264,-0.277644,1.569686,0.0,0.0,0.0
62.82,11.888079,-0.446489,-0.641303,0.431811,-0.269098,1.679145,0.0,0.0,0.0
62.83,12.009842,-0.503035,-1.041265,0.466923,-0.231965,1.800219,0.0,0.0,0.0
62.84,11.973338,0.230739,-1.524858,0.480528,-0.193604,1.914354,0.0,0.0,0.0
62.85,12.499676,0.495828,-2.704717,0.499237,-0.204493,2.044208,0.0,0.0,0.0
62.86,13.577398,1.040916,-3.486357,0.692333,-0.202663,2.203618,0.0,0.0,0.0
62.87,14.832034,1.782393,-2.97302,0.827092,-0.253481,2.400505,0.0,0.0,0.0
62.88,16.727688,2.475612,-1.886631,0.972519,-0.295015,2.620074,0.0,0.0,0.0
62.89,18.707676,2.849737,-0.852371,1.128518,-0.310173,2.840024,0.0,0.0,0.0
62.9,20.882922,4.310718,-0.97955,1.348533,-0.279983,3.044209,0.0,0.0,0.0
62.91,22.97176,7.273902,-0.827903,1.619201,-0.265916,3.219763,0.0,0.0,0.0
62.92,25.148731,9.821502,-0.358704,1.347914,-0.363256,3.482405,0.0,0.0,0.0
62.93,24.870118,7.440407,0.28026,1.067626,-0.504425,3.738435,0.0,0.0,0.0
62.94,23.674685,3.107804,0.472487,0.978843,-0.603127,3.912764,0.0,0.0,0.0
62.95,22.229652,-2.509019,-3.469283,1.397517,-0.848482,3.94091,0.0,0.0,0.0
62.96,19.246137,3.433121,-2.711486,1.365942,-0.727584,3.849468,0.0,0.0,0.0
62.97,17.305832,-0.571785,-4.877058,1.099618,-0.925967,3.637752,0.0,0.0,0.0
62.98,14.270928,-0.038823,-4.665011,1.554978,-0.751002,3.361453,0.0,0.0,0.0
62.99,12.343081,0.572933,-4.33818,1.903904,-0.767761,2.967277,0.0,0.0,0.0
63.0,10.662068,0.594938,-3.448894,2.438933,-0.617315,2.392898,0.0,0.0,0.0
63.01,7.962532,0.239187,-4.435274,3.476169,-0.470629,1.74014,0.0,0.0,0.0
63.02,6.507153,0.310938,-2.949413,4.087058,-0.45965,1.416538,0.0,0.0,0.0
63.03,3.678684,7.273793,-1.406269,4.375974,-0.331615,0.87004,0.0,0.0,0.0
63.04,1.270449,6.791655,2.096654,3.798983,-0.476697,0.173631,0.0,0.0,0.0
63.05,1.55548,3.926988,3.374795,3.798315,-0.381652,-0.244788,0.0,0.0,0.0
63.06,-0.460426,5.563189,4.639164,3.387597,-0.352669,-0.640006,0.0,0.0,0.0
63.07,-0.952126,6.350148,4.101579,2.382228,-0.687902,-1.124361,0.0,0.0,0.0
63.08,-0.009293,5.468664,3.251425,1.665602,-0.824245,-1.553417,0.0,0.0,0.0
63.09,0.033292,4.549496,2.76504,1.147595,-0.901956,-1.97196,0.0,0.0,0.0
63.1,0.245978,3.474664,2.155708,0.632345,-0.99464,-2.334817,0.0,0.0,0.0
63.11,0.932518,2.552156,1.487613,0.267525,-1.058826,-2.715458,0.0,0.0,0.0
63.12,1.325693,2.626656,0.905067,-0.021979,-1.121667,-3.096963,0.0,0.0,0.0
63.13,1.615214,3.113208,0.432102,-0.455757,-1.240171,-3.457672,0.0,0.0,0.0
63.14,2.203862,2.85695,-0.229373,-0.88391,-1.354781,-3.821311,0.0,0.0,0.0
63.15,2.82099,2.389385,-0.687168,-1.12801,-1.397866,-4.168825,0.0,0.0,0.0
63.16,3.652084,1.869548,-0.988622,-1.194398,-1.383853,-4.476113,0.0,0.0,0.0
63.17,4.612008,1.190007,-1.15973,-1.093092,-1.320899,-4.742071,0.0,0.0,0.0
63.18,5.629802,0.927883,-1.22619,-0.859464,-1.230123,-4.96869,0.0,0.0,0.0
63.19,6.751015,0.861916,-1.069239,-0.588817,-1.113257,-5.150908,0.0,0.0,0.0
63.2,7.908776,0.740709,-0.849742,-0.289515,-0.993616,-5.329892,0.0,0.0,0.0
63.21,9.087572,0.672388,-0.309946,-0.002648,-0.891988,-5.541625,0.0,0.0,0.0
63.22,9.947274,0.246023,-0.124947,0.25737,-0.837658,-5.729825,0.0,0.0,0.0
63.23,10.894857,-0.30763,0.599549,0.570404,-0.742197,-5.878402,0.0,0.0,0.0
63.24,12.147224,-0.869496,0.989158,0.883957,-0.709735,-5.993327,0.0,0.0,0.0
63.25,14.15503,-0.943706,1.426777,1.249352,-0.645898,-6.124496,0.0,0.0,0.0
63.26,16.662464,-1.457918,1.40633,1.685238,-0.58563,-6.174078,0.0,0.0,0.0
63.27,19.594764,-2.802084,1.212634,2.234005,-0.471395,-6.126651,0.0,0.0,0.0
63.28,21.317669,-4.073114,1.018796,2.766826,-0.331434,-6.017223,0.0,0.0,0.0
63.29,22.103751,-5.311311,-0.095123,3.169448,-0.320968,-5.832089,0.0,0.0,0.0
63.3,24.286311,-6.23687,-0.715848,3.527037,-0.312135,-5.598153,0.0,0.0,0.0
63.31,26.44077,-7.701555,-0.09808,3.809578,-0.311257,-5.398032,0.0,0.0,0.0
63.32,27.112983,-11.51287,1.621982,4.269364,-0.082677,-5.289704,0.0,0.0,0.0
63.33,25.307801,-11.032942,5.805434,4.536439,0.216798,-4.813624,0.0,0.0,0.0
63.34,21.376751,-12.672676,7.254819,3.402889,0.29956,-3.939425,0.0,0.0,0.0
63.35,12.636169,-20.544743,0.505247,2.01389,-0.063898,-2.999352,0.0,0.0,0.0
63.36,13.823739,-25.511313,0.96891,2.571723,-0.462508,-1.62154,0.0,0.0,0.0
63.37,18.085074,-23.069618,6.924352,3.092716,-0.034577,0.028592,0.0,0.0,0.0
63.38,17.808654,-15.329063,12.49296,2.508884,0.592472,1.36096,0.0,0.0,0.0
63.39,15.160233,-8.284144,14.477674,0.971389,0.743345,2.430963,0.0,0.0,0.0
63.4,8.561845,10.471805,1.459281,0.585055,0.665231,2.531369,0.0,0.0,0.0
63.41,8.95983,37.83194,4.818602,-0.765796,0.43879,1.392245,0.0,0.0,0.0
63.42,13.130615,21.584615,4.255687,-5.247276,-0.449882,1.135169,0.0,0.0,0.0
63.43,16.387782,-8.783585,-1.898186,-4.446871,-0.258237,1.891037,0.0,0.0,0.0
63.44,18.132788,-9.973932,2.373364,-2.482499,0.085797,2.389636,0.0,0.0,0.0
63.45,18.480525,-4.624981,2.717012,-1.427698,0.189454,2.39278,0.0,0.0,0.0
63.46,12.270775,-0.734082,-2.239204,-0.759205,0.274286,2.070961,0.0,0.0,0.0
63.47,8.649697,-4.180357,-5.737477,-1.075572,-0.07572,2.129439,0.0,0.0,0.0
63.48,11.259951,2.533503,-3.369024,-0.166428,0.473043,2.254329,0.0,0.0,0.0
63.49,7.502916,-0.848369,-3.17414,-0.374242,0.465388,2.085414,0.0,0.0,0.0
63.5,11.17897,-5.988997,-2.0561,-0.086932,0.461492,2.135412,0.0,0.0,0.0
63.51,10.006049,-0.803139,-0.07578,0.251535,0.662117,1.950698,0.0,0.0,0.0
63.52,9.364402,-0.11184,-2.085976,-0.304473,0.403164,1.59236,0.0,0.0,0.0
63.53,10.296058,-1.590759,-1.39017,-0.274183,0.416606,1.425515,0.0,0.0,0.0
63.54,9.312987,-0.417523,0.597479,-0.217743,0.347162,1.247327,0.0,0.0,0.0
63.55,10.017908,-1.056913,0.52606,-0.393153,0.221439,1.149891,0.0,0.0,0.0
63.56,10.362332,-0.37875,0.54853,-0.275459,0.168539,1.050071,0.0,0.0,0.0
63.57,10.397669,-0.757676,-0.376668,-0.348275,0.06821,0.896992,0.0,0.0,0.0
63.58,10.050639,-1.841553,-1.770226,-0.155774,0.044944,0.755951,0.0,0.0,0.0
63.59,9.543369,-2.020987,-1.86653,0.072174,0.049996,0.619777,0.0,0.0,0.0
63.6,9.509042,-1.895091,-2.2678,0.313237,0.078537,0.500408,0.0,0.0,0.0
63.61,9.600652,-1.13918,-2.128979,0.557305,0.165992,0.404431,0.0,0.0,0.0
63.62,9.451889,0.028754,-2.12953,0.597556,0.218277,0.332567,0.0,0.0,0.0
63.63,9.550713,0.786559,-2.343878,0.497132,0.233669,0.253496,0.0,0.0,0.0
63.64,9.591854,0.66145,-2.533377,0.387613,0.246588,0.185188,0.0,0.0,0.0
63.65,9.561614,0.217092,-2.052709,0.371107,0.263329,0.127114,0.0,0.0,0.0
63.66,9.51313,0.175358,-1.561797,0.383904,0.276909,0.084147,0.0,0.0,0.0
63.67,9.673878,0.033221,-1.897324,0.44016,0.27575,0.044786,0.0,0.0,0.0
63.68,9.687109,0.238662,-1.126492,0.571673,0.265756,0.033833,0.0,0.0,0.0
63.69,10.056205,0.03808,-0.532234,0.637291,0.24044,0.039979,0.0,0.0,0.0
63.7,10.164916,0.68252,-0.501573,0.649246,0.2542,0.05637,0.0,0.0,0.0
63.71,10.1167,0.686663,-0.862204,0.631531,0.26184,0.076748,0.0,0.0,0.0
63.72,10.013896,0.954747,-1.367849,0.612117,0.286639,0.094661,0.0,0.0,0.0
63.73,9.928303,1.272309,-1.831101,0.558035,0.312802,0.127035,0.0,0.0,0.0
63.74,9.820681,0.975417,-2.205903,0.478762,0.338274,0.155076,0.0,0.0,0.0
63.75,9.685798,1.223014,-2.390822,0.464874,0.400624,0.197579,0.0,0.0,0.0
63.76,9.467662,1.181413,-2.466352,0.363793,0.429939,0.23468,0.0,0.0,0.0
63.77,9.279478,0.774758,-2.499661,0.298747,0.453107,0.277322,0.0,0.0,0.0
63.78,8.889822,0.547927,-2.143184,0.280567,0.47411,0.318142,0.0,0.0,0.0
63.79,8.579251,0.099977,-1.408278,0.229719,0.462193,0.34404,0.0,0.0,0.0
63.8,8.695525,-0.022472,-1.081239,0.227025,0.468694,0.35196,0.0,0.0,0.0
63.81,8.729258,-0.220959,-1.131816,0.220568,0.457162,0.361573,0.0,0.0,0.0
63.82,9.088265,-0.424804,-0.768012,0.26722,0.419553,0.353648,0.0,0.0,0.0
63.83,9.692138,-0.528172,-0.448421,0.365526,0.423743,0.343975,0.0,0.0,0.0
63.84,10.27861,-0.068374,-0.410436,0.466222,0.44227,0.331101,0.0,0.0,0.0
63.85,10.65274,-0.34579,-0.268087,0.579482,0.428656,0.32233,0.0,0.0,0.0
63.86,10.859076,-0.43185,-0.369885,0.736432,0.446564,0.306017,0.0,0.0,0.0
63.87,10.521547,-0.40032,-0.657342,0.846028,0.444615,0.283382,0.0,0.0,0.0
63.88,10.386697,-0.73846,-0.823309,0.980558,0.431368,0.264842,0.0,0.0,0.0
63.89,10.314383,-0.575311,-1.089735,1.106305,0.43993,0.238406,0.0,0.0,0.0
63.9,10.242354,0.058543,-1.375443,1.089388,0.461133,0.208842,0.0,0.0,0.0
63.91,10.036692,-0.250195,-2.261293,1.015967,0.44532,0.172381,0.0,0.0,0.0
63.92,10.151869,-0.394966,-3.145276,1.078305,0.4649,0.155967,0.0,0.0,0.0
63.93,10.059392,-0.142154,-4.428179,1.007536,0.483171,0.151095,0.0,0.0,0.0
63.94,9.528041,-0.507286,-4.054887,0.618353,0.445545,0.174372,0.0,0.0,0.0
63.95,8.424252,-1.966248,-4.271776,0.927817,0.512676,0.225702,0.0,0.0,0.0
63.96,7.801642,-0.079589,-4.199202,1.05201,0.487025,0.327543,0.0,0.0,0.0
63.97,9.419661,0.686367,-4.692054,1.115321,0.397576,0.396274,0.0,0.0,0.0
63.98,11.099589,0.228143,-7.755598,1.506542,0.313763,0.404458,0.0,0.0,0.0
63.99,11.408167,-2.416655,-14.632836,2.231315,0.045534,0.331316,0.0,0.0,0.0
64.0,10.793238,-3.756547,-19.166513,3.752395,-0.237,0.229321,0.0,0.0,0.0
64.01,9.238024,-4.034149,-19.351866,5.290553,-0.484035,0.127762,0.0,0.0,0.0
64.02,8.247571,-3.635123,-17.607481,6.753305,-0.695774,-0.016229,0.0,0.0,0.0
64.03,8.13139,-3.181977,-15.33963,8.091153,-0.756006,-0.121547,0.0,0.0,0.0
64.04,8.230746,-2.983514,-12.63509,9.096093,-0.847469,-0.133205,0.0,0.0,0.0
64.05,9.137543,-1.285306,-10.645408,10.101565,-0.830733,-0.121192,0.0,0.0,0.0
64.06,9.98482,2.255983,-7.630385,10.58098,-0.850963,-0.039173,0.0,0.0,0.0
64.07,11.414753,3.342992,-3.684476,10.624667,-0.915974,0.040392,0.0,0.0,0.0
64.08,12.020873,2.309253,-0.831854,10.550198,-0.907578,0.085377,0.0,0.0,0.0
64.09,12.26646,1.622386,0.304097,10.453588,-0.822779,0.09681,0.0,0.0,0.0
64.1,10.507559,5.082727,1.278519,10.243649,-0.629593,0.127424,0.0,0.0,0.0
64.11,9.061539,7.843917,3.214485,9.240891,-0.609522,0.186101,0.0,0.0,0.0
64.12,9.116736,7.346093,5.313281,7.93434,-0.656866,0.216239,0.0,0.0,0.0
64.13,9.493926,5.875371,5.816283,6.814391,-0.608365,0.191385,0.0,0.0,0.0
64.14,9.008484,5.643661,5.636666,5.727173,-0.592819,0.168078,0.0,0.0,0.0
64.15,9.147931,4.713873,4.788133,4.683577,-0.624874,0.117586,0.0,0.0,0.0
64.16,9.176141,3.391169,3.801808,3.897476,-0.624472,0.053457,0.0,0.0,0.0
64.17,9.076772,2.355364,2.685261,3.434499,-0.582142,-0.020585,0.0,0.0,0.0
64.18,8.77739,1.40971,1.79566,3.209892,-0.531712,-0.059284,0.0,0.0,0.0
64.19,8.424427,0.657965,0.733545,3.245483,-0.442288,-0.078315,0.0,0.0,0.0
64.2,8.666592,0.534161,0.03689,3.341018,-0.369011,-0.083071,0.0,0.0,0.0
64.21,9.273773,0.34573,-0.699036,3.502881,-0.265765,-0.09725,0.0,0.0,0.0
64.22,9.53946,0.648048,-0.963936,3.700609,-0.170037,-0.110885,0.0,0.0,0.0
64.23,9.776963,0.961246,-1.07074,3.804734,-0.107364,-0.126991,0.0,0.0,0.0
64.24,10.132198,1.227981,-1.430547,3.858203,-0.030594,-0.140769,0.0,0.0,0.0
64.25,10.173777,1.815527,-1.605787,3.836733,0.056801,-0.129003,0.0,0.0,0.0
64.26,10.113974,2.375513,-1.691538,3.627012,0.075852,-0.099307,0.0,0.0,0.0
64.27,10.192627,2.084346,-2.202604,3.331366,0.059692,-0.069956,0.0,0.0,0.0
64.28,9.750332,1.865842,-2.611074,3.130878,0.051467,-0.031119,0.0,0.0,0.0
64.29,9.306042,2.274858,-2.605053,2.923297,0.010055,0.020733,0.0,0.0,0.0
64.3,9.19423,2.417764,-2.332758,2.650926,-0.045494,0.082023,0.0,0.0,0.0
64.31,9.065271,1.838758,-2.174063,2.421431,-0.072433,0.144622,0.0,0.0,0.0
64.32,9.085873,1.471739,-1.880307,2.230927,-0.087131,0.205091,0.0,0.0,0.0
64.33,9.538339,1.024208,-1.703866,2.08138,-0.057163,0.254242,0.0,0.0,0.0
64.34,9.818091,0.88819,-1.10027,1.974597,0.003663,0.278207,0.0,0.0,0.0
64.35,8.906298,2.85918,-2.181501,1.939984,0.08015,0.234063,0.0,0.0,0.0
64.36,7.473367,5.390577,-1.363822,1.582476,0.036978,0.188309,0.0,0.0,0.0
64.37,6.512489,4.918256,-1.570001,1.235675,-0.019388,0.07569,0.0,0.0,0.0
64.38,6.727771,8.583688,-0.678735,1.14738,-0.043012,-0.16834,0.0,0.0,0.0
64.39,9.672891,11.466843,4.089896,0.411886,0.081496,-0.193663,0.0,0.0,0.0
64.4,12.954146,3.078552,3.006229,-0.617802,0.044091,-0.00213,0.0,0.0,0.0
64.41,17.441323,-0.74687,-4.520684,-1.075637,-0.165921,0.151176,0.0,0.0,0.0
64.42,21.315332,3.525513,-9.140867,-0.568306,-0.283134,0.172182,0.0,0.0,0.0
64.43,14.048969,6.89681,-5.666116,-0.391973,-0.029396,0.414746,0.0,0.0,0.0
64.44,6.85812,-0.645658,-0.46982,-0.874845,-0.382355,0.637429,0.0,0.0,0.0
64.45,9.550741,-7.139292,0.633943,-0.169272,-0.225629,0.659366,0.0,0.0,0.0
64.46,8.103158,-3.746129,2.321776,0.450335,0.108382,0.64231,0.0,0.0,0.0
64.47,7.67923,-1.917288,0.666713,0.140225,0.028861,0.554623,0.0,0.0,0.0
64.48,8.717651,-1.908482,-0.532621,0.01254,0.044712,0.492375,0.0,0.0,0.0
64.49,9.764052,-2.671094,-0.605829,-0.065292,0.057464,0.491458,0.0,0.0,0.0
64.5,10.1178,-3.051218,-0.928611,0.002868,0.110771,0.479082,0.0,0.0,0.0
64.51,9.373656,-1.933969,-0.817949,0.097752,0.142675,0.431602,0.0,0.0,0.0
64.52,9.349976,-1.429803,-0.459052,0.049511,0.119406,0.419327,0.0,0.0,0.0
64.53,9.775105,-1.38533,-0.404616,0.017454,0.098687,0.409204,0.0,0.0,0.0
64.54,9.717562,-0.658243,-0.235881,0.057732,0.110353,0.409083,0.0,0.0,0.0
64.55,9.365343,-0.408172,0.535641,-0.009211,0.07469,0.427511,0.0,0.0,0.0
64.56,9.904726,-1.589789,0.871911,-0.128598,0.017422,0.445131,0.0,0.0,0.0
64.57,9.958975,-2.79485,0.428358,-0.145581,0.000693,0.414783,0.0,0.0,0.0
64.58,9.169878,-3.299647,-0.488693,-0.151226,-0.055905,0.357573,0.0,0.0,0.0
64.59,8.905063,-3.46276,-0.269097,-0.116091,-0.133172,0.287727,0.0,0.0,0.0
64.6,9.748516,-3.948581,1.272445,-0.005235,-0.164046,0.253301,0.0,0.0,0.0
64.61,10.298783,-3.603523,2.522671,0.156769,-0.164839,0.209485,0.0,0.0,0.0
64.62,9.725967,-2.448876,1.328409,0.151143,-0.203171,0.13055,0.0,0.0,0.0
64.63,9.991934,-2.163498,-0.577502,0.087553,-0.275773,0.096784,0.0,0.0,0.0
64.64,10.141155,-2.03055,-0.957037,0.156869,-0.255606,0.100545,0.0,0.0,0.0
64.65,9.713832,-2.69151,-0.676993,0.22221,-0.225011,0.101928,0.0,0.0,0.0
64.66,9.731905,-2.824324,-0.458845,0.245822,-0.217999,0.095607,0.0,0.0,0.0
64.67,9.729596,-2.564072,-0.610514,0.243573,-0.193122,0.069249,0.0,0.0,0.0
64.68,9.169782,-2.444724,-0.901596,0.180636,-0.192213,0.043449,0.0,0.0,0.0
64.69,9.469432,-2.603573,-1.1169,0.144987,-0.204481,0.031157,0.0,0.0,0.0
64.7,9.450354,-2.01918,-0.589411,0.154894,-0.195433,0.027801,0.0,0.0,0.0
64.71,9.147009,-0.895724,-0.17388,0.223501,-0.199529,0.027291,0.0,0.0,0.0
64.72,8.808157,-0.860209,0.522999,0.153329,-0.26965,0.043199,0.0,0.0,0.0
64.73,9.552382,-1.873924,0.685728,0.109977,-0.340104,0.059737,0.0,0.0,0.0
64.74,9.935993,-2.417474,0.742895,0.064292,-0.352559,0.031534,0.0,0.0,0.0
64.75,9.529281,-3.118893,0.543145,0.008879,-0.377668,-0.012698,0.0,0.0,0.0
64.76,9.674081,-3.676577,0.843523,0.015282,-0.414284,-0.067028,0.0,0.0,0.0
64.77,10.045252,-3.394646,0.933103,0.13663,-0.381427,-0.113183,0.0,0.0,0.0
64.78,9.499785,-1.991498,-0.053263,0.044781,-0.42074,-0.154137,0.0,0.0,0.0
64.79,9.68611,-1.767893,-1.179125,-0.029722,-0.439713,-0.163012,0.0,0.0,0.0
64.8,8.990444,-1.295428,-1.209852,0.022775,-0.413808,-0.157609,0.0,0.0,0.0
64.81,9.44369,-1.599437,-1.118148,0.038707,-0.422144,-0.139124,0.0,0.0,0.0
64.82,9.672765,-1.851178,-1.216371,0.017328,-0.393032,-0.127584,0.0,0.0,0.0
64.83,10.010191,-2.41358,-1.362294,-0.02089,-0.356342,-0.15154,0.0,0.0,0.0
64.84,9.702074,-2.317253,-1.413494,0.02171,-0.29535,-0.180617,0.0,0.0,0.0
64.85,9.589814,-2.112514,-1.30793,0.003805,-0.262316,-0.20007,0.0,0.0,0.0
64.86,9.771273,-2.318286,-0.76746,0.014406,-0.238243,-0.209576,0.0,0.0,0.0
64.87,10.059994,-2.528469,-0.486388,0.030984,-0.179902,-0.214346,0.0,0.0,0.0
64.88,10.168,-2.703225,-0.756674,0.097276,-0.126495,-0.223075,0.0,0.0,0.0
64.89,9.390657,-1.877637,-0.945322,0.12811,-0.088067,-0.223468,0.0,0.0,0.0
64.9,9.752317,-2.539981,-0.932225,0.083422,-0.13182,-0.217922,0.0,0.0,0.0
64.91,9.896327,-2.350556,-0.897681,0.186379,-0.070834,-0.236055,0.0,0.0,0.0
64.92,9.414236,-1.870692,-0.918069,0.147721,-0.092841,-0.254839,0.0,0.0,0.0
64.93,9.679945,-2.387227,-0.902083,0.06599,-0.109914,-0.262421,0.0,0.0,0.0
64.94,9.818351,-2.889895,-0.723519,0.052713,-0.112505,-0.275925,0.0,0.0,0.0
64.95,9.772075,-3.18936,-0.750073,0.051557,-0.100221,-0.296911,0.0,0.0,0.0
64.96,9.613949,-2.854309,-0.623461,0.035294,-0.096352,-0.31251,0.0,0.0,0.0
64.97,9.706263,-2.476362,-0.678341,0.015566,-0.1166,-0.321771,0.0,0.0,0.0
64.98,9.768393,-1.639852,-0.545284,-0.009867,-0.124406,-0.30816,0.0,0.0,0.0
64.99,9.849437,-1.246102,-0.964251,-0.10393,-0.166822,-0.29127,0.0,0.0,0.0
65.0,9.992059,-0.980909,-1.176472,-0.035815,-0.178081,-0.312962,0.0,0.0,0.0
65.01,10.512152,0.359557,-0.626288,0.169552,-0.138126,-0.282798,0.0,0.0,0.0
65.02,9.670796,-0.335113,-0.618109,-0.072367,-0.218847,-0.239216,0.0,0.0,0.0
65.03,10.227778,-4.084502,-1.867855,-0.110344,-0.267228,-0.219671,0.0,0.0,0.0
65.04,9.146229,-3.141839,-1.329323,0.353563,-0.074137,-0.20229,0.0,0.0,0.0
65.05,8.580387,-1.594311,-1.027021,0.253414,-0.130431,-0.245586,0.0,0.0,0.0
65.06,9.28644,-1.639001,-1.167518,0.137203,-0.176893,-0.272757,0.0,0.0,0.0
65.07,9.673714,-2.461417,-1.364154,0.144657,-0.192057,-0.29607,0.0,0.0,0.0
65.08,9.809143,-2.475059,-1.128434,0.270695,-0.156754,-0.300221,0.0,0.0,0.0
65.09,9.462705,-2.467353,-1.442819,0.316842,-0.171826,-0.301044,0.0,0.0,0.0
65.1,9.309253,-1.956963,-1.154419,0.447149,-0.163486,-0.309425,0.0,0.0,0.0
65.11,9.154855,-0.942643,-0.953141,0.500448,-0.179445,-0.305096,0.0,0.0,0.0
65.12,9.215347,-0.32251,-0.454201,0.558495,-0.180848,-0.301474,0.0,0.0,0.0
65.13,9.280034,0.164083,0.036361,0.595345,-0.172955,-0.277309,0.0,0.0,0.0
65.14,9.412217,0.681017,-0.208514,0.529261,-0.160058,-0.258784,0.0,0.0,0.0
65.15,9.318203,0.719912,-1.052321,0.308881,-0.197139,-0.247216,0.0,0.0,0.0
65.16,9.020461,-0.101869,-2.092024,0.060639,-0.243447,-0.242742,0.0,0.0,0.0
65.17,9.400071,-1.388554,-2.643461,-0.081764,-0.302419,-0.251138,0.0,0.0,0.0
65.18,9.346618,-1.696183,-2.3385,0.036588,-0.261912,-0.260065,0.0,0.0,0.0
65.19,9.566148,-1.229628,-1.331445,0.09868,-0.240207,-0.276341,0.0,0.0,0.0
65.2,9.988029,-1.231297,-1.257939,0.192229,-0.21457,-0.270696,0.0,0.0,0.0
65.21,10.04962,-1.238027,-1.403409,0.318135,-0.163026,-0.277475,0.0,0.0,0.0
65.22,9.704711,-1.37785,-1.471088,0.4406,-0.115132,-0.271661,0.0,0.0,0.0
65.23,9.416399,-1.399759,-1.720222,0.553537,-0.104776,-0.254529,0.0,0.0,0.0
65.24,9.124777,-1.079551,-1.760023,0.624642,-0.095519,-0.241212,0.0,0.0,0.0
65.25,9.176025,-0.67573,-1.322811,0.612329,-0.095286,-0.203824,0.0,0.0,0.0
65.26,9.370714,-0.648041,-1.214646,0.495344,-0.111228,-0.165537,0.0,0.0,0.0
65.27,9.588157,-0.618577,-1.117329,0.384773,-0.122855,-0.141918,0.0,0.0,0.0
65.28,9.881387,-0.23117,-0.888219,0.246425,-0.128434,-0.12121,0.0,0.0,0.0
65.29,10.07565,-0.072804,-1.052919,0.063408,-0.13043,-0.098452,0.0,0.0,0.0
65.3,10.008118,-0.344959,-1.520493,-0.068406,-0.144195,-0.092913,0.0,0.0,0.0
65.31,9.816757,-0.795229,-1.86015,-0.122774,-0.143856,-0.08079,0.0,0.0,0.0
65.32,9.632459,-0.794203,-1.661168,-0.07201,-0.12553,-0.065903,0.0,0.0,0.0
65.33,9.404149,-0.654247,-1.268945,-0.093038,-0.108515,-0.050885,0.0,0.0,0.0
65.34,9.344308,-0.798753,-1.470432,-0.150419,-0.116461,-0.026149,0.0,0.0,0.0
65.35,9.50648,-0.906044,-1.627294,-0.197546,-0.117023,-0.014713,0.0,0.0,0.0
65.36,9.781105,-1.014334,-1.549515,-0.214592,-0.102058,-0.006589,0.0,0.0,0.0
65.37,9.991186,-1.300267,-1.400774,-0.222189,-0.084358,-0.004772,0.0,0.0,0.0
65.38,10.053611,-1.499355,-1.422216,-0.181906,-0.051111,-0.013921,0.0,0.0,0.0
65.39,9.865392,-1.389975,-1.420583,-0.12329,-0.029284,-0.021028,0.0,0.0,0.0
65.4,9.717916,-1.157442,-1.492441,-0.076369,-0.013761,-0.030642,0.0,0.0,0.0
65.41,9.643469,-1.04046,-1.601412,-0.030905,-0.007345,-0.040828,0.0,0.0,0.0
65.42,9.649874,-0.965787,-1.570218,0.049447,0.00988,-0.049418,0.0,0.0,0.0
65.43,9.743686,-0.95209,-1.455105,0.121461,0.024762,-0.044866,0.0,0.0,0.0
65.44,9.671635,-0.973726,-1.440912,0.166374,0.042475,-0.035961,0.0,0.0,0.0
65.45,9.588651,-0.996473,-1.38465,0.19457,0.042639,-0.032245,0.0,0.0,0.0
65.46,9.681711,-0.987108,-1.339028,0.216329,0.043163,-0.031235,0.0,0.0,0.0
65.47,9.732038,-1.015625,-1.275648,0.217086,0.037501,-0.031293,0.0,0.0,0.0
65.48,9.764383,-0.977258,-1.247128,0.22995,0.031614,-0.030808,0.0,0.0,0.0
65.49,9.85275,-0.986025,-1.21831,0.224417,0.024127,-0.02663,0.0,0.0,0.0
65.5,9.805525,-1.045307,-1.284863,0.218476,0.015538,-0.018284,0.0,0.0,0.0
65.51,9.720579,-1.122029,-1.245235,0.217679,0.005597,-0.016157,0.0,0.0,0.0
65.52,9.653249,-1.218664,-1.303698,0.217171,-0.011264,-0.009772,0.0,0.0,0.0
65.53,9.56902,-1.197207,-1.384261,0.218408,-0.020723,-0.002159,0.0,0.0,0.0
65.54,9.524224,-1.150601,-1.353684,0.20868,-0.037193,-0.000418,0.0,0.0,0.0
65.55,9.517529,-1.084992,-1.358074,0.206407,-0.038241,0.006414,0.0,0.0,0.0
65.56,9.555817,-1.065984,-1.321001,0.197424,-0.052591,0.01434,0.0,0.0,0.0
65.57,9.590103,-1.016404,-1.359888,0.171335,-0.054737,0.014751,0.0,0.0,0.0
65.58,9.606289,-1.089901,-1.400908,0.158652,-0.058688,0.014999,0.0,0.0,0.0
65.59,9.578094,-1.113643,-1.411443,0.143981,-0.055195,0.015814,0.0,0.0,0.0
65.6,9.585936,-1.079967,-1.384968,0.13848,-0.060027,0.015295,0.0,0.0,0.0
65.61,9.598226,-1.027174,-1.343921,0.118716,-0.062863,0.010208,0.0,0.0,0.0
65.62,9.62003,-1.028153,-1.357733,0.095709,-0.069388,0.012183,0.0,0.0,0.0
65.63,9.668713,-1.057577,-1.305499,0.088528,-0.068502,0.012967,0.0,0.0,0.0
65.64,9.699882,-1.112696,-1.373898,0.073946,-0.069936,0.011228,0.0,0.0,0.0
65.65,9.659539,-1.137996,-1.418462,0.073901,-0.067475,0.012516,0.0,0.0,0.0
65.66,9.631382,-1.111788,-1.490633,0.075846,-0.067311,0.009693,0.0,0.0,0.0
65.67,9.584882,-1.068161,-1.539162,0.063443,-0.06791,0.007222,0.0,0.0,0.0
65.68,9.559584,-1.124435,-1.548722,0.072031,-0.057195,0.008086,0.0,0.0,0.0
65.69,9.546368,-1.03712,-1.501885,0.064377,-0.060216,0.003519,0.0,0.0,0.0
65.7,9.587832,-1.049546,-1.466433,0.055315,-0.061909,0.005833,0.0,0.0,0.0
65.71,9.59298,-1.071285,-1.527549,0.045553,-0.057797,0.008012,0.0,0.0,0.0
65.72,9.585886,-1.052509,-1.476992,0.03713,-0.062884,0.011792,0.0,0.0,0.0
65.73,9.622759,-1.035443,-1.517297,0.031595,-0.062647,0.007789,0.0,0.0,0.0
65.74,9.626307,-1.066295,-1.44808,0.029153,-0.069349,0.010088,0.0,0.0,0.0
65.75,9.663,-1.049363,-1.489403,0.021961,-0.073639,0.01451,0.0,0.0,0.0
65.76,9.649695,-1.102471,-1.46791,0.026287,-0.069492,0.014266,0.0,0.0,0.0
65.77,9.654366,-1.124431,-1.530462,0.023633,-0.074206,0.00964,0.0,0.0,0.0
65.78,9.609287,-1.075497,-1.507015,0.029621,-0.075799,0.008127,0.0,0.0,0.0
65.79,9.630762,-1.075251,-1.522889,0.016503,-0.075758,0.009169,0.0,0.0,0.0
65.8,9.685645,-1.123174,-1.528283,0.010632,-0.073836,0.004458,0.0,0.0,0.0
65.81,9.676788,-1.108267,-1.552378,0.013095,-0.072234,0.005705,0.0,0.0,0.0
65.82,9.650916,-1.115099,-1.623222,0.010632,-0.068675,0.000855,0.0,0.0,0.0
65.83,9.643769,-1.046532,-1.634206,0.004122,-0.068507,-0.001717,0.0,0.0,0.0
65.84,9.64967,-1.154191,-1.706728,0.006239,-0.060103,-0.004767,0.0,0.0,0.0
65.85,9.640197,-1.099082,-1.658356,0.017383,-0.052691,-0.005313,0.0,0.0,0.0
65.86,9.630034,-1.136209,-1.692744,0.016083,-0.045936,-0.008211,0.0,0.0,0.0
65.87,9.620877,-1.081058,-1.642872,0.019335,-0.037038,-0.004428,0.0,0.0,0.0
65.88,9.623373,-1.115215,-1.64388,0.016501,-0.034512,-0.005098,0.0,0.0,0.0
65.89,9.61821,-1.133803,-1.661466,0.025129,-0.026272,-0.005593,0.0,0.0,0.0
65.9,9.566494,-1.067807,-1.650007,0.020683,-0.020439,-0.006299,0.0,0.0,0.0
65.91,9.660557,-1.144315,-1.624854,0.01812,-0.017186,-0.004931,0.0,0.0,0.0
65.92,9.662061,-1.091052,-1.613443,0.019922,-0.012233,-0.005123,0.0,0.0,0.0
65.93,9.654201,-1.075402,-1.631189,0.021671,-0.004863,-0.004003,0.0,0.0,0.0
65.94,9.654221,-1.075199,-1.631205,0.016949,0.000233,-0.006742,0.0,0.0,0.0
65.95,9.654336,-1.074915,-1.630714,0.011818,0.006732,-0.004002,0.0,0.0,0.0
65.96,9.649073,-1.053984,-1.574022,0.018424,0.006871,-0.007659,0.0,0.0,0.0
65.97,9.63204,-1.075743,-1.619976,0.004558,0.009964,-0.001795,0.0,0.0,0.0
65.98,9.670476,-1.10519,-1.593363,0.015477,0.014223,-0.005702,0.0,0.0,0.0
65.99,9.640361,-1.09062,-1.59996,0.00767,0.015989,-0.007565,0.0,0.0,0.0
66.0,9.652573,-1.038962,-1.626432,0.014713,0.022429,-0.00453,0.0,0.0,0.0
66.01,9.645899,-1.071251,-1.580484,0.015233,0.02901,-0.004043,0.0,0.0,0.0
66.02,9.666609,-1.083271,-1.528431,0.008082,0.027408,-0.004461,0.0,0.0,0.0
66.03,9.654661,-1.086025,-1.557652,0.005929,0.029255,-0.008574,0.0,0.0,0.0
66.04,9.593483,-1.017816,-1.500623,0.01876,0.025831,-0.006822,0.0,0.0,0.0
