time,accel_x,accel_y,accel_z,gyro_x,gyro_y,gyro_z,mag_x,mag_y,mag_z
57.58,9.643609,1.234271,-1.748012,-0.003487,-0.000844,0.014152,0.0,0.0,0.0
57.59,9.645057,0.995826,-1.756395,-0.015039,-0.00257,0.028449,0.0,0.0,0.0
57.6,9.655126,0.917414,-1.67451,-0.018052,0.004995,0.029395,0.0,0.0,0.0
57.61,9.725329,0.830174,-1.760934,0.010069,0.010471,0.022943,0.0,0.0,0.0
57.62,9.755332,0.741336,-1.966819,0.055825,0.026891,0.027197,0.0,0.0,0.0
57.63,9.690937,1.137785,-2.030061,0.074539,0.03784,0.021478,0.0,0.0,0.0
57.64,9.671947,1.33803,-1.843423,0.029736,0.045432,0.010079,0.0,0.0,0.0
57.65,9.773591,1.271882,-1.61868,0.001353,0.063567,0.008233,0.0,0.0,0.0
57.66,10.049602,1.280366,-1.459747,-0.057426,0.090617,0.00176,0.0,0.0,0.0
57.67,10.172767,0.969077,-1.526436,-0.035163,0.109535,0.001231,0.0,0.0,0.0
57.68,10.054302,1.072388,-1.362044,-0.02717,0.113548,-0.006794,0.0,0.0,0.0
57.69,9.938135,1.024662,-1.38984,-0.005045,0.125278,-0.023842,0.0,0.0,0.0
57.7,9.922072,1.526082,-1.197587,0.067522,0.139052,-0.061019,0.0,0.0,0.0
57.71,9.922961,2.173648,-1.101912,0.13893,0.160276,-0.121776,0.0,0.0,0.0
57.72,9.791189,3.409444,-0.863832,0.271261,0.204762,-0.21254,0.0,0.0,0.0
57.73,9.441559,3.95849,-0.912072,0.291581,0.257795,-0.33164,0.0,0.0,0.0
57.74,8.95266,4.213835,-0.985467,0.417493,0.280644,-0.439571,0.0,0.0,0.0
57.75,8.93413,3.981382,-1.143178,0.472903,0.300716,-0.5246,0.0,0.0,0.0
57.76,9.115344,3.542238,-1.359792,0.540168,0.3056,-0.584711,0.0,0.0,0.0
57.77,9.223321,3.175617,-1.339701,0.594739,0.298994,-0.63565,0.0,0.0,0.0
57.78,9.310284,2.382487,-1.809285,0.555909,0.266121,-0.678284,0.0,0.0,0.0
57.79,9.215663,2.305039,-1.81012,0.48855,0.240507,-0.701399,0.0,0.0,0.0
57.8,9.286053,2.210876,-1.817605,0.284153,0.230364,-0.710527,0.0,0.0,0.0
57.81,9.043516,1.799102,-1.750229,0.24417,0.24907,-0.69351,0.0,0.0,0.0
57.82,8.880392,1.784252,-1.468491,0.256521,0.189628,-0.684826,0.0,0.0,0.0
57.83,9.022646,1.454949,-1.506918,0.126638,0.138784,-0.658312,0.0,0.0,0.0
57.84,9.194535,0.791981,-1.35985,0.015243,0.117932,-0.611775,0.0,0.0,0.0
57.85,9.532256,0.238467,-1.297321,-0.002707,0.087569,-0.562924,0.0,0.0,0.0
57.86,9.860207,-0.196495,-1.413128,0.058827,0.069275,-0.507562,0.0,0.0,0.0
57.87,9.910083,0.441597,-1.308949,0.122043,0.041976,-0.48558,0.0,0.0,0.0
57.88,10.019056,0.870468,-1.459314,0.137931,0.021767,-0.473362,0.0,0.0,0.0
57.89,9.756424,1.28852,-1.319744,0.167364,0.030702,-0.468812,0.0,0.0,0.0
57.9,9.613494,1.831036,-1.258122,0.19201,0.021464,-0.491318,0.0,0.0,0.0
57.91,9.574194,2.101771,-1.340862,0.234872,0.039147,-0.507804,0.0,0.0,0.0
57.92,9.306064,2.825273,-1.333206,0.372688,0.059177,-0.54412,0.0,0.0,0.0
57.93,9.103721,3.446728,-1.335966,0.351792,0.068356,-0.596364,0.0,0.0,0.0
57.94,8.959498,3.500867,-1.469127,0.342462,0.07494,-0.642338,0.0,0.0,0.0
57.95,8.810802,3.376142,-1.428034,0.35223,0.085716,-0.676489,0.0,0.0,0.0
57.96,8.841229,3.197704,-1.50167,0.293245,0.070347,-0.701494,0.0,0.0,0.0
57.97,8.92847,2.787455,-1.641725,0.266024,0.079531,-0.713775,0.0,0.0,0.0
57.98,9.019065,2.491586,-1.787318,0.196396,0.06263,-0.732259,0.0,0.0,0.0
57.99,9.297718,1.924581,-1.801903,0.202221,0.066082,-0.71337,0.0,0.0,0.0
58.0,9.579629,1.200497,-2.109281,0.177374,0.061495,-0.679233,0.0,0.0,0.0
58.01,9.586594,0.725221,-2.052789,0.121903,0.060292,-0.643875,0.0,0.0,0.0
58.02,9.579777,0.676836,-2.086761,0.146224,0.043664,-0.599019,0.0,0.0,0.0
58.03,9.648309,0.211084,-1.986518,0.093802,0.050386,-0.539255,0.0,0.0,0.0
58.04,9.408525,0.121623,-1.804989,0.014848,0.040113,-0.494241,0.0,0.0,0.0
58.05,9.555899,-0.428651,-1.701897,-0.006866,0.037104,-0.405043,0.0,0.0,0.0
58.06,9.902137,-0.880728,-1.597073,-0.048358,0.042035,-0.319888,0.0,0.0,0.0
58.07,10.426806,-1.459062,-1.288965,-0.079322,0.058223,-0.216094,0.0,0.0,0.0
58.08,11.407904,-1.168088,-1.253883,0.040211,0.085553,-0.125281,0.0,0.0,0.0
58.09,11.252319,2.208244,-1.578574,0.225574,0.093859,-0.119645,0.0,0.0,0.0
58.1,9.982948,4.369116,-1.855186,0.083837,0.119279,-0.17443,0.0,0.0,0.0
58.11,8.378719,3.488102,-2.033339,-0.032935,0.159897,-0.189611,0.0,0.0,0.0
58.12,7.681809,2.236066,-1.872227,-0.09893,0.0918,-0.225656,0.0,0.0,0.0
58.13,8.962347,0.231288,-1.960375,-0.040689,0.143284,-0.229763,0.0,0.0,0.0
58.14,9.143827,0.002894,-1.388916,-0.144541,0.064283,-0.238698,0.0,0.0,0.0
58.15,10.350704,0.65745,-1.272522,-0.185169,0.064028,-0.254739,0.0,0.0,0.0
58.16,10.526161,2.139465,-1.41729,-0.179095,0.069458,-0.278915,0.0,0.0,0.0
58.17,9.678965,3.461231,-0.994098,-0.175482,0.112633,-0.306075,0.0,0.0,0.0
58.18,8.301512,3.116,-0.90564,-0.131746,0.153913,-0.316839,0.0,0.0,0.0
58.19,7.773853,1.369179,-1.647643,0.072957,0.120922,-0.318234,0.0,0.0,0.0
58.2,8.026767,0.47017,-2.399452,0.336729,0.069527,-0.304313,0.0,0.0,0.0
58.21,9.242017,1.99144,-2.558485,0.433083,0.017488,-0.315737,0.0,0.0,0.0
58.22,10.193598,3.343205,-1.804181,0.171302,0.051705,-0.324841,0.0,0.0,0.0
58.23,10.182089,3.74793,-0.706188,-0.198792,0.103019,-0.362459,0.0,0.0,0.0
58.24,10.067049,3.474809,-0.203592,-0.381532,0.120759,-0.387297,0.0,0.0,0.0
58.25,9.51429,3.898272,-0.242337,-0.258662,0.092124,-0.403844,0.0,0.0,0.0
58.26,9.107379,4.581502,-0.007333,-0.163535,0.054341,-0.414937,0.0,0.0,0.0
58.27,8.344838,3.299172,-0.227241,-0.057881,0.043246,-0.427056,0.0,0.0,0.0
58.28,8.803719,3.88572,-0.692689,0.059291,-0.042297,-0.41056,0.0,0.0,0.0
58.29,9.386106,4.117659,-1.0534,0.031894,-0.030116,-0.394369,0.0,0.0,0.0
58.3,9.368777,3.753861,-1.37682,0.02,0.004436,-0.376122,0.0,0.0,0.0
58.31,9.482683,3.661692,-1.238266,0.011014,0.031305,-0.366995,0.0,0.0,0.0
58.32,9.55867,3.518984,-1.244926,-0.010289,0.063528,-0.357621,0.0,0.0,0.0
58.33,9.407128,3.319562,-1.264867,-0.042284,0.075724,-0.363216,0.0,0.0,0.0
58.34,9.123345,3.259706,-1.369887,-0.012146,0.073194,-0.372539,0.0,0.0,0.0
58.35,8.984722,3.538822,-1.2382,0.033956,0.080671,-0.382349,0.0,0.0,0.0
58.36,9.135765,3.769104,-1.213087,0.001279,0.07704,-0.386776,0.0,0.0,0.0
58.37,9.191089,3.7693,-1.370098,-0.010884,0.105407,-0.387103,0.0,0.0,0.0
58.38,9.330546,3.867701,-1.177737,-0.061386,0.130412,-0.376934,0.0,0.0,0.0
58.39,8.997113,3.804053,-1.167781,-0.091606,0.147222,-0.371637,0.0,0.0,0.0
58.4,9.107265,3.871862,-1.193275,-0.096287,0.13828,-0.347589,0.0,0.0,0.0
58.41,8.966572,3.766463,-1.37019,-0.090467,0.133692,-0.324755,0.0,0.0,0.0
58.42,8.957787,4.149149,-1.165964,-0.103224,0.116847,-0.312239,0.0,0.0,0.0
58.43,8.766388,4.708114,-0.834757,-0.14059,0.128366,-0.29539,0.0,0.0,0.0
58.44,8.72615,4.5839,-0.653896,-0.192426,0.128707,-0.263708,0.0,0.0,0.0
58.45,8.687285,3.802969,-0.823624,-0.154504,0.128367,-0.233613,0.0,0.0,0.0
58.46,8.930458,3.995816,-1.030085,-0.05269,0.10061,-0.206327,0.0,0.0,0.0
58.47,8.907644,4.128974,-0.902613,-0.06742,0.107782,-0.192285,0.0,0.0,0.0
58.48,8.738215,3.986966,-0.982466,-0.076761,0.093956,-0.175585,0.0,0.0,0.0
58.49,9.001545,3.880493,-1.056148,-0.04219,0.068954,-0.157905,0.0,0.0,0.0
58.5,8.949869,4.152919,-1.110251,-0.026915,0.063466,-0.145057,0.0,0.0,0.0
58.51,8.817352,4.487224,-0.769018,-0.083752,0.074768,-0.136116,0.0,0.0,0.0
58.52,8.608417,4.144023,-0.942505,-0.074715,0.08086,-0.121159,0.0,0.0,0.0
58.53,8.796551,4.172734,-1.061967,-0.01877,0.076766,-0.100639,0.0,0.0,0.0
58.54,8.892519,4.123269,-1.151471,-0.028885,0.081486,-0.084868,0.0,0.0,0.0
58.55,8.875229,4.234587,-1.102146,-0.066525,0.090388,-0.07814,0.0,0.0,0.0
58.56,8.854463,4.14282,-1.124227,-0.094719,0.099334,-0.067587,0.0,0.0,0.0
58.57,8.927048,4.005885,-1.190328,-0.080329,0.10637,-0.051988,0.0,0.0,0.0
58.58,9.092193,3.999391,-1.130399,-0.043543,0.118044,-0.037489,0.0,0.0,0.0
58.59,8.996121,4.276485,-1.267643,-0.031474,0.140512,-0.011608,0.0,0.0,0.0
58.6,9.036327,4.299716,-1.354564,-0.036029,0.177566,0.000682,0.0,0.0,0.0
58.61,9.021248,4.206821,-1.270696,-0.00058,0.197969,0.031384,0.0,0.0,0.0
58.62,9.116612,4.320479,-1.324446,-0.019489,0.235994,0.046498,0.0,0.0,0.0
58.63,8.999411,4.163084,-1.176792,-0.047993,0.262867,0.068429,0.0,0.0,0.0
58.64,9.339565,3.675931,-1.209304,-0.051926,0.257198,0.080974,0.0,0.0,0.0
58.65,10.037054,4.086043,-1.277384,-0.020609,0.291039,0.087384,0.0,0.0,0.0
58.66,9.926868,4.106548,-1.344633,-0.15965,0.375747,0.090606,0.0,0.0,0.0
58.67,9.860112,3.785683,-1.52508,-0.258266,0.425004,0.080489,0.0,0.0,0.0
58.68,10.539189,3.650141,-1.944612,-0.362543,0.478608,0.060372,0.0,0.0,0.0
58.69,11.008204,3.942945,-1.765187,-0.576302,0.571072,0.036813,0.0,0.0,0.0
58.7,11.561973,3.640821,-1.897906,-0.978123,0.68649,-0.011554,0.0,0.0,0.0
58.71,12.337605,2.873897,-2.948257,-1.323896,0.76111,-0.075428,0.0,0.0,0.0
58.72,13.36168,3.317264,-3.297685,-1.422052,0.79394,-0.162412,0.0,0.0,0.0
58.73,15.237193,3.567487,-2.260797,-1.572994,0.834157,-0.272928,0.0,0.0,0.0
58.74,19.650627,3.440259,0.379505,-1.669727,0.915107,-0.355947,0.0,0.0,0.0
58.75,22.039481,0.132211,-1.236141,-1.556593,1.113064,-0.414239,0.0,0.0,0.0
58.76,22.609938,0.369373,-2.051798,-1.109207,1.13743,-0.568251,0.0,0.0,0.0
58.77,21.279123,-0.910907,-4.530884,-0.661425,1.259159,-0.641444,0.0,0.0,0.0
58.78,17.611377,0.021085,-6.408766,0.400908,1.058408,-0.68632,0.0,0.0,0.0
58.79,15.539509,2.120384,-3.908827,-0.024573,0.800794,-0.892671,0.0,0.0,0.0
58.8,12.528367,2.474113,-6.757392,-0.033529,0.625376,-1.086023,0.0,0.0,0.0
58.81,10.720539,1.912688,-5.363002,-0.209601,0.526477,-1.253792,0.0,0.0,0.0
58.82,9.096889,1.509906,-5.442397,-0.008916,0.426522,-1.439455,0.0,0.0,0.0
58.83,8.113152,1.121185,-3.47044,-0.222528,0.2869,-1.5021,0.0,0.0,0.0
58.84,8.055625,-3.289361,-2.733869,-0.414113,0.267993,-1.437945,0.0,0.0,0.0
58.85,7.421452,-5.320121,-2.343224,-0.096194,0.27885,-1.246036,0.0,0.0,0.0
58.86,7.675927,-9.039773,-4.311784,0.265359,0.092016,-0.915517,0.0,0.0,0.0
58.87,7.365286,-11.410717,-4.693384,0.80508,-0.028174,-0.486831,0.0,0.0,0.0
58.88,6.412686,-11.396478,-4.015896,1.230002,-0.200921,-0.164309,0.0,0.0,0.0
58.89,5.53041,-10.594015,-3.633672,1.611263,-0.444843,0.154782,0.0,0.0,0.0
58.9,5.033935,-9.789402,-3.422653,1.683046,-0.670192,0.517801,0.0,0.0,0.0
58.91,5.205085,-9.611134,-3.138591,1.603672,-0.789058,0.903692,0.0,0.0,0.0
58.92,5.310774,-9.373841,-2.888535,1.494549,-0.809957,1.261501,0.0,0.0,0.0
58.93,5.625034,-9.106533,-2.297948,1.411045,-0.877969,1.599653,0.0,0.0,0.0
58.94,6.071494,-8.483385,-2.085141,1.410138,-0.928211,1.939082,0.0,0.0,0.0
58.95,6.378369,-7.258239,-1.765151,1.384407,-0.918975,2.279812,0.0,0.0,0.0
58.96,6.592476,-6.287144,-1.581921,1.307402,-0.981891,2.610984,0.0,0.0,0.0
58.97,7.286098,-5.320235,-1.231439,1.166249,-1.001418,2.965786,0.0,0.0,0.0
58.98,8.044693,-4.347581,-0.728863,0.96597,-1.000845,3.317634,0.0,0.0,0.0
58.99,8.865648,-3.484014,-0.250528,0.739339,-0.974967,3.633503,0.0,0.0,0.0
59.0,9.8275,-2.543483,0.172785,0.542449,-0.928697,3.911576,0.0,0.0,0.0
59.01,10.86233,-1.760432,0.31533,0.410654,-0.875796,4.148491,0.0,0.0,0.0
59.02,12.003434,-0.949165,0.3197,0.375204,-0.828838,4.334136,0.0,0.0,0.0
59.03,13.25295,0.015582,0.151104,0.394369,-0.774957,4.445462,0.0,0.0,0.0
59.04,14.103867,1.075905,-0.202312,0.43342,-0.701323,4.471092,0.0,0.0,0.0
59.05,14.377242,1.872348,-0.600245,0.547113,-0.675104,4.42464,0.0,0.0,0.0
59.06,14.578808,2.345604,-1.021825,0.744333,-0.680994,4.322856,0.0,0.0,0.0
59.07,14.762145,2.757204,-1.386478,1.023217,-0.715662,4.19219,0.0,0.0,0.0
59.08,14.630805,3.384103,-1.715966,1.335608,-0.791182,4.04167,0.0,0.0,0.0
59.09,14.855979,4.488926,-1.933072,1.638375,-0.959207,3.875035,0.0,0.0,0.0
59.1,15.576061,6.19486,-2.009701,2.005696,-1.007634,3.660118,0.0,0.0,0.0
59.11,15.653895,8.013522,-1.343055,2.078206,-0.958011,3.39357,0.0,0.0,0.0
59.12,16.068744,10.299366,-0.453482,2.077674,-0.82094,3.076772,0.0,0.0,0.0
59.13,15.650916,12.969129,0.144729,1.859965,-0.5776,2.590415,0.0,0.0,0.0
59.14,13.564468,15.586904,0.079332,1.58967,-0.367501,1.893787,0.0,0.0,0.0
59.15,11.740611,17.315007,-0.026204,1.257126,-0.229961,1.07002,0.0,0.0,0.0
59.16,10.914163,17.945219,0.086258,1.046453,-0.128814,0.250897,0.0,0.0,0.0
59.17,10.568514,17.865776,0.594967,0.815757,-0.0191,-0.504654,0.0,0.0,0.0
59.18,10.248213,16.656365,0.870743,0.665267,0.058388,-1.168079,0.0,0.0,0.0
59.19,10.649699,15.651521,1.065499,0.544268,0.140832,-1.722378,0.0,0.0,0.0
59.2,10.495371,14.860433,0.968161,0.357655,0.235174,-2.190523,0.0,0.0,0.0
59.21,10.060247,13.691055,0.645191,0.053051,0.297657,-2.557527,0.0,0.0,0.0
59.22,9.676735,11.733422,-0.061404,-0.146192,0.311854,-2.824891,0.0,0.0,0.0
59.23,16.708253,-8.19503,-1.734148,-1.507855,0.425533,-2.3306,0.0,0.0,0.0
59.24,14.720608,-30.310654,-4.145269,-0.515262,0.958204,-1.319764,0.0,0.0,0.0
59.25,11.645177,-5.564757,-0.191914,1.682498,0.129004,-1.807123,0.0,0.0,0.0
59.26,17.822018,11.707943,-1.179666,1.659846,-0.188771,-2.698783,0.0,0.0,0.0
59.27,18.973137,17.240514,-0.818621,0.91723,-0.008027,-2.953752,0.0,0.0,0.0
59.28,13.903983,7.119643,0.195729,-0.514659,0.109246,-2.809397,0.0,0.0,0.0
59.29,8.85752,-0.768522,2.249593,-0.732667,0.012389,-2.528028,0.0,0.0,0.0
59.3,4.482095,-0.481045,0.866258,-0.382646,0.08878,-2.165288,0.0,0.0,0.0
59.31,3.07398,4.886777,-2.573191,0.283423,-0.435723,-1.958866,0.0,0.0,0.0
59.32,6.95387,13.236382,-5.185269,1.337318,-0.857906,-2.026539,0.0,0.0,0.0
59.33,16.699007,6.983304,-0.489039,-0.98162,-0.451154,-1.841987,0.0,0.0,0.0
59.34,11.068091,1.638202,1.795918,-0.168446,0.266599,-1.50837,0.0,0.0,0.0
59.35,11.320259,5.021195,0.589306,-0.182404,-0.628526,-1.637087,0.0,0.0,0.0
59.36,12.102904,2.246972,-1.616845,0.263146,-0.206376,-1.485529,0.0,0.0,0.0
59.37,8.318689,3.313083,-1.255171,0.233188,-0.243522,-1.327755,0.0,0.0,0.0
59.38,9.280937,1.662194,-1.311033,0.391864,-0.321172,-1.21998,0.0,0.0,0.0
59.39,9.669311,3.804082,-1.834284,0.407482,-0.237402,-1.067623,0.0,0.0,0.0
59.4,9.661912,3.4284,-1.507951,0.202847,-0.213164,-0.952881,0.0,0.0,0.0
59.41,9.588542,2.990386,-1.777737,0.169528,-0.207489,-0.825645,0.0,0.0,0.0
59.42,9.654747,2.310383,-1.930388,0.164523,-0.193038,-0.700079,0.0,0.0,0.0
59.43,9.619921,2.83387,-2.170363,0.221198,-0.184579,-0.60855,0.0,0.0,0.0
59.44,9.524633,3.026406,-2.352169,0.155745,-0.158854,-0.537918,0.0,0.0,0.0
59.45,9.197376,3.310042,-2.259615,0.10135,-0.152812,-0.465622,0.0,0.0,0.0
59.46,9.088494,3.074362,-2.042171,-0.021479,-0.142561,-0.374291,0.0,0.0,0.0
59.47,8.928911,3.09104,-2.353038,-0.065654,-0.13389,-0.290504,0.0,0.0,0.0
59.48,8.91554,3.384876,-2.052228,-0.1812,-0.12982,-0.209216,0.0,0.0,0.0
59.49,9.16099,3.023713,-1.888147,-0.227036,-0.111667,-0.12805,0.0,0.0,0.0
59.5,9.162719,2.738456,-1.895157,-0.283867,-0.085144,-0.064137,0.0,0.0,0.0
59.51,9.2812,2.354222,-1.731577,-0.275572,-0.089784,-0.029126,0.0,0.0,0.0
59.52,9.490982,2.217038,-1.371219,-0.254726,-0.06771,-0.014472,0.0,0.0,0.0
59.53,9.47463,1.467035,-1.486148,-0.204631,-0.064724,-0.029236,0.0,0.0,0.0
59.54,9.608722,1.253862,-1.731237,-0.07286,-0.06802,-0.059176,0.0,0.0,0.0
59.55,9.673276,1.507572,-1.883007,-0.027348,-0.069151,-0.100239,0.0,0.0,0.0
59.56,9.606798,1.637899,-2.145012,-0.065544,-0.067421,-0.143517,0.0,0.0,0.0
59.57,9.384057,1.615756,-2.333051,-0.111405,-0.068065,-0.192485,0.0,0.0,0.0
59.58,9.197962,1.873894,-2.365441,-0.149932,-0.072292,-0.233536,0.0,0.0,0.0
59.59,9.128833,1.815039,-2.345934,-0.220912,-0.067952,-0.272872,0.0,0.0,0.0
59.6,9.059454,1.498491,-2.064693,-0.253719,-0.067413,-0.329587,0.0,0.0,0.0
59.61,8.98937,1.257133,-1.994221,-0.188095,-0.067861,-0.393893,0.0,0.0,0.0
59.62,9.016308,1.283257,-2.127403,-0.124748,-0.08235,-0.461416,0.0,0.0,0.0
59.63,9.016666,1.046836,-2.372137,-0.07883,-0.095686,-0.53444,0.0,0.0,0.0
59.64,9.089036,0.781388,-2.402592,-0.012508,-0.133791,-0.61903,0.0,0.0,0.0
59.65,9.221967,0.891395,-2.421086,0.04524,-0.144402,-0.697159,0.0,0.0,0.0
59.66,9.286908,0.903964,-2.715333,0.103335,-0.146473,-0.777068,0.0,0.0,0.0
59.67,9.21731,0.971121,-2.744973,0.125624,-0.158209,-0.861263,0.0,0.0,0.0
59.68,8.969214,1.016963,-2.96684,0.139878,-0.168035,-0.947197,0.0,0.0,0.0
59.69,8.704286,1.663005,-2.999189,0.171485,-0.175865,-1.027171,0.0,0.0,0.0
59.7,8.736866,1.646369,-2.934728,0.080799,-0.165201,-1.102292,0.0,0.0,0.0
59.71,8.908726,1.423029,-3.184807,0.070135,-0.156892,-1.17248,0.0,0.0,0.0
59.72,9.528755,2.519477,-2.762556,0.146171,-0.149963,-1.247967,0.0,0.0,0.0
59.73,10.470186,4.348827,-1.558425,0.04827,-0.061095,-1.314551,0.0,0.0,0.0
59.74,11.298331,3.924952,-0.70851,-0.362766,0.02827,-1.373985,0.0,0.0,0.0
59.75,11.717356,3.11271,-1.207944,-0.568633,0.100593,-1.42018,0.0,0.0,0.0
59.76,11.859341,3.418822,-0.594091,-0.790067,0.178847,-1.50037,0.0,0.0,0.0
59.77,11.443874,2.887833,-0.052719,-0.972779,0.235002,-1.587251,0.0,0.0,0.0
59.78,10.96589,2.155532,0.220644,-0.986566,0.241569,-1.683542,0.0,0.0,0.0
59.79,11.901539,1.705372,-0.558843,-0.668773,0.308324,-1.770115,0.0,0.0,0.0
59.8,12.212924,2.464034,-3.058104,-0.427057,0.428564,-1.853435,0.0,0.0,0.0
59.81,12.445149,3.017788,-4.43319,-0.336585,0.480648,-1.938583,0.0,0.0,0.0
59.82,13.190232,4.033794,-4.105021,-0.494522,0.504033,-2.047671,0.0,0.0,0.0
59.83,14.219351,4.373582,-3.543289,-0.812291,0.578989,-2.18738,0.0,0.0,0.0
59.84,15.080705,2.986721,-2.844097,-1.18683,0.623422,-2.322405,0.0,0.0,0.0
59.85,17.561943,2.644288,-1.867964,-1.404925,0.641131,-2.468716,0.0,0.0,0.0
59.86,19.931848,1.000493,-1.86994,-1.615612,0.767832,-2.619508,0.0,0.0,0.0
59.87,21.524873,-0.890431,-2.087989,-1.652288,0.877182,-2.787315,0.0,0.0,0.0
59.88,21.506829,-2.499301,-2.126418,-1.523058,0.915673,-2.96533,0.0,0.0,0.0
59.89,21.772283,-2.876176,-1.287582,-1.347919,0.849708,-3.123684,0.0,0.0,0.0
59.9,22.180995,-2.484407,-0.75338,-1.157724,0.770227,-3.261061,0.0,0.0,0.0
59.91,22.492129,-0.595151,1.499846,-0.814412,0.733045,-3.463632,0.0,0.0,0.0
59.92,21.474912,0.038986,-0.427326,-0.744373,0.752214,-3.641493,0.0,0.0,0.0
59.93,21.500663,-0.988403,0.427166,-0.475417,0.727605,-3.771328,0.0,0.0,0.0
59.94,17.865506,0.642359,-1.764046,-0.043447,0.886767,-3.798882,0.0,0.0,0.0
59.95,17.125513,-0.281647,-2.141425,0.139715,0.846396,-3.649852,0.0,0.0,0.0
59.96,14.12858,0.743996,-1.280256,0.294881,1.009018,-3.366286,0.0,0.0,0.0
59.97,12.479982,0.752978,-1.677353,-0.099216,0.918198,-3.071594,0.0,0.0,0.0
59.98,11.775615,-1.015188,-0.613446,-0.517705,0.942748,-2.673997,0.0,0.0,0.0
59.99,10.053689,0.634818,-1.565517,-0.550548,0.899984,-2.326799,0.0,0.0,0.0
60.0,6.723276,0.279557,-2.482195,-0.583419,0.752964,-1.875377,0.0,0.0,0.0
60.01,7.154009,1.542078,-1.317076,-0.759717,0.350792,-1.631679,0.0,0.0,0.0
60.02,7.319743,-2.562767,-3.168416,-0.123368,0.392573,-1.112143,0.0,0.0,0.0
60.03,5.880734,-3.108743,-1.884087,0.367108,0.324466,-0.443154,0.0,0.0,0.0
60.04,4.511666,-2.795136,-1.527022,0.072128,0.24515,0.029974,0.0,0.0,0.0
60.05,3.645901,-2.394652,-1.765277,-0.067782,0.171186,0.456339,0.0,0.0,0.0
60.06,3.011748,-1.940131,-1.922985,-0.199717,0.080993,0.900523,0.0,0.0,0.0
60.07,2.716513,-1.65461,-2.21138,-0.281411,-0.046084,1.316211,0.0,0.0,0.0
60.08,2.573612,-1.422049,-2.34518,-0.19466,-0.156559,1.698074,0.0,0.0,0.0
60.09,2.576888,-1.097576,-2.223923,-0.031584,-0.246555,2.053286,0.0,0.0,0.0
60.1,2.809318,-0.857332,-2.310535,0.137258,-0.324718,2.402923,0.0,0.0,0.0
60.11,2.896512,-0.713763,-2.481931,0.296912,-0.368775,2.747309,0.0,0.0,0.0
60.12,3.073447,-0.495946,-2.529083,0.439925,-0.432928,3.083208,0.0,0.0,0.0
60.13,3.539245,-0.081943,-2.374282,0.497854,-0.475232,3.397706,0.0,0.0,0.0
60.14,4.184541,0.135448,-2.343445,0.492686,-0.496758,3.693058,0.0,0.0,0.0
60.15,4.849043,0.293969,-2.298452,0.499497,-0.522503,3.933675,0.0,0.0,0.0
60.16,5.425852,0.336142,-2.485751,0.536577,-0.546922,4.139816,0.0,0.0,0.0
60.17,6.002351,0.589581,-2.423668,0.561705,-0.599621,4.335761,0.0,0.0,0.0
60.18,6.625354,1.010345,-2.384909,0.581566,-0.650885,4.531013,0.0,0.0,0.0
60.19,7.126681,1.497784,-2.370476,0.526626,-0.684243,4.722748,0.0,0.0,0.0
60.2,7.790599,1.959072,-2.544145,0.421707,-0.726802,4.911584,0.0,0.0,0.0
60.21,8.350674,2.076008,-2.522232,0.256042,-0.803152,5.071264,0.0,0.0,0.0
60.22,8.988087,1.905194,-2.481306,0.184846,-0.936006,5.212894,0.0,0.0,0.0
60.23,9.820184,2.048447,-2.394313,0.185667,-1.078167,5.333386,0.0,0.0,0.0
60.24,10.634525,2.483627,-2.112168,0.137252,-1.205522,5.440399,0.0,0.0,0.0
60.25,11.580385,2.97326,-2.118487,0.066279,-1.314782,5.528842,0.0,0.0,0.0
60.26,12.520948,3.584423,-1.993791,-0.041623,-1.456006,5.596217,0.0,0.0,0.0
60.27,13.939657,4.307365,-2.006464,-0.132351,-1.608868,5.697277,0.0,0.0,0.0
60.28,15.462921,5.583955,-2.369064,-0.088358,-1.679817,5.768309,0.0,0.0,0.0
60.29,16.927184,6.794151,-1.452208,-0.474323,-1.621705,5.784486,0.0,0.0,0.0
60.3,17.430886,6.405342,-0.921391,-1.02465,-1.605008,5.74565,0.0,0.0,0.0
60.31,18.827994,7.646607,-0.524421,-1.047982,-1.743059,5.662577,0.0,0.0,0.0
60.32,21.350596,10.545776,-0.380109,-1.08467,-1.653412,5.53553,0.0,0.0,0.0
60.33,21.068694,13.772648,1.068532,-1.738024,-1.435574,5.350549,0.0,0.0,0.0
60.34,19.578284,14.776183,1.185409,-3.027529,-1.27705,5.070269,0.0,0.0,0.0
60.35,15.743225,13.424048,-0.725297,-3.919399,-1.177073,4.666125,0.0,0.0,0.0
60.36,12.125421,13.784922,-3.428644,-3.693721,-1.530932,4.190848,0.0,0.0,0.0
60.37,12.8979,19.01184,-2.204111,-3.712331,-2.031097,3.572533,0.0,0.0,0.0
60.38,14.141373,23.711325,2.020491,-4.52431,-2.068596,2.715973,0.0,0.0,0.0
60.39,13.552893,21.578711,7.373192,-5.177774,-1.667721,1.634861,0.0,0.0,0.0
60.4,14.733166,15.589705,9.837808,-4.660659,-0.955512,0.380865,0.0,0.0,0.0
60.41,13.876788,12.67205,10.102843,-3.508097,-0.102244,-0.763286,0.0,0.0,0.0
60.42,11.77258,14.107551,8.756433,-2.585258,0.368216,-1.645185,0.0,0.0,0.0
60.43,11.728728,10.576741,2.914648,-1.979168,0.367266,-2.178585,0.0,0.0,0.0
60.44,12.344774,6.476984,3.1369,-0.897338,0.464941,-2.437562,0.0,0.0,0.0
60.45,10.347644,-10.455438,-10.886542,0.075752,0.386136,-2.325591,0.0,0.0,0.0
60.46,19.861062,-32.000293,-3.573612,0.515124,0.299165,-1.439081,0.0,0.0,0.0
60.47,30.739211,-4.766155,5.509711,4.002279,1.087528,-2.330577,0.0,0.0,0.0
60.48,32.701135,21.868798,11.014312,3.091772,1.424978,-3.632177,0.0,0.0,0.0
60.49,13.94578,13.761139,4.226478,1.203644,1.381191,-3.536066,0.0,0.0,0.0
60.5,6.49645,-3.984859,-3.903213,0.988822,0.640867,-3.415217,0.0,0.0,0.0
60.51,0.024459,-1.215649,-7.07526,2.16862,0.376354,-3.0764,0.0,0.0,0.0
60.52,5.124647,9.639589,-3.908912,1.683125,-0.26661,-2.998624,0.0,0.0,0.0
60.53,8.264604,10.230885,-3.129559,0.404223,0.775069,-2.620886,0.0,0.0,0.0
60.54,7.477809,9.966401,-1.625582,-0.072249,0.242197,-2.48227,0.0,0.0,0.0
60.55,13.448183,5.628179,1.30771,-1.053226,0.658124,-2.252756,0.0,0.0,0.0
60.56,10.880754,2.439328,-0.189091,-0.059299,0.586792,-2.032307,0.0,0.0,0.0
60.57,13.120712,2.97629,-1.966394,-0.106364,0.545775,-2.00844,0.0,0.0,0.0
60.58,9.391278,2.273646,-2.590396,0.107557,0.652244,-1.962079,0.0,0.0,0.0
60.59,8.458386,3.900156,-1.434175,0.114459,0.489885,-1.912155,0.0,0.0,0.0
60.6,7.46491,3.611711,-1.972545,0.121186,0.417553,-1.713135,0.0,0.0,0.0
60.61,7.729769,3.385688,-1.424562,0.205623,0.282366,-1.454632,0.0,0.0,0.0
60.62,7.990162,4.115448,-1.99387,0.318613,0.145513,-1.223346,0.0,0.0,0.0
60.63,8.50018,5.369252,-2.130765,0.132154,0.05224,-1.04038,0.0,0.0,0.0
60.64,8.067555,4.976897,-2.040794,-0.100633,-0.018033,-0.881495,0.0,0.0,0.0
60.65,8.404183,4.328304,-1.682626,-0.234168,-0.090557,-0.742619,0.0,0.0,0.0
60.66,9.272966,3.393468,-2.255082,-0.238052,-0.131802,-0.625512,0.0,0.0,0.0
60.67,10.030263,3.174024,-2.701955,-0.168412,-0.156545,-0.526236,0.0,0.0,0.0
60.68,10.187934,2.984662,-3.909495,-0.223284,-0.188106,-0.435974,0.0,0.0,0.0
60.69,10.256275,3.031524,-3.348055,-0.171483,-0.20689,-0.387742,0.0,0.0,0.0
60.7,10.256368,3.539521,-2.373415,-0.320382,-0.209863,-0.348084,0.0,0.0,0.0
60.71,9.514956,3.007481,-2.444193,-0.361847,-0.178086,-0.30551,0.0,0.0,0.0
60.72,8.987893,3.135137,-2.797053,-0.390786,-0.187567,-0.26554,0.0,0.0,0.0
60.73,8.585096,3.137159,-3.272559,-0.378024,-0.174498,-0.195892,0.0,0.0,0.0
60.74,8.520782,3.167652,-3.707643,-0.412968,-0.185554,-0.14165,0.0,0.0,0.0
60.75,8.525157,3.200096,-3.635256,-0.453897,-0.208675,-0.106355,0.0,0.0,0.0
60.76,8.600985,3.263419,-3.206784,-0.538278,-0.200715,-0.070477,0.0,0.0,0.0
60.77,8.422326,2.954395,-2.814829,-0.58993,-0.190771,-0.061646,0.0,0.0,0.0
60.78,8.417537,2.715046,-2.607615,-0.588922,-0.177711,-0.059442,0.0,0.0,0.0
60.79,8.396284,2.551995,-2.402805,-0.520494,-0.144344,-0.075758,0.0,0.0,0.0
60.8,8.321762,2.283057,-2.552651,-0.442999,-0.092972,-0.099787,0.0,0.0,0.0
60.81,7.974143,2.218422,-3.325974,-0.308356,-0.054635,-0.146754,0.0,0.0,0.0
60.82,7.954087,2.134601,-3.884773,-0.230208,-0.032597,-0.196163,0.0,0.0,0.0
60.83,8.374104,2.409965,-3.906384,-0.175964,-0.013103,-0.230436,0.0,0.0,0.0
60.84,8.55288,2.781204,-3.482879,-0.193887,-0.003392,-0.283157,0.0,0.0,0.0
60.85,8.610759,2.908042,-2.965402,-0.223625,0.006696,-0.326198,0.0,0.0,0.0
60.86,8.464559,2.844406,-2.443076,-0.221065,-0.00216,-0.375191,0.0,0.0,0.0
60.87,8.234344,2.978419,-2.244803,-0.216833,-0.041433,-0.42612,0.0,0.0,0.0
60.88,7.935844,2.842516,-2.175399,-0.262044,-0.100518,-0.487095,0.0,0.0,0.0
60.89,7.699005,2.458242,-2.392281,-0.311042,-0.183027,-0.55718,0.0,0.0,0.0
60.9,7.593043,2.902972,-2.809545,-0.322214,-0.326898,-0.633712,0.0,0.0,0.0
60.91,7.720728,3.083735,-2.835325,-0.461005,-0.457222,-0.695471,0.0,0.0,0.0
60.92,8.105812,3.352179,-2.797205,-0.519282,-0.60471,-0.735927,0.0,0.0,0.0
60.93,8.715859,3.834254,-2.375235,-0.64969,-0.695938,-0.773724,0.0,0.0,0.0
60.94,8.693518,3.597299,-2.12434,-0.744908,-0.730042,-0.817879,0.0,0.0,0.0
60.95,9.4059,3.15037,-2.60788,-0.752272,-0.747165,-0.850391,0.0,0.0,0.0
60.96,10.346517,2.472245,-3.651072,-0.693759,-0.679731,-0.876861,0.0,0.0,0.0
60.97,11.284265,2.518658,-4.87556,-0.508554,-0.622514,-0.920275,0.0,0.0,0.0
60.98,12.041021,3.018452,-5.42397,-0.487691,-0.57673,-0.992603,0.0,0.0,0.0
60.99,11.985262,3.465178,-5.309128,-0.600835,-0.561639,-1.099785,0.0,0.0,0.0
61.0,10.684468,3.789975,-4.952041,-0.839277,-0.567683,-1.218389,0.0,0.0,0.0
61.01,9.529736,3.994744,-4.457853,-1.101374,-0.676701,-1.313947,0.0,0.0,0.0
61.02,9.305069,3.846195,-4.680426,-1.231102,-0.826483,-1.369792,0.0,0.0,0.0
61.03,9.49853,4.023684,-4.794097,-1.491859,-1.002583,-1.405796,0.0,0.0,0.0
61.04,9.469135,4.424287,-5.474264,-1.701114,-1.296814,-1.486433,0.0,0.0,0.0
61.05,11.532415,5.090232,-5.461496,-2.003366,-1.546189,-1.516427,0.0,0.0,0.0
61.06,13.176589,5.117716,-5.694821,-2.384521,-1.812146,-1.543611,0.0,0.0,0.0
61.07,15.0444,5.385981,-6.498126,-2.833878,-2.08872,-1.608855,0.0,0.0,0.0
61.08,16.713771,6.251292,-7.046128,-3.338625,-2.460668,-1.66091,0.0,0.0,0.0
61.09,21.25242,6.333398,-8.280965,-4.000498,-2.814785,-1.596715,0.0,0.0,0.0
61.1,24.276546,6.505443,-7.581647,-4.597073,-2.865301,-1.623063,0.0,0.0,0.0
61.11,19.748702,3.433488,-8.717116,-5.30705,-2.889744,-1.65549,0.0,0.0,0.0
61.12,12.912541,1.707825,-8.843318,-5.253004,-3.156162,-1.596537,0.0,0.0,0.0
61.13,9.807615,2.751317,-8.649514,-5.281389,-3.594875,-1.537214,0.0,0.0,0.0
61.14,11.36763,4.494654,-5.697187,-5.365525,-3.807276,-1.429733,0.0,0.0,0.0
61.15,10.298111,7.837059,-3.056106,-5.668835,-3.826665,-1.324603,0.0,0.0,0.0
61.16,8.723601,7.694354,-3.270163,-6.150394,-3.971058,-1.217129,0.0,0.0,0.0
61.17,8.092199,3.087982,-3.631801,-6.306094,-4.156069,-0.975507,0.0,0.0,0.0
61.18,7.074345,-0.029003,-1.788298,-6.553171,-4.248323,-0.749246,0.0,0.0,0.0
61.19,6.023719,-0.790712,1.15235,-6.300952,-4.364645,-0.619933,0.0,0.0,0.0
61.2,7.785841,-5.008092,3.521756,-6.279636,-4.214497,-0.459273,0.0,0.0,0.0
61.21,6.503996,-7.769728,5.228262,-4.776061,-4.01536,-0.16243,0.0,0.0,0.0
61.22,4.777237,-6.89068,5.479186,-3.411377,-4.059765,0.128783,0.0,0.0,0.0
61.23,3.954898,-5.600181,4.807863,-2.315273,-4.188778,0.495491,0.0,0.0,0.0
61.24,4.357653,-4.170721,4.178651,-1.6038,-4.255869,0.949524,0.0,0.0,0.0
61.25,4.817057,-2.701792,4.335719,-1.494877,-4.344459,1.3942,0.0,0.0,0.0
61.26,5.788785,-1.095017,4.159051,-1.715142,-4.477658,1.78018,0.0,0.0,0.0
61.27,6.898013,0.037514,4.231492,-2.201488,-4.582826,2.116077,0.0,0.0,0.0
61.28,7.864055,0.453822,4.542223,-2.799594,-4.681955,2.438756,0.0,0.0,0.0
61.29,8.74694,-0.494438,5.248755,-3.388597,-4.73717,2.748214,0.0,0.0,0.0
61.3,10.004155,-1.879061,6.151613,-3.86271,-4.742493,3.023648,0.0,0.0,0.0
61.31,11.297356,-3.059606,6.811821,-4.088353,-4.659156,3.253479,0.0,0.0,0.0
61.32,12.471422,-3.680884,7.856044,-4.192422,-4.562568,3.465379,0.0,0.0,0.0
61.33,13.703975,-3.88145,8.662849,-4.148207,-4.409125,3.670784,0.0,0.0,0.0
61.34,14.412695,-3.675454,8.773615,-3.98381,-4.217386,3.848415,0.0,0.0,0.0
61.35,14.351482,-3.315122,8.744793,-3.794425,-4.049744,4.013555,0.0,0.0,0.0
61.36,14.14132,-2.602644,8.389221,-3.618095,-3.922278,4.180328,0.0,0.0,0.0
61.37,14.095288,-1.939865,7.802512,-3.485776,-3.789382,4.358429,0.0,0.0,0.0
61.38,13.979612,-1.640024,7.430289,-3.433387,-3.64057,4.536589,0.0,0.0,0.0
61.39,14.001752,-1.347837,6.640116,-3.393972,-3.476042,4.688669,0.0,0.0,0.0
61.4,14.085595,-0.911856,6.771539,-3.486848,-3.351863,4.798509,0.0,0.0,0.0
61.41,14.577934,-0.549316,7.38557,-3.633333,-3.226345,4.860704,0.0,0.0,0.0
61.42,15.03941,-0.116995,9.326176,-3.824096,-3.046922,4.871065,0.0,0.0,0.0
61.43,15.531383,-0.915339,10.093508,-3.956824,-2.817135,4.858571,0.0,0.0,0.0
61.44,16.007646,-1.708851,10.660688,-3.731214,-2.510573,4.893586,0.0,0.0,0.0
61.45,16.151847,-1.907353,10.470751,-3.321868,-2.197175,4.928473,0.0,0.0,0.0
61.46,16.168344,-0.780668,10.625122,-2.932862,-1.841144,4.977744,0.0,0.0,0.0
61.47,15.926896,0.303969,9.884634,-2.655823,-1.488302,5.035258,0.0,0.0,0.0
61.48,15.78979,1.456363,8.851688,-2.428228,-1.15637,5.084547,0.0,0.0,0.0
61.49,15.751873,2.332907,7.998214,-2.293195,-0.832491,5.104924,0.0,0.0,0.0
61.5,15.967854,3.454472,6.702265,-2.022023,-0.560153,5.072135,0.0,0.0,0.0
61.51,16.495552,5.190561,5.628259,-1.842936,-0.26158,4.994943,0.0,0.0,0.0
61.52,15.900914,6.964522,4.310063,-1.912878,0.054061,4.822135,0.0,0.0,0.0
61.53,10.297705,4.562473,-0.035522,-1.873089,0.048444,4.31132,0.0,0.0,0.0
61.54,10.468962,7.352512,-5.130312,-0.541997,-0.691839,3.970762,0.0,0.0,0.0
61.55,13.465083,13.306925,-4.420022,-0.752808,-0.755715,3.543149,0.0,0.0,0.0
61.56,13.575576,16.850239,-3.238529,-1.267566,-0.621572,2.980022,0.0,0.0,0.0
61.57,11.930414,17.346194,-2.620542,-2.011004,-0.748322,2.428662,0.0,0.0,0.0
61.58,11.497257,14.325322,-0.702463,-2.441743,-0.682697,1.790629,0.0,0.0,0.0
61.59,11.956327,12.15168,1.167763,-2.212463,-0.305907,1.076659,0.0,0.0,0.0
61.6,11.298154,12.617591,3.14931,-1.786741,0.092296,0.391698,0.0,0.0,0.0
61.61,11.063278,13.757755,3.212879,-1.44257,0.347344,-0.240993,0.0,0.0,0.0
61.62,10.575207,13.731207,2.065091,-1.236176,0.561971,-0.750134,0.0,0.0,0.0
61.63,9.955111,13.132883,0.862711,-1.053119,0.667569,-1.169031,0.0,0.0,0.0
61.64,8.913169,12.660249,0.133216,-0.908022,0.706475,-1.510359,0.0,0.0,0.0
61.65,7.88948,11.377705,-0.324039,-0.858891,0.727436,-1.772823,0.0,0.0,0.0
61.66,9.124653,4.61517,-4.160768,-1.017469,0.633292,-1.7628,0.0,0.0,0.0
61.67,9.061433,-10.204268,-3.972096,-1.865829,0.828068,-1.163966,0.0,0.0,0.0
61.68,9.692611,-13.753423,-4.950267,-1.374509,0.634355,-0.838116,0.0,0.0,0.0
61.69,13.531582,-7.634412,-10.26407,-0.556554,0.142885,-1.029517,0.0,0.0,0.0
61.7,20.270899,4.421557,-4.909185,0.132597,-0.291198,-1.921247,0.0,0.0,0.0
61.71,18.114257,5.888205,3.248141,-0.933625,0.397864,-2.648703,0.0,0.0,0.0
61.72,9.092472,1.756083,5.884958,-0.558286,0.303691,-2.539825,0.0,0.0,0.0
61.73,6.592666,2.167432,4.977807,-0.268402,-0.16451,-2.062756,0.0,0.0,0.0
61.74,5.379599,2.369461,0.760159,-0.481551,-0.274045,-1.626499,0.0,0.0,0.0
61.75,3.125285,11.308734,-4.391127,0.725761,-0.869017,-1.593889,0.0,0.0,0.0
61.76,14.462235,9.27422,-3.660831,-0.992016,-1.018912,-1.768896,0.0,0.0,0.0
61.77,10.238338,-4.632824,-1.38586,0.24069,0.056808,-1.326359,0.0,0.0,0.0
61.78,8.516418,7.737812,0.446891,0.543511,-0.850289,-1.228305,0.0,0.0,0.0
61.79,11.136859,4.139196,-3.336553,-0.204041,-0.368523,-1.283673,0.0,0.0,0.0
61.8,9.936195,4.834237,-3.27998,0.067088,-0.443543,-1.08726,0.0,0.0,0.0
61.81,9.138425,2.289565,-1.668679,-0.057741,-0.209285,-0.980669,0.0,0.0,0.0
61.82,9.075682,1.589917,-3.814185,0.440936,-0.465426,-0.912199,0.0,0.0,0.0
61.83,9.586536,3.951234,-3.146248,0.417583,-0.252033,-0.793573,0.0,0.0,0.0
61.84,9.16418,4.398939,-3.66562,0.05484,-0.310177,-0.706883,0.0,0.0,0.0
61.85,9.752825,4.501828,-2.896897,-0.237709,-0.181691,-0.600875,0.0,0.0,0.0
61.86,9.232453,3.796094,-3.476424,-0.509455,-0.070394,-0.472086,0.0,0.0,0.0
61.87,8.803825,3.235917,-3.588536,-0.508157,0.03035,-0.358794,0.0,0.0,0.0
61.88,8.807454,2.816996,-3.187859,-0.399017,0.074304,-0.247857,0.0,0.0,0.0
61.89,8.962967,2.506242,-2.986062,-0.217453,0.089683,-0.169638,0.0,0.0,0.0
61.9,9.094678,2.427936,-2.959484,-0.121033,0.091679,-0.098597,0.0,0.0,0.0
61.91,8.872009,2.286218,-3.216007,-0.033586,0.086722,-0.042419,0.0,0.0,0.0
61.92,8.903294,2.191312,-3.292471,0.034759,0.076266,-0.0074,0.0,0.0,0.0
61.93,8.735665,1.96699,-3.366378,0.032545,0.044925,0.015492,0.0,0.0,0.0
61.94,8.778902,2.110528,-3.478757,0.063928,0.007152,0.03172,0.0,0.0,0.0
61.95,8.906409,2.938312,-3.061537,0.030877,0.035256,0.044525,0.0,0.0,0.0
61.96,9.192417,3.49967,-3.008031,-0.038799,0.133494,0.072537,0.0,0.0,0.0
61.97,9.105858,2.737717,-2.453381,-0.254575,0.18333,0.091632,0.0,0.0,0.0
61.98,9.47581,2.643346,-2.403279,-0.220124,0.163626,0.084034,0.0,0.0,0.0
61.99,9.684131,3.468955,-1.396147,-0.244819,0.205973,0.082242,0.0,0.0,0.0
62.0,9.320494,2.410144,-1.296984,-0.336418,0.211645,0.0669,0.0,0.0,0.0
62.01,9.275151,1.946196,-1.390234,-0.239715,0.14477,0.026298,0.0,0.0,0.0
62.02,9.282547,1.997128,-1.3506,-0.166087,0.102046,-0.0162,0.0,0.0,0.0
62.03,9.303995,1.807292,-1.27287,-0.142804,0.041598,-0.072841,0.0,0.0,0.0
62.04,9.393849,1.505084,-1.423568,-0.06944,-0.010397,-0.144978,0.0,0.0,0.0
62.05,9.51873,1.359564,-1.815349,0.039654,-0.049945,-0.215759,0.0,0.0,0.0
62.06,9.374974,1.431334,-1.961767,0.088865,-0.076836,-0.302551,0.0,0.0,0.0
62.07,9.16793,1.479988,-1.86768,0.124442,-0.099331,-0.387584,0.0,0.0,0.0
62.08,9.194963,1.373595,-2.142447,0.1784,-0.110596,-0.457696,0.0,0.0,0.0
62.09,9.088389,1.488797,-2.508928,0.216847,-0.124107,-0.532433,0.0,0.0,0.0
62.1,9.177831,1.856317,-2.47599,0.194299,-0.140655,-0.605643,0.0,0.0,0.0
62.11,9.064412,1.978395,-2.187519,0.09829,-0.147298,-0.678978,0.0,0.0,0.0
62.12,9.413951,2.157961,-2.227453,0.026673,-0.154976,-0.739765,0.0,0.0,0.0
62.13,9.859995,1.973055,-3.093227,-0.216761,-0.032192,-0.80206,0.0,0.0,0.0
62.14,9.64361,1.935536,-3.663361,-0.379241,0.052742,-0.880675,0.0,0.0,0.0
62.15,9.96408,2.526866,-3.388673,-0.485533,0.078978,-0.954472,0.0,0.0,0.0
62.16,9.491193,2.410871,-3.418926,-0.608216,0.116039,-1.044913,0.0,0.0,0.0
62.17,9.183337,2.788094,-2.938629,-0.557455,0.087769,-1.119246,0.0,0.0,0.0
62.18,9.459832,3.093317,-3.019596,-0.562481,0.135675,-1.163763,0.0,0.0,0.0
62.19,9.717346,3.078941,-3.496616,-0.539274,0.154113,-1.206421,0.0,0.0,0.0
62.2,9.968467,3.455894,-2.933361,-0.575728,0.127049,-1.269923,0.0,0.0,0.0
62.21,10.201465,3.760376,-1.760599,-0.62062,0.089985,-1.320061,0.0,0.0,0.0
62.22,11.064927,3.938607,-0.955696,-0.711658,0.109062,-1.358843,0.0,0.0,0.0
62.23,12.454312,3.220914,-1.529911,-0.675668,0.220466,-1.389149,0.0,0.0,0.0
62.24,12.277048,3.299923,-3.188862,-0.653593,0.22072,-1.456595,0.0,0.0,0.0
62.25,12.623389,4.072506,-2.620734,-0.747433,0.227965,-1.545373,0.0,0.0,0.0
62.26,12.80775,3.628819,-2.328205,-1.027473,0.298304,-1.635126,0.0,0.0,0.0
62.27,13.14454,3.822457,-1.539796,-1.205412,0.347596,-1.740856,0.0,0.0,0.0
62.28,13.524158,3.168128,-0.885537,-1.35149,0.379969,-1.829018,0.0,0.0,0.0
62.29,14.579715,2.702059,-0.797599,-1.46132,0.39472,-1.929581,0.0,0.0,0.0
62.3,15.45891,2.100639,-1.053628,-1.535281,0.427753,-2.053043,0.0,0.0,0.0
62.31,16.768233,1.291312,-1.033233,-1.581954,0.437293,-2.183464,0.0,0.0,0.0
62.32,18.366143,0.566633,-0.985614,-1.611535,0.467754,-2.315246,0.0,0.0,0.0
62.33,19.835807,-0.72208,-1.16962,-1.625208,0.490705,-2.422178,0.0,0.0,0.0
62.34,20.857101,-1.579873,-0.627062,-1.684465,0.468053,-2.531399,0.0,0.0,0.0
62.35,20.89138,-2.148456,0.071906,-1.909106,0.440938,-2.66766,0.0,0.0,0.0
62.36,21.151358,-2.538926,0.660474,-1.84217,0.412062,-2.907198,0.0,0.0,0.0
62.37,22.107968,-2.417718,0.916696,-1.585677,0.45762,-3.22912,0.0,0.0,0.0
62.38,21.481175,-2.726239,-2.02586,-0.9364,0.525812,-3.470896,0.0,0.0,0.0
62.39,21.354545,-0.384658,-2.175667,-0.199956,0.625058,-3.632733,0.0,0.0,0.0
62.4,18.824992,2.593162,-4.716421,0.186841,0.760309,-3.653872,0.0,0.0,0.0
62.41,18.17518,1.510234,-2.999326,0.093797,0.747318,-3.541416,0.0,0.0,0.0
62.42,15.01808,1.975197,-2.111135,-0.040458,0.829896,-3.385303,0.0,0.0,0.0
62.43,12.766421,-1.05157,-3.329109,-0.064266,0.691975,-3.051377,0.0,0.0,0.0
62.44,10.588435,0.073885,-2.448045,-0.156642,0.567935,-2.70269,0.0,0.0,0.0
62.45,7.23498,-2.382174,-5.014629,-0.257721,0.446549,-2.125982,0.0,0.0,0.0
62.46,7.443591,-0.047347,-0.591715,-1.020977,-0.059254,-1.809628,0.0,0.0,0.0
62.47,7.627366,-6.722837,-3.476839,-0.548704,0.237602,-1.111876,0.0,0.0,0.0
62.48,5.256028,-5.510697,-1.885128,-0.496561,0.108335,-0.396032,0.0,0.0,0.0
62.49,4.553196,-5.14332,-0.84796,-0.742679,-0.000869,0.086649,0.0,0.0,0.0
62.5,3.659613,-4.654373,-1.196843,-0.776591,-0.128469,0.561365,0.0,0.0,0.0
62.51,3.666162,-3.508547,-1.346783,-0.835558,-0.268454,0.988906,0.0,0.0,0.0
62.52,3.834409,-2.827714,-1.380351,-0.878852,-0.327605,1.395518,0.0,0.0,0.0
62.53,3.658427,-2.374269,-1.487762,-0.760784,-0.369959,1.797161,0.0,0.0,0.0
62.54,3.581888,-1.704527,-1.49196,-0.658733,-0.425815,2.195134,0.0,0.0,0.0
62.55,3.732439,-1.411064,-1.393614,-0.605909,-0.462835,2.583729,0.0,0.0,0.0
62.56,3.981503,-1.462805,-1.221265,-0.558522,-0.480977,2.944868,0.0,0.0,0.0
62.57,4.255689,-1.233877,-1.044292,-0.495606,-0.489542,3.275648,0.0,0.0,0.0
62.58,4.554372,-0.682677,-0.790742,-0.444717,-0.490973,3.574462,0.0,0.0,0.0
62.59,5.125965,-0.214005,-0.746731,-0.435733,-0.504704,3.839115,0.0,0.0,0.0
62.6,5.770477,-0.123811,-0.686433,-0.460473,-0.511088,4.085701,0.0,0.0,0.0
62.61,6.288232,-0.256693,-0.745883,-0.386379,-0.51659,4.294104,0.0,0.0,0.0
62.62,6.826569,-0.173304,-0.741983,-0.1855,-0.536628,4.503044,0.0,0.0,0.0
62.63,7.421057,0.237761,-0.615171,-0.013985,-0.544994,4.719693,0.0,0.0,0.0
62.64,8.166581,0.722306,-0.495878,0.10379,-0.545676,4.935619,0.0,0.0,0.0
62.65,9.134821,0.875163,-0.484699,0.143763,-0.55415,5.140561,0.0,0.0,0.0
62.66,10.197605,1.025308,-0.617361,0.241667,-0.583789,5.324447,0.0,0.0,0.0
62.67,11.231341,1.083636,-0.539612,0.350892,-0.618159,5.480528,0.0,0.0,0.0
62.68,12.359826,1.173436,-0.621282,0.500303,-0.65741,5.609078,0.0,0.0,0.0
62.69,13.462094,1.324804,-0.654521,0.698175,-0.67415,5.699916,0.0,0.0,0.0
62.7,14.677925,1.637222,-1.170514,1.028213,-0.709961,5.780519,0.0,0.0,0.0
62.71,16.049275,2.342579,-2.055454,1.498262,-0.731913,5.814885,0.0,0.0,0.0
62.72,17.074018,4.353052,-2.142496,1.974753,-0.760105,5.800469,0.0,0.0,0.0
62.73,18.669596,5.805632,-2.025077,1.936026,-0.654342,5.806178,0.0,0.0,0.0
62.74,19.670487,6.479634,-3.530614,2.116299,-0.60174,5.755061,0.0,0.0,0.0
62.75,20.853751,8.624102,-3.611336,2.204689,-0.617529,5.594867,0.0,0.0,0.0
62.76,21.598569,10.926692,-4.201446,2.09214,-0.601985,5.319082,0.0,0.0,0.0
62.77,19.857563,12.445129,-5.52974,2.051683,-0.560443,5.049804,0.0,0.0,0.0
62.78,18.229671,16.551739,-6.873362,2.163712,-0.730476,4.762732,0.0,0.0,0.0
62.79,15.868234,22.807033,-7.889692,1.422292,-0.805468,4.275346,0.0,0.0,0.0
62.8,12.61421,29.398075,-6.354011,0.188783,-1.200058,3.609761,0.0,0.0,0.0
62.81,12.878319,32.447309,-1.39297,-1.379526,-1.447196,2.681124,0.0,0.0,0.0
62.82,13.202057,28.799491,4.483098,-2.614736,-1.123866,1.378681,0.0,0.0,0.0
62.83,13.807574,21.931914,7.829591,-2.499993,-0.479194,-0.056197,0.0,0.0,0.0
62.84,13.674073,16.669317,7.324289,-1.145347,0.249279,-1.271647,0.0,0.0,0.0
62.85,11.646235,15.369775,5.572568,0.404781,0.739848,-2.06451,0.0,0.0,0.0
62.86,11.984103,11.534772,0.325963,1.681782,0.784369,-2.381896,0.0,0.0,0.0
62.87,11.515427,13.827481,5.15533,1.585972,0.751965,-2.707409,0.0,0.0,0.0
62.88,22.341557,-19.881121,-3.125684,-0.818707,1.308609,-2.105809,0.0,0.0,0.0
62.89,11.954867,-16.446395,-5.73057,3.89928,1.398064,-1.679144,0.0,0.0,0.0
62.9,16.194358,15.25206,0.501644,2.322264,-1.326681,-2.903827,0.0,0.0,0.0
62.91,27.044415,24.156032,2.280069,0.412786,0.266722,-3.729795,0.0,0.0,0.0
62.92,11.397185,8.187938,0.403454,-0.265592,0.9032,-3.197664,0.0,0.0,0.0
62.93,7.458204,0.575617,3.017417,-0.694381,-0.447522,-2.823485,0.0,0.0,0.0
62.94,4.951392,5.86503,0.436077,0.525345,-0.450864,-2.783386,0.0,0.0,0.0
62.95,5.16698,12.900804,-1.585809,0.842131,-0.933352,-2.473536,0.0,0.0,0.0
62.96,10.651976,0.621146,0.377352,-0.211745,-0.33054,-1.958512,0.0,0.0,0.0
62.97,5.858796,1.288715,-1.314799,1.000724,-0.507744,-1.564335,0.0,0.0,0.0
62.98,11.472385,7.485825,-0.061027,-0.106466,-0.724093,-1.54351,0.0,0.0,0.0
62.99,12.333942,4.484403,1.071491,-0.336196,-0.281947,-1.349115,0.0,0.0,0.0
63.0,11.822771,2.14326,0.603034,-0.215914,-0.492057,-1.199964,0.0,0.0,0.0
63.01,12.211604,0.073415,-2.214209,0.207407,-0.327242,-1.143789,0.0,0.0,0.0
63.02,10.168009,0.760204,-1.592554,0.565887,-0.348054,-1.058915,0.0,0.0,0.0
63.03,9.979163,3.446209,-1.806753,0.4795,-0.33622,-0.95852,0.0,0.0,0.0
63.04,10.023878,3.938448,-1.843885,-0.021366,-0.259025,-0.806054,0.0,0.0,0.0
63.05,10.332877,3.374798,-1.846838,-0.386017,-0.220402,-0.690057,0.0,0.0,0.0
63.06,10.065406,2.944733,-1.288025,-0.59329,-0.118716,-0.560445,0.0,0.0,0.0
63.07,9.508343,2.57647,-0.642156,-0.664158,-0.067053,-0.437903,0.0,0.0,0.0
63.08,9.468671,1.650661,-1.645861,-0.725827,0.020879,-0.360183,0.0,0.0,0.0
63.09,9.299198,1.14231,-2.114173,-0.661677,0.088384,-0.304014,0.0,0.0,0.0
63.1,9.700531,0.896589,-2.194343,-0.566577,0.116311,-0.267138,0.0,0.0,0.0
63.11,9.907595,0.832819,-1.92216,-0.462265,0.156848,-0.262866,0.0,0.0,0.0
63.12,9.748852,1.131582,-2.118132,-0.343445,0.165624,-0.271034,0.0,0.0,0.0
63.13,9.056255,1.175913,-2.391414,-0.284111,0.138966,-0.272096,0.0,0.0,0.0
63.14,8.371379,1.18273,-2.602421,-0.18277,0.075046,-0.27847,0.0,0.0,0.0
63.15,8.020284,1.494368,-2.604322,-0.098593,0.043959,-0.274071,0.0,0.0,0.0
63.16,7.911546,1.738293,-2.903804,-0.045891,0.020459,-0.276886,0.0,0.0,0.0
63.17,8.08126,1.67679,-3.163613,-0.07828,0.006754,-0.263957,0.0,0.0,0.0
63.18,8.28262,1.536339,-3.190908,-0.1103,-0.012531,-0.262082,0.0,0.0,0.0
63.19,8.540371,1.981331,-2.376752,-0.125462,-0.041878,-0.267742,0.0,0.0,0.0
63.2,8.710589,2.03278,-1.30367,-0.176617,-0.027481,-0.286191,0.0,0.0,0.0
63.21,8.978604,1.901731,-0.617356,-0.171336,0.005815,-0.310248,0.0,0.0,0.0
63.22,9.22896,1.366919,-0.031059,-0.205525,0.062937,-0.332083,0.0,0.0,0.0
63.23,9.830264,0.829578,-0.197581,-0.187594,0.041961,-0.380447,0.0,0.0,0.0
63.24,10.666452,0.560769,0.357975,-0.216761,0.040621,-0.44811,0.0,0.0,0.0
63.25,11.228636,0.373033,0.566341,-0.149516,0.050615,-0.555768,0.0,0.0,0.0
63.26,11.226331,0.07347,0.369951,-0.037574,0.057667,-0.669459,0.0,0.0,0.0
63.27,10.838899,0.225898,-0.351043,0.126213,0.075859,-0.786106,0.0,0.0,0.0
63.28,10.334357,0.52904,-1.206628,0.236075,0.105568,-0.888609,0.0,0.0,0.0
63.29,9.979533,1.00797,-1.587774,0.220843,0.126278,-0.97898,0.0,0.0,0.0
63.3,9.842135,1.339374,-1.623845,0.124284,0.169682,-1.074008,0.0,0.0,0.0
63.31,9.789867,1.137572,-1.864993,0.022154,0.201469,-1.172099,0.0,0.0,0.0
63.32,9.884853,0.910286,-1.829331,-0.010256,0.240327,-1.276569,0.0,0.0,0.0
63.33,10.510271,1.280428,-1.322779,0.013832,0.284516,-1.375494,0.0,0.0,0.0
63.34,11.22364,1.28186,-0.570797,-0.026487,0.377132,-1.480234,0.0,0.0,0.0
63.35,12.281999,0.756278,-0.34768,0.023438,0.431618,-1.556498,0.0,0.0,0.0
63.36,12.844416,1.546112,-0.653412,0.122318,0.49105,-1.631802,0.0,0.0,0.0
63.37,12.736304,2.277018,1.163198,0.076852,0.437174,-1.748999,0.0,0.0,0.0
63.38,13.322218,3.176519,3.240872,-0.06355,0.478248,-1.849375,0.0,0.0,0.0
63.39,13.746047,2.32418,1.864194,-0.261597,0.621191,-1.928815,0.0,0.0,0.0
63.4,13.874118,1.14946,-0.349224,-0.34564,0.761632,-2.027145,0.0,0.0,0.0
63.41,14.694462,0.749975,-1.554457,-0.413208,0.874031,-2.179956,0.0,0.0,0.0
63.42,16.201653,-0.12071,-2.101057,-0.717509,1.025621,-2.348748,0.0,0.0,0.0
63.43,18.459698,-2.072819,-3.474109,-0.924344,1.127435,-2.522275,0.0,0.0,0.0
63.44,20.342735,-2.32941,-3.736043,-0.960845,1.169907,-2.744502,0.0,0.0,0.0
63.45,22.631377,-3.096786,-3.02696,-1.131627,1.135316,-2.945188,0.0,0.0,0.0
63.46,22.577938,-4.377249,-2.13559,-0.847609,1.246631,-3.101645,0.0,0.0,0.0
63.47,20.367605,-1.894718,-0.176427,-0.681419,1.245291,-3.248203,0.0,0.0,0.0
63.48,18.34125,1.066018,0.183516,-0.583704,1.42971,-3.32303,0.0,0.0,0.0
63.49,16.11065,2.012131,-0.100704,-0.351853,1.466092,-3.375877,0.0,0.0,0.0
63.5,13.98563,0.479988,-1.876728,0.650838,1.444386,-3.389775,0.0,0.0,0.0
63.51,11.994312,1.109213,-2.266726,1.759628,1.391374,-3.264447,0.0,0.0,0.0
63.52,10.341762,3.167582,-1.801911,2.176061,1.380201,-3.109042,0.0,0.0,0.0
63.53,8.287418,3.701826,-1.294006,2.337771,1.478151,-2.830297,0.0,0.0,0.0
63.54,7.01229,5.258141,-0.432417,1.624557,1.461981,-2.599016,0.0,0.0,0.0
63.55,7.329862,-5.83225,-2.057105,0.902933,1.671697,-1.899674,0.0,0.0,0.0
63.56,4.198016,-6.75954,-1.479311,1.796851,1.657118,-1.281625,0.0,0.0,0.0
63.57,4.411448,-7.049086,-3.355661,2.176122,1.635907,-0.876734,0.0,0.0,0.0
63.58,3.938366,-4.562303,-3.679467,2.644495,1.643198,-0.354373,0.0,0.0,0.0
63.59,4.322409,-2.730135,-2.934807,2.462019,1.663366,-0.069059,0.0,0.0,0.0
63.6,4.671296,-2.833181,-3.085264,2.54583,1.631638,0.259518,0.0,0.0,0.0
63.61,4.712642,-2.667219,-3.200297,2.567358,1.660474,0.659837,0.0,0.0,0.0
63.62,4.43214,-2.105219,-3.406901,2.484249,1.675617,1.023904,0.0,0.0,0.0
63.63,4.328832,-1.28432,-3.570765,2.256583,1.680582,1.341738,0.0,0.0,0.0
63.64,4.309882,-0.695542,-3.73861,1.947244,1.702084,1.639233,0.0,0.0,0.0
63.65,4.406011,-0.325275,-3.606865,1.678452,1.730845,1.900435,0.0,0.0,0.0
63.66,4.380502,-0.250481,-3.504989,1.537605,1.766347,2.15973,0.0,0.0,0.0
63.67,4.571378,-0.421334,-3.620228,1.522879,1.785011,2.413184,0.0,0.0,0.0
63.68,5.038282,-0.405403,-3.770526,1.765051,1.7968,2.672355,0.0,0.0,0.0
63.69,5.843578,-0.21898,-3.582311,1.997981,1.846324,2.909156,0.0,0.0,0.0
63.7,6.595041,-0.058457,-3.423758,2.219675,1.930615,3.115709,0.0,0.0,0.0
63.71,7.471051,0.287052,-3.563235,2.436672,1.99906,3.317703,0.0,0.0,0.0
63.72,8.648487,0.557009,-3.677407,2.619968,2.077818,3.496205,0.0,0.0,0.0
63.73,9.740245,0.365464,-4.494277,2.896897,2.143209,3.639292,0.0,0.0,0.0
63.74,10.604887,0.482886,-5.63682,3.376099,2.162095,3.747233,0.0,0.0,0.0
63.75,11.586272,0.641424,-6.788204,3.899158,2.163897,3.829298,0.0,0.0,0.0
63.76,12.21231,1.069216,-8.062196,4.521374,2.170675,3.883853,0.0,0.0,0.0
63.77,12.611067,1.967794,-8.648785,5.033996,2.191859,3.906536,0.0,0.0,0.0
63.78,12.900357,2.490869,-8.806718,5.479361,2.207514,3.869915,0.0,0.0,0.0
63.79,13.521222,2.638933,-9.039127,6.066941,2.212614,3.777612,0.0,0.0,0.0
63.8,13.996305,2.682392,-9.607708,6.74866,2.199561,3.654674,0.0,0.0,0.0
63.81,14.17748,3.071091,-10.402419,7.422045,2.189129,3.490313,0.0,0.0,0.0
63.82,14.370765,3.878387,-11.236648,7.937839,2.167479,3.300812,0.0,0.0,0.0
63.83,8.562091,8.485867,-34.607301,9.636784,1.638913,3.251118,0.0,0.0,0.0
63.84,17.25422,13.825696,-2.878226,6.747196,0.683236,3.002144,0.0,0.0,0.0
63.85,17.362721,8.841971,-5.475612,4.927152,3.117835,2.349386,0.0,0.0,0.0
63.86,10.317006,7.899925,-7.131067,5.75735,1.617228,2.317414,0.0,0.0,0.0
63.87,14.712354,7.541227,-10.679794,6.376543,2.291575,2.234007,0.0,0.0,0.0
63.88,9.33946,10.12434,-16.29003,6.362723,1.850204,2.00695,0.0,0.0,0.0
63.89,11.640119,12.922816,-17.174574,6.329247,1.329178,1.597175,0.0,0.0,0.0
63.9,9.332503,15.499338,-16.251175,5.919068,1.217044,1.1933,0.0,0.0,0.0
63.91,6.405575,16.695355,-18.125241,5.553547,0.592751,0.804362,0.0,0.0,0.0
63.92,5.01222,18.161676,-18.402297,4.918848,-0.012151,0.459301,0.0,0.0,0.0
63.93,5.646363,18.84953,-15.248037,3.311106,-0.703083,0.142791,0.0,0.0,0.0
63.94,7.910851,20.907062,-11.446118,1.473428,-0.84879,-0.203856,0.0,0.0,0.0
63.95,7.517312,21.555202,-10.976851,0.781375,-1.084321,-0.762366,0.0,0.0,0.0
63.96,9.301368,8.131037,-8.776297,-0.543855,-1.176339,-0.869007,0.0,0.0,0.0
63.97,14.866327,-8.346217,-0.007864,-0.013462,-1.035838,-0.518905,0.0,0.0,0.0
63.98,18.258895,-7.64467,2.036448,0.835049,-0.519007,-0.53717,0.0,0.0,0.0
63.99,19.516719,0.018329,3.265072,1.745259,-0.547448,-0.822418,0.0,0.0,0.0
64.0,14.491898,1.726811,-0.22845,1.798323,-0.158933,-0.993131,0.0,0.0,0.0
64.01,6.512633,2.675075,-0.250666,2.037294,-0.507462,-1.071375,0.0,0.0,0.0
64.02,6.424928,4.232203,0.733021,2.032501,-0.611115,-0.786184,0.0,0.0,0.0
64.03,8.906632,3.998768,2.782189,1.668233,-0.594478,-0.432639,0.0,0.0,0.0
64.04,10.195441,5.126991,0.902578,1.361515,-0.588071,-0.228173,0.0,0.0,0.0
64.05,10.131629,6.816213,1.465726,0.685217,-0.546801,-0.07854,0.0,0.0,0.0
64.06,9.329105,5.635303,2.357269,-0.150306,-0.505388,0.022144,0.0,0.0,0.0
64.07,9.760958,4.473214,1.370334,-0.487539,-0.552052,0.063067,0.0,0.0,0.0
64.08,11.162168,1.501734,-0.508968,-0.588634,-0.455278,0.124953,0.0,0.0,0.0
64.09,10.796235,-0.84845,-2.246701,-0.287918,-0.434844,0.106636,0.0,0.0,0.0
64.1,10.520645,-0.51968,-2.424044,0.17148,-0.40485,0.058576,0.0,0.0,0.0
64.11,10.028264,0.056338,-1.954952,0.422506,-0.347673,0.033134,0.0,0.0,0.0
64.12,9.738956,0.478472,-1.30147,0.593916,-0.296765,0.031436,0.0,0.0,0.0
64.13,9.621012,1.271171,-0.409059,0.669715,-0.225925,0.028352,0.0,0.0,0.0
64.14,9.746839,0.945738,-2.103091,0.887838,-0.137126,0.034494,0.0,0.0,0.0
64.15,9.949387,0.471099,-2.661766,1.089221,-0.067823,0.029705,0.0,0.0,0.0
64.16,9.951905,0.680026,-2.370432,1.19088,-0.005571,-0.011882,0.0,0.0,0.0
64.17,10.463652,0.766779,-1.646493,1.288714,0.078909,-0.065099,0.0,0.0,0.0
64.18,9.904233,0.479363,-1.430754,1.522971,0.200404,-0.114599,0.0,0.0,0.0
64.19,9.44855,0.631424,-2.827354,2.028461,0.145301,-0.17111,0.0,0.0,0.0
64.2,9.91865,1.389245,-0.34733,2.111391,0.227776,-0.156219,0.0,0.0,0.0
64.21,9.250136,1.124627,0.85933,1.854814,0.299726,-0.160003,0.0,0.0,0.0
64.22,9.737005,0.769145,0.376651,1.834285,0.238508,-0.176866,0.0,0.0,0.0
64.23,9.852753,1.08026,0.194554,1.792544,0.202213,-0.192268,0.0,0.0,0.0
64.24,9.972914,1.226519,0.363529,1.665396,0.1569,-0.223957,0.0,0.0,0.0
64.25,9.719836,0.580674,-0.127466,1.718396,0.125777,-0.236956,0.0,0.0,0.0
64.26,9.878493,0.464298,-0.462922,1.832858,0.111297,-0.26185,0.0,0.0,0.0
64.27,10.14617,-0.26632,-1.035055,2.002557,0.13698,-0.310692,0.0,0.0,0.0
64.28,10.586614,-1.225956,-1.642097,2.338938,0.288782,-0.346902,0.0,0.0,0.0
64.29,9.374335,-1.803575,-3.572423,2.939771,0.417573,-0.378277,0.0,0.0,0.0
64.3,9.935477,-0.94928,-3.435983,3.552052,0.562503,-0.408477,0.0,0.0,0.0
64.31,10.215533,-0.337285,-2.854569,4.102367,0.806976,-0.454345,0.0,0.0,0.0
64.32,9.813901,-1.248007,-3.88,4.702092,0.965512,-0.514621,0.0,0.0,0.0
64.33,9.172873,-1.210192,-4.190613,5.385604,1.044157,-0.572191,0.0,0.0,0.0
64.34,9.258965,0.912247,-3.490408,5.675977,1.066807,-0.617536,0.0,0.0,0.0
64.35,9.462615,3.22712,-2.061333,5.393642,1.033046,-0.686581,0.0,0.0,0.0
64.36,9.792659,3.060151,-1.422564,4.697318,0.986449,-0.740991,0.0,0.0,0.0
64.37,9.328823,2.622794,-0.544476,3.922649,0.893857,-0.798547,0.0,0.0,0.0
64.38,9.574152,1.23932,-0.187322,3.14196,0.813911,-0.85047,0.0,0.0,0.0
64.39,8.075206,-0.329327,-1.587175,2.755373,0.76301,-0.837124,0.0,0.0,0.0
64.4,9.393101,2.674607,0.405358,2.405621,0.592271,-0.861513,0.0,0.0,0.0
64.41,9.916999,5.517839,2.371001,1.797976,0.624566,-0.869843,0.0,0.0,0.0
64.42,9.205389,3.781774,0.525802,1.494996,0.579921,-0.791729,0.0,0.0,0.0
64.43,9.433487,2.831723,-0.129152,1.472345,0.471494,-0.703,0.0,0.0,0.0
64.44,9.667715,3.168631,0.489093,1.352174,0.44682,-0.670068,0.0,0.0,0.0
64.45,9.629788,2.982224,0.437937,1.292494,0.391269,-0.652393,0.0,0.0,0.0
64.46,9.981603,2.458332,0.19092,1.23218,0.377077,-0.666517,0.0,0.0,0.0
64.47,8.149706,-1.574179,-2.349167,1.212359,0.390011,-0.701643,0.0,0.0,0.0
64.48,7.993947,-2.380495,-3.959923,1.386323,0.127711,-0.756174,0.0,0.0,0.0
64.49,10.060046,2.432831,-1.781037,0.800843,0.071085,-0.848218,0.0,0.0,0.0
64.5,10.082623,6.097878,-0.352197,-0.029905,0.096289,-0.922484,0.0,0.0,0.0
64.51,8.992897,5.003502,-0.79318,-0.260328,0.123719,-0.916309,0.0,0.0,0.0
64.52,8.870492,3.515521,-1.286214,0.022305,0.11443,-0.837368,0.0,0.0,0.0
64.53,9.210866,3.594402,-0.732851,0.135944,0.206449,-0.734703,0.0,0.0,0.0
64.54,9.772433,5.148626,-0.055412,-0.144797,0.217937,-0.704138,0.0,0.0,0.0
64.55,10.030207,4.793184,-0.064642,-0.523827,0.270326,-0.720883,0.0,0.0,0.0
64.56,9.668682,2.378577,-0.228984,-0.508874,0.309076,-0.741504,0.0,0.0,0.0
64.57,8.830338,-0.654028,-0.235407,-0.244991,0.378412,-0.727856,0.0,0.0,0.0
64.58,8.744556,-0.640807,0.410737,0.081482,0.329025,-0.755277,0.0,0.0,0.0
64.59,9.641653,2.802383,0.344259,0.225507,0.286385,-0.81712,0.0,0.0,0.0
64.6,9.413297,5.309714,-0.396529,0.129421,0.266116,-0.813531,0.0,0.0,0.0
64.61,8.232092,3.944601,-0.810391,0.181139,0.352952,-0.753649,0.0,0.0,0.0
64.62,8.420637,4.405083,-1.083953,0.576927,0.343342,-0.678294,0.0,0.0,0.0
64.63,9.609054,6.104104,-0.530369,0.67563,0.372495,-0.597946,0.0,0.0,0.0
64.64,9.68138,5.486684,-0.236148,0.45998,0.48981,-0.538809,0.0,0.0,0.0
64.65,9.727728,4.358654,-0.047896,0.315937,0.51746,-0.503753,0.0,0.0,0.0
64.66,9.287781,2.514084,0.149137,0.192654,0.583973,-0.478069,0.0,0.0,0.0
64.67,8.323744,2.266743,0.617998,0.174369,0.585296,-0.48426,0.0,0.0,0.0
64.68,8.727924,3.648141,0.965101,0.107135,0.506758,-0.500037,0.0,0.0,0.0
64.69,9.050911,4.384489,1.324082,-0.058559,0.507985,-0.487809,0.0,0.0,0.0
64.7,7.974672,4.054856,1.308887,-0.017814,0.467888,-0.447954,0.0,0.0,0.0
64.71,8.329022,4.909674,1.412669,0.106228,0.381434,-0.397516,0.0,0.0,0.0
64.72,8.419395,5.264716,0.783579,0.131133,0.360063,-0.345068,0.0,0.0,0.0
64.73,9.003243,4.922304,-0.035666,0.191668,0.307073,-0.298702,0.0,0.0,0.0
64.74,9.624473,4.1144,-0.088345,0.118504,0.295817,-0.269933,0.0,0.0,0.0
64.75,9.090294,3.093245,0.326266,0.013545,0.313134,-0.282179,0.0,0.0,0.0
64.76,8.361658,3.766455,0.59195,0.073008,0.235087,-0.309814,0.0,0.0,0.0
64.77,8.581724,4.547581,0.483107,0.053137,0.199858,-0.289998,0.0,0.0,0.0
64.78,7.874226,4.242845,0.424745,0.123325,0.19075,-0.23571,0.0,0.0,0.0
64.79,9.078475,5.05376,0.835664,0.165976,0.164388,-0.187381,0.0,0.0,0.0
64.8,9.279231,5.097868,0.38311,0.100776,0.211247,-0.128173,0.0,0.0,0.0
64.81,9.342333,4.96451,0.255057,0.073689,0.217558,-0.077657,0.0,0.0,0.0
64.82,9.1653,4.807711,0.731967,-0.020962,0.22717,-0.055807,0.0,0.0,0.0
64.83,8.748618,3.862811,1.16966,-0.108142,0.227738,-0.046391,0.0,0.0,0.0
64.84,8.490383,3.715402,1.346138,-0.087978,0.194583,-0.046019,0.0,0.0,0.0
64.85,8.388651,3.653776,0.979894,-0.056558,0.153844,-0.040024,0.0,0.0,0.0
64.86,8.62415,4.201241,0.837001,0.025403,0.112257,-0.029326,0.0,0.0,0.0
64.87,9.014839,5.188852,0.741236,0.067294,0.101102,0.019059,0.0,0.0,0.0
64.88,9.151105,5.427292,1.043241,-0.071812,0.123299,0.072075,0.0,0.0,0.0
64.89,9.081206,4.910795,1.000213,-0.141455,0.125331,0.116708,0.0,0.0,0.0
64.9,9.207445,5.178551,1.064665,-0.180442,0.103391,0.149364,0.0,0.0,0.0
64.91,9.185063,4.83302,1.22196,-0.284319,0.092586,0.179756,0.0,0.0,0.0
64.92,9.163997,4.324628,1.499946,-0.333934,0.061832,0.193017,0.0,0.0,0.0
64.93,8.874819,3.042349,1.168536,-0.32962,0.038641,0.20106,0.0,0.0,0.0
64.94,8.712363,3.79175,1.668738,-0.235439,-0.04321,0.187144,0.0,0.0,0.0
64.95,9.046843,4.515244,2.081779,-0.309834,-0.075004,0.170572,0.0,0.0,0.0
64.96,8.829477,4.283954,1.994867,-0.288324,-0.131386,0.186094,0.0,0.0,0.0
64.97,8.705077,4.510841,2.082985,-0.197976,-0.187364,0.201283,0.0,0.0,0.0
64.98,8.815558,4.657571,1.897995,-0.228757,-0.195272,0.213366,0.0,0.0,0.0
64.99,8.956666,3.687052,0.967854,-0.224575,-0.193718,0.226896,0.0,0.0,0.0
65.0,9.282037,2.919104,0.337264,-0.131599,-0.201837,0.240003,0.0,0.0,0.0
65.01,9.2797,3.290635,0.19819,-0.050059,-0.18934,0.217726,0.0,0.0,0.0
65.02,9.315327,3.165367,0.10712,-0.037931,-0.17364,0.185571,0.0,0.0,0.0
65.03,9.435045,2.642811,0.074079,0.02868,-0.176754,0.167462,0.0,0.0,0.0
65.04,9.521022,2.673405,0.094621,0.037011,-0.161996,0.144257,0.0,0.0,0.0
65.05,9.411283,3.259476,0.245402,-0.059303,-0.112103,0.102842,0.0,0.0,0.0
65.06,8.935945,4.015837,0.302512,-0.134501,-0.07959,0.078509,0.0,0.0,0.0
65.07,8.696665,4.500196,-0.047474,-0.10719,-0.085798,0.111508,0.0,0.0,0.0
65.08,8.888328,4.330024,-0.299247,-0.151032,-0.072801,0.141925,0.0,0.0,0.0
65.09,8.986693,3.513741,-0.418152,-0.221408,-0.053943,0.166593,0.0,0.0,0.0
65.1,9.327165,3.190546,0.029332,-0.245565,-0.042285,0.176517,0.0,0.0,0.0
65.11,9.441286,3.392124,0.414165,-0.267154,-0.035928,0.167761,0.0,0.0,0.0
65.12,9.284913,3.537085,0.698854,-0.270037,-0.025733,0.160452,0.0,0.0,0.0
65.13,9.377638,3.432105,0.870595,-0.229118,-0.035303,0.152257,0.0,0.0,0.0
65.14,9.694618,3.496385,0.984972,-0.164251,-0.019443,0.154798,0.0,0.0,0.0
65.15,9.174519,3.626696,0.899443,-0.191585,0.009518,0.161167,0.0,0.0,0.0
65.16,8.783459,3.231695,0.425931,-0.228931,0.006132,0.155616,0.0,0.0,0.0
65.17,8.792032,3.011296,0.202851,-0.260838,-0.006573,0.138708,0.0,0.0,0.0
65.18,8.897883,3.196466,0.237914,-0.305996,-0.002038,0.126112,0.0,0.0,0.0
65.19,9.003771,3.417661,0.455587,-0.378665,-5e-05,0.110214,0.0,0.0,0.0
65.2,9.109769,3.136664,0.248904,-0.390269,0.013298,0.103976,0.0,0.0,0.0
65.21,9.327505,2.819406,-0.097688,-0.369214,0.027264,0.103645,0.0,0.0,0.0
65.22,9.419403,2.401033,-0.373415,-0.336924,0.046087,0.106116,0.0,0.0,0.0
65.23,9.539664,2.062689,-0.75544,-0.244,-0.00372,0.119243,0.0,0.0,0.0
65.24,10.013624,2.382116,-0.64233,-0.170099,-0.073453,0.131297,0.0,0.0,0.0
65.25,10.342635,3.149253,-0.516577,-0.188734,-0.130761,0.152826,0.0,0.0,0.0
65.26,10.495534,5.031628,-0.695347,-0.22817,-0.168662,0.156975,0.0,0.0,0.0
65.27,10.394626,5.328872,-0.144675,-0.44878,-0.138027,0.106738,0.0,0.0,0.0
65.28,9.873463,4.579415,-0.013625,-0.391977,-0.117509,0.075337,0.0,0.0,0.0
65.29,9.633574,3.908974,-0.351352,-0.235855,-0.163453,0.106135,0.0,0.0,0.0
65.3,9.485459,3.885697,-0.017291,-0.257377,-0.178238,0.122144,0.0,0.0,0.0
65.31,9.017748,3.721375,0.033743,-0.332799,-0.181999,0.125179,0.0,0.0,0.0
65.32,8.659256,3.316529,0.003418,-0.357004,-0.204157,0.129011,0.0,0.0,0.0
65.33,8.635093,2.000918,-0.187476,-0.309182,-0.228093,0.168379,0.0,0.0,0.0
65.34,8.818506,0.966853,-0.152403,-0.179142,-0.244618,0.210381,0.0,0.0,0.0
65.35,8.566333,0.614686,-0.488625,0.037427,-0.275475,0.21646,0.0,0.0,0.0
65.36,8.620515,-0.022566,-0.933941,0.378612,-0.375846,0.234452,0.0,0.0,0.0
65.37,9.388732,0.369012,-0.73308,0.668159,-0.415339,0.252184,0.0,0.0,0.0
65.38,9.491412,1.02762,-0.627706,0.815979,-0.429035,0.271529,0.0,0.0,0.0
65.39,9.466282,1.184358,-0.690425,0.875732,-0.463787,0.284812,0.0,0.0,0.0
65.4,9.439055,1.070667,-0.644339,0.975584,-0.486905,0.318896,0.0,0.0,0.0
65.41,9.408873,1.027312,-0.67333,1.07209,-0.515184,0.354735,0.0,0.0,0.0
65.42,9.381713,1.390687,-0.621905,1.141197,-0.53787,0.37236,0.0,0.0,0.0
65.43,9.389352,1.657698,-0.602406,1.163326,-0.550709,0.387238,0.0,0.0,0.0
65.44,9.294614,1.844016,-0.745321,1.169793,-0.539739,0.395555,0.0,0.0,0.0
65.45,9.031809,2.271265,-0.89689,1.176788,-0.540488,0.39673,0.0,0.0,0.0
65.46,8.770447,2.743738,-0.716167,1.091375,-0.554479,0.403716,0.0,0.0,0.0
65.47,8.771203,2.793488,-0.674824,0.976157,-0.559343,0.399323,0.0,0.0,0.0
65.48,8.644327,3.016961,-0.572366,0.935399,-0.569398,0.385142,0.0,0.0,0.0
65.49,8.582519,3.017746,-0.303873,0.851015,-0.551439,0.37888,0.0,0.0,0.0
65.5,8.701201,2.714472,-0.124332,0.795013,-0.52673,0.37291,0.0,0.0,0.0
65.51,8.766595,2.560986,0.072656,0.789395,-0.48541,0.367159,0.0,0.0,0.0
65.52,8.696939,2.605738,0.342384,0.796483,-0.429543,0.359317,0.0,0.0,0.0
65.53,8.573454,2.669346,0.316109,0.818747,-0.368897,0.364245,0.0,0.0,0.0
65.54,8.471225,3.008849,0.09695,0.859629,-0.32225,0.383061,0.0,0.0,0.0
65.55,8.621162,3.340862,-0.010825,0.786857,-0.273517,0.408479,0.0,0.0,0.0
65.56,8.806626,3.50306,0.10898,0.655749,-0.224682,0.407857,0.0,0.0,0.0
65.57,9.058953,3.592258,0.068759,0.515079,-0.190483,0.400084,0.0,0.0,0.0
65.58,9.280034,3.741951,0.058682,0.439404,-0.152498,0.37525,0.0,0.0,0.0
65.59,9.381213,3.699758,0.090479,0.388636,-0.116405,0.347898,0.0,0.0,0.0
65.6,9.386976,3.841018,-0.007928,0.393982,-0.074847,0.308222,0.0,0.0,0.0
65.61,9.247774,4.164043,-0.076113,0.414552,-0.031547,0.246535,0.0,0.0,0.0
65.62,9.107181,4.000898,-0.215654,0.420658,-0.003651,0.196062,0.0,0.0,0.0
65.63,9.098068,3.572185,-0.378505,0.457764,0.022518,0.150233,0.0,0.0,0.0
65.64,9.183476,3.451569,-0.386094,0.511881,0.049671,0.11709,0.0,0.0,0.0
65.65,9.302226,3.591378,-0.425091,0.513438,0.080916,0.099886,0.0,0.0,0.0
65.66,9.32266,3.836759,-1.112821,0.550397,0.083014,0.059952,0.0,0.0,0.0
65.67,10.466869,6.646909,-1.013083,0.758997,-0.011966,-0.070505,0.0,0.0,0.0
65.68,11.902066,5.912086,-1.493743,0.315381,-0.019117,-0.128071,0.0,0.0,0.0
65.69,11.66917,2.805512,-0.06586,0.093011,0.125605,-0.04386,0.0,0.0,0.0
65.7,11.232636,1.648011,0.636558,-0.233544,0.167841,-0.023074,0.0,0.0,0.0
65.71,11.138079,0.675525,0.544691,-0.35455,0.244468,0.007125,0.0,0.0,0.0
65.72,9.954023,0.823562,-0.036343,-0.215268,0.267305,0.034389,0.0,0.0,0.0
65.73,9.295043,2.224272,-0.699624,0.028868,0.194253,0.014515,0.0,0.0,0.0
65.74,9.071026,3.815534,-0.982771,0.121766,0.13216,-0.040382,0.0,0.0,0.0
65.75,8.842069,3.847021,-0.802525,0.053468,0.135563,-0.065056,0.0,0.0,0.0
65.76,8.483978,3.101101,-0.529746,-0.016216,0.161295,-0.05553,0.0,0.0,0.0
65.77,8.372624,2.128127,-0.406382,-0.035426,0.160659,-0.02933,0.0,0.0,0.0
65.78,8.602045,1.658231,-0.7625,0.054978,0.135326,-0.0136,0.0,0.0,0.0
65.79,8.996959,1.788159,-1.060211,0.167208,0.099129,-0.013709,0.0,0.0,0.0
65.8,9.352328,2.057386,-1.164685,0.187362,0.065184,-0.018373,0.0,0.0,0.0
65.81,9.688028,2.259256,-1.185053,0.160072,0.046771,-0.025884,0.0,0.0,0.0
65.82,9.94014,2.254695,-0.967807,0.113219,0.044078,-0.030373,0.0,0.0,0.0
65.83,10.065575,2.229853,-0.78705,0.080807,0.049674,-0.026168,0.0,0.0,0.0
65.84,10.009292,2.299725,-0.476471,0.041722,0.050695,-0.025209,0.0,0.0,0.0
65.85,9.894068,2.317343,-0.348696,0.022042,0.056274,-0.023005,0.0,0.0,0.0
65.86,9.722382,2.390095,-0.299798,0.020583,0.051412,-0.015484,0.0,0.0,0.0
65.87,9.496929,2.453425,-0.475805,0.036378,0.040622,-0.003392,0.0,0.0,0.0
65.88,9.422429,2.489009,-0.606183,0.041265,0.025255,0.006127,0.0,0.0,0.0
65.89,9.402131,2.527222,-0.667687,0.028445,0.027446,0.013387,0.0,0.0,0.0
65.9,9.268936,2.683873,-0.656322,0.039204,0.019802,0.009844,0.0,0.0,0.0
65.91,9.11974,2.762384,-0.688878,0.01315,0.022221,0.005006,0.0,0.0,0.0
65.92,9.089515,2.492987,-0.778898,0.004723,0.013605,0.001709,0.0,0.0,0.0
65.93,9.105334,2.186204,-0.860504,0.018317,0.008282,0.010758,0.0,0.0,0.0
65.94,9.277082,2.113785,-0.904624,0.032646,-0.007246,0.013716,0.0,0.0,0.0
65.95,9.433565,2.180214,-0.96248,0.018,-0.018378,0.009865,0.0,0.0,0.0
65.96,9.633358,2.274039,-0.867244,-0.005383,-0.02584,0.011483,0.0,0.0,0.0
65.97,9.737856,2.286206,-0.753926,-0.029724,-0.028797,0.012344,0.0,0.0,0.0
65.98,9.743697,2.220313,-0.722557,-0.050916,-0.025797,0.010671,0.0,0.0,0.0
65.99,9.670246,2.148726,-0.706344,-0.042667,-0.027268,0.013158,0.0,0.0,0.0
66.0,9.562324,2.143246,-0.770033,-0.039409,-0.032208,0.017391,0.0,0.0,0.0
66.01,9.595787,2.184272,-0.766768,-0.028736,-0.047142,0.024793,0.0,0.0,0.0
66.02,9.562665,2.136533,-0.854164,-0.033732,-0.048492,0.031868,0.0,0.0,0.0
66.03,9.530867,2.310718,-0.756062,-0.005518,-0.052025,0.033699,0.0,0.0,0.0
66.04,9.49232,2.497169,-0.704766,-0.011957,-0.04655,0.031302,0.0,0.0,0.0
