time,accel_x,accel_y,accel_z,gyro_x,gyro_y,gyro_z,mag_x,mag_y,mag_z
0.0,74.3160171508789,-4.405331134796143,-12.564770698547363,-2.6646246910095215,-0.5329249501228333,-3.7304747104644775,-31.500001907348633,6.450000286102295,-6.600000381469727
0.009,77.1507568359375,-2.4899697303771973,-9.730035781860352,-5.462480545043945,5.728943347930908,-6.9280242919921875,-33.30000305175781,6.900000095367432,-6.150000095367432
0.028,78.3382797241211,-2.719813108444214,-11.41555404663086,-2.131699800491333,-0.39969372749328613,-4.263399600982666,-33.75,5.700000286102295,-6.600000381469727
0.032,77.41890716552734,-3.064578056335449,-9.423578262329102,4.130168437957764,-5.8621745109558105,0.7993874549865723,-32.400001525878906,5.850000381469727,-6.750000476837158
0.039,77.53382873535156,-2.9879636764526367,-9.615114212036133,3.86370587348938,-6.5283308029174805,3.9969370365142822,-32.400001525878906,5.850000381469727,-6.750000476837158
0.049,78.18505096435547,-3.485957622528076,-9.691728591918945,-2.797856092453003,2.131699800491333,-5.062787055969238,-33.900001525878906,6.300000190734863,-7.500000476837158
0.06,78.72135162353516,-4.596867084503174,-9.653421401977539,0.9326186776161194,-0.2664624750614166,-3.597243309020996,-31.650001525878906,6.300000190734863,-6.0
0.069,78.45320129394531,-3.2178070545196533,-10.189722061157227,2.2649309635162354,-2.2649309635162354,7.327718257904053,-33.30000305175781,6.150000095367432,-5.850000381469727
0.088,77.95520782470703,-4.252102375030518,-10.266336441040039,-9.992342948913574,2.9310872554779053,-10.92496109008789,-33.30000305175781,6.150000095367432,-5.850000381469727
0.092,78.3382797241211,-3.5242648124694824,-10.304644584655762,-9.192955017089844,3.0643184185028076,0.1332312375307083,-32.55000305175781,6.150000095367432,-5.850000381469727
0.1,78.07012939453125,-3.754108190536499,-9.883264541625977,1.4655436277389526,-6.661561965942383,-1.4655436277389526,-32.55000305175781,6.150000095367432,-5.850000381469727
0.11,77.57213592529297,-2.6815059185028076,-10.381258964538574,-9.72588062286377,6.128636837005615,-6.794793128967285,-32.400001525878906,6.750000476837158,-8.25
0.119,77.1890640258789,-2.298433542251587,-9.653421401977539,-9.992342948913574,1.4655436277389526,-10.125574111938477,-34.80000305175781,6.450000286102295,-5.850000381469727
0.129,77.95520782470703,-2.6815059185028076,-9.921571731567383,-0.9326186776161194,-4.396630764007568,1.7320060729980469,-34.80000305175781,6.450000286102295,-5.850000381469727
0.149,78.29997253417969,-2.298433542251587,-10.572794914245605,1.1990811824798584,-6.395099639892578,-0.7993874549865723,-33.0,6.150000095367432,-6.600000381469727
0.152,77.68705749511719,-3.1028854846954346,-10.611102104187012,-1.0658499002456665,2.131699800491333,-7.860642910003662,-33.45000076293945,5.850000381469727,-7.050000190734863
0.159,77.53382873535156,-2.5665841102600098,-10.84094524383545,-5.196018218994141,2.398162364959717,-4.396630764007568,-33.45000076293945,5.850000381469727,-7.050000190734863
0.169,77.91690063476562,-3.179499864578247,-10.649409294128418,1.9984685182571411,-4.663093090057373,-6.9280242919921875,-34.20000076293945,7.050000190734863,-5.25
0.179,79.33426666259766,-3.141192674636841,-9.921571731567383,-2.2649309635162354,5.062787055969238,-8.793261528015137,-34.20000076293945,7.050000190734863,-5.25
0.189,78.07012939453125,-2.298433542251587,-9.576807022094727,-0.9326186776161194,1.9984685182571411,-7.06125545501709,-33.150001525878906,6.750000476837158,-7.500000476837158
0.204,78.26166534423828,-2.298433542251587,-10.342951774597168,-1.1990811824798584,0.0,-3.9969370365142822,-32.400001525878906,6.750000476837158,-8.25
0.21,78.07012939453125,-3.5242648124694824,-9.84495735168457,5.728943347930908,-7.9938740730285645,-6.794793128967285,-31.950000762939453,7.500000476837158,-6.300000190734863
0.219,76.76768493652344,-2.9496564865112305,-9.84495735168457,-1.8652373552322388,1.0658499002456665,-5.728943347930908,-31.950000762939453,7.500000476837158,-6.300000190734863
0.229,77.41890716552734,-3.754108190536499,-9.27034854888916,-2.531393527984619,7.594180583953857,-3.3307809829711914,-31.650001525878906,4.350000381469727,-5.700000286102295
0.239,76.5761489868164,-4.558559894561768,-9.653421401977539,2.2649309635162354,-4.396630764007568,1.0658499002456665,-32.400001525878906,7.050000190734863,-5.700000286102295
0.25,76.42292022705078,-3.907337188720703,-10.342951774597168,0.9326186776161194,0.7993874549865723,-7.194486618041992,-33.0,7.650000095367432,-6.150000095367432
0.266,77.95520782470703,-3.294421434402466,-9.883264541625977,-1.0658499002456665,-1.0658499002456665,-6.9280242919921875,-32.25,6.900000095367432,-6.900000095367432
0.27,78.03182220458984,-3.294421434402466,-10.381258964538574,0.2664624750614166,-3.197549819946289,-5.329249382019043,-32.25,6.900000095367432,-6.900000095367432
0.279,77.68705749511719,-3.332728862762451,-10.457873344421387,3.197549819946289,-4.796324729919434,-5.329249382019043,-32.25,6.450000286102295,-7.650000095367432
0.289,77.99351501464844,-3.141192674636841,-10.687716484069824,-5.196018218994141,1.1990811824798584,-5.595712184906006,-32.400001525878906,6.300000190734863,-4.950000286102295
0.299,78.22335815429688,-3.4093432426452637,-9.576807022094727,-4.396630764007568,1.9984685182571411,-10.392036437988281,-32.70000076293945,5.850000381469727,-5.25
0.319,78.22335815429688,-3.1028854846954346,-10.802638053894043,6.395099639892578,-1.7320060729980469,-1.3323123455047607,-30.750001907348633,6.450000286102295,-6.150000095367432
0.323,77.84028625488281,-3.064578056335449,-10.266336441040039,3.4640121459960938,1.4655436277389526,-9.192955017089844,-30.750001907348633,6.450000286102295,-6.150000095367432
0.33,77.763671875,-3.294421434402466,-10.342951774597168,-4.130168437957764,7.327718257904053,-9.192955017089844,-32.55000305175781,7.650000095367432,-6.900000095367432
0.339,77.99351501464844,-3.44765043258667,-9.346963882446289,7.194486618041992,-4.796324729919434,-3.3307809829711914,-31.950000762939453,6.750000476837158,-6.750000476837158
0.349,77.30398559570312,-4.098873138427734,-9.691728591918945,6.395099639892578,-3.86370587348938,0.9326186776161194,-31.500001907348633,8.40000057220459,-6.150000095367432
0.359,77.41890716552734,-3.5242648124694824,-10.457873344421387,0.1332312375307083,2.531393527984619,-4.529861927032471,-32.70000076293945,7.800000190734863,-5.25
0.378,77.1507568359375,-3.907337188720703,-10.266336441040039,-2.398162364959717,5.595712184906006,-7.327718257904053,-32.70000076293945,7.800000190734863,-5.25
0.382,77.64875030517578,-4.367023944854736,-10.496180534362793,1.8652373552322388,-4.663093090057373,-1.4655436277389526,-31.80000114440918,6.450000286102295,-6.600000381469727
0.39,76.38461303710938,-3.2561142444610596,-11.262324333190918,3.3307809829711914,-5.728943347930908,-3.9969370365142822,-32.55000305175781,7.650000095367432,-6.150000095367432
0.4,76.80599212646484,-3.141192674636841,-10.611102104187012,0.7993874549865723,-7.06125545501709,-12.390504837036133,-32.55000305175781,6.900000095367432,-6.900000095367432
0.409,76.95922088623047,-3.2178070545196533,-10.611102104187012,3.197549819946289,-3.197549819946289,0.39969372749328613,-31.650001525878906,6.750000476837158,-7.500000476837158
0.419,78.07012939453125,-1.9153614044189453,-10.955866813659668,-4.663093090057373,6.261868000030518,-2.531393527984619,-31.650001525878906,6.750000476837158,-7.500000476837158
0.439,77.95520782470703,-1.455674648284912,-9.84495735168457,0.6661561727523804,6.5283308029174805,-4.529861927032471,-32.55000305175781,6.150000095367432,-5.850000381469727
0.443,77.38059997558594,-1.7621324062347412,-10.955866813659668,-1.1990811824798584,3.86370587348938,-3.197549819946289,-33.30000305175781,6.450000286102295,-7.350000381469727
0.45,77.30398559570312,-2.8347349166870117,-10.496180534362793,-1.1990811824798584,-1.9984685182571411,-4.663093090057373,-32.70000076293945,8.25,-6.750000476837158
0.459,77.41890716552734,-1.723825216293335,-11.224017143249512,4.529861927032471,-8.127105712890625,5.329249382019043,-32.25,5.400000095367432,-7.350000381469727
0.469,77.763671875,-3.179499864578247,-10.381258964538574,0.6661561727523804,5.8621745109558105,-2.398162364959717,-32.25,5.400000095367432,-7.350000381469727
0.479,77.7253646850586,-2.75812029838562,-10.687716484069824,5.062787055969238,-4.130168437957764,-3.597243309020996,-33.150001525878906,6.750000476837158,-6.300000190734863
0.499,79.37257385253906,-2.4133553504943848,-10.41956615447998,6.9280242919921875,-2.131699800491333,5.595712184906006,-31.650001525878906,5.550000190734863,-7.050000190734863
0.503,78.49150848388672,-2.7964274883270264,-10.802638053894043,7.327718257904053,-3.4640121459960938,-4.929555892944336,-30.900001525878906,7.500000476837158,-6.750000476837158
0.51,78.68304443359375,-2.0685901641845703,-10.955866813659668,-2.9310872554779053,2.9310872554779053,2.398162364959717,-32.70000076293945,5.550000190734863,-6.300000190734863
0.519,79.33426666259766,-3.6391866207122803,-10.687716484069824,2.2649309635162354,-8.39356803894043,0.5329249501228333,-32.70000076293945,5.550000190734863,-6.300000190734863
0.529,78.07012939453125,-2.2218191623687744,-11.30063247680664,0.0,-0.6661561727523804,-1.4655436277389526,-32.400001525878906,7.500000476837158,-7.500000476837158
0.539,78.75965881347656,-3.064578056335449,-11.60708999633789,-6.661561965942383,8.526799201965332,1.9984685182571411,-33.30000305175781,7.200000286102295,-6.900000095367432
0.559,77.68705749511719,-2.5282769203186035,-11.41555404663086,2.131699800491333,-0.2664624750614166,4.663093090057373,-32.55000305175781,7.650000095367432,-6.150000095367432
0.563,77.64875030517578,-2.75812029838562,-11.03248119354248,6.794793128967285,-4.396630764007568,3.4640121459960938,-33.0,7.200000286102295,-5.400000095367432
0.57,77.03583526611328,-2.9496564865112305,-10.342951774597168,-4.663093090057373,3.7304747104644775,-2.131699800491333,-33.0,7.200000286102295,-5.400000095367432
0.579,76.46122741699219,-3.6391866207122803,-11.1474027633667,-4.796324729919434,3.0643184185028076,-11.457886695861816,-31.650001525878906,7.800000190734863,-7.050000190734863
0.589,76.72937774658203,-3.7158010005950928,-10.611102104187012,-0.1332312375307083,-4.663093090057373,-0.5329249501228333,-32.25,6.900000095367432,-6.600000381469727
0.6,76.537841796875,-3.44765043258667,-10.879252433776855,-4.263399600982666,4.929555892944336,-7.594180583953857,-32.55000305175781,8.100000381469727,-6.600000381469727
0.619,77.22737121582031,-3.6774938106536865,-10.84094524383545,-4.529861927032471,3.4640121459960938,-0.6661561727523804,-31.950000762939453,6.300000190734863,-5.700000286102295
0.623,77.99351501464844,-4.252102375030518,-9.84495735168457,-9.72588062286377,3.597243309020996,-3.9969370365142822,-31.950000762939453,6.300000190734863,-5.700000286102295
0.629,79.44918823242188,-2.8347349166870117,-10.381258964538574,2.398162364959717,2.9310872554779053,-1.8652373552322388,-31.500001907348633,7.650000095367432,-7.650000095367432
0.639,78.64473724365234,-3.294421434402466,-10.304644584655762,-7.194486618041992,2.398162364959717,-0.5329249501228333,-31.80000114440918,6.900000095367432,-7.350000381469727
0.649,77.61044311523438,-3.179499864578247,-11.453861236572266,-11.457886695861816,7.9938740730285645,-6.261868000030518,-32.25,7.200000286102295,-7.350000381469727
0.659,76.65276336669922,-1.6855180263519287,-10.457873344421387,-4.130168437957764,-1.3323123455047607,-2.2649309635162354,-34.05000305175781,5.700000286102295,-5.850000381469727
0.679,78.56812286376953,-2.298433542251587,-11.224017143249512,1.3323123455047607,-1.1990811824798584,2.2649309635162354,-34.05000305175781,5.700000286102295,-5.850000381469727
0.683,77.8019790649414,-1.5705963373184204,-11.798625946044922,-5.995405673980713,5.196018218994141,-8.793261528015137,-31.650001525878906,7.500000476837158,-8.550000190734863
0.689,78.14674377441406,-1.2258312702178955,-10.5344877243042,0.39969372749328613,-1.8652373552322388,4.796324729919434,-32.55000305175781,8.850000381469727,-5.850000381469727
0.7,77.34229278564453,-1.2258312702178955,-10.15141487121582,-10.125574111938477,6.794793128967285,1.8652373552322388,-32.25,6.150000095367432,-6.600000381469727
0.709,77.53382873535156,-1.1109095811843872,-11.1474027633667,-8.660030364990234,10.525267601013184,5.728943347930908,-32.55000305175781,7.200000286102295,-6.150000095367432
0.719,77.99351501464844,-1.647210717201233,-11.338939666748047,-4.263399600982666,5.728943347930908,2.9310872554779053,-32.55000305175781,7.200000286102295,-6.150000095367432
0.739,77.91690063476562,-3.026270866394043,-11.1474027633667,-1.0658499002456665,0.9326186776161194,10.125574111938477,-32.55000305175781,7.200000286102295,-6.150000095367432
0.742,78.83627319335938,-2.145204782485962,-10.41956615447998,-11.058192253112793,5.329249382019043,1.5987749099731445,-32.55000305175781,7.200000286102295,-5.850000381469727
0.749,78.10843658447266,-2.5282769203186035,-9.959878921508789,-13.989279747009277,2.531393527984619,1.7320060729980469,-33.0,5.700000286102295,-6.900000095367432
0.759,78.45320129394531,-2.298433542251587,-9.730035781860352,-11.724349021911621,-6.661561965942383,13.056661605834961,-30.750001907348633,7.200000286102295,-6.900000095367432
0.769,77.87859344482422,-3.141192674636841,-11.683704376220703,-5.995405673980713,-5.462480545043945,20.251148223876953,-33.0,7.650000095367432,-5.100000381469727
0.779,78.10843658447266,-2.911349296569824,-12.449849128723145,-13.456355094909668,1.7320060729980469,10.658498764038086,-33.0,7.650000095367432,-5.100000381469727
0.799,79.48749542236328,-2.6431987285614014,-12.526463508605957,-17.32006072998047,4.929555892944336,15.987748146057129,-34.05000305175781,4.950000286102295,-5.850000381469727
0.804,81.63269805908203,-2.873042106628418,-12.066776275634766,-14.12251091003418,0.7993874549865723,25.04747200012207,-32.70000076293945,8.25,-7.050000190734863
0.809,81.93915557861328,-1.6089035272598267,-10.611102104187012,-12.790199279785156,4.130168437957764,20.517610549926758,-32.70000076293945,8.25,-7.050000190734863
0.819,81.86254119873047,-1.1109095811843872,-10.917559623718262,-23.04900360107422,4.796324729919434,28.77794647216797,-33.900001525878906,5.850000381469727,-5.700000286102295
0.829,80.36856079101562,-0.038307227194309235,-11.338939666748047,-15.588054656982422,-3.197549819946289,30.110260009765625,-33.900001525878906,5.850000381469727,-5.700000286102295
0.839,79.94718170166016,0.26815059781074524,-12.449849128723145,-17.053598403930664,0.7993874549865723,30.776416778564453,-31.80000114440918,4.950000286102295,-5.850000381469727
0.858,78.83627319335938,-0.4596867263317108,-13.79060173034668,-21.050535202026367,5.8621745109558105,29.177640914916992,-34.20000076293945,5.850000381469727,-6.0
0.862,77.45721435546875,-0.07661445438861847,-14.36521053314209,-22.249616622924805,1.9984685182571411,42.90045928955078,-33.150001525878906,5.550000190734863,-6.0
0.869,77.26567840576172,-2.5665841102600098,-14.748282432556152,-22.649311065673828,-5.062787055969238,54.091880798339844,-33.150001525878906,5.550000190734863,-6.0
0.879,76.4995346069336,-1.9536685943603516,-14.709975242614746,-18.385910034179688,-8.39356803894043,54.35834503173828,-33.150001525878906,5.550000190734863,-6.0
0.89,74.96724700927734,-1.9919757843017578,-15.361198425292969,-26.246553421020508,6.395099639892578,48.362937927246094,-33.75,4.950000286102295,-6.600000381469727
1.0,77.1124496459961,-0.4213795065879822,-16.66364288330078,-3.4640121459960938,3.9969370365142822,32.5084228515625,-35.400001525878906,2.8500001430511475,-6.300000190734863
1.009,76.11646270751953,0.38307225704193115,-15.744270324707031,-5.8621745109558105,-3.9969370365142822,0.5329249501228333,-34.650001525878906,2.8500001430511475,-6.0
1.02,77.95520782470703,1.7621324062347412,-15.782577514648438,-3.7304747104644775,-3.3307809829711914,35.972434997558594,-35.25,1.0500000715255737,-5.850000381469727
1.034,77.26567840576172,3.2561142444610596,-16.1656494140625,12.124042510986328,-7.06125545501709,33.57427215576172,-33.900001525878906,2.8500001430511475,-5.700000286102295
1.04,73.43495178222656,6.473921298980713,-16.203956604003906,17.32006072998047,-8.660030364990234,23.448698043823242,-33.900001525878906,2.8500001430511475,-5.700000286102295
1.05,72.09420013427734,7.8529815673828125,-15.24627685546875,27.578866958618164,7.06125545501709,39.43644714355469,-34.95000076293945,3.1500000953674316,-6.0
1.059,68.7997817993164,10.189722061157227,-13.867216110229492,49.02909469604492,12.656967163085938,36.5053596496582,-34.95000076293945,1.6500000953674316,-6.0
1.069,68.22517395019531,9.768342971801758,-9.653421401977539,58.888206481933594,13.989279747009277,24.781009674072266,-34.95000076293945,4.800000190734863,-4.5
1.08,68.87639617919922,10.342951774597168,-7.8529815673828125,71.67840576171875,-1.8652373552322388,30.509952545166016,-34.95000076293945,4.800000190734863,-4.5
1.096,70.25545501708984,10.342951774597168,-6.550535678863525,75.8085708618164,-7.06125545501709,12.790199279785156,-34.80000305175781,2.700000047683716,-6.150000095367432
1.1,71.67282104492188,10.764330863952637,-8.08282470703125,90.4640121459961,-10.525267601013184,15.588054656982422,-36.0,4.200000286102295,-5.400000095367432
1.109,73.43495178222656,10.381258964538574,-8.848969459533691,94.59417724609375,-10.392036437988281,-1.0658499002456665,-35.55000305175781,2.700000047683716,-7.350000381469727
1.119,76.15476989746094,9.002198219299316,-8.044517517089844,105.91883087158203,-14.522205352783203,-16.520673751831055,-35.55000305175781,2.700000047683716,-7.350000381469727
1.129,78.49150848388672,9.768342971801758,-6.818686485290527,113.51301574707031,-15.188361167907715,-41.83460998535156,-36.75,1.8000000715255737,-7.350000381469727
1.148,81.09639739990234,10.113107681274414,-4.213795185089111,118.70903015136719,-13.856048583984375,-45.96477508544922,-35.400001525878906,2.1000001430511475,-6.750000476837158
1.153,85.27188873291016,9.232041358947754,-4.481945514678955,120.30780792236328,-21.583459854125977,-63.81776428222656,-35.400001525878906,2.1000001430511475,-5.700000286102295
1.16,90.59659576416016,8.695740699768066,-5.861005783081055,120.04134368896484,-27.31240463256836,-60.48698043823242,-35.400001525878906,1.350000023841858,-6.0
1.169,91.66919708251953,6.550535678863525,-8.35097599029541,95.12710571289062,-7.9938740730285645,-70.21286010742188,-35.400001525878906,1.350000023841858,-6.0
1.179,93.58455657958984,4.8267107009887695,-9.232041358947754,89.93108367919922,-15.721285820007324,-86.20060729980469,-33.900001525878906,1.6500000953674316,-8.25
1.189,91.28612518310547,4.367023944854736,-12.564770698547363,80.33843994140625,-6.9280242919921875,-90.06431579589844,-35.25,1.5,-8.40000057220459
1.209,91.05628204345703,6.742072105407715,-14.135366439819336,59.95405578613281,-3.4640121459960938,-124.03828430175781,-33.900001525878906,1.350000023841858,-7.500000476837158
1.213,89.8687515258789,10.917559623718262,-16.127342224121094,87.0,-4.396630764007568,-116.57733154296875,-35.25,3.450000047683716,-7.950000286102295
1.22,88.18323516845703,16.203956604003906,-18.04270362854004,102.8545150756836,-12.390504837036133,-116.0444107055664,-35.25,3.450000047683716,-7.950000286102295
1.229,86.03803253173828,17.544710159301758,-18.77054214477539,110.04900360107422,-17.053598403930664,-118.70903015136719,-33.900001525878906,3.6000001430511475,-7.500000476837158
1.239,83.1266860961914,18.54069709777832,-16.740259170532227,128.96783447265625,-16.387441635131836,-128.7013702392578,-33.45000076293945,4.050000190734863,-8.25
1.249,78.989501953125,18.081010818481445,-15.24627685546875,130.96630859375,-22.51607894897461,-121.3736572265625,-32.25,2.700000047683716,-9.450000762939453
1.269,76.38461303710938,16.66364288330078,-15.054739952087402,149.08575439453125,-32.108726501464844,-113.3797836303711,-31.650001525878906,4.800000190734863,-8.25
1.273,74.7374038696289,14.97812557220459,-13.292608261108398,143.88973999023438,-32.24195861816406,-135.22970581054688,-31.650001525878906,4.800000190734863,-8.25
1.28,73.32003021240234,12.02846908569336,-11.530475616455078,138.96017456054688,-43.96630859375,-133.6309356689453,-32.70000076293945,3.6000001430511475,-9.75
1.289,72.70711517333984,12.066776275634766,-9.806650161743164,142.82388305664062,-53.82542037963867,-135.0964813232422,-33.0,6.150000095367432,-9.90000057220459
1.3,71.2514419555664,11.185709953308105,-10.266336441040039,140.42572021484375,-55.69065856933594,-149.08575439453125,-31.500001907348633,4.950000286102295,-10.200000762939453
1.309,70.67683410644531,10.955866813659668,-9.691728591918945,128.43490600585938,-51.560489654541016,-150.55130004882812,-31.500001907348633,4.5,-9.90000057220459
1.329,68.99131774902344,9.806650161743164,-10.15141487121582,127.63552856445312,-63.018375396728516,-157.612548828125,-31.500001907348633,4.5,-9.90000057220459
1.333,69.3360824584961,9.730035781860352,-9.883264541625977,110.98162078857422,-53.82542037963867,-165.07350158691406,-31.950000762939453,5.850000381469727,-11.100000381469727
1.34,68.761474609375,9.385271072387695,-8.465897560119629,107.91730499267578,-56.62327575683594,-174.1332244873047,-31.950000762939453,7.050000190734863,-11.550000190734863
1.349,69.9489974975586,9.27034854888916,-8.121131896972656,104.85298156738281,-58.4885139465332,-180.26187133789062,-30.150001525878906,7.050000190734863,-11.550000190734863
1.359,70.48529815673828,9.117119789123535,-9.461885452270508,98.19142150878906,-70.07962799072266,-182.92648315429688,-30.30000114440918,8.40000057220459,-10.950000762939453
1.369,69.06793212890625,10.381258964538574,-7.508216381072998,87.79938507080078,-74.20980072021484,-182.2603302001953,-30.30000114440918,8.40000057220459,-10.950000762939453
1.389,69.9873046875,11.60708999633789,-9.232041358947754,67.5482406616211,-55.95711898803711,-183.05972290039062,-30.000001907348633,8.850000381469727,-13.500000953674316
1.393,70.14053344726562,12.143390655517578,-10.994174003601074,46.63093185424805,-52.093414306640625,-183.7258758544922,-28.500001907348633,7.650000095367432,-12.0
1.4,68.1485595703125,13.48414421081543,-12.717999458312988,37.03828430175781,-49.29555892944336,-179.595703125,-30.30000114440918,7.650000095367432,-14.250000953674316
1.409,67.68887329101562,14.709975242614746,-14.863204002380371,18.78560447692871,-43.56661605834961,-174.53292846679688,-28.500001907348633,9.15000057220459,-14.250000953674316
1.419,69.56592559814453,15.935806274414062,-14.326903343200684,3.9969370365142822,-35.705970764160156,-166.00611877441406,-28.500001907348633,9.15000057220459,-14.250000953674316
1.429,69.45100402832031,19.80483627319336,-14.939818382263184,0.7993874549865723,-46.63093185424805,-160.2771759033203,-28.80000114440918,10.350000381469727,-13.950000762939453
1.449,70.37037658691406,21.107282638549805,-16.47210693359375,-4.663093090057373,-44.49923324584961,-148.28636169433594,-28.05000114440918,11.850000381469727,-15.000000953674316
1.452,73.6264877319336,25.81907081604004,-16.970102310180664,1.5987749099731445,-36.238895416259766,-134.83001708984375,-27.750001907348633,12.300000190734863,-13.950000762939453
1.46,75.65677642822266,30.301015853881836,-16.28057098388672,8.39356803894043,-41.434913635253906,-113.51301574707031,-27.450000762939453,11.700000762939453,-13.050000190734863
1.469,76.69107055664062,30.99054718017578,-15.476119995117188,21.183767318725586,-38.37059783935547,-115.37825012207031,-27.450000762939453,11.700000762939453,-13.050000190734863
1.479,78.64473724365234,34.13174057006836,-16.855180740356445,27.17917251586914,-29.977027893066406,-98.19142150878906,-27.30000114440918,12.300000190734863,-12.750000953674316
1.489,79.71733856201172,36.35355758666992,-17.583017349243164,47.830013275146484,-26.379785537719727,-85.00152587890625,-25.950000762939453,14.100000381469727,-14.40000057220459
1.509,83.7012939453125,36.77493667602539,-18.195932388305664,65.28330993652344,-28.511484146118164,-71.54517364501953,-26.400001525878906,12.450000762939453,-13.050000190734863
1.512,87.26386260986328,38.920143127441406,-19.038692474365234,77.14088439941406,-16.65390396118164,-36.238895416259766,-24.900001525878906,12.15000057220459,-11.850000381469727
1.519,92.81841278076172,39.18829345703125,-17.966089248657227,86.46707153320312,-15.45482349395752,-14.92189884185791,-24.900001525878906,12.15000057220459,-11.850000381469727
1.53,94.77207946777344,37.15800857543945,-18.272546768188477,97.39203643798828,-10.525267601013184,5.728943347930908,-25.950000762939453,12.450000762939453,-14.40000057220459
1.539,95.84468078613281,32.599449157714844,-18.732234954833984,106.18529510498047,-9.992342948913574,34.24042892456055,-25.950000762939453,12.450000762939453,-14.40000057220459
1.549,96.87897491455078,28.500577926635742,-21.950040817260742,85.93415069580078,7.06125545501709,50.76110076904297,-25.80000114440918,11.850000381469727,-16.5
1.569,94.542236328125,25.5892276763916,-24.89969825744629,69.67993927001953,23.715160369873047,71.14547729492188,-26.700000762939453,12.15000057220459,-15.90000057220459
1.572,94.96361541748047,22.409727096557617,-22.448034286499023,58.222049713134766,14.92189884185791,97.5252685546875,-26.700000762939453,12.15000057220459,-15.90000057220459
1.579,94.84869384765625,16.778566360473633,-21.413740158081055,52.493106842041016,19.85145378112793,110.18223571777344,-26.700000762939453,12.15000057220459,-15.90000057220459
1.589,93.50794219970703,13.139378547668457,-20.724210739135742,34.50688934326172,24.248085021972656,124.97090148925781,-27.30000114440918,12.300000190734863,-16.05000114440918
1.6,92.6651840209961,8.695740699768066,-18.502389907836914,23.848390579223633,13.722817420959473,133.09800720214844,-27.30000114440918,10.350000381469727,-14.700000762939453
1.609,91.05628204345703,3.3710360527038574,-14.748282432556152,18.119447708129883,11.457886695861816,148.0198974609375,-27.150001525878906,9.0,-16.350000381469727
1.629,89.52398681640625,-1.4939818382263184,-10.994174003601074,-4.529861927032471,15.055130004882812,162.1424102783203,-27.750001907348633,10.050000190734863,-16.05000114440918
1.632,88.48969268798828,-18.387468338012695,-8.810662269592285,-13.58958625793457,-3.9969370365142822,161.47625732421875,-27.750001907348633,10.050000190734863,-16.05000114440918
1.639,87.99169921875,-20.64759635925293,-10.342951774597168,-30.24349021911621,3.597243309020996,164.27410888671875,-27.900001525878906,9.75,-15.90000057220459
1.649,82.70530700683594,-25.435998916625977,-12.832921028137207,-53.69218826293945,12.790199279785156,152.1500701904297,-29.55000114440918,9.600000381469727,-17.25
1.66,77.1124496459961,-29.726408004760742,-14.67166805267334,-93.66156005859375,36.771820068359375,157.4793243408203,-29.250001907348633,7.650000095367432,-14.700000762939453
1.669,71.8260498046875,-30.760704040527344,-15.476119995117188,-111.781005859375,57.15620040893555,150.01837158203125,-29.55000114440918,6.900000095367432,-13.500000953674316
1.689,68.1868667602539,-29.611486434936523,-14.250288963317871,-121.77335357666016,62.35221862792969,149.3522186279297,-29.55000114440918,6.900000095367432,-13.500000953674316
1.692,66.23319244384766,-27.657817840576172,-12.334927558898926,-140.42572021484375,73.14395141601562,157.4793243408203,-32.25,8.100000381469727,-13.500000953674316
1.7,65.9267349243164,-26.355371475219727,-11.492168426513672,-154.54823303222656,86.46707153320312,147.4869842529297,-30.30000114440918,6.900000095367432,-12.750000953674316
1.709,66.65457153320312,-27.198131561279297,-10.802638053894043,-162.27565002441406,83.40275573730469,152.949462890625,-30.750001907348633,6.450000286102295,-12.0
1.719,68.03363800048828,-27.657817840576172,-11.30063247680664,-177.99693298339844,80.47166442871094,150.01837158203125,-30.900001525878906,5.850000381469727,-11.100000381469727
1.729,69.71915435791016,-28.040889739990234,-13.407529830932617,-194.78407287597656,94.9938735961914,133.6309356689453,-30.900001525878906,5.850000381469727,-11.100000381469727
1.749,71.94097137451172,-26.31706428527832,-15.169661521911621,-215.96783447265625,93.39509582519531,131.49923706054688,-32.25,6.450000286102295,-10.200000762939453
1.753,76.15476989746094,-19.460071563720703,-15.591041564941406,-238.35067749023438,94.86064147949219,154.814697265625,-33.0,3.0,-10.65000057220459
1.759,78.72135162353516,-17.468095779418945,-14.556746482849121,-253.00611877441406,92.46247863769531,151.6171417236328,-33.0,3.0,-10.65000057220459
1.769,78.56812286376953,-14.09705924987793,-12.90953540802002,-270.1929626464844,91.13016510009766,156.81317138671875,-31.950000762939453,4.350000381469727,-9.75
1.779,77.91690063476562,-12.60307788848877,-10.917559623718262,-272.0581970214844,79.13935852050781,181.99386596679688,-31.950000762939453,4.350000381469727,-9.75
1.789,76.69107055664062,-8.695740699768066,-12.105083465576172,-277.25421142578125,81.53751373291016,179.0627899169922,-33.45000076293945,4.800000190734863,-8.550000190734863
1.803,75.65677642822266,-6.435614109039307,-11.530475616455078,-285.5145568847656,78.3399658203125,181.06124877929688,-34.05000305175781,3.0,-7.650000095367432
1.81,70.79175567626953,-1.7621324062347412,-11.070788383483887,-288.8453369140625,68.4808578491211,189.32159423828125,-34.05000305175781,3.0,-7.650000095367432
1.819,70.40868377685547,-1.723825216293335,-10.572794914245605,-274.45635986328125,58.355281829833984,202.3782501220703,-36.45000076293945,4.350000381469727,-5.700000286102295
1.829,68.30178833007812,2.3750481605529785,-11.875240325927734,-272.4578857421875,66.34915924072266,202.3782501220703,-36.45000076293945,4.350000381469727,-5.700000286102295
1.839,66.15657806396484,5.20978307723999,-11.492168426513672,-250.0750274658203,58.08882141113281,212.63705444335938,-34.650001525878906,2.1000001430511475,-5.700000286102295
1.85,65.58197021484375,9.883264541625977,-11.03248119354248,-226.35987854003906,46.497703552246094,218.36599731445312,-34.95000076293945,1.6500000953674316,-4.950000286102295
1.867,63.36015319824219,12.181697845458984,-10.41956615447998,-191.58651733398438,37.97090148925781,210.1056671142578,-36.30000305175781,0.75,-2.8500001430511475
1.871,60.60203170776367,13.062764167785645,-12.181697845458984,-167.6049041748047,28.111791610717773,217.96630859375,-36.30000305175781,0.75,-2.8500001430511475
1.879,59.5294303894043,12.526463508605957,-11.224017143249512,-148.95252990722656,33.70750427246094,219.16539001464844,-36.30000305175781,0.75,-2.8500001430511475
1.889,58.64836502075195,12.526463508605957,-13.21599292755127,-114.44563293457031,23.98162269592285,221.16384887695312,-36.0,-1.5,-3.3000001907348633
2.0,83.89282989501953,-2.4133553504943848,-18.693927764892578,-141.89126586914062,75.40888214111328,112.31393432617188,-37.5,-8.100000381469727,1.350000023841858
2.009,88.0300064086914,1.800439715385437,-19.000385284423828,-127.23583221435547,69.81317138671875,105.5191421508789,-38.70000076293945,-10.5,3.0
2.019,91.4393539428711,8.887276649475098,-18.4257755279541,-103.38744354248047,75.8085708618164,107.51760864257812,-38.70000076293945,-10.5,3.0
2.039,94.5039291381836,16.89348793029785,-17.085023880004883,-78.73966217041016,62.085758209228516,104.05359649658203,-39.30000305175781,-10.5,3.0
2.043,95.53822326660156,21.605276107788086,-15.437812805175781,-26.246553421020508,49.69525146484375,116.9770278930664,-36.900001525878906,-11.40000057220459,3.750000238418579
2.05,94.5039291381836,20.264522552490234,-14.595053672790527,-1.3323123455047607,48.362937927246094,95.52679443359375,-38.70000076293945,-9.75,0.45000001788139343
2.059,92.43534088134766,15.782577514648438,-16.28057098388672,38.77029037475586,40.76875686645508,83.40275573730469,-37.20000076293945,-10.950000762939453,1.9500000476837158
2.07,89.48567962646484,9.53849983215332,-16.58702850341797,79.40581512451172,39.43644714355469,76.07503509521484,-37.20000076293945,-10.950000762939453,1.9500000476837158
2.079,87.80016326904297,0.9193734526634216,-17.276559829711914,96.59264373779297,44.89892578125,42.23430252075195,-38.70000076293945,-10.950000762939453,3.0
2.098,91.28612518310547,-4.903325080871582,-13.675680160522461,114.71209716796875,36.10566711425781,7.460949420928955,-37.95000076293945,-11.700000762939453,2.25
2.103,95.76806640625,-9.193734169006348,-5.899312973022461,126.43644714355469,30.643184661865234,-19.185298919677734,-38.400001525878906,-12.90000057220459,4.5
2.11,104.42549896240234,-22.562957763671875,1.455674648284912,116.71056365966797,23.182235717773438,-40.9019889831543,-38.25,-11.100000381469727,3.6000001430511475
2.119,107.33685302734375,-28.960264205932617,3.485957622528076,122.3062744140625,18.2526798248291,-58.08882141113281,-38.25,-11.100000381469727,3.6000001430511475
2.129,109.86512756347656,-35.93217849731445,4.520252704620361,125.63705444335938,0.0,-89.7978515625,-39.150001525878906,-11.40000057220459,3.750000238418579
2.139,107.6050033569336,-38.115692138671875,0.9576807022094727,129.6339874267578,-8.926492691040039,-129.10107421875,-39.75,-12.300000190734863,4.350000381469727
2.159,102.85490417480469,-35.54910659790039,-4.060565948486328,116.84379577636719,3.86370587348938,-156.94639587402344,-39.0,-11.100000381469727,4.350000381469727
2.163,96.03621673583984,-28.883649826049805,-7.086836814880371,110.44869232177734,-0.39969372749328613,-164.4073486328125,-39.30000305175781,-10.050000190734863,4.650000095367432
2.17,88.48969268798828,-20.800825119018555,-6.129156112670898,126.5696792602539,-14.92189884185791,-148.68606567382812,-39.30000305175781,-10.050000190734863,4.650000095367432
2.179,86.88079071044922,-18.157625198364258,-4.750096321105957,120.57427215576172,-9.72588062286377,-137.09494018554688,-38.25,-10.350000381469727,3.9000000953674316
2.189,87.18724822998047,-17.161638259887695,-1.723825216293335,142.82388305664062,-24.11485481262207,-143.4900360107422,-38.55000305175781,-9.600000381469727,4.650000095367432
2.2,86.84248352050781,-17.42978858947754,1.0342950820922852,167.2052001953125,-48.8958625793457,-148.4196014404297,-37.80000305175781,-10.800000190734863,4.350000381469727
2.219,88.18323516845703,-14.326903343200684,2.1068975925445557,208.5068817138672,-73.14395141601562,-164.5405731201172,-38.25,-9.15000057220459,4.350000381469727
2.223,88.41307830810547,-10.572794914245605,1.9919757843017578,245.545166015625,-95.52679443359375,-182.7932586669922,-38.25,-9.15000057220459,4.350000381469727
2.23,85.38681030273438,-8.772355079650879,1.9153614044189453,268.1944885253906,-111.781005859375,-193.58499145507812,-38.55000305175781,-6.450000286102295,3.6000001430511475
2.239,84.73558807373047,-9.53849983215332,1.8770540952682495,302.7013854980469,-123.9050521850586,-196.24961853027344,-38.70000076293945,-6.750000476837158,2.25
2.249,83.58637237548828,-10.879252433776855,3.7924153804779053,311.2281799316406,-118.57579803466797,-194.6508331298828,-38.25,-6.150000095367432,2.1000001430511475
2.259,83.0500717163086,-15.207969665527344,5.2480902671813965,315.4915771484375,-131.63246154785156,-215.16844177246094,-37.95000076293945,-4.800000190734863,2.700000047683716
2.28,83.77790832519531,-21.030668258666992,6.742072105407715,310.2955627441406,-137.22817993164062,-208.3736572265625,-37.95000076293945,-4.800000190734863,2.700000047683716
2.283,82.5137710571289,-24.13355255126953,9.155426979064941,280.05206298828125,-139.09341430664062,-223.56201171875,-36.75,-3.0,0.30000001192092896
2.289,78.91288757324219,-27.504589080810547,8.08282470703125,254.47166442871094,-140.42572021484375,-235.68606567382812,-39.0,-4.200000286102295,1.0500000715255737
2.3,78.03182220458984,-28.61549949645996,6.244078159332275,217.5666046142578,-131.0995330810547,-248.34303283691406,-37.5,-2.25,-1.0500000715255737
2.309,75.81000518798828,-28.8453426361084,5.669469833374023,193.85145568847656,-133.6309356689453,-244.612548828125,-37.20000076293945,-0.9000000357627869,-1.2000000476837158
2.319,71.63451385498047,-27.925968170166016,1.37906014919281,142.82388305664062,-118.04287719726562,-260.4670715332031,-37.20000076293945,-0.9000000357627869,-1.2000000476837158
2.339,68.34009552001953,-26.43198585510254,-1.9536685943603516,110.18223571777344,-114.17916870117188,-261.3996887207031,-36.0,-0.75,-2.1000001430511475
2.343,63.97306823730469,-22.60126495361328,-2.8347349166870117,75.67534637451172,-109.78253936767578,-257.0030517578125,-36.900001525878906,1.6500000953674316,-3.450000047683716
2.35,60.44880294799805,-15.591041564941406,-5.822698593139648,65.949462890625,-105.38591003417969,-253.2725830078125,-37.80000305175781,1.0500000715255737,-3.9000000953674316
2.359,56.733001708984375,-11.91354751586914,-7.010222434997559,43.83307647705078,-92.86217498779297,-257.5359802246094,-35.25,3.0,-3.6000001430511475
2.369,54.35795593261719,-6.358999729156494,-7.967903137207031,33.97396469116211,-91.13016510009766,-244.07962036132812,-35.25,3.0,-3.6000001430511475
2.379,52.63412857055664,-1.6089035272598267,-8.810662269592285,45.96477508544922,-96.72587585449219,-225.2940216064453,-35.25,3.0,-3.6000001430511475
2.399,51.561527252197266,3.6391866207122803,-7.7763671875,50.62786865234375,-87.79938507080078,-216.6339874267578,-35.70000076293945,7.050000190734863,-4.950000286102295
2.404,51.29337692260742,6.550535678863525,-5.1331682205200195,67.68146514892578,-91.3966293334961,-215.83460998535156,-34.05000305175781,5.700000286102295,-5.400000095367432
2.41,51.40829849243164,7.891288757324219,-1.723825216293335,74.07656860351562,-101.78866577148438,-203.71055603027344,-33.45000076293945,6.750000476837158,-4.950000286102295
2.419,51.44660568237305,8.197746276855469,0.2298433631658554,92.86217498779297,-106.31852722167969,-188.78866577148438,-33.45000076293945,6.750000476837158,-4.950000286102295
2.429,51.82967758178711,7.393294811248779,1.1492167711257935,92.19601440429688,-112.31393432617188,-185.4578857421875,-33.45000076293945,6.750000476837158,-4.950000286102295
2.439,54.01319122314453,5.899312973022461,2.719813108444214,92.86217498779297,-119.7748794555664,-175.865234375,-31.950000762939453,9.0,-7.500000476837158
2.459,57.0777702331543,5.5545477867126465,4.596867084503174,94.19448852539062,-126.5696792602539,-164.4073486328125,-31.650001525878906,9.75,-6.300000190734863
2.462,61.40648651123047,3.869029998779297,4.175487995147705,79.0061264038086,-123.63858795166016,-141.4915771484375,-31.500001907348633,8.40000057220459,-9.15000057220459
2.469,66.04165649414062,3.9456443786621094,4.405331134796143,48.62940216064453,-107.11791229248047,-125.7702865600586,-32.55000305175781,10.350000381469727,-8.40000057220459
2.479,71.05990600585938,4.443638324737549,3.179499864578247,39.70290756225586,-110.04900360107422,-110.31546783447266,-32.55000305175781,10.350000381469727,-8.40000057220459
2.49,75.84831237792969,4.252102375030518,2.183511972427368,12.25727367401123,-103.25421142578125,-105.25267791748047,-31.500001907348633,11.850000381469727,-8.700000762939453
2.5,78.52981567382812,3.600879430770874,-2.3367409706115723,-11.058192253112793,-93.66156005859375,-111.64777374267578,-30.900001525878906,12.15000057220459,-10.800000190734863
2.519,81.09639739990234,2.3367409706115723,-8.427590370178223,-19.584991455078125,-72.74425506591797,-106.18529510498047,-30.900001525878906,10.200000762939453,-9.75
2.523,88.10662078857422,5.631162166595459,-19.881450653076172,-55.4241943359375,-24.381317138671875,-88.99846649169922,-29.700000762939453,12.15000057220459,-10.350000381469727
2.529,90.86474609375,7.929595947265625,-19.80483627319336,-70.3460922241211,-4.663093090057373,-73.27718353271484,-29.700000762939453,12.15000057220459,-10.350000381469727
2.539,94.19747161865234,11.568782806396484,-19.000385284423828,-88.33231353759766,6.661561965942383,-45.96477508544922,-30.150001525878906,12.450000762939453,-11.100000381469727
2.549,95.53822326660156,13.828908920288086,-18.962078094482422,-89.66461944580078,8.926492691040039,-15.854516983032227,-29.55000114440918,13.500000953674316,-10.200000762939453
2.559,96.9555892944336,12.181697845458984,-21.835119247436523,-72.0781021118164,9.592649459838867,0.1332312375307083,-29.250001907348633,11.550000190734863,-9.90000057220459
2.578,95.92129516601562,9.959878921508789,-24.89969825744629,-68.21439361572266,15.055130004882812,12.25727367401123,-30.900001525878906,15.15000057220459,-9.0
2.582,93.77609252929688,4.558559894561768,-26.01060676574707,-59.287899017333984,4.796324729919434,57.422664642333984,-30.900001525878906,15.15000057220459,-9.0
2.589,94.31239318847656,2.1068975925445557,-26.738445281982422,-56.356815338134766,-0.39969372749328613,75.5421142578125,-30.150001525878906,13.200000762939453,-9.0
2.6,93.73778533935547,0.19153612852096558,-30.645782470703125,-79.80551147460938,20.117916107177734,76.4747314453125,-30.750001907348633,11.850000381469727,-8.40000057220459
2.609,97.6068115234375,-1.455674648284912,-35.31926345825195,-101.65543365478516,35.57273864746094,116.0444107055664,-30.000001907348633,12.300000190734863,-8.40000057220459
2.619,103.88919830322266,1.3407529592514038,-34.170047760009766,-108.3169937133789,30.509952545166016,153.882080078125,-30.450000762939453,13.65000057220459,-7.500000476837158
2.639,112.5849380493164,3.8307228088378906,-27.044902801513672,-99.79019927978516,15.987748146057129,187.05665588378906,-31.650001525878906,10.200000762939453,-7.800000190734863
2.642,107.52838897705078,-0.9576807022094727,-11.377246856689453,-83.5359878540039,13.856048583984375,188.92189025878906,-31.650001525878906,10.200000762939453,-7.800000190734863
2.649,104.1190414428711,-4.367023944854736,-9.806650161743164,-58.888206481933594,1.5987749099731445,190.1209716796875,-31.200000762939453,11.700000762939453,-7.500000476837158
2.659,95.30838012695312,-10.496180534362793,-10.764330863952637,-16.920366287231445,-10.125574111938477,184.92495727539062,-31.650001525878906,10.950000762939453,-6.0
2.669,84.85050964355469,-22.026655197143555,-13.254301071166992,-7.9938740730285645,3.86370587348938,174.0,-34.95000076293945,10.5,-7.500000476837158
2.679,78.49150848388672,-33.7869758605957,-14.480132102966309,-21.983154296875,14.522205352783203,164.27410888671875,-34.95000076293945,10.5,-7.500000476837158
2.699,76.07815551757812,-46.198516845703125,-14.058752059936523,-57.422664642333984,30.110260009765625,163.0750274658203,-33.900001525878906,9.450000762939453,-8.550000190734863
2.703,74.96724700927734,-57.001155853271484,-19.49837875366211,-122.70597076416016,63.950992584228516,152.28330993652344,-33.900001525878906,7.050000190734863,-5.700000286102295
2.709,74.46924591064453,-56.57977294921875,-20.41775131225586,-152.016845703125,93.92802429199219,158.4119415283203,-33.900001525878906,7.050000190734863,-5.700000286102295
2.719,74.92893981933594,-53.09381866455078,-21.0689754486084,-194.6508331298828,120.70750427246094,151.35069274902344,-34.05000305175781,8.100000381469727,-5.850000381469727
2.729,76.07815551757812,-44.6279182434082,-19.421764373779297,-232.62173461914062,132.29861450195312,162.6753387451172,-34.05000305175781,8.100000381469727,-5.850000381469727
2.739,79.44918823242188,-34.24666213989258,-15.897499084472656,-275.5221862792969,151.88360595703125,164.5405731201172,-36.0,4.950000286102295,-6.150000095367432
2.753,83.20330047607422,-25.550920486450195,-11.60708999633789,-299.5038146972656,134.96324157714844,179.4624786376953,-36.30000305175781,6.150000095367432,-4.350000381469727
2.76,84.54405212402344,-16.47210693359375,-8.695740699768066,-310.2955627441406,127.63552856445312,196.1163787841797,-36.30000305175781,6.150000095367432,-4.350000381469727
2.769,84.04605865478516,-11.683704376220703,-8.427590370178223,-325.3506774902344,108.050537109375,190.5206756591797,-36.30000305175781,6.900000095367432,-2.8500001430511475
2.779,83.43314361572266,-6.205770969390869,-8.772355079650879,-336.5421142578125,102.8545150756836,195.71669006347656,-36.30000305175781,6.900000095367432,-2.8500001430511475
2.789,81.21131896972656,0.8810662031173706,-9.040505409240723,-326.4165344238281,72.61102294921875,216.6339874267578,-36.0,2.700000047683716,0.0
2.809,79.37257385253906,7.508216381072998,-9.921571731567383,-311.2281799316406,59.55436325073242,195.050537109375,-39.0,3.750000238418579,1.350000023841858
2.813,75.9249267578125,13.943830490112305,-11.41555404663086,-269.52679443359375,45.43185043334961,224.22817993164062,-37.650001525878906,3.1500000953674316,3.450000047683716
2.82,71.2514419555664,19.881450653076172,-11.568782806396484,-244.74578857421875,40.9019889831543,232.62173461914062,-37.650001525878906,3.1500000953674316,3.450000047683716
2.829,67.26749420166016,23.405715942382812,-12.105083465576172,-201.9785614013672,15.321592330932617,235.15313720703125,-37.650001525878906,3.1500000953674316,3.450000047683716
2.839,61.78955841064453,26.738445281982422,-12.7946138381958,-151.75038146972656,15.45482349395752,240.61561584472656,-38.25,0.75,2.1000001430511475
2.849,56.618080139160156,26.54690933227539,-14.748282432556152,-116.57733154296875,22.915773391723633,232.35528564453125,-37.95000076293945,-0.45000001788139343,2.700000047683716
2.868,51.71475601196289,25.933992385864258,-15.322891235351562,-73.0107192993164,23.448698043823242,243.14700317382812,-39.30000305175781,-0.30000001192092896,3.6000001430511475
2.872,47.99895477294922,24.24847412109375,-15.514427185058594,-28.644716262817383,34.773353576660156,241.814697265625,-39.45000076293945,-1.350000023841858,3.450000047683716
2.88,45.66221618652344,14.441824913024902,-14.36521053314209,-9.326186180114746,31.309341430664062,257.4027404785156,-39.45000076293945,-1.350000023841858,3.450000047683716
2.889,45.96867370605469,7.393294811248779,-13.292608261108398,-5.728943347930908,50.36140823364258,242.6140899658203,-40.05000305175781,-3.450000047683716,2.5500001907348633
2.9,44.85776138305664,3.2178070545196533,-12.717999458312988,-6.395099639892578,47.0306282043457,245.4119415283203,-39.45000076293945,-3.750000238418579,3.6000001430511475
2.909,45.08760452270508,-2.298433542251587,-11.990161895751953,-18.519142150878906,51.027565002441406,236.88514709472656,-40.5,-6.900000095367432,3.9000000953674316
2.929,47.65419006347656,-6.01423454284668,-12.947842597961426,-49.56201934814453,64.88361358642578,221.03062438964844,-40.5,-6.900000095367432,3.9000000953674316
2.933,49.03324890136719,-8.96389102935791,-12.947842597961426,-61.552833557128906,62.75191116333008,205.04287719726562,-41.70000076293945,-7.050000190734863,4.950000286102295
2.94,53.170433044433594,-11.30063247680664,-11.683704376220703,-64.48391723632812,71.01225280761719,194.2511444091797,-40.5,-9.600000381469727,3.9000000953674316
2.949,55.698707580566406,-11.109095573425293,-10.457873344421387,-73.67687225341797,65.28330993652344,181.46095275878906,-40.95000076293945,-9.450000762939453,4.950000286102295
2.959,63.24523162841797,-8.734047889709473,-7.967903137207031,-83.40275573730469,64.48391723632812,174.9326171875,-40.95000076293945,-10.200000762939453,7.050000190734863
2.969,70.83006286621094,-11.30063247680664,-9.998186111450195,-82.6033706665039,58.888206481933594,149.61868286132812,-40.95000076293945,-10.200000762939453,7.050000190734863
2.989,77.763671875,-8.619126319885254,-9.84495735168457,-88.46553802490234,50.4946403503418,134.03062438964844,-42.150001525878906,-10.5,7.050000190734863
2.993,83.62467956542969,-5.477933406829834,-11.875240325927734,-87.26646423339844,69.14701080322266,105.78560638427734,-41.400001525878906,-13.65000057220459,7.500000476837158
3.0,89.7921371459961,-3.9839515686035156,-17.583017349243164,-86.86676788330078,71.41194152832031,85.80091857910156,-40.05000305175781,-12.300000190734863,6.900000095367432
3.009,92.43534088134766,-2.911349296569824,-18.464082717895508,-65.28330993652344,67.14854431152344,87.66615295410156,-42.150001525878906,-14.100000381469727,7.500000476837158
3.019,97.07051086425781,0.7661445140838623,-18.962078094482422,-56.49004364013672,71.81163787841797,84.4686050415039,-42.150001525878906,-14.100000381469727,7.500000476837158
3.029,101.82061004638672,9.883264541625977,-19.881450653076172,-44.36600112915039,77.67381286621094,71.67840576171875,-42.0,-13.500000953674316,7.950000286102295
3.05,104.1956558227539,14.441824913024902,-19.536685943603516,1.8652373552322388,65.28330993652344,65.15007781982422,-41.25,-15.000000953674316,7.650000095367432
3.053,102.9315185546875,15.744270324707031,-20.532672882080078,63.81776428222656,56.09035110473633,44.09954071044922,-41.25,-16.950000762939453,7.950000286102295
3.06,99.02418518066406,10.879252433776855,-20.456058502197266,80.07197570800781,61.15313720703125,32.24195861816406,-41.55000305175781,-14.550000190734863,7.650000095367432
3.069,98.98587799072266,6.89530086517334,-19.000385284423828,118.04287719726562,47.0306282043457,12.656967163085938,-41.55000305175781,-14.550000190734863,7.650000095367432
3.079,101.0927734375,2.6431987285614014,-16.28057098388672,142.95712280273438,42.500762939453125,-7.460949420928955,-41.55000305175781,-15.450000762939453,8.700000762939453
3.09,104.57872772216797,-4.558559894561768,-8.772355079650879,185.99081420898438,39.03675079345703,-42.500762939453125,-42.150001525878906,-14.850000381469727,10.050000190734863
3.109,109.98004913330078,-14.403517723083496,-0.15322890877723694,225.02755737304688,30.643184661865234,-57.955589294433594,-41.70000076293945,-15.600000381469727,10.350000381469727
3.113,116.6838150024414,-29.075185775756836,8.197746276855469,284.04901123046875,3.9969370365142822,-99.79019927978516,-40.95000076293945,-15.15000057220459,10.800000190734863
3.12,111.8954086303711,-44.28315353393555,6.167463779449463,297.7718200683594,-22.382848739624023,-124.03828430175781,-40.95000076293945,-15.15000057220459,10.800000190734863
3.13,107.14531707763672,-49.14817428588867,0.727837324142456,285.64776611328125,-29.044410705566406,-164.27410888671875,-40.95000076293945,-15.15000057220459,10.800000190734863
3.139,97.26204681396484,-50.60384750366211,-5.286397457122803,255.27105712890625,-39.43644714355469,-170.53598022460938,-40.80000305175781,-13.050000190734863,9.90000057220459
3.15,87.3787841796875,-46.84973907470703,-5.5545477867126465,226.49310302734375,-47.56355285644531,-157.34608459472656,-42.0,-13.050000190734863,9.450000762939453
3.169,80.06210327148438,-41.5633430480957,-1.723825216293335,187.85604858398438,-38.63705825805664,-132.29861450195312,-43.20000076293945,-12.15000057220459,9.300000190734863
3.173,79.10442352294922,-39.226600646972656,3.294421434402466,177.73046875,-55.4241943359375,-142.82388305664062,-43.20000076293945,-12.15000057220459,9.300000190734863
3.179,81.63269805908203,-35.05111312866211,9.84495735168457,182.7932586669922,-61.41960144042969,-148.4196014404297,-43.20000076293945,-12.15000057220459,9.300000190734863
3.189,83.89282989501953,-33.48051834106445,11.990161895751953,191.9862060546875,-82.6033706665039,-171.7350616455078,-42.900001525878906,-9.75,9.0
3.2,87.72354888916016,-30.530860900878906,12.717999458312988,208.10719299316406,-104.05359649658203,-187.3231201171875,-42.45000076293945,-8.700000762939453,7.800000190734863
3.209,91.17120361328125,-27.006595611572266,12.22000503540039,233.0214385986328,-132.43185424804688,-227.42572021484375,-42.30000305175781,-8.850000381469727,6.900000095367432
3.229,92.85671997070312,-26.240449905395508,12.334927558898926,268.4609375,-164.00765991210938,-237.81776428222656,-42.150001525878906,-6.750000476837158,6.0
3.232,94.31239318847656,-26.393678665161133,9.921571731567383,283.2496032714844,-177.06431579589844,-259.93414306640625,-42.150001525878906,-6.750000476837158,6.0
3.239,92.85671997070312,-25.627534866333008,8.734047889709473,281.117919921875,-177.46400451660156,-278.9862060546875,-42.0,-3.750000238418579,6.150000095367432
3.249,91.40104675292969,-27.77273941040039,6.703764915466309,276.05511474609375,-191.0535888671875,-280.5849914550781,-42.0,-3.750000238418579,4.350000381469727
3.26,88.41307830810547,-29.15180015563965,6.052541732788086,261.0,-195.45022583007812,-285.2480773925781,-42.30000305175781,-2.700000047683716,3.9000000953674316
3.269,83.93113708496094,-32.44622039794922,3.8307228088378906,219.9647674560547,-192.11944580078125,-292.44256591796875,-41.55000305175781,-1.5,1.350000023841858
3.289,78.68304443359375,-34.01681900024414,2.0685901641845703,187.85604858398438,-183.1929473876953,-287.51300048828125,-41.55000305175781,-1.5,1.350000023841858
3.293,73.20510864257812,-34.55311965942383,-1.0342950820922852,142.02450561523438,-166.2725830078125,-299.7702941894531,-41.55000305175781,0.0,0.30000001192092896
3.3,66.11827087402344,-32.599449157714844,-2.030282974243164,121.77335357666016,-172.00152587890625,-289.511474609375,-40.650001525878906,0.45000001788139343,-1.2000000476837158
3.309,63.398460388183594,-30.224401473999023,-2.719813108444214,85.13475799560547,-156.14700317382812,-301.10260009765625,-40.95000076293945,2.4000000953674316,-1.6500000953674316
3.319,59.98911666870117,-27.313053131103516,-5.592854976654053,65.28330993652344,-145.0888214111328,-303.6340026855469,-39.45000076293945,1.6500000953674316,-2.25
3.329,58.26529312133789,-24.36339569091797,-5.363011837005615,35.306278228759766,-138.6937255859375,-302.96783447265625,-39.45000076293945,1.6500000953674316,-2.25
3.349,55.85193634033203,-19.345149993896484,-6.282385349273682,4.929555892944336,-125.50382232666016,-310.56201171875,-37.80000305175781,6.150000095367432,-3.9000000953674316
3.352,54.089805603027344,-14.020444869995117,-5.784391403198242,-29.31087303161621,-112.31393432617188,-307.63092041015625,-39.150001525878906,5.850000381469727,-4.5
3.36,51.1784553527832,-7.201758861541748,-5.2480902671813965,-36.10566711425781,-124.57120513916016,-294.0413513183594,-37.20000076293945,8.700000762939453,-5.700000286102295
3.369,49.18648147583008,-5.477933406829834,-4.481945514678955,-52.3598747253418,-116.84379577636719,-287.646240234375,-38.25,8.850000381469727,-2.5500001907348633
3.379,47.38603973388672,0.5363011956214905,-4.060565948486328,-79.0061264038086,-108.18376159667969,-279.9188232421875,-38.25,8.850000381469727,-2.5500001907348633
3.389,44.091617584228516,3.5242648124694824,-5.094861030578613,-81.27105712890625,-112.31393432617188,-266.595703125,-36.30000305175781,10.800000190734863,-6.600000381469727
3.409,44.28315353393555,8.65743350982666,-3.754108190536499,-93.39509582519531,-112.31393432617188,-249.40887451171875,-35.70000076293945,11.700000762939453,-6.300000190734863
3.413,48.07556915283203,16.35718536376953,-3.907337188720703,-91.26339721679688,-99.25727081298828,-231.95558166503906,-35.70000076293945,11.700000762939453,-6.300000190734863
3.419,48.61186981201172,16.203956604003906,-3.600879430770874,-78.3399658203125,-96.05972290039062,-221.43031311035156,-32.70000076293945,13.200000762939453,-5.700000286102295
3.429,51.33168411254883,18.157625198364258,-4.252102375030518,-54.22511291503906,-109.915771484375,-210.77182006835938,-32.70000076293945,13.200000762939453,-5.700000286102295
3.439,55.622093200683594,20.95405387878418,-1.9536685943603516,-39.30321502685547,-122.57273864746094,-198.6477813720703,-33.75,15.000000953674316,-5.100000381469727
3.45,61.98109436035156,24.938005447387695,-3.869029998779297,-34.50688934326172,-120.17457580566406,-184.25880432128906,-31.500001907348633,15.750000953674316,-6.900000095367432
3.469,64.20291137695312,26.738445281982422,-5.439626216888428,-7.594180583953857,-113.24655151367188,-181.99386596679688,-32.400001525878906,17.850000381469727,-5.700000286102295
3.472,71.02159881591797,27.313053131103516,-17.085023880004883,8.260336875915527,-94.46094512939453,-163.4747314453125,-31.05000114440918,17.400001525878906,-7.950000286102295
3.479,71.67282104492188,27.006595611572266,-17.62132453918457,10.791729927062988,-69.01377868652344,-166.40582275390625,-31.05000114440918,17.400001525878906,-7.950000286102295
3.489,76.19307708740234,26.163835525512695,-21.6818904876709,20.251148223876953,-46.63093185424805,-149.3522186279297,-31.05000114440918,18.900001525878906,-7.350000381469727
3.499,80.7899398803711,25.857378005981445,-26.54690933227539,19.052066802978516,-13.989279747009277,-121.3736572265625,-29.55000114440918,17.700000762939453,-6.900000095367432
3.509,85.88480377197266,31.60346221923828,-28.38565444946289,9.992342948913574,-0.5329249501228333,-82.20367431640625,-30.150001525878906,19.5,-8.25
3.528,90.2901382446289,39.80120849609375,-21.56696891784668,9.326186180114746,1.5987749099731445,-8.793261528015137,-29.700000762939453,18.75,-9.0
3.532,90.2518310546875,42.7891731262207,-21.6818904876709,34.10719680786133,-4.663093090057373,12.124042510986328,-29.700000762939453,18.75,-9.0
3.539,89.7921371459961,40.260894775390625,-23.290794372558594,68.61408996582031,-13.989279747009277,18.385910034179688,-30.000001907348633,19.200000762939453,-7.650000095367432
3.549,88.10662078857422,35.89387130737305,-22.48634147644043,87.9326171875,-8.260336875915527,29.444103240966797,-28.650001525878906,19.05000114440918,-8.25
3.559,87.4170913696289,24.13355255126953,-23.52063751220703,81.00459289550781,-13.056661605834961,45.96477508544922,-28.950000762939453,18.30000114440918,-8.25
3.569,85.34850311279297,15.85919189453125,-21.37543296813965,65.54976654052734,-25.580398559570312,64.88361358642578,-30.750001907348633,18.900001525878906,-9.15000057220459
3.589,86.61264038085938,5.1331682205200195,-22.869415283203125,26.246553421020508,-25.7136287689209,80.73812866210938,-29.55000114440918,18.900001525878906,-10.65000057220459
3.593,91.36273956298828,-10.342951774597168,-33.7486686706543,-56.49004364013672,-3.4640121459960938,96.72587585449219,-30.150001525878906,17.100000381469727,-9.0
3.6,92.62687683105469,-10.189722061157227,-35.85556411743164,-94.46094512939453,6.5283308029174805,108.18376159667969,-30.150001525878906,17.100000381469727,-9.0
3.609,94.5805435180664,-8.772355079650879,-37.387855529785156,-144.82235717773438,24.248085021972656,135.76263427734375,-28.80000114440918,18.450000762939453,-9.450000762939453
3.619,99.06249237060547,-3.2178070545196533,-34.05512619018555,-175.0658416748047,33.84073257446289,146.28790283203125,-30.000001907348633,16.5,-8.40000057220459
3.629,99.79032897949219,3.600879430770874,-28.270732879638672,-161.6094970703125,24.781009674072266,177.46400451660156,-30.000001907348633,16.5,-8.40000057220459
3.645,95.07853698730469,7.6997528076171875,-22.639572143554688,-110.18223571777344,20.784072875976562,179.19601440429688,-31.200000762939453,14.850000381469727,-7.800000190734863
3.65,85.5017318725586,2.9879636764526367,-18.54069709777832,-85.53445434570312,22.51607894897461,194.78407287597656,-31.200000762939453,14.850000381469727,-7.800000190734863
3.66,84.39082336425781,-1.1875240802764893,-16.35718536376953,-52.3598747253418,27.84532928466797,184.25880432128906,-31.200000762939453,14.40000057220459,-6.750000476837158
3.669,82.59038543701172,-12.871228218078613,-14.748282432556152,-34.10719680786133,42.500762939453125,178.5298614501953,-33.0,15.750000953674316,-8.40000057220459
3.679,83.96944427490234,-23.673866271972656,-14.824896812438965,-27.978559494018555,60.35375213623047,166.2725830078125,-33.0,15.750000953674316,-8.40000057220459
3.689,88.0300064086914,-33.90189743041992,-16.89348793029785,-56.49004364013672,77.94027709960938,165.4731903076172,-33.900001525878906,13.65000057220459,-5.700000286102295
3.703,92.01396179199219,-39.57136535644531,-20.532672882080078,-89.39816284179688,91.92955017089844,175.59877014160156,-34.05000305175781,13.500000953674316,-5.850000381469727
3.71,92.97164154052734,-37.00477981567383,-24.823083877563477,-119.10872650146484,108.45022583007812,178.6630859375,-34.05000305175781,13.500000953674316,-5.850000381469727
3.719,92.01396179199219,-33.63374710083008,-25.129541397094727,-154.814697265625,127.76875305175781,183.99234008789062,-33.0,10.050000190734863,-7.350000381469727
3.729,88.71953582763672,-24.13355255126953,-23.903709411621094,-184.25880432128906,149.88514709472656,184.79173278808594,-33.0,10.050000190734863,-7.350000381469727
3.739,85.76988220214844,-16.318878173828125,-18.579004287719727,-205.30934143066406,138.2940216064453,195.5834503173828,-34.650001525878906,10.5,-3.450000047683716
3.758,82.82022857666016,-10.5344877243042,-12.526463508605957,-222.89585876464844,131.49923706054688,207.97396850585938,-37.5,10.350000381469727,-3.6000001430511475
3.762,78.9511947631836,-9.653421401977539,-9.423578262329102,-252.20672607421875,110.848388671875,229.0244903564453,-37.05000305175781,8.850000381469727,-2.5500001907348633
3.77,74.50755310058594,-10.266336441040039,-6.550535678863525,-274.45635986328125,102.8545150756836,237.55130004882812,-37.05000305175781,8.850000381469727,-2.5500001907348633
3.779,72.86034393310547,-7.6997528076171875,-8.274360656738281,-298.30474853515625,93.2618637084961,257.13629150390625,-37.05000305175781,8.850000381469727,-2.5500001907348633
3.789,67.53564453125,-3.2178070545196533,-8.35097599029541,-291.2434997558594,75.67534637451172,280.5849914550781,-39.150001525878906,7.800000190734863,-0.9000000357627869
3.8,65.46704864501953,1.3407529592514038,-8.312667846679688,-284.71514892578125,66.48238372802734,301.3690490722656,-76.35000610351562,7.650000095367432,-0.6000000238418579
3.819,63.05369567871094,7.929595947265625,-8.542511940002441,-256.4701232910156,53.026031494140625,312.9601745605469,-39.45000076293945,4.050000190734863,1.9500000476837158
3.823,62.057708740234375,15.399505615234375,-9.193734169006348,-205.44256591796875,45.03215789794922,324.6845397949219,-39.45000076293945,4.050000190734863,1.9500000476837158
3.83,60.33388137817383,21.75850486755371,-12.181697845458984,-181.59417724609375,50.22817611694336,325.88360595703125,-39.45000076293945,4.050000190734863,1.9500000476837158
3.839,58.99312973022461,23.367408752441406,-12.258312225341797,-130.1669158935547,42.633995056152344,323.08575439453125,-40.80000305175781,2.25,3.3000001907348633
3.849,58.64836502075195,24.746469497680664,-12.411541938781738,-68.61408996582031,31.975496292114258,335.7427062988281,-40.80000305175781,0.0,4.650000095367432
3.859,57.001155853271484,21.337125778198242,-15.437812805175781,-25.580398559570312,28.24502182006836,326.5497741699219,-42.0,-1.5,2.5500001907348633
3.878,55.813629150390625,16.05072784423828,-16.05072784423828,0.2664624750614166,39.70290756225586,318.15618896484375,-42.0,-1.5,2.5500001907348633
3.882,53.476890563964844,10.649409294128418,-16.510414123535156,34.906585693359375,40.36906433105469,318.42266845703125,-42.150001525878906,-4.800000190734863,2.700000047683716
3.89,50.91030502319336,1.7621324062347412,-13.828908920288086,33.30780792236328,46.764163970947266,308.2970886230469,-43.05000305175781,-5.400000095367432,3.6000001430511475
3.9,50.10585403442383,-2.9879636764526367,-11.530475616455078,25.18070411682129,50.76110076904297,296.3062744140625,-42.75,-7.650000095367432,3.6000001430511475
3.909,48.650177001953125,-8.848969459533691,-8.35097599029541,6.661561965942383,63.551300048828125,268.4609375,-41.400001525878906,-7.050000190734863,4.950000286102295
3.919,49.79939651489258,-13.330915451049805,-9.730035781860352,-4.929555892944336,65.81623077392578,286.713623046875,-41.400001525878906,-7.050000190734863,4.950000286102295
3.939,54.702720642089844,-14.939818382263184,-8.542511940002441,-34.906585693359375,69.01377868652344,269.9264831542969,-42.900001525878906,-10.200000762939453,5.25
3.943,59.29958724975586,-17.42978858947754,-7.393294811248779,-68.74732208251953,62.75191116333008,250.6079559326172,-41.55000305175781,-11.100000381469727,5.400000095367432
3.95,69.25946807861328,-20.494365692138672,-1.0342950820922852,-82.20367431640625,48.8958625793457,234.4869842529297,-41.70000076293945,-12.15000057220459,4.5
3.959,75.04386138916016,-22.792800903320312,0.8427590131759644,-112.71363067626953,37.03828430175781,216.36752319335938,-42.45000076293945,-12.90000057220459,6.300000190734863
3.969,79.0278091430664,-22.141576766967773,-2.1068975925445557,-147.8866729736328,39.16998291015625,205.30934143066406,-42.45000076293945,-12.90000057220459,6.300000190734863
3.979,80.2536392211914,-22.37141990661621,-10.036493301391602,-178.13015747070312,52.3598747253418,167.33843994140625,-43.95000076293945,-15.90000057220459,5.700000286102295
3.999,81.51777648925781,-20.532672882080078,-15.667655944824219,-183.99234008789062,61.28636932373047,144.82235717773438,-43.95000076293945,-15.600000381469727,6.0
4.004,88.18323516845703,-16.778566360473633,-18.732234954833984,-194.6508331298828,85.93415069580078,135.62939453125,-42.75,-15.750000953674316,6.600000381469727
4.01,102.05045318603516,4.405331134796143,-16.242263793945312,-184.6584930419922,86.60030364990234,137.62786865234375,-43.20000076293945,-17.100000381469727,6.750000476837158
4.019,104.69364929199219,13.867216110229492,-15.897499084472656,-131.36599731445312,74.20980072021484,118.30934143066406,-43.20000076293945,-17.100000381469727,6.750000476837158
4.029,104.50211334228516,23.099258422851562,-17.851167678833008,-70.87902069091797,59.55436325073242,129.76722717285156,-42.900001525878906,-17.850000381469727,6.0
4.039,101.85891723632812,24.210166931152344,-18.808849334716797,-3.86370587348938,55.95711898803711,117.50994873046875,-41.70000076293945,-17.100000381469727,7.050000190734863
4.059,97.87496185302734,17.544710159301758,-20.95405387878418,57.689125061035156,46.364471435546875,76.4747314453125,-41.400001525878906,-19.05000114440918,6.300000190734863
4.063,94.96361541748047,10.15141487121582,-19.345149993896484,117.11026000976562,36.10566711425781,41.967838287353516,-41.70000076293945,-20.55000114440918,7.800000190734863
4.07,99.44556427001953,-3.2178070545196533,-11.568782806396484,150.55130004882812,27.84532928466797,34.10719680786133,-41.70000076293945,-20.55000114440918,7.800000190734863
4.079,100.70970153808594,-7.508216381072998,-4.903325080871582,171.06890869140625,21.583459854125977,5.995405673980713,-41.70000076293945,-20.25,8.25
4.09,104.770263671875,-24.861391067504883,1.0342950820922852,198.51454162597656,6.9280242919921875,-29.31087303161621,-41.70000076293945,-19.5,7.800000190734863
4.303,59.29958724975586,-30.415939331054688,2.5665841102600098,168.5375213623047,-190.1209716796875,-329.0811462402344,-41.400001525878906,0.9000000357627869,-3.0
4.309,55.23902130126953,-29.4582576751709,3.026270866394043,137.76109313964844,-195.31700134277344,-340.40582275390625,-39.30000305175781,0.30000001192092896,-4.650000095367432
4.319,54.31964874267578,-28.07919692993164,2.2218191623687744,90.99693298339844,-181.46095275878906,-340.9387512207031,-39.45000076293945,2.8500001430511475,-5.25
4.329,52.480899810791016,-26.96828842163086,4.367023944854736,71.14547729492188,-180.66156005859375,-344.26953125,-39.45000076293945,2.8500001430511475,-5.25
4.339,50.98691940307617,-24.24847412109375,6.167463779449463,38.77029037475586,-184.39202880859375,-337.4747314453125,-39.0,4.5,-8.40000057220459
4.359,51.52322006225586,-20.456058502197266,5.746084213256836,-9.72588062286377,-188.92189025878906,-338.140869140625,-37.20000076293945,6.750000476837158,-9.0
4.362,46.504974365234375,-16.35718536376953,1.3024457693099976,-70.74578857421875,-175.46554565429688,-337.4747314453125,-35.400001525878906,7.050000190734863,-10.350000381469727
4.369,46.0452880859375,-14.709975242614746,0.9576807022094727,-85.13475799560547,-166.80551147460938,-375.0459289550781,-34.95000076293945,7.800000190734863,-10.800000190734863
4.379,44.78114700317383,-11.185709953308105,-0.5363011956214905,-111.781005859375,-158.67840576171875,-345.4685974121094,-34.95000076293945,7.800000190734863,-10.800000190734863
4.389,43.287166595458984,-6.473921298980713,-0.5363011956214905,-140.5589599609375,-145.88819885253906,-348.79937744140625,-33.900001525878906,11.40000057220459,-11.850000381469727
4.4,43.63193130493164,-1.6089035272598267,-0.5746083855628967,-147.75344848632812,-146.28790283203125,-329.2143859863281,-32.25,12.750000953674316,-12.0
4.418,45.394065856933594,7.316680431365967,-4.520252704620361,-161.47625732421875,-112.84685516357422,-327.2159118652344,-30.30000114440918,15.450000762939453,-13.950000762939453
4.421,49.722782135009766,19.38345718383789,-8.465897560119629,-157.612548828125,-109.64930725097656,-328.814697265625,-30.30000114440918,15.450000762939453,-13.950000762939453
4.429,50.335697174072266,21.75850486755371,-8.542511940002441,-148.28636169433594,-97.92495727539062,-316.4241943359375,-30.30000114440918,15.450000762939453,-13.950000762939453
4.439,54.35795593261719,28.462270736694336,-12.29662036895752,-124.8376693725586,-85.00152587890625,-296.17303466796875,-29.400001525878906,18.75,-11.850000381469727
4.454,57.499149322509766,32.13976287841797,-16.089035034179688,-80.47166442871094,-76.4747314453125,-264.4640197753906,-28.200000762939453,19.80000114440918,-11.850000381469727
4.46,66.00334930419922,38.80522155761719,-18.272546768188477,-68.34762573242188,-60.88667678833008,-269.3935546875,-28.200000762939453,19.80000114440918,-11.850000381469727
4.469,70.25545501708984,40.03105163574219,-19.19192123413086,-40.23583221435547,-57.422664642333984,-244.74578857421875,-25.650001525878906,20.25,-11.550000190734863
4.479,77.95520782470703,44.66622543334961,-21.6818904876709,-16.920366287231445,-49.42878723144531,-214.63552856445312,-25.650001525878906,20.25,-11.550000190734863
4.489,84.69728088378906,50.450618743896484,-24.9763126373291,5.196018218994141,-43.03369140625,-170.13629150390625,-22.650001525878906,23.25,-10.800000190734863
4.509,86.84248352050781,59.5677375793457,-27.619510650634766,24.64777946472168,-14.92189884185791,-109.64930725097656,-22.80000114440918,23.55000114440918,-13.200000762939453
4.512,88.37477111816406,65.3138198852539,-28.73042106628418,87.13323211669922,-8.127105712890625,-55.55742645263672,-22.200000762939453,24.450000762939453,-13.350000381469727
4.52,88.87276458740234,59.644351959228516,-28.040889739990234,124.30474090576172,-6.9280242919921875,-37.57120895385742,-22.200000762939453,24.450000762939453,-13.350000381469727
4.529,88.79615020751953,54.35795593261719,-27.46628189086914,179.9954071044922,2.2649309635162354,-37.17151641845703,-22.200000762939453,24.450000762939453,-13.350000381469727
4.54,86.88079071044922,44.43638229370117,-25.665842056274414,216.6339874267578,4.663093090057373,-17.852985382080078,-21.75,23.100000381469727,-14.700000762939453
4.549,85.76988220214844,34.32327651977539,-21.37543296813965,219.69830322265625,-9.72588062286377,11.724349021911621,-22.5,24.30000114440918,-16.5
4.568,85.08035278320312,22.218191146850586,-19.153614044189453,197.18223571777344,-20.517610549926758,37.57120895385742,-22.950000762939453,22.950000762939453,-14.100000381469727
4.572,83.0500717163086,8.772355079650879,-19.306842803955078,110.58192443847656,-14.788667678833008,56.09035110473633,-22.950000762939453,21.75,-15.600000381469727
4.58,80.59840393066406,-3.179499864578247,-22.90772247314453,53.82542037963867,-12.25727367401123,78.3399658203125,-22.950000762939453,21.75,-15.600000381469727
4.589,79.5641098022461,-9.768342971801758,-28.53888511657715,-31.709033966064453,1.0658499002456665,97.12557220458984,-22.950000762939453,21.75,-15.600000381469727
4.6,78.83627319335938,-13.828908920288086,-36.58340072631836,-118.30934143066406,29.044410705566406,106.98468017578125,-22.200000762939453,21.0,-17.700000762939453
4.609,82.16899871826172,-8.389283180236816,-37.694313049316406,-179.0627899169922,53.82542037963867,129.90045166015625,-24.450000762939453,21.0,-18.450000762939453
4.629,84.8888168334961,0.1149216815829277,-34.170047760009766,-190.78712463378906,54.35834503173828,158.81163024902344,-23.55000114440918,20.400001525878906,-17.25
4.633,84.54405212402344,6.01423454284668,-28.347347259521484,-158.0122528076172,72.21133422851562,176.39816284179688,-24.0,22.350000381469727,-17.55000114440918
4.64,80.7899398803711,8.389283180236816,-22.524648666381836,-127.76875305175781,85.13475799560547,164.80703735351562,-24.0,22.350000381469727,-17.55000114440918
4.649,80.10041046142578,5.477933406829834,-17.42978858947754,-82.20367431640625,82.20367431640625,161.34303283691406,-23.700000762939453,21.450000762939453,-16.350000381469727
4.659,78.91288757324219,-2.298433542251587,-10.113107681274414,-65.54976654052734,64.75038146972656,152.1500701904297,-24.30000114440918,20.400001525878906,-14.700000762939453
4.669,82.82022857666016,-12.871228218078613,-5.899312973022461,-89.39816284179688,76.87442779541016,141.0918731689453,-27.000001907348633,20.400001525878906,-14.250000953674316
4.689,87.83847045898438,-22.524648666381836,-6.665457725524902,-111.64777374267578,80.8713607788086,140.5589599609375,-27.150001525878906,20.25,-13.65000057220459
4.693,92.7417984008789,-25.359384536743164,-14.518439292907715,-134.96324157714844,103.92036437988281,158.27871704101562,-28.650001525878906,21.0,-14.100000381469727
4.81,72.09420013427734,23.3291015625,-11.60708999633789,-303.10107421875,53.95865249633789,353.1960144042969,-33.45000076293945,13.65000057220459,-3.450000047683716
4.813,67.07595825195312,25.052927017211914,-11.951854705810547,-228.89126586914062,47.430320739746094,352.9295349121094,-34.05000305175781,13.500000953674316,-2.1000001430511475
4.819,63.81983947753906,29.419950485229492,-12.832921028137207,-193.45175170898438,45.16539001464844,367.3185119628906,-36.75,13.500000953674316,-1.8000000715255737
4.829,61.329872131347656,29.879636764526367,-13.445837020874023,-123.10566711425781,23.581928253173828,370.78253173828125,-36.75,13.500000953674316,-1.8000000715255737
4.839,59.22297286987305,28.807035446166992,-12.641385078430176,-51.560489654541016,15.854516983032227,376.2450256347656,-35.25,9.600000381469727,-0.30000001192092896
4.849,57.001155853271484,25.89568519592285,-12.832921028137207,-4.396630764007568,13.722817420959473,361.5895690917969,-37.650001525878906,7.500000476837158,-0.45000001788139343
4.87,53.70673370361328,21.605276107788086,-13.177685737609863,36.771820068359375,8.660030364990234,364.1209716796875,-37.5,7.200000286102295,-1.0500000715255737
4.873,52.480899810791016,12.29662036895752,-13.599065780639648,68.74732208251953,16.65390396118164,371.04901123046875,-39.150001525878906,6.300000190734863,-0.45000001788139343
4.879,52.44259262084961,-3.1028854846954346,-12.717999458312988,64.3506851196289,24.914241790771484,362.6554260253906,-39.150001525878906,6.300000190734863,-0.45000001788139343
4.889,52.63412857055664,-8.887276649475098,-10.611102104187012,47.430320739746094,24.248085021972656,358.9249572753906,-39.0,1.8000000715255737,0.30000001192092896
4.9,51.867984771728516,-16.1656494140625,-8.695740699768066,16.387441635131836,31.575803756713867,355.4609375,-40.05000305175781,0.75,-0.30000001192092896
4.909,51.7530632019043,-23.02264404296875,-6.780379295349121,-15.987748146057129,29.577335357666016,340.9387512207031,-40.95000076293945,0.9000000357627869,0.15000000596046448
4.929,54.472877502441406,-26.12552833557129,-4.213795185089111,-63.684532165527344,45.16539001464844,327.4823913574219,-39.900001525878906,-2.4000000953674316,-0.9000000357627869
4.932,56.19670104980469,-28.309040069580078,-5.51624059677124,-140.02603149414062,53.026031494140625,303.6340026855469,-39.900001525878906,-2.4000000953674316,-0.9000000357627869
4.94,65.35212707519531,-27.542896270751953,-3.907337188720703,-172.80091857910156,47.696781158447266,297.2388916015625,-42.45000076293945,-4.050000190734863,-0.15000000596046448
4.949,71.1748275756836,-26.66183090209961,-2.6815059185028076,-224.09494018554688,57.689125061035156,288.578857421875,-42.0,-3.750000238418579,-1.8000000715255737
4.959,79.41088104248047,-21.0689754486084,-2.873042106628418,-279.7856140136719,73.54364013671875,270.9923400878906,-40.95000076293945,-5.850000381469727,0.15000000596046448
4.969,87.91508483886719,-13.21599292755127,-3.907337188720703,-291.9096374511719,67.94792938232422,267.7947998046875,-41.400001525878906,-5.850000381469727,1.2000000476837158
4.989,95.92129516601562,-0.07661445438861847,-6.167463779449463,-281.5176086425781,75.27565002441406,262.3323059082031,-41.400001525878906,-5.850000381469727,1.2000000476837158
4.993,99.40725708007812,15.207969665527344,-9.691728591918945,-221.83001708984375,79.67227935791016,257.9356689453125,-43.650001525878906,-9.75,0.45000001788139343
5.0,100.93954467773438,29.22841453552246,-15.974113464355469,-194.38436889648438,88.46553802490234,235.55282592773438,-42.150001525878906,-11.40000057220459,1.6500000953674316
5.009,97.33866119384766,29.4582576751709,-18.4257755279541,-121.24042510986328,78.07350158691406,240.0826873779297,-42.30000305175781,-8.850000381469727,1.350000023841858
5.019,93.85270690917969,26.240449905395508,-18.88546371459961,-61.41960144042969,72.0781021118164,196.1163787841797,-42.900001525878906,-10.950000762939453,3.450000047683716
5.029,91.40104675292969,22.37141990661621,-20.456058502197266,2.6646246910095215,64.084228515625,180.3950958251953,-42.900001525878906,-10.950000762939453,3.450000047683716
5.048,90.44336700439453,19.306842803955078,-20.30282974243164,59.4211311340332,49.29555892944336,144.82235717773438,-42.150001525878906,-13.200000762939453,3.750000238418579
5.052,88.45138549804688,14.786589622497559,-19.460071563720703,98.59111785888672,54.091880798339844,127.23583221435547,-42.900001525878906,-13.200000762939453,2.700000047683716
5.059,84.00775146484375,7.163451671600342,-12.641385078430176,115.64471435546875,49.96171569824219,102.72128295898438,-42.900001525878906,-14.40000057220459,3.450000047683716
5.069,83.43314361572266,0.1149216815829277,-6.89530086517334,129.6339874267578,45.69831466674805,90.06431579589844,-42.0,-14.250000953674316,3.3000001907348633
5.079,86.91909790039062,-7.929595947265625,3.141192674636841,151.084228515625,33.30780792236328,60.88667678833008,-42.0,-14.250000953674316,3.3000001907348633
5.089,89.40906524658203,-27.313053131103516,10.5344877243042,163.0750274658203,20.91730499267578,21.84992218017578,-42.150001525878906,-15.600000381469727,4.200000286102295
5.109,95.38499450683594,-47.15619659423828,14.939818382263184,160.41041564941406,3.9969370365142822,-38.90352249145508,-42.900001525878906,-15.15000057220459,3.750000238418579
5.112,96.45759582519531,-66.99934387207031,9.27034854888916,160.94332885742188,-22.249616622924805,-124.97090148925781,-42.900001525878906,-14.850000381469727,3.450000047683716
5.119,94.12085723876953,-64.77751922607422,5.439626216888428,150.41806030273438,-31.44257164001465,-152.016845703125,-41.55000305175781,-15.000000953674316,3.6000001430511475
5.13,90.09859466552734,-58.64836502075195,0.3064578175544739,138.16079711914062,-19.584991455078125,-191.4532928466797,-41.55000305175781,-15.000000953674316,3.6000001430511475
5.139,90.9030532836914,-45.279144287109375,-2.604891538619995,146.28790283203125,-16.387441635131836,-203.04440307617188,-41.55000305175781,-15.000000953674316,3.6000001430511475
5.149,93.81439971923828,-35.66402816772461,-1.9536685943603516,165.3399658203125,-19.31852912902832,-189.45481872558594,-41.55000305175781,-14.550000190734863,3.9000000953674316
5.169,95.99790954589844,-30.14778709411621,2.4899697303771973,198.11485290527344,-21.84992218017578,-189.1883544921875,-40.95000076293945,-12.90000057220459,2.25
5.173,97.37696838378906,-30.26270866394043,5.592854976654053,257.26953125,-66.48238372802734,-210.50535583496094,-42.30000305175781,-12.300000190734863,3.6000001430511475
5.18,97.41527557373047,-29.95625114440918,6.167463779449463,283.2496032714844,-89.26493072509766,-224.22817993164062,-42.30000305175781,-12.300000190734863,3.6000001430511475
5.189,97.72173309326172,-29.76471519470215,6.818686485290527,323.4854431152344,-113.91270446777344,-247.41041564941406,-42.30000305175781,-12.300000190734863,3.6000001430511475
5.2,97.41527557373047,-29.726408004760742,8.96389102935791,341.7381286621094,-134.16384887695312,-283.3828430175781,-42.0,-9.600000381469727,1.350000023841858
5.209,98.14311981201172,-30.186094284057617,9.883264541625977,354.7947998046875,-160.8101043701172,-307.0979919433594,-40.05000305175781,-9.600000381469727,0.0
5.229,99.13910675048828,-32.331298828125,12.717999458312988,367.98468017578125,-190.9203643798828,-302.3016662597656,-40.5,-5.700000286102295,0.0
5.233,96.64913177490234,-34.284969329833984,10.72602367401123,341.07196044921875,-205.04287719726562,-318.6891174316406,-40.5,-5.700000286102295,0.0
5.239,95.8063735961914,-34.13174057006836,9.040505409240723,328.68145751953125,-214.23582458496094,-327.74884033203125,-40.5,-5.700000286102295,0.0
5.249,92.43534088134766,-36.46847915649414,5.899312973022461,305.4992370605469,-226.35987854003906,-293.5084228515625,-39.75,-4.5,-2.5500001907348633
5.259,88.06831359863281,-35.24264907836914,2.1068975925445557,290.0444030761719,-227.5589599609375,-344.0030517578125,-38.400001525878906,-2.8500001430511475,-5.25
5.269,81.90084838867188,-33.59543991088867,1.0342950820922852,252.3399658203125,-216.36752319335938,-326.2832946777344,-39.30000305175781,-1.8000000715255737,-4.650000095367432
5.289,74.81401824951172,-32.02484130859375,-0.6512228846549988,225.96017456054688,-212.1041259765625,-343.3369140625,-39.0,-1.5,-5.400000095367432
5.292,64.77751922607422,-25.81907081604004,-1.4939818382263184,205.5758056640625,-209.3062744140625,-323.4854431152344,-39.0,-1.5,-5.400000095367432
5.299,62.40247344970703,-23.3291015625,-2.183511972427368,181.46095275878906,-199.44715881347656,-336.275634765625,-36.45000076293945,0.45000001788139343,-9.0
5.31,59.18466567993164,-22.984336853027344,-0.19153612852096558,143.3568115234375,-194.117919921875,-362.6554260253906,-36.150001525878906,-0.9000000357627869,-8.25
5.319,55.009178161621094,-20.149600982666016,0.689530074596405,130.30015563964844,-198.11485290527344,-336.6753234863281,-34.05000305175781,2.25,-9.15000057220459
5.329,52.82566452026367,-18.272546768188477,0.9576807022094727,87.13323211669922,-198.51454162597656,-368.3843688964844,-34.650001525878906,3.6000001430511475,-10.350000381469727
5.347,50.335697174072266,-15.744270324707031,0.9193734526634216,27.71209716796875,-185.32464599609375,-348.79937744140625,-33.0,4.5,-12.750000953674316
5.351,43.9766960144043,-12.143390655517578,0.5746083855628967,20.117916107177734,-192.91883850097656,-332.1454772949219,-33.0,4.5,-12.750000953674316
5.359,42.94240188598633,-13.407529830932617,-0.8810662031173706,-1.8652373552322388,-183.85910034179688,-329.88055419921875,-31.80000114440918,5.700000286102295,-12.450000762939453
5.37,42.32948684692383,-11.951854705810547,0.727837324142456,-39.83613967895508,-172.2679901123047,-327.2159118652344,-32.70000076293945,5.850000381469727,-13.65000057220459
5.379,41.639957427978516,-11.377246856689453,0.689530074596405,-59.55436325073242,-163.34149169921875,-279.9188232421875,-32.25,8.40000057220459,-14.700000762939453
5.389,41.37180709838867,-8.08282470703125,-0.9576807022094727,-81.40428924560547,-164.27410888671875,-348.9326171875,-32.25,8.40000057220459,-14.700000762939453
5.402,42.71255874633789,-3.485957622528076,-0.727837324142456,-96.99234008789062,-154.814697265625,-336.40887451171875,-28.05000114440918,10.800000190734863,-15.000000953674316
5.41,46.84973907470703,1.5705963373184204,-1.3407529592514038,-106.05206298828125,-140.5589599609375,-352.9295349121094,-28.05000114440918,10.800000190734863,-15.000000953674316
5.419,50.06754684448242,5.056553840637207,-1.9919757843017578,-102.72128295898438,-141.6248016357422,-334.6768798828125,-27.450000762939453,13.200000762939453,-14.40000057220459
5.429,54.54949188232422,10.266336441040039,0.3064578175544739,-94.0612564086914,-147.62020874023438,-330.1470031738281,-27.450000762939453,14.40000057220459,-14.40000057220459
5.439,61.40648651123047,15.24627685546875,-0.8044517636299133,-89.5313949584961,-141.0918731689453,-330.9463806152344,-27.450000762939453,14.40000057220459,-14.40000057220459
5.449,67.07595825195312,20.685903549194336,-2.451662540435791,-97.7917251586914,-128.16845703125,-321.4869689941406,-25.650001525878906,15.15000057220459,-16.350000381469727
5.466,71.1748275756836,27.542896270751953,-5.439626216888428,-97.25880432128906,-102.58805084228516,-274.18988037109375,-22.05000114440918,17.700000762939453,-16.05000114440918
5.47,75.84831237792969,36.35355758666992,-17.8128604888916,-86.86676788330078,-103.7871322631836,-247.94332885742188,-22.05000114440918,17.700000762939453,-16.05000114440918
5.479,77.03583526611328,38.07738494873047,-20.379444122314453,-74.60948944091797,-58.4885139465332,-218.49923706054688,-21.450000762939453,18.75,-15.15000057220459
5.489,77.68705749511719,42.82748031616211,-26.12552833557129,-49.69525146484375,-26.64624786376953,-179.9954071044922,-21.450000762939453,18.75,-15.15000057220459
5.5,78.9511947631836,44.6279182434082,-28.002582550048828,-0.6661561727523804,-12.656967163085938,-139.49310302734375,-19.950000762939453,19.05000114440918,-15.600000381469727
5.519,82.78192138671875,45.31745147705078,-27.542896270751953,30.643184661865234,-1.7320060729980469,-123.9050521850586,-19.5,18.900001525878906,-16.5
5.523,87.26386260986328,47.15619659423828,-26.815059661865234,87.53292083740234,-6.5283308029174805,-65.016845703125,-18.75,19.200000762939453,-16.05000114440918
5.53,87.60862731933594,46.926353454589844,-23.865402221679688,118.8422622680664,-20.251148223876953,-43.43338394165039,-18.75,19.200000762939453,-16.05000114440918
5.539,86.53602600097656,42.02302932739258,-22.409727096557617,145.88819885253906,-34.10719680786133,-8.793261528015137,-18.75,19.200000762939453,-16.05000114440918
5.549,81.09639739990234,32.292991638183594,-24.59324073791504,152.1500701904297,-27.978559494018555,8.39356803894043,-18.30000114440918,20.400001525878906,-15.450000762939453
5.559,77.1890640258789,22.026655197143555,-23.13756561279297,138.16079711914062,-27.17917251586914,27.978559494018555,-19.80000114440918,18.450000762939453,-15.750000953674316
5.569,73.81802368164062,13.752294540405273,-22.639572143554688,106.31852722167969,-36.5053596496582,53.29249572753906,-19.950000762939453,19.80000114440918,-17.400001525878906
5.582,71.7877426147461,3.485957622528076,-26.891674041748047,15.321592330932617,-5.329249382019043,78.07350158691406,-19.200000762939453,20.25,-17.400001525878906
5.59,74.50755310058594,-6.282385349273682,-33.365596771240234,-48.76263427734375,19.584991455078125,99.52373504638672,-19.200000762939453,20.25,-17.400001525878906
5.6,79.10442352294922,-8.427590370178223,-37.54108428955078,-132.16539001464844,42.36753463745117,133.09800720214844,-18.900001525878906,17.850000381469727,-17.400001525878906
5.609,87.68524169921875,-4.405331134796143,-37.311241149902344,-195.050537109375,66.48238372802734,167.0719757080078,-18.75,18.150001525878906,-17.55000114440918
5.619,96.30436706542969,4.213795185089111,-30.186094284057617,-228.89126586914062,78.3399658203125,191.0535888671875,-19.950000762939453,19.05000114440918,-16.350000381469727
5.639,99.44556427001953,9.385271072387695,-24.9763126373291,-193.7182159423828,74.74272155761719,208.5068817138672,-19.950000762939453,19.05000114440918,-16.350000381469727
5.643,98.10481262207031,12.60307788848877,-22.946029663085938,-117.37671661376953,70.3460922241211,218.23277282714844,-22.200000762939453,17.55000114440918,-15.15000057220459
5.65,91.89904022216797,7.661445617675781,-20.30282974243164,-83.40275573730469,73.9433364868164,214.63552856445312,-22.950000762939453,15.90000057220459,-14.40000057220459
5.659,88.91107177734375,2.451662540435791,-19.919757843017578,-63.950992584228516,82.47013854980469,200.11331176757812,-23.25,18.450000762939453,-15.450000762939453
5.669,89.71552276611328,-6.818686485290527,-17.62132453918457,-62.085758209228516,75.8085708618164,199.713623046875,-24.900001525878906,15.90000057220459,-12.600000381469727
5.679,91.09458923339844,-16.433799743652344,-15.667655944824219,-75.5421142578125,79.53904724121094,205.5758056640625,-24.900001525878906,15.90000057220459,-12.600000381469727
5.698,91.74581146240234,-24.210166931152344,-21.14558982849121,-105.5191421508789,102.45481872558594,198.38131713867188,-23.700000762939453,15.15000057220459,-12.600000381469727
5.703,89.98367309570312,-25.780763626098633,-28.653806686401367,-141.0918731689453,132.29861450195312,225.02755737304688,-25.650001525878906,16.350000381469727,-13.050000190734863
5.71,89.37075805664062,-17.544710159301758,-31.182083129882812,-167.87135314941406,158.14547729492188,241.0153045654297,-26.700000762939453,14.40000057220459,-13.350000381469727
5.719,90.63490295410156,-13.867216110229492,-28.309040069580078,-212.5038299560547,176.9310760498047,268.1944885253906,-26.55000114440918,14.550000190734863,-10.65000057220459
5.729,91.24781799316406,-9.078812599182129,-20.187908172607422,-239.1500701904297,185.85757446289062,284.5819091796875,-26.55000114440918,14.550000190734863,-10.65000057220459
5.739,90.59659576416016,-5.937620162963867,-14.211980819702148,-255.27105712890625,163.6079559326172,299.5038146972656,-27.900001525878906,12.90000057220459,-9.75
5.759,87.22555541992188,-4.8267107009887695,-12.258312225341797,-263.93109130859375,140.82542419433594,308.9632263183594,-29.55000114440918,11.850000381469727,-8.700000762939453
5.763,83.50975799560547,-3.026270866394043,-12.334927558898926,-284.3154602050781,120.04134368896484,309.62939453125,-30.30000114440918,12.300000190734863,-7.950000286102295
5.769,78.3765869140625,-2.8347349166870117,-13.982137680053711,-283.915771484375,119.24195861816406,311.62786865234375,-31.500001907348633,8.850000381469727,-6.900000095367432
5.779,75.19709014892578,1.0342950820922852,-13.48414421081543,-278.320068359375,91.26339721679688,312.56048583984375,-31.500001907348633,8.850000381469727,-6.900000095367432
5.789,70.94498443603516,4.750096321105957,-13.905523300170898,-270.8591003417969,80.20520782470703,330.4134826660156,-31.05000114440918,7.650000095367432,-5.850000381469727
5.8,68.64655303955078,12.22000503540039,-13.21599292755127,-249.80856323242188,66.882080078125,331.3460998535156,-33.30000305175781,8.100000381469727,-3.3000001907348633
5.819,64.54767608642578,15.24627685546875,-11.1474027633667,-219.56507873535156,59.55436325073242,352.3966369628906,-33.75,5.700000286102295,-1.8000000715255737
5.823,62.01940155029297,16.625335693359375,-12.066776275634766,-177.99693298339844,54.75803756713867,359.9908142089844,-33.45000076293945,5.550000190734863,-1.9500000476837158
5.83,59.26128005981445,20.992361068725586,-10.84094524383545,-145.6217498779297,43.96630859375,373.84686279296875,-33.45000076293945,5.550000190734863,-1.9500000476837158
5.839,56.65638732910156,22.026655197143555,-10.228029251098633,-105.91883087158203,40.9019889831543,388.9019775390625,-34.20000076293945,4.050000190734863,-0.9000000357627869
5.849,54.05149841308594,18.923770904541016,-13.48414421081543,-53.29249572753906,31.309341430664062,392.89892578125,-36.30000305175781,2.700000047683716,-1.350000023841858
5.859,51.94459915161133,17.62132453918457,-11.798625946044922,-21.183767318725586,25.313934326171875,401.5589599609375,-36.150001525878906,0.45000001788139343,-1.6500000953674316
5.88,50.98691940307617,10.457873344421387,-12.90953540802002,-9.059723854064941,30.509952545166016,402.0918884277344,-37.650001525878906,-0.15000000596046448,-1.9500000476837158
5.883,50.06754684448242,4.443638324737549,-12.29662036895752,3.7304747104644775,38.77029037475586,395.69677734375,-37.650001525878906,-0.15000000596046448,-1.9500000476837158
5.89,50.91030502319336,-7.1251444816589355,-9.346963882446289,10.92496109008789,33.4410400390625,391.5666198730469,-37.80000305175781,-3.0,-1.350000023841858
5.9,51.21676254272461,-10.228029251098633,-10.036493301391602,-4.663093090057373,48.62940216064453,385.1715087890625,-38.25,-4.200000286102295,0.0
5.909,52.02121353149414,-14.058752059936523,-8.848969459533691,-17.186830520629883,75.40888214111328,362.12249755859375,-37.80000305175781,-6.450000286102295,0.0
5.919,53.170433044433594,-20.570980072021484,-6.052541732788086,-39.9693717956543,85.80091857910156,356.6600341796875,-37.5,-8.40000057220459,0.30000001192092896
5.939,58.38021469116211,-22.7161865234375,-5.20978307723999,-73.54364013671875,95.79325866699219,326.6829833984375,-37.5,-8.40000057220459,0.30000001192092896
5.943,63.36015319824219,-26.240449905395508,-4.098873138427734,-152.54977416992188,102.32159423828125,296.3062744140625,-38.70000076293945,-9.75,0.9000000357627869
5.95,75.04386138916016,-28.768728256225586,-6.588842868804932,-180.26187133789062,99.52373504638672,285.1148376464844,-39.0,-10.800000190734863,1.350000023841858
5.959,81.86254119873047,-27.88766098022461,-5.20978307723999,-217.43338012695312,92.59571075439453,254.73812866210938,-37.650001525878906,-12.90000057220459,0.9000000357627869
5.969,89.98367309570312,-22.37141990661621,-6.090848922729492,-252.73965454101562,91.79632568359375,219.29861450195312,-38.400001525878906,-13.65000057220459,1.2000000476837158
5.979,96.84066772460938,-10.687716484069824,-6.090848922729492,-253.80551147460938,92.06278228759766,188.1225128173828,-38.400001525878906,-13.65000057220459,1.2000000476837158
5.999,100.55647277832031,1.072602391242981,-7.010222434997559,-218.23277282714844,75.94180297851562,173.6002960205078,-37.80000305175781,-16.200000762939453,1.8000000715255737
6.003,105.53640747070312,13.637372970581055,-10.84094524383545,-152.949462890625,60.62021255493164,144.42266845703125,-38.55000305175781,-15.450000762939453,2.1000001430511475
6.01,104.88518524169922,28.73042106628418,-16.318878173828125,-121.24042510986328,55.02450180053711,122.9724349975586,-39.900001525878906,-16.80000114440918,1.6500000953674316
6.019,103.00813293457031,34.3998908996582,-20.11129379272461,-52.626338958740234,48.8958625793457,106.85145568847656,-38.400001525878906,-15.90000057220459,2.25
6.029,100.4415512084961,34.24666213989258,-27.236438751220703,18.2526798248291,48.8958625793457,83.13629150390625,-38.400001525878906,-15.90000057220459,2.25
6.039,96.87897491455078,30.301015853881836,-25.359384536743164,75.8085708618164,47.696781158447266,64.084228515625,-39.30000305175781,-17.400001525878906,2.5500001907348633
6.059,96.57251739501953,21.0689754486084,-20.072986602783203,130.69984436035156,40.23583221435547,45.298622131347656,-38.25,-18.450000762939453,2.1000001430511475
6.062,96.11283111572266,9.883264541625977,-9.308655738830566,188.2557373046875,25.980091094970703,20.251148223876953,-39.150001525878906,-18.30000114440918,2.700000047683716
6.069,98.41127014160156,-12.258312225341797,3.2561142444610596,207.84072875976562,10.392036437988281,-22.116384506225586,-40.650001525878906,-18.30000114440918,3.750000238418579
6.079,101.62907409667969,-25.70414924621582,9.883264541625977,237.55130004882812,3.597243309020996,-26.912710189819336,-40.650001525878906,-18.30000114440918,3.750000238418579
6.089,104.38719177246094,-42.40610122680664,11.492168426513672,265.6630859375,-24.914241790771484,-116.44409942626953,-38.70000076293945,-18.30000114440918,2.25
6.2,97.37696838378906,-29.03687858581543,14.901511192321777,383.5727233886719,-214.23582458496094,-325.3506774902344,-40.650001525878906,-8.700000762939453,-0.45000001788139343
6.209,94.27408599853516,-33.288978576660156,16.318878173828125,387.4364318847656,-230.09034729003906,-333.61102294921875,-38.400001525878906,-9.75,-0.9000000357627869
6.219,93.00994873046875,-38.920143127441406,16.625335693359375,368.5176086425781,-241.28176879882812,-356.52679443359375,-37.650001525878906,-8.25,-1.6500000953674316
6.239,90.94136047363281,-42.71255874633789,14.556746482849121,315.35833740234375,-252.73965454101562,-361.056640625,-38.55000305175781,-7.200000286102295,-2.8500001430511475
6.242,85.42511749267578,-47.07958221435547,10.41956615447998,306.03216552734375,-271.65850830078125,-357.326171875,-38.55000305175781,-7.200000286102295,-2.8500001430511475
6.249,84.50574493408203,-47.80741882324219,11.453861236572266,265.3966369628906,-262.5987548828125,-395.83001708984375,-37.650001525878906,-4.800000190734863,-6.300000190734863
6.259,81.05809020996094,-48.72679138183594,8.389283180236816,215.43490600585938,-261.3996887207031,-401.0260314941406,-37.20000076293945,-2.8500001430511475,-5.700000286102295
6.269,76.95922088623047,-47.99895477294922,6.358999729156494,153.61561584472656,-258.2021484375,-381.174560546875,-36.45000076293945,-2.1000001430511475,-8.550000190734863
6.279,73.12849426269531,-47.845726013183594,4.596867084503174,101.38896942138672,-239.81622314453125,-390.10107421875,-35.70000076293945,-1.6500000953674316,-9.300000190734863
6.299,65.96504211425781,-45.50898742675781,1.723825216293335,16.65390396118164,-224.62786865234375,-442.9938659667969,-35.25,0.75,-10.200000762939453
6.303,53.859962463378906,-35.43418502807617,-5.51624059677124,-60.35375213623047,-207.97396850585938,-446.8575744628906,-34.05000305175781,3.0,-12.0
6.309,50.948612213134766,-31.373619079589844,-7.7763671875,-96.72587585449219,-191.9862060546875,-423.0091857910156,-34.05000305175781,3.0,-12.0
6.319,47.232810974121094,-28.309040069580078,-9.155426979064941,-148.68606567382812,-154.9479217529297,-435.3996887207031,-31.950000762939453,4.050000190734863,-12.300000190734863
6.33,42.865787506103516,-18.4257755279541,-9.576807022094727,-175.46554565429688,-130.43338012695312,-411.95098876953125,-31.950000762939453,6.300000190734863,-12.300000190734863
6.339,40.52904510498047,-7.661445617675781,-8.848969459533691,-182.39356994628906,-126.5696792602539,-393.5650634765625,-31.950000762939453,6.300000190734863,-12.300000190734863
6.353,38.76691436767578,0.9959878921508789,-6.320692539215088,-190.38743591308594,-110.31546783447266,-382.9065856933594,-28.500001907348633,10.350000381469727,-11.700000762939453
6.36,38.46045684814453,13.905523300170898,-6.358999729156494,-181.19448852539062,-106.4517593383789,-382.3736572265625,-28.500001907348633,10.350000381469727,-11.700000762939453
6.369,40.95042419433594,19.766529083251953,-6.971915245056152,-149.48544311523438,-107.25114440917969,-357.326171875,-28.80000114440918,12.300000190734863,-12.450000762939453
6.379,41.10365295410156,28.53888511657715,-7.6997528076171875,-114.04593658447266,-98.99080657958984,-331.2128601074219,-28.05000114440918,14.250000953674316,-14.250000953674316
6.389,41.754878997802734,33.17405700683594,-9.078812599182129,-72.47779083251953,-92.06278228759766,-327.4823913574219,-28.05000114440918,14.250000953674316,-14.250000953674316
6.409,44.704532623291016,36.50678634643555,-8.65743350982666,-11.724349021911621,-101.38896942138672,-327.08270263671875,-26.250001907348633,15.750000953674316,-13.200000762939453
6.413,50.41231155395508,36.430171966552734,-7.508216381072998,54.62480926513672,-122.03981018066406,-304.5666198730469,-23.400001525878906,17.850000381469727,-12.300000190734863
6.42,57.65237808227539,36.08540725708008,-4.098873138427734,85.26799011230469,-133.23123168945312,-293.37518310546875,-23.400001525878906,17.850000381469727,-12.300000190734863
6.429,62.90046691894531,38.49876403808594,-3.7924153804779053,113.64624786376953,-133.49769592285156,-277.1209716796875,-24.150001525878906,19.5,-12.300000190734863
6.439,68.91470336914062,40.41412353515625,-8.848969459533691,128.43490600585938,-142.4241943359375,-230.75650024414062,-24.150001525878906,19.5,-12.300000190734863
6.449,72.17081451416016,41.333499908447266,-11.453861236572266,136.0290985107422,-122.43950653076172,-187.3231201171875,-21.75,20.400001525878906,-15.450000762939453
6.468,77.45721435546875,39.91613006591797,-13.675680160522461,133.6309356689453,-103.38744354248047,-175.19908142089844,-20.700000762939453,19.5,-15.90000057220459
6.472,80.63671112060547,38.07738494873047,-18.579004287719727,138.42726135253906,-85.4012222290039,-138.16079711914062,-19.650001525878906,19.80000114440918,-15.90000057220459
6.48,80.48348236083984,32.71437072753906,-27.236438751220703,143.3568115234375,-64.75038146972656,-108.71669006347656,-19.650001525878906,19.80000114440918,-15.90000057220459
6.489,78.72135162353516,32.10145568847656,-26.508602142333984,133.23123168945312,-48.22970962524414,-91.79632568359375,-19.650001525878906,19.80000114440918,-15.90000057220459
6.5,77.8019790649414,28.347347259521484,-28.155811309814453,107.91730499267578,-25.04747200012207,-85.93415069580078,-19.200000762939453,20.55000114440918,-18.150001525878906
6.509,77.87859344482422,25.28277015686035,-31.22039031982422,91.92955017089844,-12.390504837036133,-42.76722717285156,-20.25,21.600000381469727,-18.0
6.529,77.41890716552734,22.218191146850586,-31.10546875,54.35834503173828,-2.531393527984619,-19.052066802978516,-18.900001525878906,21.0,-18.900001525878906
6.533,77.84028625488281,19.230228424072266,-31.335311889648438,9.326186180114746,4.130168437957764,27.17917251586914,-18.900001525878906,21.0,-18.900001525878906
6.54,75.9632339477539,17.8128604888916,-26.66183090209961,-26.246553421020508,3.7304747104644775,35.972434997558594,-18.900001525878906,21.0,-18.900001525878906
6.549,75.8866195678711,18.11931800842285,-26.776752471923828,-48.62940216064453,4.529861927032471,71.14547729492188,-19.05000114440918,19.650001525878906,-19.80000114440918
6.559,75.9632339477539,16.931795120239258,-29.803022384643555,-81.67074584960938,10.258805274963379,92.99540710449219,-19.80000114440918,20.850000381469727,-19.05000114440918
6.569,78.3382797241211,15.85919189453125,-32.790985107421875,-116.84379577636719,29.31087303161621,121.10719299316406,-19.5,20.100000381469727,-19.80000114440918
6.589,79.71733856201172,15.054739952087402,-37.656005859375,-144.02296447753906,36.238895416259766,160.94332885742188,-19.5,20.100000381469727,-19.80000114440918
6.593,82.70530700683594,16.318878173828125,-40.758888244628906,-182.6600341796875,67.01531219482422,202.9111785888672,-19.950000762939453,20.25,-18.150001525878906
6.6,85.5400390625,18.693927764892578,-39.99274444580078,-188.52220153808594,69.01377868652344,223.82847595214844,-21.30000114440918,19.200000762939453,-17.25
6.609,85.46342468261719,19.000385284423828,-36.08540725708008,-164.94027709960938,73.81010437011719,244.4793243408203,-21.75,20.400001525878906,-16.80000114440918
6.619,82.66699981689453,17.12333106994629,-29.266721725463867,-122.03981018066406,67.94792938232422,262.5987548828125,-24.30000114440918,17.700000762939453,-15.450000762939453
6.629,80.52178955078125,13.21599292755127,-22.562957763671875,-87.13323211669922,71.01225280761719,262.4655456542969,-24.30000114440918,17.700000762939453,-15.450000762939453
6.65,78.9511947631836,8.465897560119629,-16.395492553710938,-59.02143859863281,79.13935852050781,255.40428161621094,-24.900001525878906,17.55000114440918,-15.15000057220459
6.653,78.79796600341797,2.1068975925445557,-11.951854705810547,-38.90352249145508,76.20826721191406,255.40428161621094,-25.05000114440918,18.450000762939453,-14.250000953674316
6.66,82.82022857666016,-10.572794914245605,-8.121131896972656,-45.16539001464844,88.46553802490234,247.01071166992188,-25.200000762939453,19.05000114440918,-14.850000381469727
6.669,86.42110443115234,-15.897499084472656,-10.457873344421387,-76.34149932861328,105.38591003417969,254.2052001953125,-26.55000114440918,16.5,-14.700000762939453
6.679,88.98768615722656,-23.060951232910156,-13.292608261108398,-101.52220153808594,131.7657012939453,259.134765625,-26.55000114440918,16.5,-14.700000762939453
6.689,88.94937896728516,-25.321077346801758,-20.187908172607422,-140.29249572753906,153.7488555908203,265.2633972167969,-28.05000114440918,15.750000953674316,-12.0
6.709,89.10260772705078,-21.6818904876709,-25.857378005981445,-189.0551300048828,192.51913452148438,268.8606262207031,-26.700000762939453,15.600000381469727,-13.65000057220459
6.713,88.71953582763672,-16.242263793945312,-25.89568519592285,-230.88973999023438,228.35833740234375,269.52679443359375,-30.150001525878906,13.65000057220459,-11.100000381469727
6.719,86.8041763305664,-10.5344877243042,-21.14558982849121,-244.4793243408203,223.16232299804688,282.5834655761719,-31.650001525878906,13.65000057220459,-11.850000381469727
6.729,87.3404769897461,-7.738059997558594,-15.744270324707031,-270.9923400878906,219.56507873535156,281.91729736328125,-31.650001525878906,13.65000057220459,-11.850000381469727
6.739,86.91909790039062,-4.8267107009887695,-9.576807022094727,-312.1607971191406,207.70750427246094,285.3813171386719,-31.200000762939453,12.450000762939453,-7.800000190734863
6.749,84.46743774414062,-2.5665841102600098,-5.746084213256836,-352.79632568359375,177.73046875,298.5711975097656,-32.55000305175781,11.100000381469727,-6.600000381469727
6.769,82.4754638671875,-0.6129156351089478,-2.4899697303771973,-379.9754943847656,141.89126586914062,317.7565002441406,-33.45000076293945,11.40000057220459,-5.25
6.773,80.8282470703125,4.481945514678955,-4.8267107009887695,-400.0934143066406,117.24349212646484,343.3369140625,-34.05000305175781,11.100000381469727,-5.100000381469727
6.78,75.65677642822266,15.667655944824219,-6.703764915466309,-395.1638488769531,95.79325866699219,357.1929626464844,-34.05000305175781,11.100000381469727,-5.100000381469727
6.789,72.51557922363281,21.98834800720215,-6.703764915466309,-357.45941162109375,62.618682861328125,386.1041259765625,-35.25,8.850000381469727,-2.5500001907348633
6.8,69.68084716796875,29.84132957458496,-7.929595947265625,-304.6998291015625,39.03675079345703,398.2281799316406,-37.05000305175781,7.200000286102295,-1.0500000715255737
6.809,68.1485595703125,36.66001510620117,-8.006210327148438,-237.01837158203125,20.91730499267578,402.8912658691406,-37.80000305175781,5.700000286102295,-0.30000001192092896
6.829,64.0113754272461,43.32547378540039,-7.7763671875,-146.1546630859375,-1.0658499002456665,408.88665771484375,-39.150001525878906,5.100000381469727,1.2000000476837158
6.832,60.71695327758789,44.24484634399414,-9.921571731567383,-36.771820068359375,-19.31852912902832,402.22509765625,-39.150001525878906,5.100000381469727,1.2000000476837158
6.839,57.920528411865234,41.448421478271484,-12.066776275634766,24.64777946472168,-28.378253936767578,418.612548828125,-38.400001525878906,2.1000001430511475,-0.45000001788139343
6.849,56.65638732910156,35.510799407958984,-12.90953540802002,79.0061264038086,-10.392036437988281,411.4180603027344,-39.150001525878906,2.1000001430511475,0.45000001788139343
6.859,55.813629150390625,24.823083877563477,-16.395492553710938,128.16845703125,2.531393527984619,411.4180603027344,-40.80000305175781,-0.30000001192092896,0.30000001192092896
6.869,56.005165100097656,11.224017143249512,-17.31486701965332,140.02603149414062,19.718223571777344,410.8851318359375,-41.70000076293945,-2.1000001430511475,0.45000001788139343
6.889,56.65638732910156,-0.19153612852096558,-13.254301071166992,120.4410400390625,47.9632453918457,392.89892578125,-41.70000076293945,-2.1000001430511475,0.45000001788139343
6.893,57.307613372802734,-13.292608261108398,-10.036493301391602,80.20520782470703,58.4885139465332,378.7763977050781,-41.400001525878906,-5.100000381469727,-1.6500000953674316
7.009,92.28211212158203,2.145204782485962,-13.10107135772705,-6.395099639892578,47.0306282043457,126.16998291015625,-42.900001525878906,-18.75,3.0
7.013,89.67721557617188,-9.461885452270508,-10.879252433776855,28.911178588867188,34.373661041259766,78.07350158691406,-42.900001525878906,-18.75,3.0
7.019,89.14091491699219,-11.91354751586914,-9.84495735168457,28.644716262817383,30.37672233581543,52.093414306640625,-42.75,-19.200000762939453,1.0500000715255737
7.029,89.217529296875,-12.947842597961426,-7.354987621307373,44.36600112915039,20.251148223876953,73.0107192993164,-42.30000305175781,-17.400001525878906,1.8000000715255737
7.039,90.2518310546875,-17.774553298950195,-7.048529624938965,48.49617004394531,5.595712184906006,25.18070411682129,-42.30000305175781,-17.400001525878906,1.8000000715255737
7.049,91.20951080322266,-19.80483627319336,-2.030282974243164,63.684532165527344,5.462480545043945,-27.84532928466797,-41.70000076293945,-18.75,2.25
7.069,94.42731475830078,-26.163835525512695,3.485957622528076,85.53445434570312,-3.197549819946289,-55.69065856933594,-43.650001525878906,-19.05000114440918,2.25
7.072,97.18543243408203,-38.65199279785156,2.2601263523101807,116.57733154296875,-24.51454734802246,-116.17764282226562,-43.5,-18.150001525878906,3.9000000953674316
7.079,95.00192260742188,-40.988731384277344,-0.1149216815829277,151.2174530029297,-33.17457962036133,-130.69984436035156,-43.80000305175781,-18.150001525878906,2.5500001907348633
7.089,91.55427551269531,-41.5250358581543,-3.179499864578247,156.14700317382812,-44.89892578125,-158.14547729492188,-43.80000305175781,-18.150001525878906,2.5500001907348633
7.1,89.60060119628906,-38.69029998779297,-4.405331134796143,150.55130004882812,-53.42572784423828,-190.25421142578125,-43.5,-17.400001525878906,1.350000023841858
7.109,85.46342468261719,-33.863590240478516,-6.01423454284668,157.21286010742188,-64.88361358642578,-180.79478454589844,-44.400001525878906,-15.15000057220459,0.9000000357627869
7.129,83.7396011352539,-29.075185775756836,-4.941632270812988,172.40121459960938,-62.35221862792969,-187.72280883789062,-43.5,-15.000000953674316,1.0500000715255737
7.132,87.14894104003906,-25.550920486450195,2.298433542251587,186.12403869628906,-72.87748718261719,-179.72894287109375,-43.5,-15.000000953674316,1.0500000715255737
7.139,89.29414367675781,-25.5892276763916,4.098873138427734,205.5758056640625,-71.14547729492188,-206.37518310546875,-43.5,-15.000000953674316,1.0500000715255737
7.149,90.55828857421875,-26.929981231689453,8.312667846679688,243.679931640625,-104.7197494506836,-221.29708862304688,-43.95000076293945,-12.15000057220459,0.45000001788139343
7.159,92.39703369140625,-29.496564865112305,9.615114212036133,270.5926513671875,-129.2342987060547,-253.2725830078125,-43.5,-12.750000953674316,1.8000000715255737
7.169,95.38499450683594,-29.879636764526367,9.232041358947754,298.4379577636719,-148.8192901611328,-278.7197570800781,-45.150001525878906,-11.700000762939453,-0.45000001788139343
7.189,96.64913177490234,-30.032865524291992,6.627150535583496,325.88360595703125,-168.67074584960938,-303.10107421875,-45.30000305175781,-10.800000190734863,-1.8000000715255737
7.193,100.09678649902344,-32.10145568847656,6.435614109039307,326.81622314453125,-187.72280883789062,-331.3460998535156,-45.0,-8.40000057220459,-2.5500001907348633
7.2,99.44556427001953,-34.51481246948242,7.7763671875,322.6860656738281,-191.4532928466797,-335.6094970703125,-45.0,-8.40000057220459,-2.5500001907348633
7.209,97.83665466308594,-35.74064254760742,6.933608055114746,309.3629455566406,-202.9111785888672,-344.13629150390625,-44.400001525878906,-7.500000476837158,-4.950000286102295
7.219,94.88700103759766,-37.00477981567383,5.937620162963867,292.1761169433594,-217.30015563964844,-351.4640197753906,-43.5,-5.700000286102295,-5.850000381469727
7.229,90.86474609375,-36.8132438659668,1.647210717201233,264.59722900390625,-203.71055603027344,-335.2098083496094,-42.900001525878906,-3.1500000953674316,-6.750000476837158
7.245,86.42110443115234,-33.978511810302734,-3.1028854846954346,215.43490600585938,-196.915771484375,-363.1883544921875,-42.75,-1.5,-7.950000286102295
7.25,79.41088104248047,-31.871612548828125,-5.056553840637207,209.70596313476562,-197.31546020507812,-355.4609375,-42.75,-1.5,-7.950000286102295
7.26,76.11646270751953,-30.68408966064453,-4.520252704620361,183.32618713378906,-175.46554565429688,-366.11944580078125,-41.55000305175781,-1.5,-9.450000762939453
7.269,70.25545501708984,-28.998571395874023,-3.6391866207122803,150.6845245361328,-171.3353729248047,-362.7886657714844,-41.25,1.0500000715255737,-10.950000762939453
7.279,65.35212707519531,-25.28277015686035,-4.175487995147705,123.10566711425781,-169.20367431640625,-357.5926513671875,-42.0,2.25,-10.200000762939453
7.289,59.68265914916992,-20.341136932373047,-3.8307228088378906,96.45941925048828,-160.2771759033203,-344.9356689453125,-42.0,2.25,-10.200000762939453
7.303,57.1160774230957,-17.391481399536133,-5.056553840637207,58.355281829833984,-140.02603149414062,-346.4012145996094,-38.25,6.150000095367432,-13.500000953674316
7.31,51.7530632019043,-14.633360862731934,-4.903325080871582,41.568145751953125,-137.3614044189453,-331.3460998535156,-38.25,6.150000095367432,-13.500000953674316
7.319,49.9143180847168,-12.143390655517578,-2.7964274883270264,21.45022964477539,-154.0153045654297,-326.5497741699219,-37.95000076293945,5.850000381469727,-13.65000057220459
7.329,49.3014030456543,-8.236053466796875,1.072602391242981,-3.4640121459960938,-150.41806030273438,-318.9555969238281,-36.75,9.15000057220459,-15.000000953674316
7.339,47.15619659423828,-4.022258758544922,1.9153614044189453,-26.64624786376953,-158.0122528076172,-319.8882141113281,-36.75,9.15000057220459,-15.000000953674316
7.358,45.66221618652344,-1.9153614044189453,2.451662540435791,-47.297088623046875,-154.41500854492188,-310.2955627441406,-35.70000076293945,10.950000762939453,-14.40000057220459
7.362,45.892059326171875,1.2258312702178955,-0.6129156351089478,-58.08882141113281,-160.8101043701172,-304.96630859375,-34.95000076293945,12.90000057220459,-17.400001525878906
7.37,47.117889404296875,3.7924153804779053,-2.911349296569824,-77.14088439941406,-149.61868286132812,-309.49615478515625,-34.95000076293945,12.90000057220459,-17.400001525878906
7.379,48.152183532714844,5.171475887298584,-5.018246650695801,-81.40428924560547,-141.0918731689453,-316.29095458984375,-33.45000076293945,14.850000381469727,-17.700000762939453
7.389,51.59983444213867,7.2783732414245605,-7.354987621307373,-82.33690643310547,-134.43031311035156,-303.6340026855469,-33.45000076293945,14.850000381469727,-17.700000762939453
7.4,53.70673370361328,10.572794914245605,-10.113107681274414,-82.47013854980469,-117.64318084716797,-309.49615478515625,-30.450000762939453,17.100000381469727,-17.400001525878906
7.419,59.22297286987305,15.744270324707031,-10.5344877243042,-84.06890869140625,-113.24655151367188,-293.9081115722656,-29.55000114440918,17.400001525878906,-18.0
7.423,62.09601593017578,19.268535614013672,-12.679692268371582,-73.41041564941406,-108.58345794677734,-264.3307800292969,-29.250001907348633,19.650001525878906,-18.75
7.43,66.34811401367188,28.883649826049805,-12.986149787902832,-64.48391723632812,-107.78407287597656,-248.7427215576172,-29.250001907348633,19.650001525878906,-18.75
7.439,69.48931121826172,32.178070068359375,-15.820884704589844,-59.02143859863281,-82.20367431640625,-220.8973846435547,-29.250001907348633,19.650001525878906,-18.75
7.449,72.4006576538086,36.928165435791016,-22.448034286499023,-49.16232681274414,-59.68759536743164,-187.58958435058594,-27.750001907348633,22.80000114440918,-17.55000114440918
7.459,76.07815551757812,39.91613006591797,-26.163835525512695,-22.249616622924805,-43.16691970825195,-150.01837158203125,-25.05000114440918,22.350000381469727,-18.75
7.478,77.99351501464844,43.01901626586914,-26.929981231689453,0.39969372749328613,-31.975496292114258,-129.50076293945312,-23.700000762939453,24.450000762939453,-18.900001525878906
7.483,82.4371566772461,41.639957427978516,-30.79901123046875,35.57273864746094,1.1990811824798584,-102.72128295898438,-23.700000762939453,24.450000762939453,-18.900001525878906
7.49,83.81621551513672,42.32948684692383,-33.672054290771484,58.222049713134766,5.8621745109558105,-78.87289428710938,-24.30000114440918,25.500001907348633,-19.80000114440918
7.5,82.97345733642578,41.79318618774414,-32.292991638183594,77.54058074951172,14.255742073059082,-49.16232681274414,-23.700000762939453,26.100000381469727,-18.150001525878906
7.509,82.20730590820312,42.32948684692383,-29.266721725463867,99.65696716308594,5.595712184906006,-16.12097930908203,-23.700000762939453,26.100000381469727,-18.900001525878906
7.519,82.28392028808594,34.85957717895508,-22.754493713378906,105.5191421508789,-14.522205352783203,10.392036437988281,-24.450000762939453,24.450000762939453,-20.400001525878906
7.539,79.79395294189453,26.240449905395508,-21.413740158081055,98.59111785888672,-30.90964698791504,35.439510345458984,-24.450000762939453,24.450000762939453,-20.400001525878906
7.543,76.07815551757812,18.502389907836914,-24.708162307739258,45.03215789794922,-23.315465927124023,68.61408996582031,-23.400001525878906,25.650001525878906,-19.650001525878906
7.55,74.04786682128906,7.7763671875,-30.109479904174805,5.8621745109558105,-10.125574111938477,84.06890869140625,-23.700000762939453,25.200000762939453,-20.700000762939453
7.559,75.61846923828125,4.443638324737549,-32.82929229736328,-59.68759536743164,8.127105712890625,107.51760864257812,-24.900001525878906,23.700000762939453,-21.75
7.569,82.59038543701172,2.298433542251587,-37.08139419555664,-118.17610931396484,31.44257164001465,142.95712280273438,-24.150001525878906,23.25,-19.200000762939453
7.579,88.79615020751953,4.32871675491333,-37.77092742919922,-172.53445434570312,53.29249572753906,164.00765991210938,-24.150001525878906,23.25,-19.200000762939453
7.599,96.87897491455078,8.772355079650879,-36.008792877197266,-190.65390014648438,61.15313720703125,194.51760864257812,-25.05000114440918,23.100000381469727,-18.30000114440918
7.604,98.29634857177734,9.84495735168457,-33.288978576660156,-149.21897888183594,54.89126968383789,213.30320739746094,-25.80000114440918,21.900001525878906,-19.05000114440918
7.61,93.16317749023438,10.381258964538574,-23.3291015625,-131.0995330810547,50.09494400024414,218.76568603515625,-27.900001525878906,24.450000762939453,-17.400001525878906
7.619,91.89904022216797,7.316680431365967,-19.421764373779297,-96.72587585449219,45.69831466674805,211.0382843017578,-26.700000762939453,23.700000762939453,-17.400001525878906
7.629,89.2558364868164,0.8044517636299133,-14.058752059936523,-83.00305938720703,39.03675079345703,204.90963745117188,-26.700000762939453,23.700000762939453,-17.400001525878906
7.639,85.19527435302734,-7.623138427734375,-9.959878921508789,-68.88054656982422,34.24042892456055,207.30780029296875,-27.900001525878906,21.75,-15.90000057220459
7.659,83.31822204589844,-16.35718536376953,-8.389283180236816,-85.13475799560547,47.9632453918457,196.78253173828125,-28.950000762939453,20.55000114440918,-17.100000381469727
7.663,81.51777648925781,-22.677879333496094,-11.1474027633667,-88.99846649169922,67.94792938232422,220.6309356689453,-29.55000114440918,21.900001525878906,-15.000000953674316
7.669,80.2536392211914,-26.12552833557129,-18.11931800842285,-96.99234008789062,80.8713607788086,227.42572021484375,-30.900001525878906,20.25,-15.15000057220459
7.679,78.60643005371094,-26.700138092041016,-20.532672882080078,-119.24195861816406,111.64777374267578,247.41041564941406,-30.900001525878906,20.25,-15.15000057220459
7.689,78.72135162353516,-24.89969825744629,-23.44402313232422,-153.0826873779297,149.08575439453125,250.6079559326172,-30.750001907348633,18.900001525878906,-15.450000762939453
7.7,78.68304443359375,-22.946029663085938,-20.95405387878418,-176.26492309570312,166.80551147460938,270.7258605957031,-32.55000305175781,20.850000381469727,-13.200000762939453
7.719,80.13871765136719,-19.153614044189453,-17.62132453918457,-204.11026000976562,180.66156005859375,269.2603454589844,-33.150001525878906,17.850000381469727,-13.350000381469727
7.722,80.29194641113281,-16.28057098388672,-13.637372970581055,-238.084228515625,181.99386596679688,262.73199462890625,-34.05000305175781,18.450000762939453,-10.65000057220459
7.729,79.06611633300781,-16.012420654296875,-11.070788383483887,-258.3353576660156,168.67074584960938,265.52984619140625,-34.05000305175781,18.450000762939453,-10.65000057220459
7.74,78.87458038330078,-16.58702850341797,-9.959878921508789,-291.6431884765625,146.1546630859375,274.9892883300781,-34.05000305175781,18.450000762939453,-10.65000057220459
7.749,78.22335815429688,-15.322891235351562,-8.35097599029541,-323.4854431152344,133.89739990234375,283.5160827636719,-37.05000305175781,17.400001525878906,-7.950000286102295
7.759,77.91690063476562,-12.48815631866455,-6.205770969390869,-356.7932434082031,123.2388916015625,291.376708984375,-37.05000305175781,15.450000762939453,-6.600000381469727
7.779,76.99752807617188,-6.780379295349121,-4.903325080871582,-368.117919921875,103.12097930908203,288.578857421875,-38.70000076293945,15.15000057220459,-4.950000286102295
