time,accel_x,accel_y,accel_z,gyro_x,gyro_y,gyro_z,mag_x,mag_y,mag_z
0.0,2.7804598808288574,-8.621339797973633,-3.55214524269104,-0.052381694316864014,0.30772337317466736,-0.14187344908714294,-28.16427993774414,45.746856689453125,-11.137094497680664
0.01,3.0352954864501953,-8.496912956237793,-3.662214994430542,-0.04718933627009392,0.31902435421943665,-0.15683965384960175,-28.04735565185547,46.097633361816406,-10.77170467376709
0.02,3.3415768146514893,-8.684749603271484,-3.6263227462768555,-0.05711590126156807,0.3110831081867218,-0.12736541032791138,-28.325050354003906,45.93686294555664,-11.677871704101562
0.03,3.458824872970581,-8.687142372131348,-3.751945734024048,-0.06765332818031311,0.29336804151535034,-0.0933096632361412,-28.588130950927734,45.556854248046875,-10.888628959655762
0.04,3.352344274520874,-8.654839515686035,-3.6466617584228516,-0.06872233748435974,0.2744311988353729,-0.050243668258190155,-29.201988220214844,45.77608871459961,-11.736333847045898
0.059,2.6763720512390137,-8.551947593688965,-3.669393539428711,-0.0988074541091919,0.1411098688840866,-0.15851953625679016,-29.143524169921875,45.191463470458984,-10.596317291259766
0.063,2.7278177738189697,-8.506484031677246,-3.6945178508758545,-0.11026117950677872,0.10048733651638031,-0.2021963894367218,-28.89505958557129,45.615318298339844,-10.537854194641113
0.07,3.177668571472168,-8.380861282348633,-3.751945734024048,-0.10033462196588516,0.07987063378095627,-0.22021691501140594,-28.851213455200195,45.52762222290039,-9.880152702331543
0.08,3.493520736694336,-8.404788970947266,-3.888336658477783,-0.0832303911447525,0.03222314268350601,-0.1970040500164032,-29.37737464904785,45.24992752075195,-10.362466812133789
0.09,3.194417953491211,-8.39282512664795,-3.841676712036133,-0.05161811038851738,-0.013744467869400978,-0.15653420984745026,-29.36275863647461,45.191463470458984,-10.347851753234863
0.1,2.7840490341186523,-8.35453987121582,-3.7112677097320557,-0.02168571576476097,-0.028557950630784035,-0.14095714688301086,-29.216602325439453,44.97222900390625,-10.084770202636719
0.12,2.825923442840576,-8.443074226379395,-3.5018956661224365,0.02626720443367958,0.0025961773935705423,-0.1261436641216278,-28.982751846313477,45.191463470458984,-10.874013900756836
0.123,2.853440999984741,-8.512466430664062,-3.5030922889709473,0.030695976689457893,0.016035212203860283,-0.11331550031900406,-29.34814453125,45.08915710449219,-11.780181884765625
0.13,2.827119827270508,-8.537590980529785,-3.482753276824951,0.030695976689457893,0.03145955875515938,-0.09896016865968704,-29.172758102416992,44.91376876831055,-11.970184326171875
0.14,2.8582265377044678,-8.534001350402832,-3.6358938217163086,0.027030786499381065,0.04688390716910362,-0.08139779418706894,-29.333528518676758,45.3814697265625,-11.005553245544434
0.15,3.0580272674560547,-8.60459041595459,-3.672982692718506,0.014508049935102463,0.060475654900074005,-0.060933806002140045,-29.172758102416992,44.41683578491211,-11.078632354736328
0.16,3.1896326541900635,-8.654839515686035,-3.7148568630218506,-0.0010690141934901476,0.007788531482219696,-0.03039054572582245,-29.406606674194336,44.65068435668945,-10.523239135742188
0.179,2.7038893699645996,-8.679964065551758,-3.486342430114746,-0.0656680166721344,0.0,-0.006872233934700489,-29.567378997802734,45.206077575683594,-10.552470207214355
0.182,2.702692985534668,-8.601000785827637,-3.5294132232666016,-0.08277223259210587,0.029016099870204926,0.010995574295520782,-29.37737464904785,45.04530715942383,-10.68401050567627
0.19,2.7768707275390625,-8.465806007385254,-3.785445213317871,-0.09224064648151398,0.06902776658535004,0.04612032324075699,-29.46506690979004,44.85530471801758,-10.669394493103027
0.2,2.854637384414673,-8.250452041625977,-3.875175952911377,-0.07422012835741043,0.0734565407037735,0.057421330362558365,-29.611223220825195,44.59222412109375,-9.938613891601562
0.21,2.8965117931365967,-8.086544036865234,-3.919443368911743,-0.04077525436878204,0.08155050873756409,0.08979719132184982,-29.596609115600586,45.07453918457031,-10.800935745239258
0.22,2.8737800121307373,-8.093722343444824,-3.792623519897461,0.02076941914856434,0.06948591768741608,0.11774427443742752,-29.845073699951172,44.65068435668945,-11.51710033416748
0.239,2.9766714572906494,-8.233702659606934,-3.6849467754364014,0.1088867262005806,0.020922133699059486,0.1434006243944168,-29.31891441345215,45.1037712097168,-10.610932350158691
0.243,3.0137598514556885,-8.303093910217285,-3.6610186100006104,0.11636982858181,0.015118913725018501,0.1459967941045761,-29.333528518676758,44.577606201171875,-10.64016342163086
0.25,3.098705291748047,-8.49332332611084,-3.5581271648406982,0.13286319375038147,-0.0029016099870204926,0.15424346923828125,-29.36275863647461,44.97222900390625,-10.435544967651367
0.26,3.0520453453063965,-8.62612533569336,-3.4743783473968506,0.12568552792072296,-0.04520402476191521,0.16661350429058075,-29.71353530883789,45.0599250793457,-11.151710510253906
0.27,3.0233314037323,-8.642874717712402,-3.4480574131011963,0.10384708642959595,-0.09162978827953339,0.17272214591503143,-29.523530960083008,45.04530715942383,-11.707103729248047
0.28,3.078366279602051,-8.629714965820312,-3.517449140548706,0.08155050873756409,-0.10216721147298813,0.19364428520202637,-29.406606674194336,45.191463470458984,-10.318620681762695
0.299,2.906083106994629,-8.511269569396973,-3.6083762645721436,0.06811147183179855,-0.10537425428628922,0.2513710558414459,-29.201988220214844,45.08915710449219,-11.064016342163086
0.303,2.799602508544922,-8.416753768920898,-3.610769271850586,0.07467827200889587,-0.09453140199184418,0.266184538602829,-28.778135299682617,45.03069305419922,-11.312481880187988
0.31,2.633301258087158,-8.419146537780762,-3.592823028564453,0.08429940044879913,-0.07712173461914062,0.2770273983478546,-28.9096736907959,45.235313415527344,-10.830166816711426
0.32,2.5471596717834473,-8.512466430664062,-3.5569305419921875,0.10766499489545822,-0.04993823170661926,0.28267788887023926,-28.368898391723633,45.27915573120117,-10.64016342163086
0.33,2.4023938179016113,-8.451449394226074,-3.4683964252471924,0.13668109476566315,-0.02428189292550087,0.2871066629886627,-28.99736976623535,45.615318298339844,-11.51710033416748
0.34,2.266003131866455,-8.447859764099121,-3.3092734813690186,0.1722639948129654,0.014813481830060482,0.2838996350765228,-28.778135299682617,45.4399299621582,-10.45016098022461
0.356,2.5016961097717285,-8.70389175415039,-3.1824538707733154,0.2079996019601822,0.07299839705228806,0.26939156651496887,-28.193510055541992,45.27915573120117,-11.370944023132324
0.36,2.599801778793335,-8.73499870300293,-3.1130621433258057,0.20876319706439972,0.07666358351707458,0.2692388594150543,-27.97427749633789,45.46916198730469,-11.414791107177734
0.37,2.6632113456726074,-8.877371788024902,-3.1334011554718018,0.2015855312347412,0.08292495459318161,0.2845104932785034,-27.72580909729004,45.498390197753906,-10.903244018554688
0.38,2.757727861404419,-8.947959899902344,-3.300898551940918,0.19685132801532745,0.056352317333221436,0.2860376536846161,-27.4481143951416,45.746856689453125,-11.093247413635254
0.39,2.8151557445526123,-9.20758056640625,-2.8977081775665283,0.18066339194774628,0.014660765416920185,0.29657506942749023,-27.63811683654785,45.805320739746094,-11.356328010559082
0.409,2.6703901290893555,-9.443273544311523,-2.7290141582489014,0.12202033400535583,-0.0025961773935705423,0.3237585723400116,-27.857351303100586,45.86378479003906,-11.926337242126465
0.413,2.4406790733337402,-9.30329418182373,-2.9168508052825928,0.06398813426494598,0.03176499158143997,0.40622538328170776,-27.755043029785156,45.761470794677734,-11.356328010559082
0.42,2.149951219558716,-9.126225471496582,-2.9659035205841064,0.04963279888033867,0.06520986557006836,0.4462370276451111,-27.769657135009766,45.65916442871094,-12.057878494262695
0.43,1.6139588356018066,-9.10110092163086,-2.9383859634399414,0.04214970022439957,0.12721268832683563,0.49006664752960205,-27.111955642700195,46.302249908447266,-11.502485275268555
0.44,1.277767300605774,-9.008976936340332,-2.933600664138794,0.05314527824521065,0.20754145085811615,0.5077817440032959,-27.08272361755371,46.08301544189453,-11.151710510253906
0.45,1.2669994831085205,-8.819944381713867,-2.935993194580078,0.08918632566928864,0.30466902256011963,0.5048801302909851,-27.301958084106445,45.8199348449707,-10.990938186645508
0.46,1.4177473783493042,-8.650053024291992,-2.871387243270874,0.12919799983501434,0.4196644127368927,0.5392412543296814,-27.111955642700195,45.995323181152344,-11.51710033416748
0.472,1.6091731786727905,-8.599804878234863,-2.9288148880004883,0.18020524084568024,0.5580253601074219,0.5736024975776672,-26.33732795715332,46.360713958740234,-11.867875099182129
0.48,1.9645073413848877,-8.707481384277344,-3.0652055740356445,0.21563541889190674,0.5641340017318726,0.5852088928222656,-26.775794982910156,46.06840133666992,-11.955568313598633
0.49,2.2468602657318115,-8.950352668762207,-2.909672260284424,0.21532998979091644,0.517250120639801,0.6082690358161926,-26.717334747314453,46.346099853515625,-12.320959091186523
0.5,2.531606435775757,-9.07717227935791,-3.3678977489471436,0.21884246170520782,0.45921796560287476,0.6527094841003418,-26.571178436279297,47.03303146362305,-11.692487716674805
0.51,2.5974087715148926,-8.922835350036621,-3.4480574131011963,0.2594650089740753,0.34162637591362,0.6873761415481567,-26.61502456665039,46.38994216918945,-12.671732902526855
0.529,2.368894338607788,-8.683552742004395,-3.46600341796875,0.2991712689399719,0.21624629199504852,0.7241807579994202,-26.132709503173828,46.726104736328125,-12.554807662963867
0.533,2.038684844970703,-8.925228118896484,-3.122633457183838,0.35033121705055237,0.07360926270484924,0.7319692969322205,-26.103479385375977,47.281497955322266,-12.554807662963867
0.54,2.1571295261383057,-9.139386177062988,-2.8223342895507812,0.3605632185935974,0.01710422709584236,0.730900228023529,-25.97193717956543,47.19380569458008,-13.329436302185059
0.55,2.468196392059326,-9.272187232971191,-2.9132614135742188,0.32788190245628357,-0.07819075137376785,0.7234171628952026,-25.942707061767578,46.98918533325195,-12.554807662963867
0.56,2.335394859313965,-8.979066848754883,-3.174079179763794,0.31154128909111023,-0.16783522069454193,0.7473936080932617,-25.109615325927734,47.106109619140625,-13.051739692687988
0.57,1.939382791519165,-8.699106216430664,-3.335594892501831,0.31581732630729675,-0.19715675711631775,0.7533495426177979,-24.729610443115234,46.78456497192383,-13.16866397857666
0.588,1.8927226066589355,-8.605786323547363,-3.586841106414795,0.3425426781177521,-0.1745547503232956,0.7417430877685547,-23.794212341308594,47.09149169921875,-14.177140235900879
0.593,2.3234305381774902,-8.577072143554688,-3.87876558303833,0.38927385210990906,-0.16569718718528748,0.7278459072113037,-23.03420066833496,47.69073486328125,-13.899443626403809
0.6,2.583051919937134,-8.419146537780762,-4.019941806793213,0.4288273751735687,-0.2028072625398636,0.7257079482078552,-23.22420310974121,47.500728607177734,-13.709442138671875
0.61,2.8283162117004395,-8.519644737243652,-3.9529428482055664,0.47937649488449097,-0.25045475363731384,0.7405213713645935,-23.2095890045166,47.79304122924805,-13.621747970581055
0.62,2.706282138824463,-8.669196128845215,-3.7842490673065186,0.5012149214744568,-0.31031954288482666,0.7473936080932617,-21.967260360717773,47.70534896850586,-13.928675651550293
0.63,2.4394824504852295,-8.70389175415039,-3.5461630821228027,0.48411068320274353,-0.3969096839427948,0.6777549982070923,-22.186494827270508,47.89535140991211,-14.235603332519531
0.65,2.4466609954833984,-8.520841598510742,-3.5126636028289795,0.46105054020881653,-0.4492913782596588,0.5949827432632446,-21.64571762084961,47.80765914916992,-14.147910118103027
0.653,2.6189444065093994,-8.294719696044922,-3.4779675006866455,0.4300491213798523,-0.48517972230911255,0.527634859085083,-21.031862258911133,47.79304122924805,-14.995615005493164
0.66,2.551945447921753,-8.151150703430176,-3.565305471420288,0.4109595715999603,-0.4917464852333069,0.49617525935173035,-20.62262535095215,48.041507720947266,-15.4633150100708
0.67,2.482553482055664,-7.993224143981934,-3.5988051891326904,0.41004326939582825,-0.46853363513946533,0.45356741547584534,-20.35954475402832,47.96842956542969,-15.14177131652832
0.68,2.533998966217041,-8.258827209472656,-3.321237564086914,0.3585779070854187,-0.4395175576210022,0.3627012372016907,-20.344928741455078,48.421512603759766,-14.147910118103027
0.69,2.799602508544922,-8.166703224182129,-3.3583264350891113,0.3049744665622711,-0.485027015209198,0.24846942722797394,-19.789535522460938,48.494590759277344,-15.156386375427246
0.71,3.231506824493408,-8.270791053771973,-3.2578277587890625,0.24358251690864563,-0.5206099152565002,0.16523903608322144,-19.27798843383789,48.27535629272461,-15.244080543518066
0.714,3.7567315101623535,-8.50289535522461,-3.3200414180755615,0.10567968338727951,-0.5635231733322144,0.13041973114013672,-19.27798843383789,48.596900939941406,-15.127155303955078
0.72,3.7950165271759033,-8.426324844360352,-3.4468607902526855,0.06398813426494598,-0.5522221326828003,0.1437060534954071,-19.394912719726562,48.713829040527344,-15.434082984924316
0.73,3.531806230545044,-8.036294937133789,-3.748356580734253,0.004734205547720194,-0.46822819113731384,0.1973094791173935,-19.307220458984375,48.5384407043457,-15.755626678466797
0.74,3.2243285179138184,-7.8113694190979,-3.799802303314209,-0.006719517521560192,-0.4245513379573822,0.21639901399612427,-18.649517059326172,48.421512603759766,-15.580240249633789
0.75,3.236292600631714,-7.8137617111206055,-3.889533042907715,0.01542434748262167,-0.3594941794872284,0.22418753802776337,-18.386436462402344,48.23151397705078,-14.63022518157959
0.769,3.3966116905212402,-7.977670669555664,-3.9385857582092285,0.06230825185775757,-0.2727513313293457,0.2480112910270691,-17.88950538635254,48.12919998168945,-15.28792667388916
0.773,3.9565322399139404,-8.358129501342773,-4.175475120544434,0.15363259613513947,-0.23625212907791138,0.2733621895313263,-17.88950538635254,48.30459213256836,-16.121017456054688
0.78,4.274777412414551,-8.729016304016113,-4.2795634269714355,0.19379699230194092,-0.256868839263916,0.2838996350765228,-17.80181312561035,48.465362548828125,-16.121017456054688
0.79,4.510470390319824,-9.439684867858887,-4.604987144470215,0.22098049521446228,-0.2955060601234436,0.2880229651927948,-17.26103401184082,48.50920867919922,-16.413330078125
0.801,4.645665168762207,-9.90030288696289,-4.686342716217041,0.2142609804868698,-0.3341432809829712,0.26114487648010254,-17.465654373168945,48.12919998168945,-16.091785430908203
0.81,4.817948341369629,-10.482954978942871,-4.5200419425964355,0.1540907472372055,-0.35414913296699524,0.2255619913339615,-17.027183532714844,48.494590759277344,-15.56562328338623
0.83,5.03449821472168,-10.934002876281738,-4.277170181274414,0.04688390716910362,-0.3491095006465912,0.18875734508037567,-16.822566986083984,48.30459213256836,-16.340251922607422
0.833,5.090729713439941,-11.027322769165039,-4.169493198394775,-0.16752979159355164,-0.2565633952617645,0.17027868330478668,-16.96872329711914,48.6407470703125,-16.442562103271484
0.841,4.906482696533203,-10.928020477294922,-4.2209391593933105,-0.2681698203086853,-0.17959438264369965,0.15790866315364838,-17.173341751098633,48.45074462890625,-15.931015014648438
0.85,4.621737003326416,-10.554740905761719,-4.563112735748291,-0.3781256079673767,-0.05497787147760391,0.10903944075107574,-16.895645141601562,48.406898498535156,-15.916398048400879
0.86,4.567898273468018,-9.988838195800781,-4.774877548217773,-0.43905937671661377,0.07391469925642014,0.021380282938480377,-16.69102668762207,48.494590759277344,-15.843321800231934
0.87,4.587040901184082,-9.31166934967041,-4.947160720825195,-0.4349360466003418,0.20754145085811615,-0.07681629806756973,-16.559486389160156,47.924583435058594,-14.980999946594238
0.889,4.650450706481934,-8.665606498718262,-5.0464630126953125,-0.3988949954509735,0.2684752643108368,-0.20662516355514526,-17.14410972595215,47.9391975402832,-13.943290710449219
0.893,5.151747226715088,-8.201398849487305,-5.1804609298706055,-0.31062498688697815,0.24785856902599335,-0.4625777006149292,-17.3341121673584,47.95381546020508,-14.367143630981445
0.9,5.429314136505127,-8.148756980895996,-5.158925533294678,-0.2742784917354584,0.1768454760313034,-0.589790403842926,-17.684886932373047,47.70534896850586,-14.147910118103027
0.91,5.576473236083984,-8.164310455322266,-4.870590686798096,-0.24297165870666504,0.05146539583802223,-0.7565565705299377,-18.108739852905273,47.866119384765625,-13.826367378234863
0.92,5.5692949295043945,-8.258827209472656,-4.575077056884766,-0.24846942722797394,-0.09529497474431992,-0.9240863919258118,-18.327974319458008,48.17304992675781,-14.279450416564941
0.93,5.364708423614502,-8.256434440612793,-4.30588436126709,-0.2822197377681732,-0.23197607696056366,-1.0910053253173828,-19.16106414794922,47.924583435058594,-14.557147026062012
0.949,5.172085762023926,-8.33898639678955,-4.338187217712402,-0.36850446462631226,-0.3410155177116394,-1.2728904485702515,-19.64337921142578,48.056121826171875,-14.11867904663086
0.953,4.758127689361572,-8.63330364227295,-4.180261135101318,-0.4977024495601654,-0.43737950921058655,-1.4482086896896362,-20.403390884399414,48.27535629272461,-13.709442138671875
0.96,4.671986103057861,-8.654839515686035,-4.161118507385254,-0.5815436840057373,-0.4599815011024475,-1.5431982278823853,-20.73954963684082,47.89535140991211,-14.381760597229004
0.97,4.7401814460754395,-8.678768157958984,-4.1551361083984375,-0.6747006773948669,-0.4615086615085602,-1.6206254959106445,-21.411867141723633,47.866119384765625,-13.899443626403809
0.98,4.0725836753845215,-8.58185863494873,-4.147957801818848,-0.746019184589386,-0.369878888130188,-1.6252069473266602,-21.82110595703125,47.471500396728516,-13.504822731018066
0.99,3.4851462841033936,-8.414360046386719,-4.0905303955078125,-0.7855726480484009,-0.19303342700004578,-1.6827809810638428,-21.674949645996094,47.14995574951172,-12.350189208984375
1.01,3.6562328338623047,-8.688338279724121,-3.9589247703552246,-0.8005388975143433,-0.03451388329267502,-1.7234035730361938,-23.911136627197266,47.07687759399414,-11.940953254699707
1.013,3.796213150024414,-9.087940216064453,-3.783052444458008,-0.7967209815979004,0.1543961763381958,-1.7340936660766602,-24.48114585876465,46.667640686035156,-12.101724624633789
1.02,3.889533042907715,-9.305686950683594,-3.562912940979004,-0.7939720749855042,0.2532036304473877,-1.7466164827346802,-24.656532287597656,46.8430290222168,-12.072493553161621
1.03,4.061816215515137,-9.588040351867676,-3.377469062805176,-0.8109236359596252,0.3536909520626068,-1.772883653640747,-25.825780868530273,46.56533432006836,-11.444022178649902
1.04,4.301098346710205,-9.711270332336426,-3.3379874229431152,-0.8512406945228577,0.43829578161239624,-1.8038851022720337,-26.49810028076172,46.56533432006836,-10.654779434204102
1.05,4.843072891235352,-9.580862045288086,-3.458824872970581,-0.8776606321334839,0.44196099042892456,-1.824501633644104,-27.272727966308594,46.49225616455078,-9.850920677185059
1.07,4.948357105255127,-9.55095100402832,-3.6502509117126465,-0.9020951986312866,0.40622538328170776,-1.826945185661316,-28.500438690185547,45.42531204223633,-10.947091102600098
1.073,5.0392842292785645,-9.55214786529541,-3.4719855785369873,-0.9364563822746277,0.33108893036842346,-1.838398814201355,-30.049694061279297,45.14761734008789,-10.347851753234863
1.08,4.920839786529541,-9.510272979736328,-3.427718162536621,-0.9644034504890442,0.29886582493782043,-1.8226691484451294,-30.663549423217773,44.431453704833984,-9.397836685180664
1.09,4.567898273468018,-9.366703987121582,-3.3810582160949707,-0.9954048991203308,0.31902435421943665,-1.7860172986984253,-31.262788772583008,44.47529983520508,-8.053200721740723
1.1,4.277170181274414,-9.019744873046875,-3.4444680213928223,-0.9992228150367737,0.3735440969467163,-1.7757853269577026,-32.15433883666992,43.67144012451172,-8.564746856689453
1.11,4.370490550994873,-8.731410026550293,-3.517449140548706,-0.9689849615097046,0.437226802110672,-1.7673858404159546,-32.84127426147461,43.262203216552734,-8.360128402709961
1.13,4.409972190856934,-8.562715530395508,-3.5162527561187744,-0.9103419184684753,0.4946480989456177,-1.7455472946166992,-34.536685943603516,42.896812438964844,-8.79859733581543
1.133,4.334598064422607,-8.410771369934082,-3.5030922889709473,-0.793666660785675,0.5099197626113892,-1.7553212642669678,-35.106693267822266,42.268341064453125,-8.433206558227539
1.14,4.4614176750183105,-8.447859764099121,-3.4851462841033936,-0.7350236177444458,0.49098294973373413,-1.7762433290481567,-35.369773864746094,41.522945404052734,-7.8339667320251465
1.15,4.883750915527344,-8.520841598510742,-3.4480574131011963,-0.6655376553535461,0.40851613879203796,-1.799456238746643,-35.77901077270508,40.79216766357422,-7.424729347229004
1.16,4.90408992767334,-8.557929992675781,-3.3990042209625244,-0.6181955933570862,0.2915354371070862,-1.8167130947113037,-37.474422454833984,41.17217254638672,-8.1262788772583
1.17,4.910071849822998,-8.519644737243652,-3.4205398559570312,-0.5874996781349182,0.18127425014972687,-1.822821855545044,-37.88365936279297,40.002925872802734,-7.17626428604126
1.19,4.980660438537598,-8.492127418518066,-3.3439693450927734,-0.5632177591323853,0.07681629806756973,-1.793653130531311,-38.89213943481445,40.10523223876953,-7.0301079750061035
1.193,5.155336380004883,-8.330612182617188,-3.5437703132629395,-0.5568036437034607,-0.04917465150356293,-1.6948455572128296,-39.140602111816406,39.213680267333984,-7.527039051055908
1.2,5.164907455444336,-8.208578109741211,-3.4468607902526855,-0.5528330206871033,-0.13790282607078552,-1.6314682960510254,-39.564453125,38.585208892822266,-6.8401055335998535
1.21,4.84187650680542,-8.242076873779297,-3.1369903087615967,-0.5775730609893799,-0.2617557644844055,-1.5595389604568481,-40.149078369140625,37.89827346801758,-6.8839521408081055
1.22,4.431507587432861,-8.02074146270752,-3.2590243816375732,-0.6023131012916565,-0.3871358335018158,-1.5031867027282715,-40.93832015991211,37.48904037475586,-6.460099697113037
1.23,4.140779495239258,-7.759923458099365,-3.452842950820923,-0.6064364910125732,-0.4882340133190155,-1.4599679708480835,-41.02601623535156,37.35749816894531,-6.182402610778809
1.25,3.94815731048584,-7.491927146911621,-3.6191442012786865,-0.5813909769058228,-0.6003278493881226,-1.4193453788757324,-41.05524826049805,35.852088928222656,-6.240865230560303
1.254,3.867997646331787,-7.071987152099609,-3.8392839431762695,-0.4964807331562042,-0.697149932384491,-1.3142764568328857,-41.02601623535156,35.76439666748047,-6.0800933837890625
1.26,3.786641836166382,-6.8542399406433105,-3.893122434616089,-0.4323398768901825,-0.7194464802742004,-1.2446379661560059,-40.93832015991211,35.06284713745117,-5.495469093322754
1.27,3.5641093254089355,-6.723831653594971,-3.806980848312378,-0.3410155177116394,-0.7380779385566711,-1.140179991722107,-40.80678176879883,34.69745635986328,-5.32008171081543
1.28,3.363112211227417,-6.8997039794921875,-3.513859748840332,-0.251218318939209,-0.734107255935669,-1.0299187898635864,-41.3037109375,34.2443733215332,-5.8900909423828125
1.29,3.5090742111206055,-7.048058986663818,-3.5772697925567627,-0.184939444065094,-0.7273877859115601,-0.9311113357543945,-41.49371337890625,33.89359664916992,-5.261619567871094
1.309,3.3882367610931396,-7.233502388000488,-3.239881753921509,-0.14385876059532166,-0.6345362663269043,-0.6013968586921692,-40.952938079833984,33.820518493652344,-5.553931713104248
1.313,3.2925240993499756,-7.5565338134765625,-3.2685956954956055,-0.14019358158111572,-0.6171265840530396,-0.5044220089912415,-40.64601135253906,34.02513885498047,-4.881613731384277
1.32,3.0664021968841553,-7.872386455535889,-3.4875388145446777,-0.12736541032791138,-0.5777257680892944,-0.3422372341156006,-41.318328857421875,33.46974563598633,-5.0862321853637695
1.33,2.699103832244873,-8.228917121887207,-3.7806599140167236,-0.08949175477027893,-0.52702397108078,-0.14935654401779175,-40.543701171875,33.367435455322266,-5.670856475830078
1.34,2.737389087677002,-8.237292289733887,-3.968496322631836,-0.027641652151942253,-0.456163614988327,0.038637224584817886,-40.543701171875,33.27974319458008,-5.1008477210998535
1.35,2.7876384258270264,-8.075776100158691,-3.8943188190460205,0.07131851464509964,-0.36529740691185,0.28130343556404114,-40.309852600097656,33.367435455322266,-4.472376346588135
1.37,2.550748825073242,-7.722835063934326,-3.806980848312378,0.1644754558801651,-0.2687807083129883,0.46990808844566345,-40.19292449951172,34.2443733215332,-5.2031569480896
1.373,1.9920247793197632,-7.371089935302734,-3.9696924686431885,0.26603180170059204,-0.10415252298116684,0.6661485433578491,-40.04676818847656,34.01052474975586,-4.837766647338867
1.38,1.935793399810791,-7.135396957397461,-3.9936206340789795,0.33047807216644287,-0.00855211354792118,0.7411321997642517,-39.43291473388672,33.74744415283203,-4.998538494110107
1.39,1.9657037258148193,-7.192824363708496,-3.7639100551605225,0.3856086730957031,0.09926559776067734,0.8165740966796875,-39.389068603515625,34.127445220947266,-5.24700403213501
1.4,2.306680917739868,-7.412964344024658,-3.913461446762085,0.42409318685531616,0.22342397272586823,0.8950702548027039,-39.43291473388672,34.27360534667969,-4.881613731384277
1.41,2.981456995010376,-7.852047443389893,-3.8321051597595215,0.42210787534713745,0.28787022829055786,0.9831876158714294,-39.374454498291016,34.69745635986328,-5.159310340881348
1.43,3.4648072719573975,-7.89631462097168,-4.053441524505615,0.4017966091632843,0.24037547409534454,1.187827467918396,-39.30137634277344,35.01900100708008,-5.334697246551514
1.433,3.174079179763794,-7.701299667358398,-3.988835334777832,0.3972151279449463,0.22632557153701782,1.20722234249115,-39.24291229248047,35.472084045410156,-5.904706001281738
1.44,2.96111798286438,-7.77906608581543,-3.996013641357422,0.3975205719470978,0.18555031716823578,1.2472341060638428,-39.24291229248047,35.74978256225586,-5.700087547302246
1.45,2.638087034225464,-7.899903297424316,-3.6191442012786865,0.34865131974220276,0.13790282607078552,1.2681562900543213,-39.038291931152344,36.04209518432617,-5.24700403213501
1.46,2.8450660705566406,-7.548158645629883,-3.940978765487671,0.34208452701568604,0.10583239793777466,1.262047529220581,-38.87752151489258,36.61210250854492,-6.270096302032471
1.47,2.8558335304260254,-7.529016494750977,-3.9792640209198,0.34055736660957336,0.10537425428628922,1.3336715698242188,-37.679039001464844,36.97748947143555,-6.123940467834473
1.489,2.5782663822174072,-7.440481662750244,-4.3310089111328125,0.3494149148464203,0.10262536257505417,1.3576478958129883,-37.54750061035156,37.284420013427734,-6.562408924102783
1.493,2.5710878372192383,-7.465606689453125,-4.226921081542969,0.3594941794872284,0.07559457421302795,1.3390165567398071,-37.50365447998047,37.25518798828125,-6.007015228271484
1.5,2.462214469909668,-7.692924499511719,-4.208974838256836,0.3565925657749176,0.1036943718791008,1.3492486476898193,-37.34288024902344,37.50365447998047,-6.313942909240723
1.51,2.225324869155884,-7.999206066131592,-4.041477203369141,0.33490684628486633,0.17562375962734222,1.3548990488052368,-36.495174407958984,37.635196685791016,-6.474714756011963
1.52,2.0757734775543213,-8.13679313659668,-4.004388809204102,0.3019201457500458,0.27977627515792847,1.3703234195709229,-36.451332092285156,37.50365447998047,-6.123940467834473
1.53,2.001595973968506,-8.15234661102295,-3.888336658477783,0.28359419107437134,0.41263946890830994,1.4004086256027222,-35.6474723815918,37.95673751831055,-6.182402610778809
1.549,1.9226329326629639,-8.303093910217285,-3.7459635734558105,0.26939156651496887,0.703411340713501,1.4689781665802002,-35.63285446166992,38.395206451416016,-7.103186130523682
1.553,1.9501503705978394,-8.373682022094727,-3.702892780303955,0.26221391558647156,0.7696901559829712,1.477835774421692,-35.69131851196289,38.468284606933594,-6.0654778480529785
1.56,2.060220241546631,-8.548358917236328,-3.7734811305999756,0.2538144886493683,0.855516791343689,1.4880677461624146,-35.282081604003906,38.599822998046875,-5.87547492980957
1.57,2.390429735183716,-8.810372352600098,-4.029513359069824,0.25854870676994324,0.9410378932952881,1.5004377365112305,-35.106693267822266,38.55597686767578,-5.9339375495910645
1.58,2.685943365097046,-9.087940216064453,-4.128815174102783,0.27580565214157104,0.9934195876121521,1.5147931575775146,-34.81438064575195,39.31599044799805,-6.401637077331543
1.59,2.7086751461029053,-9.29611587524414,-4.133601188659668,0.293826162815094,0.9921978712081909,1.507157325744629,-35.03361511230469,39.8421516418457,-7.322420120239258
1.609,2.8689942359924316,-9.79142951965332,-4.074976921081543,0.293826162815094,0.9207265973091125,1.4114041328430176,-35.04823303222656,40.38292694091797,-7.556270122528076
1.612,2.9491539001464844,-9.840482711791992,-4.106083393096924,0.2837468981742859,0.8827002644538879,1.3782646656036377,-34.9459228515625,40.25138854980469,-7.05933952331543
1.62,3.3104701042175293,-9.805787086486816,-4.101297855377197,0.270766019821167,0.8200865387916565,1.3464996814727783,-35.04823303222656,40.45600509643555,-8.374743461608887
1.63,3.561716318130493,-9.559326171875,-4.094119548797607,0.2617557644844055,0.7345654964447021,1.3223705291748047,-35.106693267822266,40.73370361328125,-8.023969650268555
1.64,3.5533413887023926,-9.274580001831055,-3.996013641357422,0.2590068578720093,0.6623306274414062,1.318858027458191,-34.77053451538086,40.499855041503906,-7.9947381019592285
1.65,3.6574294567108154,-9.046065330505371,-3.858426570892334,0.26740625500679016,0.5881105065345764,1.3132075071334839,-34.6682243347168,40.952938079833984,-8.257820129394531
1.67,3.3571300506591797,-8.681159973144531,-3.6394829750061035,0.24327708780765533,0.4239404797554016,1.3194688558578491,-34.229759216308594,41.84449005126953,-7.61473274230957
1.673,3.253042459487915,-8.513663291931152,-3.6873395442962646,0.24205534160137177,0.4059199392795563,1.3142764568328857,-34.50745391845703,41.756797790527344,-8.243204116821289
1.68,3.1549363136291504,-8.359325408935547,-3.6610186100006104,0.24174991250038147,0.3562871515750885,1.2950342893600464,-34.01052474975586,42.29757308959961,-7.746273040771484
1.69,3.0376882553100586,-8.155935287475586,-3.7495527267456055,0.24816399812698364,0.2922990024089813,1.274722933769226,-33.820518493652344,41.82987594604492,-7.950891494750977
1.7,2.8797619342803955,-8.088936805725098,-3.6813576221466064,0.26771169900894165,0.24449880421161652,1.2530372142791748,-33.64513397216797,41.683719635009766,-7.950891494750977
1.71,2.709871768951416,-8.104490280151367,-3.597608804702759,0.2974913716316223,0.2399173229932785,1.2360858917236328,-33.30897521972656,41.84449005126953,-8.345513343811035
1.726,2.757727861404419,-7.956134796142578,-3.531806230545044,0.3491095006465912,0.3039054572582245,1.2467758655548096,-33.060508728027344,42.76527404785156,-8.71090316772461
1.73,2.8247268199920654,-7.9381890296936035,-3.562912940979004,0.3715587854385376,0.3176499307155609,1.2513574361801147,-33.060508728027344,42.896812438964844,-8.111662864685059
1.74,2.9144580364227295,-7.929814338684082,-3.5784661769866943,0.4199698567390442,0.3491095006465912,1.2618948221206665,-32.84127426147461,43.29143524169922,-8.725519180297852
1.75,3.032902479171753,-8.032705307006836,-3.600001335144043,0.4755585789680481,0.3712533414363861,1.2725850343704224,-32.03741455078125,43.27682113647461,-8.228588104248047
1.76,3.22552490234375,-8.195417404174805,-3.6957144737243652,0.5467243790626526,0.3646865487098694,1.2710578441619873,-32.183570861816406,43.7445182800293,-9.339374542236328
1.77,3.421736478805542,-8.431110382080078,-3.768695592880249,0.5920811891555786,0.3222314119338989,1.263269305229187,-31.686643600463867,43.817596435546875,-9.675533294677734
1.789,3.4683964252471924,-8.6967134475708,-3.7435710430145264,0.6629414558410645,0.1589776873588562,1.2189815044403076,-31.511253356933594,44.19760513305664,-10.260157585144043
1.793,3.5772697925567627,-8.815157890319824,-3.7459635734558105,0.6644686460494995,0.13805553317070007,1.2090550661087036,-30.91201400756836,44.28529739379883,-10.362466812133789
1.8,3.836890935897827,-8.963513374328613,-3.672982692718506,0.6681338548660278,0.07024950534105301,1.1931724548339844,-30.166616439819336,45.22069549560547,-10.245542526245117
1.81,3.8321051597595215,-9.126225471496582,-3.5198421478271484,0.6464481353759766,-0.04459316283464432,1.1873693466186523,-30.064308166503906,45.4399299621582,-10.45016098022461
1.82,3.647857904434204,-9.169296264648438,-3.678964614868164,0.622013509273529,-0.1290452778339386,1.1554515361785889,-28.968137741088867,45.67377853393555,-11.064016342163086
1.83,3.479163885116577,-9.102296829223633,-3.641875982284546,0.603076696395874,-0.15943582355976105,1.1359038352966309,-28.383514404296875,45.95147705078125,-11.195556640625
1.842,3.005384922027588,-8.744569778442383,-3.755535125732422,0.5902485251426697,-0.1638645976781845,1.0923796892166138,-28.120431900024414,46.24378967285156,-11.765565872192383
1.851,2.7732813358306885,-8.483752250671387,-3.7698919773101807,0.5975789427757263,-0.1472185254096985,1.0404561758041382,-27.784273147583008,46.316864013671875,-11.721718788146973
1.86,2.6273193359375,-8.294719696044922,-3.7531421184539795,0.6244570016860962,-0.08170322328805923,0.9604328870773315,-27.345806121826172,46.550716400146484,-11.356328010559082
1.87,2.4837498664855957,-8.176274299621582,-3.623929738998413,0.6540839672088623,0.0013744467869400978,0.8940012454986572,-27.345806121826172,46.375328063964844,-12.350189208984375
1.88,2.4634108543395996,-8.185846328735352,-3.5341989994049072,0.6698136925697327,0.07131851464509964,0.8283332586288452,-26.746564865112305,46.71148681640625,-12.247880935668945
1.89,2.581855535507202,-8.307880401611328,-3.597608804702759,0.6774495244026184,0.13286319375038147,0.7631233930587769,-26.42502212524414,47.19380569458008,-12.101724624633789
1.903,2.7326035499572754,-8.639286041259766,-3.5856447219848633,0.6481279730796814,0.1569923609495163,0.6948592066764832,-26.220401763916016,46.76995086669922,-12.42326831817627
1.91,2.8319056034088135,-8.94676399230957,-3.5808589458465576,0.6151412725448608,0.1843285858631134,0.6777549982070923,-26.103479385375977,47.5591926574707,-12.934814453125
1.92,2.779263496398926,-9.165706634521484,-3.6394829750061035,0.540921151638031,0.2509129047393799,0.661414384841919,-25.97193717956543,47.26688003540039,-12.554807662963867
1.93,3.2614171504974365,-9.128618240356445,-3.8225340843200684,0.493731826543808,0.20861048996448517,0.6264423131942749,-25.81116485595703,47.80765914916992,-13.548670768737793
1.94,3.104687213897705,-9.247062683105469,-3.9014973640441895,0.45753806829452515,0.25961771607398987,0.6598871946334839,-25.41654396057129,48.31920623779297,-13.928675651550293
1.958,2.8354947566986084,-8.993423461914062,-4.015156269073486,0.4534147381782532,0.3020728826522827,0.6559165120124817,-25.41654396057129,48.27535629272461,-13.592517852783203
1.963,2.8187451362609863,-8.663214683532715,-4.147957801818848,0.4729623794555664,0.3517056703567505,0.6258314251899719,-24.97807502746582,48.713829040527344,-13.709442138671875
1.97,2.932404041290283,-8.568697929382324,-4.2963128089904785,0.508087158203125,0.36621370911598206,0.5899431109428406,-24.714996337890625,48.684593200683594,-14.001753807067871
1.98,3.2757742404937744,-8.49571704864502,-4.557130336761475,0.5630649924278259,0.3491095006465912,0.556345522403717,-24.831920623779297,48.465362548828125,-14.410990715026855
1.99,3.5018956661224365,-8.567501068115234,-4.6887359619140625,0.6139195561408997,0.3010038435459137,0.526413083076477,-24.96346092224121,48.55305480957031,-15.039462089538574
2.0,3.706482172012329,-8.828319549560547,-4.6468610763549805,0.6362161040306091,0.23396137356758118,0.48915034532546997,-24.49576187133789,48.5822868347168,-14.790996551513672
2.019,4.00199556350708,-9.129814147949219,-4.6432719230651855,0.6320928335189819,0.14217887818813324,0.44516804814338684,-24.364221572875977,48.34843444824219,-14.995615005493164
2.023,4.53200626373291,-9.42054271697998,-4.82751989364624,0.5720753073692322,-0.035124752670526505,0.40164390206336975,-24.729610443115234,49.32768249511719,-14.980999946594238
2.03,4.840680122375488,-9.55214786529541,-4.979463577270508,0.531758189201355,-0.15164729952812195,0.38988474011421204,-24.349605560302734,49.19614028930664,-14.95176887512207
2.04,5.107479572296143,-9.501898765563965,-5.230710506439209,0.48349982500076294,-0.30634891986846924,0.4011857509613037,-23.925752639770508,49.239986419677734,-15.594855308532715
2.05,4.983053207397461,-9.073582649230957,-5.617150783538818,0.4489859640598297,-0.5050328373908997,0.3952298164367676,-23.808828353881836,49.15229415893555,-15.960245132446289
2.06,4.744967460632324,-8.671588897705078,-5.761916637420654,0.46929723024368286,-0.7492262125015259,0.34697145223617554,-23.66267204284668,49.6784553527832,-15.916398048400879
2.078,4.431507587432861,-8.416753768920898,-5.8337016105651855,0.4896084666252136,-0.9928087592124939,0.25335633754730225,-23.12189483642578,49.283836364746094,-16.004093170166016
2.082,3.9876389503479004,-8.359325408935547,-5.4687957763671875,0.5123632550239563,-1.1620184183120728,0.1673770695924759,-22.72727394104004,50.30692672729492,-16.2525577545166
2.09,3.4851462841033936,-8.431110382080078,-5.212764263153076,0.5126686692237854,-1.17240309715271,0.1394299864768982,-22.37649917602539,50.39461898803711,-16.910259246826172
2.1,3.064009428024292,-8.673981666564941,-4.890929222106934,0.4944954216480255,-1.1100947856903076,0.11194105446338654,-21.777257919311523,50.146156311035156,-17.085647583007812
2.11,2.981456995010376,-9.232706069946289,-4.959124565124512,0.46502113342285156,-0.9711230397224426,0.11484266072511673,-21.309558868408203,50.365386962890625,-16.837182998657227
2.12,3.150151014328003,-9.797411918640137,-5.325226783752441,0.40882155299186707,-0.7913758754730225,0.14034628868103027,-21.19263458251953,50.979244232177734,-17.04180145263672
2.139,3.5676984786987305,-10.417153358459473,-5.341976165771484,0.3459024429321289,-0.7151704430580139,0.14248430728912354,-21.00263023376465,50.62847137451172,-17.494884490966797
2.143,3.538984537124634,-11.011770248413086,-5.109872817993164,0.184939444065094,-0.6407976150512695,0.10690141469240189,-20.82724380493164,50.2776985168457,-17.304880142211914
2.15,3.3990042209625244,-11.131410598754883,-4.928018093109131,0.07528913766145706,-0.5818491578102112,0.07162395119667053,-20.695703506469727,50.365386962890625,-17.114879608154297
2.16,3.2279176712036133,-10.936395645141602,-4.794020175933838,-0.0887281745672226,-0.4590652287006378,0.005955935921519995,-20.593395233154297,50.62847137451172,-16.720256805419922
2.17,2.8414766788482666,-10.511669158935547,-4.596611976623535,-0.22892174124717712,-0.29764407873153687,-0.06887505203485489,-20.520315170288086,50.774627685546875,-17.50950050354004
2.18,2.2133607864379883,-10.060623168945312,-4.529613018035889,-0.35873058438301086,0.0024434609804302454,-0.16600261628627777,-20.476469039916992,50.21923065185547,-17.72873306274414
2.19,1.903490424156189,-9.927821159362793,-4.1659040451049805,-0.43417245149612427,0.24877485632896423,-0.28328877687454224,-20.388774871826172,50.555397033691406,-16.60333251953125
2.203,2.132004976272583,-9.810572624206543,-4.078566074371338,-0.5413792729377747,0.5517640113830566,-0.46929723024368286,-21.28032684326172,50.233848571777344,-16.6325626373291
2.21,2.334198474884033,-9.879964828491211,-4.161118507385254,-0.5714644193649292,0.6200282573699951,-0.5412266254425049,-21.718795776367188,49.91230773925781,-15.901782989501953
2.22,2.289931058883667,-9.827322959899902,-3.933800458908081,-0.6438519358634949,0.6853907704353333,-0.6910412907600403,-21.733409881591797,49.45922088623047,-15.726396560668945
2.23,2.6297121047973633,-9.76989459991455,-4.3549370765686035,-0.7053965926170349,0.6647740602493286,-0.9274461269378662,-22.566499710083008,49.225372314453125,-15.18561840057373
2.24,2.8869404792785645,-9.8931245803833,-3.4157540798187256,-0.7565565705299377,0.6557638049125671,-1.0607675313949585,-23.472667694091797,49.07921600341797,-14.790996551513672
2.259,3.2063820362091064,-9.848857879638672,-3.834498167037964,-0.8290968537330627,0.6611089110374451,-1.1514809131622314,-23.648056030273438,48.8599853515625,-14.703303337097168
2.263,3.978067398071289,-9.65503978729248,-3.4504499435424805,-0.8445212244987488,0.5606215596199036,-1.256244421005249,-24.934228897094727,48.465362548828125,-13.987138748168945
2.27,3.985246181488037,-9.395418167114258,-3.366701364517212,-0.8587237596511841,0.45585817098617554,-1.2880094051361084,-24.890382766723633,48.17304992675781,-13.431745529174805
2.28,3.789034366607666,-9.147760391235352,-3.2542386054992676,-0.8475754857063293,0.22113321721553802,-1.4054481983184814,-25.40192985534668,48.114585876464844,-13.957907676696777
2.29,3.940978765487671,-8.930013656616211,-3.0412774085998535,-0.821461021900177,-0.01878410577774048,-1.5277739763259888,-26.132709503173828,47.38380432128906,-13.285589218139648
2.3,4.016352653503418,-9.025726318359375,-2.8929224014282227,-0.8121453523635864,-0.2675589621067047,-1.6053539514541626,-26.512714385986328,47.44226837158203,-12.014030456542969
2.32,3.748356580734253,-9.18724250793457,-2.7637100219726562,-0.8206974267959595,-0.4977024495601654,-1.6494888067245483,-27.41888427734375,47.500728607177734,-11.999415397644043
2.323,3.3882367610931396,-9.523433685302734,-2.489731788635254,-0.8703302145004272,-0.7750352621078491,-1.708437442779541,-27.433500289916992,46.755332946777344,-10.976323127746582
2.33,3.3990042209625244,-9.751948356628418,-2.3090739250183105,-0.9156869649887085,-0.8665122985839844,-1.7037030458450317,-27.871967315673828,46.22917175292969,-11.064016342163086
2.34,2.9443681240081787,-10.325029373168945,-2.1786649227142334,-0.9842565655708313,-0.9202684760093689,-1.6496416330337524,-27.915815353393555,46.1414794921875,-10.49400806427002
2.35,2.306680917739868,-10.417153358459473,-2.0865414142608643,-1.0369436740875244,-0.8608618378639221,-1.5871806144714355,-28.310436248779297,45.46916198730469,-10.654779434204102
2.36,1.8999011516571045,-10.322635650634766,-1.8293129205703735,-1.078635334968567,-0.717308521270752,-1.5344934463500977,-28.558900833129883,45.26454162597656,-9.295527458190918
2.379,1.9405790567398071,-9.952945709228516,-2.1056838035583496,-1.0644326210021973,-0.5619960427284241,-1.5062408447265625,-28.63197898864746,44.48991394042969,-9.03244686126709
2.383,1.5792629718780518,-10.286745071411133,-1.0121638774871826,-1.0606147050857544,-0.32971450686454773,-1.4311044216156006,-29.581993103027344,44.21221923828125,-8.067816734313965
2.39,1.32921302318573,-10.065407752990723,-1.56969153881073,-1.1036808490753174,-0.13836097717285156,-1.4300354719161987,-26.205787658691406,43.52528381347656,-8.345513343811035
2.4,2.159522294998169,-9.658628463745117,-1.7742778062820435,-1.083369493484497,-0.0064140851609408855,-1.5099061727523804,-30.152002334594727,42.92604446411133,-7.775504112243652
2.41,2.6763720512390137,-9.365507125854492,-1.6618152856826782,-1.0677924156188965,0.03237585723400116,-1.5442674160003662,-30.853551864624023,42.999122619628906,-6.533177375793457
2.42,2.528017044067383,-9.511469841003418,-1.6378871202468872,-1.0671815872192383,0.04581489413976669,-1.5780175924301147,-31.218942642211914,42.01987838745117,-6.693948745727539
2.44,2.4598214626312256,-9.860821723937988,-1.8065810203552246,-1.0784825086593628,0.05513058975338936,-1.6672039031982422,-31.20432472229004,42.0052604675293,-6.211634159088135
2.443,2.9347968101501465,-10.009177207946777,-2.007578134536743,-1.0975720882415771,0.1062905564904213,-1.7171422243118286,-32.27126693725586,41.698333740234375,-5.627009868621826
2.45,3.253042459487915,-9.929017066955566,-2.1296122074127197,-1.1102474927902222,0.1290452778339386,-1.720807433128357,-32.13972473144531,40.44139099121094,-5.451622009277344
2.46,3.3547372817993164,-9.797411918640137,-2.025524377822876,-1.1038334369659424,0.14569135010242462,-1.6959145069122314,-32.943580627441406,40.207542419433594,-5.670856475830078
2.47,2.8283162117004395,-9.720841407775879,-1.836491346359253,-1.0839803218841553,0.1488984078168869,-1.6777414083480835,-34.156681060791016,39.4621467590332,-5.5977783203125
2.48,2.2325034141540527,-9.564111709594727,-1.8065810203552246,-1.0567967891693115,0.2168571650981903,-1.705383062362671,-33.95206069946289,38.87752151489258,-5.2031569480896
2.5,2.0267207622528076,-9.29611587524414,-2.1439690589904785,-1.0033460855484009,0.3107776939868927,-1.7354680299758911,-34.59514617919922,38.93598175048828,-4.370067119598389
2.504,2.137986898422241,-9.059226036071777,-2.1774685382843018,-0.9147706627845764,0.3355177044868469,-1.8132007122039795,-35.282081604003906,38.04443359375,-4.004676818847656
2.51,2.066202163696289,-9.164510726928711,-2.1882362365722656,-0.8988881707191467,0.33719760179519653,-1.8306103944778442,-35.530548095703125,37.45980453491211,-4.267758369445801
2.52,2.021935224533081,-9.404989242553711,-1.987239122390747,-0.8901833295822144,0.3732386529445648,-1.8530596494674683,-36.56825256347656,36.539024353027344,-3.478515148162842
2.53,2.23848557472229,-9.498309135437012,-1.794616937637329,-0.8959865570068359,0.4381431043148041,-1.838398814201355,-36.88979721069336,36.539024353027344,-3.0108156204223633
2.54,2.3700907230377197,-9.597611427307129,-1.5996018648147583,-0.9305005073547363,0.5325217843055725,-1.7496707439422607,-37.3867301940918,36.05670928955078,-3.0546624660491943
2.559,2.3700907230377197,-9.549755096435547,-1.6809579133987427,-0.9563094973564148,0.5719225406646729,-1.6836973428726196,-38.70213317871094,34.40514373779297,-2.952353000640869
2.563,2.6967110633850098,-9.238687515258789,-2.056631088256836,-0.9598219990730286,0.6023131012916565,-1.6006195545196533,-39.25752639770508,33.95206069946289,-2.3677287101745605
2.57,2.737389087677002,-8.97667407989502,-2.2061824798583984,-0.935998260974884,0.5763513445854187,-1.5477797985076904,-39.564453125,33.9082145690918,-2.3969600200653076
2.58,2.6273193359375,-8.562715530395508,-2.306680917739868,-0.874453604221344,0.5227479338645935,-1.4911220073699951,-39.783687591552734,33.586673736572266,-1.9146448373794556
2.59,2.5914268493652344,-8.273183822631836,-2.273181438446045,-0.7816020846366882,0.44287729263305664,-1.4312572479248047,-40.66062545776367,32.9289665222168,-2.4846534729003906
2.6,2.5663022994995117,-8.068597793579102,-2.2887346744537354,-0.704022228717804,0.3839287757873535,-1.3750576972961426,-41.084476470947266,32.432037353515625,-2.864659309387207
2.619,2.5363919734954834,-7.7180495262146,-2.4526431560516357,-0.622624397277832,0.3298672139644623,-1.3110694885253906,-41.698333740234375,31.584331512451172,-2.747734546661377
2.623,2.3497517108917236,-7.211967468261719,-2.4538395404815674,-0.513737678527832,0.25595253705978394,-1.2307407855987549,-41.78602600097656,31.423559188842773,-2.952353000640869
2.63,2.224128484725952,-7.024130821228027,-2.344965934753418,-0.4534147381782532,0.21273382008075714,-1.187827467918396,-41.683719635009766,31.10201644897461,-2.6015784740448
2.64,1.9680966138839722,-6.8650078773498535,-2.24566388130188,-0.38179075717926025,0.16279558837413788,-1.133155107498169,-42.429115295410156,30.692779541015625,-2.5431160926818848
2.65,2.0829520225524902,-6.604190349578857,-2.2851455211639404,-0.33735033869743347,0.146913081407547,-1.0865764617919922,-42.6629638671875,30.34200668334961,-2.586962938308716
2.66,2.3198413848876953,-6.508477210998535,-2.355733871459961,-0.31413745880126953,0.14217887818813324,-1.0044151544570923,-42.47296142578125,29.91815185546875,-2.1484947204589844
2.68,2.403590202331543,-6.141179084777832,-2.6452653408050537,-0.29077184200286865,0.13118331134319305,-0.9111055135726929,-43.15989685058594,29.09967803955078,-2.689272165298462
2.683,2.434696912765503,-5.8265228271484375,-2.7553350925445557,-0.26160305738449097,0.0377209298312664,-0.8083274364471436,-43.393741607666016,29.011985778808594,-2.76235032081604
2.69,2.531606435775757,-5.916253566741943,-2.6596221923828125,-0.25244006514549255,-0.01618792861700058,-0.7342600226402283,-43.30604934692383,29.055830001831055,-3.0108156204223633
2.7,2.5914268493652344,-6.144768238067627,-2.6727828979492188,-0.26633724570274353,-0.06688974052667618,-0.6313292384147644,-43.27682113647461,29.011985778808594,-3.3469743728637695
2.71,2.468196392059326,-5.9306111335754395,-2.888136863708496,-0.2788599729537964,-0.12247847765684128,-0.5268712639808655,-43.58374786376953,29.15814208984375,-2.689272165298462
2.72,2.4059829711914062,-5.546562671661377,-3.0269205570220947,-0.2588541507720947,-0.18967366218566895,-0.4418082535266876,-43.84682846069336,28.383514404296875,-2.747734546661377
2.739,2.282752752304077,-5.188835620880127,-2.9551358222961426,-0.1267545372247696,-0.27488934993743896,-0.23258693516254425,-43.53989791870117,28.06197166442871,-2.893890619277954
2.742,2.084148406982422,-5.124229431152344,-2.376072883605957,-0.11239920556545258,-0.3006984293460846,-0.20036378502845764,-43.77375030517578,28.251972198486328,-2.850043773651123
2.75,1.7264214754104614,-5.006981372833252,-2.4873390197753906,-0.0757472887635231,-0.3068070709705353,-0.16081027686595917,-43.93452072143555,28.26658821105957,-1.6223325729370117
2.76,1.56969153881073,-4.861019134521484,-2.368894338607788,-0.06551529467105865,-0.26710081100463867,-0.12324206531047821,-43.58374786376953,27.871967315673828,-2.660040855407715
2.77,1.820937991142273,-4.667200565338135,-2.609373092651367,-0.06276640295982361,-0.2528982162475586,-0.12522737681865692,-43.15989685058594,27.63811683654785,-2.5431160926818848
2.78,2.289931058883667,-4.875375747680664,-2.699103832244873,-0.0656680166721344,-0.22861631214618683,-0.06123923882842064,-43.686058044433594,27.97427749633789,-2.703887701034546
2.801,2.30069899559021,-5.291727066040039,-2.9036900997161865,-0.08032877743244171,-0.17989981174468994,0.07788532227277756,-43.422977447509766,28.003507614135742,-3.0546624660491943
2.805,2.616551399230957,-5.6793646812438965,-2.9312076568603516,-0.11071932315826416,-0.08521570265293121,0.2594650089740753,-42.867584228515625,27.740427017211914,-2.703887701034546
2.81,2.9180471897125244,-5.934199810028076,-2.7840490341186523,-0.12767083942890167,-0.04657847434282303,0.3478877544403076,-42.896812438964844,28.16427993774414,-2.981584310531616
2.82,3.0903303623199463,-5.917449951171875,-3.317648410797119,-0.16371189057826996,-0.0044287727214396,0.5568036437034607,-42.77988815307617,28.1496639251709,-2.4261913299560547
2.83,4.063012599945068,-5.785844802856445,-4.302295207977295,-0.08032877743244171,-0.10873401165008545,0.6591235995292664,-43.02835464477539,27.828121185302734,-2.2946505546569824
2.84,3.1788647174835205,-5.536991596221924,-2.922832727432251,-0.054825153201818466,-0.2142609804868698,0.8591819405555725,-43.393741607666016,27.71119499206543,-2.0900321006774902
2.86,3.159722089767456,-6.168696403503418,-3.6011979579925537,0.1359175145626068,-0.3275764584541321,1.126282811164856,-42.312191009521484,28.17889404296875,-1.8707979917526245
2.863,3.0233314037323,-7.210770606994629,-3.5461630821228027,0.182648703455925,-0.30772337317466736,1.2150108814239502,-42.35603332519531,28.427358627319336,-2.4700381755828857
2.878,2.8175485134124756,-7.2741804122924805,-3.985246181488037,0.432034432888031,-0.2151772677898407,1.4222469329833984,-41.85910415649414,29.406606674194336,-2.952353000640869
2.882,2.864208459854126,-7.417749881744385,-3.9397823810577393,0.4703662395477295,-0.1921171098947525,1.4492777585983276,-41.80064392089844,29.830459594726562,-1.9877228736877441
2.89,2.912065029144287,-7.909474849700928,-3.9565322399139404,0.5684100985527039,-0.12400564551353455,1.519832730293274,-41.084476470947266,30.152002334594727,-2.703887701034546
2.9,3.0580272674560547,-8.646464347839355,-4.036691665649414,0.656069278717041,0.037110064178705215,1.6226108074188232,-41.099090576171875,30.42970085144043,-2.4846534729003906
2.91,3.6981072425842285,-9.080760955810547,-4.626522541046143,0.6617197394371033,0.18860463798046112,1.7105753421783447,-40.80678176879883,30.795087814331055,-2.4261913299560547
2.928,4.469792366027832,-9.142974853515625,-4.797609329223633,0.6528621912002563,0.2721404433250427,1.8098410367965698,-40.25138854980469,31.788951873779297,-2.3238818645477295
2.932,4.17427921295166,-9.369096755981445,-4.599005222320557,0.5590943694114685,0.2845104932785034,1.9379699230194092,-40.499855041503906,32.28588104248047,-2.981584310531616
2.94,3.717249870300293,-9.467202186584473,-5.016552448272705,0.5010622143745422,0.31932979822158813,1.9882136583328247,-40.2660026550293,32.34434509277344,-3.0692780017852783
2.95,3.8261232376098633,-9.942177772521973,-5.229514122009277,0.47540587186813354,0.42348232865333557,2.0529654026031494,-39.8421516418457,33.235897064208984,-3.3031277656555176
2.96,4.053441524505615,-11.68175983428955,-4.985445499420166,0.4714352488517761,0.5340489149093628,2.1759018898010254,-40.48523712158203,33.95206069946289,-3.1423561573028564
2.97,3.750749349594116,-13.201202392578125,-5.058426856994629,0.49296826124191284,0.5859724879264832,2.2492055892944336,-39.62291717529297,34.200523376464844,-3.829289674758911
2.98,3.713660717010498,-14.136795997619629,-5.442475318908691,0.5464189648628235,0.675006091594696,2.2649357318878174,-39.54983901977539,34.785152435302734,-4.413913726806641
2.995,4.959124565124512,-13.472787857055664,-6.4761738777160645,0.6939429044723511,0.6809620261192322,2.185828447341919,-39.28675842285156,36.39286804199219,-4.969306945800781
3.0,5.441278457641602,-13.00857925415039,-6.638886451721191,0.7499897480010986,0.584139883518219,2.149176597595215,-38.92136764526367,36.290557861328125,-5.232388019561768
3.01,6.16989278793335,-12.844671249389648,-7.109076023101807,0.8309293985366821,0.32498031854629517,2.088853597640991,-38.29289627075195,36.93364715576172,-5.904706001281738
3.02,6.281159400939941,-13.485947608947754,-6.654439926147461,0.8663595914840698,0.0754418596625328,2.0558669567108154,-37.7667350769043,37.25518798828125,-6.153171539306641
3.03,5.6578288078308105,-13.852049827575684,-6.2536420822143555,0.8445212244987488,-0.08689558506011963,2.0392208099365234,-37.971351623535156,38.4828987121582,-5.627009868621826
3.049,4.9639105796813965,-13.686945915222168,-6.10767936706543,0.816421389579773,-0.08414668589830399,2.018298625946045,-36.465946197509766,38.161354064941406,-6.021631240844727
3.053,4.577469348907471,-12.56590747833252,-6.252445697784424,0.8011497855186462,0.05375614017248154,1.9677497148513794,-35.925167083740234,39.25752639770508,-6.971645355224609
3.06,4.682753562927246,-12.021539688110352,-6.124429225921631,0.8132143616676331,0.07147122919559479,1.9084956645965576,-35.6474723815918,39.65214920043945,-6.913183689117432
3.07,4.5475592613220215,-11.279766082763672,-5.964109897613525,0.8245153427124023,0.05513058975338936,1.8087719678878784,-34.975154876708984,39.8421516418457,-6.986261367797852
3.08,4.411168098449707,-10.642078399658203,-5.710471153259277,0.8443684577941895,0.027183502912521362,1.6821701526641846,-34.726688385009766,40.499855041503906,-7.965507507324219
3.09,4.356133460998535,-10.016355514526367,-5.649453639984131,0.8585711121559143,0.0025961773935705423,1.5531249046325684,-34.30283737182617,41.21601867675781,-7.892428874969482
3.109,4.316651821136475,-9.439684867858887,-5.723631381988525,0.8953757286071777,-0.0832303911447525,1.3865114450454712,-34.08360290527344,41.142940521240234,-8.31628131866455
3.113,3.8907296657562256,-9.129814147949219,-5.2414774894714355,0.9028587937355042,-0.22067506611347198,1.1954632997512817,-32.797428131103516,41.84449005126953,-8.287050247192383
3.12,3.7328033447265625,-8.891729354858398,-5.198407173156738,0.9008734822273254,-0.30955594778060913,1.0740537643432617,-33.33820343017578,42.253726959228516,-7.687810897827148
3.13,3.576073169708252,-8.647661209106445,-4.859822750091553,0.8944594264030457,-0.3952298164367676,0.9454666376113892,-32.73896408081055,42.47296142578125,-8.959368705749512
3.141,3.607180118560791,-8.389235496520996,-4.837090969085693,0.8755226135253906,-0.43188172578811646,0.8648324608802795,-31.233558654785156,42.57527160644531,-9.047061920166016
3.15,3.493520736694336,-7.992027282714844,-4.761716842651367,0.8710938096046448,-0.3904955983161926,0.8588765263557434,-31.18971061706543,43.057586669921875,-9.35399055480957
3.169,3.2434709072113037,-7.355536937713623,-4.679164409637451,0.879493236541748,-0.3474296033382416,0.8657487034797668,-31.306636810302734,42.882198333740234,-9.368605613708496
3.173,3.0041887760162354,-6.764509677886963,-4.327419757843018,0.8956811428070068,-0.3142901659011841,0.8772024512290955,-30.605087280273438,43.77375030517578,-11.005553245544434
3.18,3.0388846397399902,-6.56829833984375,-4.208974838256836,0.8914051055908203,-0.30344730615615845,0.8746063113212585,-30.26892852783203,44.358375549316406,-11.341712951660156
3.19,3.1070802211761475,-6.391229152679443,-3.9625141620635986,0.8833111524581909,-0.3303253948688507,0.8735372424125671,-29.523530960083008,44.76761245727539,-11.414791107177734
3.2,3.008974552154541,-6.289534091949463,-3.779463291168213,0.8538368940353394,-0.3790418803691864,0.8739954233169556,-28.80736541748047,45.58608627319336,-11.107863426208496
3.21,2.95393967628479,-6.095715522766113,-3.8452658653259277,0.8078692555427551,-0.4550946056842804,0.8483390808105469,-28.573516845703125,45.556854248046875,-10.888628959655762
3.231,3.2434709072113037,-5.982056140899658,-3.8979079723358154,0.7874053120613098,-0.5160284042358398,0.8408560156822205,-27.667348861694336,45.67377853393555,-11.283249855041504
3.234,3.3056843280792236,-6.010769844055176,-4.059423446655273,0.7985535860061646,-0.6363688707351685,0.8364272713661194,-26.907337188720703,46.21455764770508,-11.721718788146973
3.24,3.335594892501831,-5.97727108001709,-4.1419758796691895,0.806647539138794,-0.6785185933113098,0.8301658034324646,-26.761180877685547,45.98070526123047,-12.218649864196777
3.25,3.1058835983276367,-5.751148700714111,-4.23649263381958,0.8289440870285034,-0.7703010439872742,0.7999280095100403,-26.118093490600586,46.316864013671875,-12.277112007141113
3.26,2.9347968101501465,-5.674578666687012,-4.462614059448242,0.8571966290473938,-0.9140071272850037,0.7029531598091125,-25.92809295654297,46.930721282958984,-12.569424629211426
3.27,2.702692985534668,-6.044269561767578,-4.01754903793335,0.8263479471206665,-0.978606104850769,0.6482807397842407,-25.22654151916504,47.19380569458008,-13.709442138671875
3.289,2.1954145431518555,-6.20937442779541,-3.748356580734253,0.7490735054016113,-0.9517279863357544,0.625220537185669,-24.831920623779297,47.58842468261719,-13.548670768737793
3.293,1.101894736289978,-5.989234924316406,-3.5270204544067383,0.6343835592269897,-0.763428807258606,0.6264423131942749,-23.823442459106445,47.500728607177734,-13.621747970581055
3.3,0.8015955090522766,-5.950949668884277,-3.6059837341308594,0.5723807215690613,-0.6006332635879517,0.6122397184371948,-23.823442459106445,47.60304260253906,-14.11867904663086
3.31,0.5946164131164551,-5.735595226287842,-3.2793633937835693,0.4943426847457886,-0.18768833577632904,0.6418666243553162,-23.341127395629883,47.866119384765625,-14.235603332519531
3.32,1.1234301328659058,-5.827719688415527,-3.899104356765747,0.4634940028190613,0.1007927656173706,0.6656904220581055,-23.38497543334961,47.924583435058594,-14.90792179107666
3.33,2.076970100402832,-5.983253002166748,-4.085744380950928,0.4697553813457489,0.2739730477333069,0.6831000447273254,-23.136510848999023,47.95381546020508,-15.200233459472656
3.349,2.583051919937134,-6.029912948608398,-4.18863582611084,0.4824308156967163,0.3536909520626068,0.7220426797866821,-22.75650405883789,47.96842956542969,-15.097925186157227
3.353,2.9180471897125244,-6.105286598205566,-4.3477582931518555,0.48915034532546997,0.2690861225128174,0.6786712408065796,-23.22420310974121,47.98304748535156,-15.492546081542969
3.36,3.1214370727539062,-6.246463775634766,-4.34536600112915,0.4786129295825958,0.16050483286380768,0.625220537185669,-22.566499710083008,48.465362548828125,-16.208711624145508
3.37,3.6945178508758545,-6.354140281677246,-4.208974838256836,0.45326200127601624,-0.013591751456260681,0.5623013973236084,-22.39111328125,48.77228546142578,-16.574100494384766
3.38,3.9864423274993896,-6.620940208435059,-4.177868366241455,0.4106541574001312,-0.21395555138587952,0.5274821519851685,-22.65419578552246,48.684593200683594,-16.23794174194336
3.39,3.8739798069000244,-6.837490081787109,-4.076173305511475,0.3614795207977295,-0.39645153284072876,0.498313307762146,-21.981876373291016,48.845367431640625,-16.471790313720703
3.5,1.3052847385406494,-12.135199546813965,-3.424129009246826,-0.33689215779304504,-0.14508049190044403,-0.08414668589830399,-18.854137420654297,49.049983978271484,-17.962583541870117
3.51,1.3112667798995972,-11.632707595825195,-3.5808589458465576,-0.4216497242450714,0.19074267148971558,-0.25595253705978394,-18.386436462402344,48.88921356201172,-18.09412384033203
3.529,1.8017953634262085,-11.300105094909668,-3.6358938217163086,-0.5010622143745422,0.5916229486465454,-0.4514293968677521,-19.74568748474121,48.81613540649414,-18.269512176513672
3.533,2.7146570682525635,-11.150553703308105,-3.607180118560791,-0.6085745096206665,0.8991936445236206,-0.5778785347938538,-19.950305938720703,49.035369873046875,-18.459514617919922
3.54,3.2518458366394043,-11.038090705871582,-3.9936206340789795,-0.660803496837616,0.9708175659179688,-0.6708827614784241,-20.330312728881836,49.35691452026367,-17.26103401184082
3.55,4.1347975730896,-11.179266929626465,-4.479363918304443,-0.7067710757255554,0.9078984260559082,-0.794277548789978,-20.783395767211914,48.80152130126953,-17.480268478393555
3.56,5.0356950759887695,-11.474781036376953,-5.254638671875,-0.716697633266449,0.6846271753311157,-0.9028587937355042,-21.046478271484375,48.83074951171875,-16.457176208496094
3.57,5.670989513397217,-11.856435775756836,-5.581258773803711,-0.6806565523147583,0.2744311988353729,-0.9990701079368591,-22.347267150878906,48.2607421875,-16.018707275390625
3.59,5.4687957763671875,-12.268001556396484,-5.258227348327637,-0.6487388610839844,-0.04566217586398125,-1.0230464935302734,-22.464191436767578,48.31920623779297,-16.106401443481445
3.593,4.185046672821045,-12.741780281066895,-4.567898273468018,-0.6553056836128235,-0.28649580478668213,-1.0821477174758911,-23.194971084594727,48.31920623779297,-15.682548522949219
3.6,3.579662799835205,-12.933206558227539,-4.182653903961182,-0.6855435371398926,-0.3036000430583954,-1.1395691633224487,-23.136510848999023,47.866119384765625,-15.244080543518066
3.61,2.906083106994629,-13.220344543457031,-3.7974092960357666,-0.7559457421302795,-0.1950187236070633,-1.2066115140914917,-24.071908950805664,47.64688491821289,-15.317158699035645
3.62,2.6703901290893555,-13.359128952026367,-3.8979079723358154,-0.8463537693023682,0.06230825185775757,-1.2873984575271606,-24.583454132080078,47.296112060546875,-15.097925186157227
3.63,2.943171739578247,-13.294522285461426,-4.00199556350708,-0.9020951986312866,0.2814561426639557,-1.3504703044891357,-24.67115020751953,47.1791877746582,-14.761765480041504
3.65,3.401397228240967,-13.286148071289062,-4.051048755645752,-0.9459247589111328,0.4931209683418274,-1.3843733072280884,-25.913476943969727,46.25840377807617,-14.90792179107666
3.653,4.431507587432861,-13.27298641204834,-4.125226020812988,-0.9967793822288513,0.5685628056526184,-1.5152511596679688,-26.045015335083008,46.550716400146484,-13.402514457702637
3.66,4.843072891235352,-13.202398300170898,-4.077369689941406,-1.014647126197815,0.5647448897361755,-1.539685845375061,-26.658872604370117,46.112247467041016,-13.694826126098633
3.67,4.761716842651367,-13.000205039978027,-4.077369689941406,-1.0319041013717651,0.5299255847930908,-1.5902348756790161,-27.462730407714844,45.77608871459961,-13.972522735595703
3.68,3.9840495586395264,-12.390035629272461,-3.6406795978546143,-1.0545060634613037,0.49067750573158264,-1.6907222270965576,-28.383514404296875,45.3814697265625,-12.920199394226074
3.69,3.7435710430145264,-11.84327507019043,-3.2853453159332275,-1.0801624059677124,0.5204571485519409,-1.7941111326217651,-28.778135299682617,44.928382873535156,-12.23326587677002
3.709,3.875175952911377,-11.196017265319824,-3.3714869022369385,-1.0595457553863525,0.674089789390564,-1.8674150705337524,-30.619701385498047,44.32914352416992,-11.765565872192383
3.712,3.596412181854248,-9.945767402648926,-3.672982692718506,-1.0462594032287598,0.6898195743560791,-1.875814437866211,-30.488161087036133,43.992984771728516,-11.414791107177734
3.72,3.4408788681030273,-9.105886459350586,-3.937389612197876,-0.9479101300239563,0.7055493593215942,-1.9378172159194946,-31.438175201416016,43.71529006958008,-11.736333847045898
3.73,3.231506824493408,-8.438288688659668,-3.735196113586426,-0.8533787131309509,0.6860016584396362,-2.026850700378418,-32.25665283203125,42.77988815307617,-11.385560035705566
3.74,2.8319056034088135,-8.060222625732422,-3.5186455249786377,-0.8191702961921692,0.7060074806213379,-2.101376533508301,-32.9289665222168,42.078338623046875,-10.114001274108887
3.75,3.122633457183838,-7.93459939956665,-3.2721848487854004,-0.7730499505996704,0.7415904402732849,-2.191478967666626,-33.732826232910156,42.01987838745117,-9.850920677185059
3.77,3.160918712615967,-7.829315185546875,-2.8043882846832275,-0.776715099811554,0.8003861904144287,-2.216371774673462,-36.31978988647461,40.777549743652344,-10.377082824707031
3.774,3.1166512966156006,-7.392625331878662,-2.8175485134124756,-0.8051204085350037,0.8801040649414062,-2.2656991481781006,-36.655948638916016,40.879859924316406,-9.77784252166748
3.78,3.4301111698150635,-7.200002670288086,-2.9216363430023193,-0.8129088878631592,0.8849909901618958,-2.2959370613098145,-36.90441131591797,40.28062057495117,-9.763227462768555
3.79,3.9457645416259766,-7.087540626525879,-3.036491870880127,-0.8200865387916565,0.8147415518760681,-2.3217458724975586,-38.11751174926758,39.09675598144531,-8.857059478759766
3.8,4.393222332000732,-7.066004753112793,-2.9659035205841064,-0.8225300312042236,0.6337726712226868,-2.351067543029785,-39.403682708740234,39.05290985107422,-9.412452697753906
3.81,4.5128631591796875,-7.042076587677002,-2.977867603302002,-0.8295549750328064,0.38957932591438293,-2.370615243911743,-39.929847717285156,37.7667350769043,-8.564746856689453
3.829,4.167100429534912,-6.979863166809082,-2.8067808151245117,-0.8226827383041382,-0.09941831976175308,-2.394744634628296,-41.318328857421875,36.729026794433594,-8.447822570800781
3.832,3.37268328666687,-7.093522548675537,-2.651247262954712,-0.8254316449165344,-0.19379699230194092,-2.3991730213165283,-41.78602600097656,36.05670928955078,-8.418591499328613
3.84,2.9994029998779297,-7.229913711547852,-2.5914268493652344,-0.8252789378166199,-0.29413163661956787,-2.395660638809204,-41.683719635009766,35.25284957885742,-8.03858470916748
3.85,2.6189444065093994,-7.154539585113525,-2.675175428390503,-0.8139779567718506,-0.3579670190811157,-2.3632848262786865,-42.516807556152344,34.741302490234375,-7.8047356605529785
3.86,2.396411657333374,-7.28973388671875,-2.423929214477539,-0.8034404516220093,-0.3543018102645874,-2.297616958618164,-42.91142654418945,33.615901947021484,-7.527039051055908
3.87,2.2707886695861816,-7.369893550872803,-2.266003131866455,-0.8035932183265686,-0.2750420570373535,-2.188730001449585,-42.3414192199707,33.07512283325195,-7.673194885253906
3.89,2.0650060176849365,-7.318447589874268,-2.1104695796966553,-0.8054258227348328,-0.1137736514210701,-2.01035737991333,-43.86144256591797,31.803565979003906,-7.322420120239258
3.894,1.7599210739135742,-7.077969074249268,-2.031506299972534,-0.8071057200431824,0.12003502249717712,-1.8052594661712646,-43.72990417480469,31.175094604492188,-6.591639518737793
3.9,1.8939191102981567,-7.008577346801758,-2.0853447914123535,-0.806647539138794,0.1944078654050827,-1.7339410781860352,-44.09529113769531,30.517393112182617,-6.284712314605713
3.91,1.9405790567398071,-6.843472957611084,-2.0997018814086914,-0.7924449443817139,0.33017265796661377,-1.5957326889038086,-44.51914596557617,29.90353775024414,-6.8401055335998535
3.92,1.868794322013855,-6.498905658721924,-2.035095691680908,-0.7724390625953674,0.422871470451355,-1.4900530576705933,-44.82607650756836,29.391992568969727,-6.723180294036865
3.93,2.194218397140503,-6.269195556640625,-2.1439690589904785,-0.7538076639175415,0.49006664752960205,-1.3877331018447876,-45.07453918457031,28.71967315673828,-6.021631240844727
3.949,2.96111798286438,-6.311069488525391,-2.3270199298858643,-0.7667886018753052,0.4202752709388733,-1.2124147415161133,-45.89301300048828,27.404266357421875,-6.357789993286133
3.953,2.988635540008545,-6.196214199066162,-2.3222343921661377,-0.7762569785118103,0.3865249752998352,-1.1580477952957153,-45.57147216796875,27.52119255065918,-6.620871067047119
3.96,2.851048231124878,-6.032305717468262,-2.39401912689209,-0.7796167731285095,0.3423899710178375,-1.0800096988677979,-46.02455520629883,27.214263916015625,-6.562408924102783
3.97,2.764906644821167,-6.070590972900391,-2.3198413848876953,-0.7774786949157715,0.30375272035598755,-0.9781479835510254,-46.550716400146484,26.42502212524414,-6.0947089195251465
3.98,2.733799695968628,-6.087340831756592,-2.3748762607574463,-0.7518223524093628,0.3104722499847412,-0.831234872341156,-46.740718841552734,26.045015335083008,-5.9193220138549805
3.99,2.8187451362609863,-5.8025946617126465,-2.5674986839294434,-0.6884450912475586,0.35323283076286316,-0.7072292566299438,-47.32534408569336,25.21192741394043,-5.539316177368164
4.01,2.970689058303833,-5.438885688781738,-2.5423738956451416,-0.4795292019844055,0.41431936621665955,-0.4460843503475189,-47.471500396728516,24.729610443115234,-5.977784156799316
4.013,2.9599215984344482,-5.412564277648926,-2.480160713195801,-0.455705463886261,0.4193589985370636,-0.39645153284072876,-47.25226593017578,24.75884246826172,-6.752411365509033
4.02,2.9838497638702393,-5.437689304351807,-2.4287149906158447,-0.3917173445224762,0.4108068645000458,-0.3602577745914459,-47.80765914916992,24.77345848083496,-6.8985676765441895
4.03,3.1274189949035645,-5.406582355499268,-2.7601208686828613,-0.3220787048339844,0.3604104816913605,-0.3126102685928345,-47.61765670776367,24.364221572875977,-6.8839521408081055
4.04,3.7567315101623535,-5.5034918785095215,-3.053241491317749,-0.28756481409072876,0.2655736804008484,-0.2681698203086853,-48.2607421875,23.69190216064453,-5.787781238555908
4.05,4.274777412414551,-6.010769844055176,-3.37268328666687,-0.29184088110923767,0.1576032191514969,-0.18631389737129211,-48.2607421875,23.881906509399414,-5.290850639343262
4.07,4.515256404876709,-6.392425537109375,-3.689732551574707,-0.21410825848579407,-0.029016099870204926,0.1572977900505066,-48.14381790161133,23.750364303588867,-5.9339375495910645
4.073,4.393222332000732,-6.997809410095215,-3.8009984493255615,-0.1875356286764145,-0.0933096632361412,0.22770002484321594,-48.14381790161133,23.735750198364258,-5.495469093322754
4.08,4.309473514556885,-7.001399040222168,-3.9553356170654297,-0.14126259088516235,-0.18051066994667053,0.3257438838481903,-48.33382034301758,23.01958465576172,-6.123940467834473
4.09,4.151546955108643,-6.952345848083496,-4.039084434509277,-0.054825153201818466,-0.27000242471694946,0.4332561492919922,-47.63227081298828,23.677288055419922,-6.357789993286133
4.1,4.012763500213623,-6.7657060623168945,-4.149154186248779,0.041233401745557785,-0.3510947823524475,0.5044220089912415,-47.71996307373047,23.77959632873535,-6.430868148803711
4.11,3.9601213932037354,-6.711866855621338,-4.23529577255249,0.13225232064723969,-0.3572034239768982,0.5722280144691467,-47.26688003540039,23.954984664916992,-5.9339375495910645
4.129,3.805784225463867,-7.312465667724609,-4.804787635803223,0.25274547934532166,-0.28191429376602173,0.774118959903717,-47.01841354370117,24.21806526184082,-6.167787551879883
4.133,3.7387852668762207,-7.317251682281494,-4.851447582244873,0.28130343556404114,-0.2519819140434265,0.8249735236167908,-46.682254791259766,24.188833236694336,-5.8900909423828125
4.14,3.428914785385132,-7.517052173614502,-4.505684852600098,0.3078760802745819,-0.1745547503232956,0.9005680680274963,-46.375328063964844,24.32037353515625,-5.75855016708374
4.15,3.5605199337005615,-8.167899131774902,-4.223331928253174,0.30543261766433716,-0.022449297830462456,1.0183123350143433,-46.25840377807617,24.21806526184082,-5.948553085327148
4.16,4.108476161956787,-8.488537788391113,-4.370490550994873,0.2961169183254242,0.13515393435955048,1.1716394424438477,-46.930721282958984,24.77345848083496,-6.591639518737793
4.17,4.348955154418945,-8.4502534866333,-4.479363918304443,0.3142901659011841,0.26572638750076294,1.387580394744873,-45.87839889526367,24.96346092224121,-6.562408924102783
4.19,4.035495281219482,-8.161917686462402,-4.984249591827393,0.451582133769989,0.39965859055519104,1.6635388135910034,-45.67377853393555,26.0304012298584,-7.424729347229004
4.193,4.583451747894287,-8.365307807922363,-5.314458847045898,0.5042692422866821,0.41661009192466736,1.7235562801361084,-46.21455764770508,26.351943969726562,-6.650102138519287
4.2,4.997409820556641,-8.835497856140137,-5.346762180328369,0.5815436840057373,0.39797869324684143,1.8200730085372925,-45.95147705078125,26.60040855407715,-7.556270122528076
4.21,5.124229431152344,-9.433703422546387,-5.434100151062012,0.6837109327316284,0.3098613917827606,1.942856788635254,-45.556854248046875,27.535808563232422,-7.527039051055908
4.22,5.056034088134766,-10.17428207397461,-5.7200422286987305,0.7721337080001831,0.16768251359462738,2.015702486038208,-45.3814697265625,28.13504981994629,-7.147032737731934
4.23,5.067997932434082,-11.187642097473145,-5.651846885681152,0.807563841342926,0.05054909735918045,2.0622811317443848,-45.14761734008789,28.675825119018555,-7.103186130523682
4.249,4.549952030181885,-12.156734466552734,-5.405385971069336,0.7869471311569214,0.0009162978385575116,2.197740316390991,-44.76761245727539,29.09967803955078,-7.8339667320251465
4.253,4.451846599578857,-12.251252174377441,-5.368297576904297,0.7840455174446106,0.026114489883184433,2.2154555320739746,-44.47529983520508,29.771995544433594,-7.921660900115967
4.26,4.567898273468018,-12.293126106262207,-5.3036909103393555,0.7735080718994141,0.1333213448524475,2.2792909145355225,-43.91990661621094,30.400466918945312,-8.170125961303711
4.27,4.800002098083496,-12.043075561523438,-5.3970112800598145,0.7727445363998413,0.29138270020484924,2.384512424468994,-43.01374053955078,31.59894561767578,-8.009353637695312
4.28,4.5714874267578125,-11.300105094909668,-5.436492443084717,0.8089383244514465,0.4248567819595337,2.476447582244873,-42.312191009521484,32.56357955932617,-9.003214836120605
4.29,4.340579986572266,-10.563116073608398,-5.467599391937256,0.8799513578414917,0.5433646440505981,2.5083653926849365,-42.85296630859375,32.812042236328125,-9.163987159729004
4.303,4.741377830505371,-9.8871431350708,-5.501099109649658,0.9928087592124939,0.5630649924278259,2.475989580154419,-42.0052604675293,33.8643684387207,-9.280911445617676
4.31,5.242674350738525,-9.572486877441406,-5.499902248382568,1.0632109642028809,0.5082398653030396,2.4474313259124756,-41.946800231933594,34.200523376464844,-8.930137634277344
4.32,5.787041664123535,-9.23031234741211,-5.136193752288818,1.1409435272216797,0.314442902803421,2.3881776332855225,-41.727561950683594,35.559776306152344,-10.304004669189453
4.33,5.936593055725098,-8.717052459716797,-5.052444934844971,1.1959214210510254,-0.0022907445672899485,2.2960896492004395,-40.967552185058594,36.0859375,-10.552470207214355
4.34,5.819344520568848,-8.350950241088867,-5.0285162925720215,1.2499829530715942,-0.4499022364616394,2.149176597595215,-40.23677444458008,36.539024353027344,-10.815550804138184
4.35,5.637490272521973,-8.289934158325195,-4.9435715675354,1.2635747194290161,-0.8385652303695679,2.0195205211639404,-39.63753128051758,37.854427337646484,-11.151710510253906
4.368,4.7018961906433105,-8.555537223815918,-4.295116424560547,1.2487612962722778,-1.3209960460662842,1.8790215253829956,-37.37211227416992,38.32212829589844,-12.847121238708496
4.372,4.277170181274414,-8.634500503540039,-4.1383867263793945,1.229519009590149,-1.3848315477371216,1.851227045059204,-36.94826126098633,39.05290985107422,-11.809412002563477
4.38,3.7399816513061523,-8.621339797973633,-4.019941806793213,1.19912850856781,-1.4123203754425049,1.822821855545044,-36.17363357543945,39.62291717529297,-11.970184326171875
4.39,3.214756965637207,-8.525627136230469,-3.902693510055542,1.1510229110717773,-1.3309226036071777,1.7997617721557617,-35.6036262512207,39.87138366699219,-12.481730461120605
4.4,2.7804598808288574,-8.048258781433105,-4.019941806793213,1.1436923742294312,-1.1928671598434448,1.7941111326217651,-34.25898742675781,40.45600509643555,-12.496346473693848
4.41,2.4837498664855957,-7.587640285491943,-3.926621675491333,1.146288514137268,-1.0140362977981567,1.7762433290481567,-33.87898254394531,40.558319091796875,-12.598654747009277
4.422,2.321038007736206,-6.991827487945557,-3.9218363761901855,1.1575895547866821,-0.7858781218528748,1.7185167074203491,-32.30049514770508,41.37678909301758,-13.241742134094238
4.43,2.537588357925415,-6.6831536293029785,-4.033102512359619,1.1582005023956299,-0.6690501570701599,1.6676621437072754,-32.08126449584961,41.888336181640625,-12.964046478271484
4.44,3.0723841190338135,-6.413960933685303,-4.169493198394775,1.1879801750183105,-0.5348125100135803,1.596496343612671,-30.882781982421875,41.97603225708008,-13.460975646972656
4.45,3.245863676071167,-6.4510498046875,-3.4875388145446777,1.1791225671768188,-0.5151121020317078,1.5540411472320557,-30.312772750854492,42.882198333740234,-13.855597496032715
4.46,2.8175485134124756,-6.502495288848877,-3.2506494522094727,1.1359038352966309,-0.4918992221355438,1.5001323223114014,-29.684301376342773,42.896812438964844,-14.922536849975586
4.47,2.6596221923828125,-6.468995571136475,-3.238685369491577,1.0793988704681396,-0.46242499351501465,1.4092661142349243,-28.865829467773438,43.56913375854492,-14.966383934020996
4.486,3.3367910385131836,-6.599404811859131,-3.4133615493774414,0.9689849615097046,-0.44715335965156555,1.2844969034194946,-27.798887252807617,44.13914108276367,-16.223325729370117
4.49,3.4432716369628906,-6.594618797302246,-3.5054850578308105,0.958142101764679,-0.45433101058006287,1.2635747194290161,-27.375036239624023,44.051448822021484,-16.647178649902344
4.5,3.5880372524261475,-6.385247230529785,-3.7160534858703613,0.9221010804176331,-0.4943426847457886,1.2147055864334106,-27.097341537475586,44.69453430175781,-16.6325626373291
4.51,3.6059837341308594,-5.797809600830078,-4.342973232269287,0.9188940525054932,-0.5923865437507629,1.133613109588623,-26.454252243041992,44.358375549316406,-16.661794662475586
4.52,3.561716318130493,-5.458028316497803,-4.369294166564941,0.9343184232711792,-0.7344127297401428,1.0323622226715088,-25.81116485595703,44.82607650756836,-17.26103401184082
4.539,3.1585259437561035,-5.5716872215271,-3.889533042907715,0.9286679029464722,-0.8159632682800293,0.9566149711608887,-25.036537170410156,45.206077575683594,-17.392576217651367
4.543,2.4777677059173584,-5.746363162994385,-3.376272678375244,0.8761334419250488,-0.736245334148407,0.8767443299293518,-24.817304611206055,45.46916198730469,-19.117216110229492
4.55,2.273181438446045,-5.62552547454834,-3.3846476078033447,0.8454374670982361,-0.6316346526145935,0.8324565887451172,-24.451913833618164,45.90762710571289,-19.08798599243164
4.56,2.68953275680542,-5.60399055480957,-3.7292141914367676,0.8013024926185608,-0.5048801302909851,0.7834346890449524,-23.83806037902832,46.06840133666992,-19.380298614501953
4.571,3.4121649265289307,-5.96889591217041,-4.0833516120910645,0.7721337080001831,-0.451582133769989,0.7518223524093628,-23.341127395629883,45.87839889526367,-19.701841354370117
4.58,3.9601213932037354,-6.50608491897583,-4.360918998718262,0.7370089292526245,-0.46731188893318176,0.7360925674438477,-22.858814239501953,46.302249908447266,-19.81876564025879
4.59,4.176671981811523,-7.1162543296813965,-4.731806755065918,0.6927211284637451,-0.5902485251426697,0.684779942035675,-22.785736083984375,46.15609359741211,-20.37415885925293
4.603,4.656432628631592,-8.263612747192383,-5.155336380004883,0.5754350423812866,-0.902553379535675,0.5734497308731079,-22.259572982788086,46.360713958740234,-20.681087493896484
4.61,4.705485820770264,-8.774479866027832,-4.862215518951416,0.5065600275993347,-1.0418306589126587,0.5551237463951111,-22.347267150878906,46.27302169799805,-20.695703506469727
4.62,4.436293125152588,-9.144170761108398,-4.6432719230651855,0.39446622133255005,-1.1354458332061768,0.5722280144691467,-22.11341667175293,46.4191780090332,-20.198772430419922
4.63,3.6741790771484375,-9.395418167114258,-4.522434711456299,0.26450464129447937,-1.1649200916290283,0.5929974317550659,-20.944168090820312,46.726104736328125,-21.864952087402344
4.64,2.9312076568603516,-9.43489933013916,-4.554737567901611,0.16890422999858856,-1.0951286554336548,0.5929974317550659,-20.62262535095215,46.69687271118164,-22.09880256652832
4.658,2.6356940269470215,-9.591629981994629,-4.683949947357178,0.09300423413515091,-0.916450560092926,0.560468852519989,-20.681087493896484,46.170711517333984,-21.36802101135254
4.662,3.3092734813690186,-10.53679370880127,-5.040481090545654,0.06551529467105865,-0.793666660785675,0.5238169431686401,-20.198772430419922,46.682254791259766,-20.885705947875977
4.67,3.4360930919647217,-11.497512817382812,-5.200799465179443,0.047800205647945404,-0.7386887669563293,0.5047274231910706,-19.877227783203125,46.346099853515625,-22.610347747802734
4.68,3.4157540798187256,-12.29432201385498,-4.912464618682861,0.010231993161141872,-0.666454017162323,0.4274529218673706,-19.74568748474121,45.95147705078125,-22.771120071411133
4.69,3.3535408973693848,-12.905688285827637,-4.469792366027832,-0.06200282275676727,-0.541532039642334,0.34315353631973267,-19.234142303466797,46.00994110107422,-22.04033851623535
4.7,3.142972707748413,-13.375877380371094,-3.967299699783325,-0.2093740552663803,-0.35506540536880493,0.18600846827030182,-19.36568260192871,46.08301544189453,-21.908798217773438
4.719,2.4502503871917725,-13.438091278076172,-3.5856447219848633,-0.3683517277240753,-0.20128010213375092,-0.012675453908741474,-19.146448135375977,45.77608871459961,-21.338788986206055
4.723,2.3676979541778564,-12.713067054748535,-3.6801609992980957,-0.5528330206871033,0.05696318298578262,-0.29168814420700073,-18.89798355102539,46.02455520629883,-21.19263458251953
4.73,2.5148565769195557,-12.282358169555664,-3.7112677097320557,-0.656069278717041,0.1618792861700058,-0.4700608253479004,-18.956445693969727,45.90762710571289,-21.441099166870117
4.74,2.878565549850464,-12.130414009094238,-3.6681969165802,-0.7941247820854187,0.2448042333126068,-0.6895141005516052,-19.570301055908203,46.15609359741211,-21.441099166870117
4.75,2.8414766788482666,-12.007183074951172,-3.9936206340789795,-0.9636399149894714,0.29993483424186707,-0.9277516007423401,-19.774919509887695,45.615318298339844,-20.98801612854004
4.76,2.8067808151245117,-11.71286678314209,-4.485345840454102,-1.048092007637024,0.30054569244384766,-1.1162035465240479,-20.65185546875,45.176849365234375,-20.038002014160156
4.778,2.9443681240081787,-12.064611434936523,-4.447060585021973,-1.0877982378005981,0.29413163661956787,-1.2701416015625,-20.944168090820312,44.75299835205078,-20.08184814453125
4.782,2.946760892868042,-12.798011779785156,-4.511667251586914,-1.1023063659667969,0.33735033869743347,-1.3828461170196533,-22.142648696899414,44.79684066772461,-19.80415153503418
4.79,3.008974552154541,-13.207184791564941,-4.225724697113037,-1.1100947856903076,0.37751469016075134,-1.4291192293167114,-22.230342864990234,44.548377990722656,-19.687227249145508
4.8,3.0723841190338135,-13.71805191040039,-3.913461446762085,-1.165530800819397,0.47937649488449097,-1.4700472354888916,-22.888044357299805,44.53376388549805,-18.78105926513672
4.81,3.122633457183838,-13.957334518432617,-3.452842950820923,-1.2315043210983276,0.5516113042831421,-1.4869987964630127,-23.180356979370117,44.066062927246094,-18.605670928955078
4.82,3.22552490234375,-13.823335647583008,-3.4337005615234375,-1.2933545112609863,0.6204863786697388,-1.5154038667678833,-24.39345359802246,43.52528381347656,-17.88950538635254
4.839,3.460021495819092,-13.442876815795898,-3.462414264678955,-1.3521502017974854,0.6856961846351624,-1.5347988605499268,-25.621164321899414,43.52528381347656,-16.939491271972656
4.843,3.617947816848755,-12.642478942871094,-3.607180118560791,-1.377806544303894,0.7031058669090271,-1.5522085428237915,-26.05963134765625,42.6045036315918,-16.311019897460938
4.85,3.4648072719573975,-12.149557113647461,-3.645465135574341,-1.364978313446045,0.6921103000640869,-1.5641204118728638,-26.191171646118164,42.239112854003906,-15.404851913452148
4.86,3.221935510635376,-11.764311790466309,-3.592823028564453,-1.3080151081085205,0.6852380633354187,-1.6126842498779297,-27.272727966308594,42.19526290893555,-14.922536849975586
4.87,3.1441688537597656,-11.778668403625488,-3.3104701042175293,-1.2794573307037354,0.6995934247970581,-1.6404786109924316,-27.959659576416016,41.683719635009766,-15.171003341674805
4.88,3.0580272674560547,-11.832507133483887,-3.1992037296295166,-1.2649492025375366,0.7675521969795227,-1.6491833925247192,-28.544286727905273,41.34756088256836,-14.86407470703125
4.899,3.0652055740356445,-11.73559856414795,-3.047259569168091,-1.2567025423049927,0.8735372424125671,-1.638493299484253,-29.1873722076416,40.28062057495117,-14.323297500610352
4.904,3.355933427810669,-11.301301002502441,-3.005384922027588,-1.260825753211975,0.9973902106285095,-1.6465872526168823,-30.298158645629883,40.134464263916016,-14.191757202148438
4.91,3.476771354675293,-11.113465309143066,-3.022134780883789,-1.2660181522369385,1.0403034687042236,-1.6517795324325562,-31.321250915527344,39.4621467590332,-13.431745529174805
4.92,3.4576287269592285,-10.543972969055176,-2.981456995010376,-1.2744176387786865,1.0447322130203247,-1.6742287874221802,-31.935108184814453,39.35983657836914,-13.197896003723145
4.93,3.345165967941284,-9.779465675354004,-2.9623141288757324,-1.2489140033721924,1.040150761604309,-1.7324138879776,-32.607425689697266,38.92136764526367,-12.218649864196777
4.94,3.4983065128326416,-9.182456970214844,-2.647658109664917,-1.2153164148330688,1.0476338863372803,-1.8023579120635986,-33.732826232910156,38.263668060302734,-11.926337242126465
4.96,3.7734811305999756,-8.737391471862793,-2.744567632675171,-1.1864529848098755,1.024420976638794,-1.8674150705337524,-34.33206558227539,37.94212341308594,-11.370944023132324
4.963,3.786641836166382,-7.987241268157959,-3.0999014377593994,-1.1267409324645996,0.9263771176338196,-1.9814940690994263,-35.106693267822266,37.22595977783203,-10.727856636047363
4.97,3.69930362701416,-7.6869425773620605,-2.994617462158203,-1.07771897315979,0.8710938096046448,-2.0285308361053467,-35.61824035644531,36.831336975097656,-10.77170467376709
4.98,3.5258240699768066,-7.7180495262146,-2.6596221923828125,-1.0361801385879517,0.7910704612731934,-2.0928244590759277,-36.64133071899414,36.495174407958984,-10.698626518249512
4.99,3.317648410797119,-7.7623162269592285,-2.482553482055664,-1.0238101482391357,0.7225008606910706,-2.14428973197937,-37.78135299682617,35.50131607055664,-11.32709789276123
5.0,3.2554352283477783,-7.708477973937988,-2.410768747329712,-1.023352026939392,0.6925684809684753,-2.179872512817383,-38.278282165527344,35.03361511230469,-10.391697883605957
5.019,3.2506494522094727,-7.6151580810546875,-2.2444677352905273,-1.0459539890289307,0.6453791260719299,-2.2038490772247314,-39.87138366699219,33.41128158569336,-10.77170467376709
5.023,3.2542386054992676,-7.267002105712891,-2.416750907897949,-1.052520751953125,0.5813909769058228,-2.238821029663086,-39.79830551147461,33.87898254394531,-11.268634796142578
5.03,3.394218921661377,-7.110272407531738,-2.4837498664855957,-1.0503827333450317,0.5422956347465515,-2.238668441772461,-40.587547302246094,32.622039794921875,-10.05553913116455
5.04,3.462414264678955,-6.87697172164917,-2.682354211807251,-1.0367910861968994,0.44806966185569763,-2.228283643722534,-41.21601867675781,32.30049514770508,-10.05553913116455
5.05,3.2171499729156494,-6.5216383934021,-2.74337100982666,-1.0025825500488281,0.34055736660957336,-2.216066360473633,-41.5814094543457,31.365097045898438,-9.17860221862793
5.06,2.847459077835083,-6.2297139167785645,-2.640479564666748,-0.9543241858482361,0.23289236426353455,-2.2046127319335938,-42.38526916503906,31.20432472229004,-9.953229904174805
5.079,2.616551399230957,-6.052644729614258,-2.465803623199463,-0.9097310304641724,0.19165895879268646,-2.1894936561584473,-42.53142547607422,30.210464477539062,-9.514761924743652
5.083,2.609373092651367,-5.986842155456543,-2.2803597450256348,-0.8689557909965515,0.19822576642036438,-2.1314613819122314,-43.496055603027344,29.041215896606445,-9.470914840698242
5.09,2.5902304649353027,-5.921039581298828,-2.2947168350219727,-0.8518515229225159,0.21471913158893585,-2.0764834880828857,-43.262203216552734,28.441978454589844,-9.31014347076416
5.1,2.4849462509155273,-5.834897994995117,-2.3497517108917236,-0.8181012272834778,0.24556781351566315,-1.991878867149353,-44.372989654541016,28.04735565185547,-8.740134239196777
5.11,2.5423738956451416,-5.779862880706787,-2.557927370071411,-0.7687739133834839,0.2681698203086853,-1.8933767080307007,-43.978370666503906,27.024263381958008,-8.959368705749512
5.12,3.025723934173584,-6.089733123779297,-2.513659954071045,-0.7111998200416565,0.27091872692108154,-1.8034268617630005,-44.3437614440918,26.293479919433594,-9.251681327819824
5.139,3.1860432624816895,-6.452245712280273,-2.3222343921661377,-0.6812674403190613,0.24892757833003998,-1.6814066171646118,-45.24992752075195,25.533470153808594,-9.631686210632324
5.143,3.407379150390625,-6.579065322875977,-2.293520450592041,-0.6835582256317139,0.17516560852527618,-1.5525139570236206,-45.922245025634766,24.992692947387695,-9.427068710327148
5.15,3.4995031356811523,-6.379265308380127,-2.4765713214874268,-0.6860016584396362,0.11026117950677872,-1.4801265001296997,-45.717628479003906,24.788074493408203,-10.187079429626465
5.16,3.418147087097168,-5.7678985595703125,-2.9216363430023193,-0.68325275182724,0.009621127508580685,-1.3912456035614014,-45.790706634521484,24.086524963378906,-9.163987159729004
5.17,3.1070802211761475,-5.111069202423096,-2.9527430534362793,-0.6575964689254761,-0.13866640627384186,-1.317789077758789,-46.27302169799805,23.545745849609375,-9.003214836120605
5.18,2.8319056034088135,-4.7952165603637695,-2.6560330390930176,-0.6478225588798523,-0.24908030033111572,-1.2783881425857544,-46.65302658081055,23.472667694091797,-9.003214836120605
5.2,2.785245418548584,-5.03449821472168,-2.530409812927246,-0.6551529169082642,-0.31031954288482666,-1.1899654865264893,-46.44840621948242,23.01958465576172,-8.535516738891602
5.204,2.775674343109131,-5.788238048553467,-2.864208459854126,-0.6467536091804504,-0.3283400535583496,-0.9973902106285095,-46.477638244628906,21.514177322387695,-9.602456092834473
5.21,2.950350046157837,-6.007181167602539,-3.148954391479492,-0.6322454810142517,-0.33200523257255554,-0.9305005073547363,-46.477638244628906,21.309558868408203,-9.383220672607422
5.22,3.2004001140594482,-6.241677761077881,-3.438485860824585,-0.5189300179481506,-0.3425426781177521,-0.7110471725463867,-46.4191780090332,21.426483154296875,-9.0762939453125
5.23,3.3367910385131836,-7.014559268951416,-3.442075490951538,-0.38957932591438293,-0.3752239942550659,-0.5300782918930054,-47.04764938354492,20.973400115966797,-8.79859733581543
5.24,3.2709884643554688,-7.667799949645996,-3.603590726852417,-0.27351492643356323,-0.3514002561569214,-0.34055736660957336,-46.56533432006836,20.154926300048828,-9.26629638671875
5.261,3.3966116905212402,-7.816154956817627,-4.0486555099487305,-0.13927727937698364,-0.27061331272125244,-0.14752395451068878,-45.46916198730469,20.447237014770508,-8.6670560836792
5.264,3.645465135574341,-6.970292568206787,-4.332205295562744,0.0780380368232727,-0.21670444309711456,0.11682797223329544,-45.90762710571289,20.169540405273438,-8.593978881835938
5.27,3.506681442260742,-6.375675678253174,-4.481756687164307,0.1794416606426239,-0.20952677726745605,0.22418753802776337,-45.8199348449707,20.198772430419922,-9.120140075683594
5.28,3.348755121231079,-5.8683977127075195,-4.177868366241455,0.2863430678844452,-0.20693059265613556,0.3344487249851227,-45.57147216796875,20.46185302734375,-8.98859977722168
5.29,2.9718856811523438,-5.3970112800598145,-4.193421840667725,0.3422372341156006,-0.20891591906547546,0.42500948905944824,-45.995323181152344,20.257234573364258,-7.907044887542725
5.3,2.798405885696411,-5.117051124572754,-3.9553356170654297,0.39217546582221985,-0.2177734524011612,0.4992296099662781,-45.001461029052734,20.4326229095459,-9.602456092834473
5.319,2.8007986545562744,-5.405385971069336,-4.336990833282471,0.4291328191757202,-0.21578815579414368,0.6768386363983154,-45.30839157104492,20.944168090820312,-9.26629638671875
5.322,3.566502094268799,-6.2560343742370605,-5.211567401885986,0.4615086615085602,-0.22418753802776337,0.7574729323387146,-44.79684066772461,21.28032684326172,-9.017830848693848
5.33,3.968496322631836,-7.423731803894043,-5.704488754272461,0.5146539211273193,-0.2577851414680481,0.9007207751274109,-44.15375518798828,22.054954528808594,-8.930137634277344
5.34,3.9912281036376953,-9.119047164916992,-5.793023586273193,0.582001805305481,-0.3399465084075928,1.1142182350158691,-44.84069061279297,21.967260360717773,-9.280911445617676
5.35,4.1383867263793945,-10.511669158935547,-6.166304111480713,0.6516404747962952,-0.3712533414363861,1.3376421928405762,-44.21221923828125,22.259572982788086,-10.070155143737793
5.36,4.177868366241455,-10.827521324157715,-6.1842498779296875,0.7107416987419128,-0.3423899710178375,1.5771013498306274,-43.6422119140625,22.961122512817383,-9.339374542236328
5.381,4.012763500213623,-10.045068740844727,-6.2907304763793945,0.7935139536857605,-0.34666600823402405,1.7944166660308838,-43.23297119140625,24.13037109375,-9.748611450195312
5.385,3.462414264678955,-9.461220741271973,-6.283552169799805,0.9137016534805298,-0.26145032048225403,2.0473148822784424,-43.072200775146484,24.714996337890625,-10.040924072265625
5.39,3.2039895057678223,-9.91585636138916,-6.258427619934082,0.9563094973564148,-0.1996002048254013,2.121076822280884,-42.6045036315918,24.203449249267578,-9.880152702331543
5.4,3.4959137439727783,-10.66122055053711,-6.071787357330322,1.0236574411392212,-0.03848451003432274,2.288912057876587,-42.56065368652344,25.15346336364746,-9.807073593139648
5.41,3.920639753341675,-11.313264846801758,-5.96889591217041,1.0563386678695679,0.09483683109283447,2.4810290336608887,-41.9029541015625,26.103479385375977,-10.128617286682129
5.42,3.9972100257873535,-11.653045654296875,-5.812166213989258,1.0685560703277588,0.17241671681404114,2.669481039047241,-41.756797790527344,27.4481143951416,-10.201695442199707
5.439,3.8153557777404785,-11.20080280303955,-5.96889591217041,1.1284207105636597,0.18112152814865112,2.7621798515319824,-40.83601379394531,28.588130950927734,-10.698626518249512
5.443,4.132404327392578,-10.584650039672852,-5.960521221160889,1.1545352935791016,0.1540907472372055,2.764317750930786,-40.762935638427734,29.055830001831055,-10.976323127746582
5.45,4.3657050132751465,-10.28195858001709,-5.885146617889404,1.1921035051345825,0.08933904021978378,2.7592782974243164,-40.2221565246582,29.655071258544922,-11.780181884765625
5.46,4.35972261428833,-9.748359680175781,-5.888736248016357,1.2412781715393066,-0.021380282938480377,2.747366428375244,-39.28675842285156,30.824321746826172,-12.130955696105957
5.47,4.211367607116699,-9.31166934967041,-5.787041664123535,1.2837332487106323,-0.15821409225463867,2.710561990737915,-38.73136520385742,31.292020797729492,-11.955568313598633
5.48,4.053441524505615,-9.176474571228027,-5.497509956359863,1.310916781425476,-0.24434609711170197,2.677269697189331,-37.7667350769043,32.432037353515625,-12.481730461120605
5.499,3.871586799621582,-9.0843505859375,-5.237888813018799,1.324813961982727,-0.284052312374115,2.654514789581299,-36.81671905517578,33.820518493652344,-12.481730461120605
5.504,3.7220354080200195,-8.964709281921387,-4.997409820556641,1.3187053203582764,-0.3113885521888733,2.6088528633117676,-36.39286804199219,33.542823791503906,-12.671732902526855
5.51,3.682553768157959,-8.903693199157715,-4.892125606536865,1.3145819902420044,-0.3090977966785431,2.593886375427246,-36.07132339477539,34.2443733215332,-12.320959091186523
5.52,3.5808589458465576,-8.860621452331543,-4.789234161376953,1.306182622909546,-0.28725937008857727,2.560441732406616,-35.12131118774414,34.69745635986328,-13.840982437133789
5.53,3.4995031356811523,-8.676374435424805,-4.680360794067383,1.314734697341919,-0.25641068816185,2.4995076656341553,-34.03975296020508,35.03361511230469,-13.811750411987305
5.54,3.6023943424224854,-8.34736156463623,-4.412364959716797,1.3292428255081177,-0.24663683772087097,2.4245240688323975,-33.820518493652344,36.20286560058594,-14.177140235900879
5.559,3.754338502883911,-8.157132148742676,-4.432703971862793,1.3335187435150146,-0.36392295360565186,2.2174408435821533,-32.00818634033203,37.15288162231445,-14.644840240478516
5.563,4.05703067779541,-8.070990562438965,-4.398007869720459,1.3293954133987427,-0.41523563861846924,2.1623101234436035,-31.701257705688477,37.34288024902344,-15.22946548461914
5.57,4.102494239807129,-8.017151832580566,-4.303491592407227,1.3199270963668823,-0.46547931432724,2.1114556789398193,-30.824321746826172,38.05904769897461,-15.024847030639648
5.58,4.0905303955078125,-7.8795647621154785,-4.035495281219482,1.2864822149276733,-0.587652325630188,1.9808831214904785,-30.91201400756836,38.49751663208008,-15.945630073547363
5.59,3.920639753341675,-7.558926582336426,-3.772284984588623,1.2585350275039673,-0.6316346526145935,1.8851301670074463,-29.406606674194336,38.760597229003906,-15.85793685913086
5.6,3.9385857582092285,-7.301697731018066,-3.7710883617401123,1.222646713256836,-0.6498079299926758,1.7965545654296875,-28.515052795410156,39.27214050292969,-17.114879608154297
5.62,3.94815731048584,-6.498905658721924,-4.043870449066162,1.1728612184524536,-0.7538076639175415,1.6103935241699219,-27.126571655273438,39.959075927734375,-17.217187881469727
5.623,3.7950165271759033,-6.291926860809326,-4.077369689941406,1.171028733253479,-0.7805330157279968,1.5596915483474731,-26.717334747314453,40.09061813354492,-17.72873306274414
5.63,3.676571846008301,-6.161518096923828,-4.077369689941406,1.1719449758529663,-0.8181012272834778,1.4703526496887207,-26.366558074951172,40.002925872802734,-17.69950294494629
5.64,3.55214524269104,-5.923432350158691,-4.34536600112915,1.1791225671768188,-0.8623890280723572,1.3396273851394653,-25.32884979248047,41.186790466308594,-18.123355865478516
5.65,3.3583264350891113,-5.942574977874756,-4.445864677429199,1.1901181936264038,-0.8781187534332275,1.224173903465271,-24.334989547729492,40.83601379394531,-18.547208786010742
5.66,3.036491870880127,-6.063412666320801,-4.23529577255249,1.1904237270355225,-0.8692612051963806,1.11085844039917,-24.510377883911133,40.71908950805664,-18.6933650970459
5.679,2.7553350925445557,-6.45822811126709,-3.893122434616089,1.1256718635559082,-0.7064656615257263,0.9242391586303711,-23.458053588867188,42.15141677856445,-19.789535522460938
5.682,2.7637100219726562,-6.510870456695557,-3.88594388961792,1.098793864250183,-0.6511823534965515,0.888350784778595,-22.800350189208984,41.6252555847168,-20.344928741455078
5.69,2.860619306564331,-6.56829833984375,-3.8225340843200684,1.0430524349212646,-0.5826126933097839,0.8342891931533813,-22.566499710083008,41.888336181640625,-20.418006896972656
5.7,3.194417953491211,-6.502495288848877,-3.940978765487671,0.9607383012771606,-0.513737678527832,0.7582364678382874,-22.069570541381836,42.29757308959961,-21.075708389282227
5.71,3.700500249862671,-6.388835906982422,-4.23649263381958,0.8865181803703308,-0.48747044801712036,0.7023422718048096,-21.718795776367188,42.15141677856445,-20.885705947875977
5.72,3.992424488067627,-6.114858150482178,-4.5714874267578125,0.8216137290000916,-0.5416847467422485,0.6447682976722717,-21.236480712890625,42.16603469848633,-21.178016662597656
5.739,3.806980848312378,-5.770291805267334,-4.977071285247803,0.7272350788116455,-0.7845036387443542,0.45036038756370544,-20.330312728881836,42.692195892333984,-21.514177322387695
5.743,3.6394829750061035,-5.879165172576904,-4.715056896209717,0.693637490272522,-0.835358202457428,0.4069889783859253,-20.242618560791016,42.39988327026367,-21.996492385864258
5.75,3.2781667709350586,-6.064609050750732,-4.291527271270752,0.6317873597145081,-0.8678867816925049,0.35521814227104187,-20.008769989013672,42.48757553100586,-21.908798217773438
5.76,2.664407968521118,-6.357729434967041,-3.94815731048584,0.5326744914054871,-0.8365799188613892,0.30695977807044983,-19.614147186279297,42.692195892333984,-22.961122512817383
5.77,2.1200408935546875,-6.56710147857666,-3.8249268531799316,0.4366159439086914,-0.6834054589271545,0.2814561426639557,-19.62876319885254,42.91142654418945,-23.458053588867188
5.78,2.0745770931243896,-6.826723098754883,-4.000799655914307,0.33307427167892456,-0.4343251883983612,0.24816399812698364,-19.52645492553711,42.92604446411133,-22.84419822692871
5.799,3.5162527561187744,-8.096115112304688,-5.385047435760498,0.2987130880355835,-0.23319780826568604,0.27809640765190125,-19.497222900390625,42.72142791748047,-24.21806526184082
5.803,3.834498167037964,-8.612964630126953,-5.474778175354004,0.29993483424186707,-0.24633140861988068,0.29016098380088806,-19.877227783203125,43.10143280029297,-24.013446807861328
5.81,4.241277694702148,-9.415757179260254,-5.712863922119141,0.2926044464111328,-0.299018532037735,0.313373863697052,-18.97106170654297,42.72142791748047,-23.69190216064453
5.82,4.689931869506836,-10.612168312072754,-5.816951751708984,0.251676470041275,-0.4343251883983612,0.30802878737449646,-19.00029182434082,42.47296142578125,-24.510377883911133
5.83,4.90408992767334,-11.49512004852295,-5.8025946617126465,0.1872301995754242,-0.5691736936569214,0.30405816435813904,-19.131834030151367,42.96989059448242,-24.992692947387695
5.84,4.364508152008057,-12.104093551635742,-5.435296535491943,0.07177666574716568,-0.6887505650520325,0.27718010544776917,-18.678749084472656,43.21835708618164,-24.904998779296875
5.856,2.7637100219726562,-12.673584938049316,-4.238884925842285,-0.1641700267791748,-0.5572617650032043,0.1270599663257599,-18.00642967224121,42.838348388671875,-24.40806770324707
5.86,2.4335005283355713,-12.630513191223145,-4.091726303100586,-0.26771169900894165,-0.4544837474822998,0.05207626149058342,-18.401052474975586,42.633731842041016,-24.934228897094727
5.87,2.15234375,-12.313465118408203,-4.315455436706543,-0.46364670991897583,-0.1875356286764145,-0.12431107461452484,-18.327974319458008,42.85296630859375,-24.11575698852539
5.88,2.359323024749756,-12.020343780517578,-4.693521499633789,-0.622013509273529,0.10094548016786575,-0.29077184200286865,-18.09412384033203,42.429115295410156,-24.247295379638672
5.891,2.6871397495269775,-12.363714218139648,-5.018945217132568,-0.7625125646591187,0.3897320032119751,-0.4570798873901367,-18.88336753845215,42.443729400634766,-24.46653175354004
5.909,2.9012973308563232,-13.366307258605957,-6.1124653816223145,-0.8281804919242859,0.5641340017318726,-0.5900958180427551,-18.854137420654297,42.18064880371094,-24.334989547729492
5.913,3.720839262008667,-14.086545944213867,-6.654439926147461,-0.8550586104393005,0.632398247718811,-0.8260425329208374,-19.570301055908203,41.6252555847168,-23.881906509399414
5.92,4.368097305297852,-14.431112289428711,-6.2907304763793945,-0.8732318878173828,0.5885686278343201,-0.9599747061729431,-20.228002548217773,41.43525314331055,-23.078046798706055
5.93,4.777270317077637,-14.926426887512207,-5.459225177764893,-0.9456194043159485,0.4786129295825958,-1.0923796892166138,-20.491085052490234,41.332942962646484,-22.873428344726562
5.94,4.517648696899414,-15.282957077026367,-4.974678039550781,-1.0971139669418335,0.37919458746910095,-1.211498498916626,-21.251096725463867,41.66910171508789,-22.610347747802734
5.95,4.042673587799072,-15.322439193725586,-4.735395908355713,-1.2047789096832275,0.379652738571167,-1.2988522052764893,-21.8503360748291,40.967552185058594,-22.522653579711914
5.96,3.73041033744812,-15.373885154724121,-4.631308078765869,-1.3072515726089478,0.4053090810775757,-1.3672691583633423,-22.20111083984375,41.25986862182617,-22.47880744934082
5.973,3.476771354675293,-15.615559577941895,-4.412364959716797,-1.4028520584106445,0.5001459121704102,-1.4422528743743896,-22.858814239501953,40.82139587402344,-21.587255477905273
5.98,3.262613534927368,-15.578471183776855,-4.609772682189941,-1.447445273399353,0.5813909769058228,-1.496467113494873,-23.194971084594727,40.70447540283203,-21.8503360748291
5.99,3.414557933807373,-15.455240249633789,-4.624129772186279,-1.4683672189712524,0.7203628420829773,-1.6038267612457275,-23.867290496826172,40.03215408325195,-20.98801612854004
6.0,3.5294132232666016,-15.091531753540039,-4.613361835479736,-1.4624114036560059,0.8422304391860962,-1.6672039031982422,-24.232681274414062,39.63753128051758,-20.505699157714844
6.01,3.458824872970581,-14.551950454711914,-4.597808361053467,-1.419803500175476,0.9422596096992493,-1.7551685571670532,-25.533470153808594,39.66676330566406,-20.46185302734375
6.029,3.159722089767456,-13.822139739990234,-4.23529577255249,-1.3703234195709229,1.0361801385879517,-1.862222671508789,-26.381174087524414,39.1259880065918,-19.81876564025879
6.033,2.8941190242767334,-12.967902183532715,-4.132404327392578,-1.3054189682006836,1.1565206050872803,-2.07969069480896,-27.477344512939453,39.19906234741211,-19.102602005004883
6.04,2.9132614135742188,-12.369696617126465,-3.950549840927124,-1.2751811742782593,1.1789699792861938,-2.2061398029327393,-28.80736541748047,38.45366668701172,-18.664133071899414
6.05,3.160918712615967,-11.380264282226562,-3.6502509117126465,-1.2460123300552368,1.2020299434661865,-2.3524420261383057,-30.225080490112305,37.79596710205078,-18.6933650970459
6.06,3.1824538707733154,-10.683952331542969,-3.3272199630737305,-1.229519009590149,1.2128729820251465,-2.470491647720337,-31.04355239868164,37.81058120727539,-18.16720199584961
6.07,3.0616164207458496,-9.911070823669434,-3.1166512966156006,-1.2195924520492554,1.226922869682312,-2.5722007751464844,-31.803565979003906,37.3867301940918,-17.567962646484375
6.088,3.0891339778900146,-9.041280746459961,-2.9551358222961426,-1.2079859972000122,1.2286027669906616,-2.6679539680480957,-33.48435974121094,36.39286804199219,-18.5325927734375
6.093,3.3583264350891113,-8.244470596313477,-2.964707136154175,-1.176831841468811,1.1635456085205078,-2.763554334640503,-34.419761657714844,35.925167083740234,-16.501022338867188
6.1,3.317648410797119,-7.648657321929932,-3.005384922027588,-1.1557570695877075,1.0936014652252197,-2.8020389080047607,-35.77901077270508,35.282081604003906,-16.676410675048828
6.11,3.098705291748047,-7.130610942840576,-3.159722089767456,-1.1102474927902222,0.9790642261505127,-2.862208843231201,-36.71440887451172,34.46360778808594,-16.311019897460938
6.12,3.0580272674560547,-6.905685901641846,-3.166900634765625,-1.0592403411865234,0.8573493957519531,-2.9223792552948,-37.75211715698242,33.601287841796875,-16.267173767089844
6.13,3.2614171504974365,-6.8303117752075195,-3.119044303894043,-1.0147998332977295,0.7156286239624023,-2.955976963043213,-38.71674728393555,33.250511169433594,-15.624086380004883
6.15,3.452842950820923,-6.802794456481934,-2.9838497638702393,-0.9766207933425903,0.5424483418464661,-2.9613218307495117,-40.10523223876953,32.622039794921875,-15.960245132446289
6.153,3.3332018852233887,-6.967899322509766,-2.6703901290893555,-0.9549350738525391,0.31184670329093933,-2.909398317337036,-40.61677932739258,31.394329071044922,-14.469453811645508
6.16,3.1896326541900635,-7.025327205657959,-2.4945175647735596,-0.9527970552444458,0.2301434725522995,-2.8684704303741455,-41.318328857421875,30.605087280273438,-15.507162094116211
6.17,2.906083106994629,-7.0887370109558105,-2.24566388130188,-0.9642508029937744,0.14828753471374512,-2.7957773208618164,-42.136802673339844,30.210464477539062,-14.834843635559082
6.18,2.609373092651367,-7.293323516845703,-1.987239122390747,-1.0028879642486572,0.0988074541091919,-2.7181975841522217,-42.76527404785156,29.09967803955078,-14.323297500610352
6.19,2.3509480953216553,-7.411767482757568,-1.9214365482330322,-1.0633636713027954,0.07391469925642014,-2.6502389907836914,-43.08681869506836,28.354280471801758,-14.001753807067871
6.21,2.2707886695861816,-7.284948348999023,-2.025524377822876,-1.1328495740890503,0.11239920556545258,-2.546391725540161,-44.3437614440918,26.571178436279297,-14.367143630981445
6.214,2.5603203773498535,-6.981059551239014,-2.3533408641815186,-1.1635456085205078,0.16523903608322144,-2.4022274017333984,-44.48991394042969,26.629642486572266,-13.972522735595703
6.22,2.7146570682525635,-6.75374174118042,-2.4885356426239014,-1.1554515361785889,0.17440202832221985,-2.3043363094329834,-44.65068435668945,25.591930389404297,-13.563285827636719
6.23,2.489731788635254,-6.4666032791137695,-2.3988046646118164,-1.1261299848556519,0.17241671681404114,-2.1763601303100586,-45.07453918457031,25.021923065185547,-14.279450416564941
6.24,2.3497517108917236,-6.260820388793945,-2.3186450004577637,-1.0963504314422607,0.17150041460990906,-2.082897663116455,-45.64455032348633,23.94036865234375,-14.39637565612793
6.25,2.3820548057556152,-6.1328043937683105,-2.1846470832824707,-1.0512990951538086,0.16951508820056915,-1.9756909608840942,-45.98070526123047,23.12189483642578,-14.016368865966797
6.27,2.462214469909668,-5.958127975463867,-2.0685951709747314,-1.0103710889816284,0.17088955640792847,-1.8718438148498535,-46.46302032470703,22.522653579711914,-13.387897491455078
6.273,2.4885356426239014,-5.784648418426514,-2.038684844970703,-0.9558513760566711,0.1618792861700058,-1.736231803894043,-46.974571228027344,21.324174880981445,-13.139432907104492
6.28,2.526820659637451,-5.773880958557129,-1.88075852394104,-0.9243918061256409,0.14049901068210602,-1.6536122560501099,-46.901493072509766,21.075708389282227,-13.300204277038574
6.29,2.4406790733337402,-5.704488754272461,-1.8795621395111084,-0.8991936445236206,0.08185594528913498,-1.5471688508987427,-46.63841247558594,20.198772430419922,-13.314821243286133
6.3,2.4670000076293945,-5.504688262939453,-1.9884356260299683,-0.8481863737106323,-0.022449297830462456,-1.4332425594329834,-47.354576110839844,19.307220458984375,-12.584039688110352
6.31,2.66560435295105,-5.326422691345215,-2.187039852142334,-0.7954992651939392,-0.11835514008998871,-1.3213015794754028,-47.471500396728516,18.751827239990234,-12.627885818481445
6.33,2.603391170501709,-4.999802589416504,-2.3401803970336914,-0.7287622690200806,-0.2015855312347412,-1.194852352142334,-47.51534652709961,18.00642967224121,-12.949429512023926
6.333,2.3569302558898926,-4.632504463195801,-2.0853447914123535,-0.6186537742614746,-0.2906191349029541,-1.0144944190979004,-47.70534896850586,16.661794662475586,-13.256357192993164
6.34,2.1607186794281006,-4.280759334564209,-2.183450698852539,-0.5850561857223511,-0.31612274050712585,-0.9633344411849976,-47.25226593017578,16.42794418334961,-13.504822731018066
6.35,1.94297194480896,-3.9242289066314697,-2.135594129562378,-0.5001459121704102,-0.3376557528972626,-0.8475754857063293,-47.16456985473633,15.931015014648438,-12.949429512023926
6.36,2.025524377822876,-3.7435710430145264,-2.0650060176849365,-0.47051894664764404,-0.3617849349975586,-0.7667886018753052,-47.2230339050293,15.580240249633789,-13.300204277038574
6.37,2.504088878631592,-4.0079779624938965,-2.242074728012085,-0.4547891914844513,-0.4005748927593231,-0.640644907951355,-46.857643127441406,15.214850425720215,-13.563285827636719
6.389,3.074777126312256,-4.432703971862793,-2.638087034225464,-0.44547346234321594,-0.4381431043148041,-0.4538728594779968,-46.974571228027344,15.390236854553223,-13.344051361083984
6.393,3.043670415878296,-4.829912185668945,-3.0759735107421875,-0.33719760179519653,-0.6185010671615601,-0.09911288321018219,-46.50687026977539,14.557147026062012,-12.788658142089844
6.4,2.8079774379730225,-5.277370452880859,-3.0005996227264404,-0.2548835277557373,-0.6841690540313721,0.08170322328805923,-46.25840377807617,14.060215950012207,-12.350189208984375
6.41,2.6691935062408447,-6.1124653816223145,-2.8761725425720215,-0.15073098242282867,-0.7150177359580994,0.32559117674827576,-45.65916442871094,14.35252857208252,-12.554807662963867
6.42,2.616551399230957,-6.27876615524292,-3.0233314037323,-0.015118913725018501,-0.702189564704895,0.5807800889015198,-45.33761978149414,14.177140235900879,-12.934814453125
6.43,2.3497517108917236,-5.971288204193115,-3.315255641937256,0.1592831164598465,-0.6585127115249634,0.8234463334083557,-44.75299835205078,13.957907676696777,-12.481730461120605
6.45,2.149951219558716,-6.026323318481445,-3.1513471603393555,0.3471241593360901,-0.559857964515686,1.0319041013717651,-44.6799201965332,14.410990715026855,-12.481730461120605
6.453,1.7371891736984253,-6.299105644226074,-3.2853453159332275,0.49953505396842957,-0.2776382565498352,1.2904528379440308,-44.76761245727539,15.039462089538574,-12.569424629211426
6.46,1.6642080545425415,-6.082554817199707,-3.5258240699768066,0.5485569834709167,-0.1039998009800911,1.3938417434692383,-44.636070251464844,15.594855308532715,-12.160186767578125
6.47,2.200200319290161,-5.862415313720703,-3.7148568630218506,0.5761985778808594,0.07147122919559479,1.4978415966033936,-44.09529113769531,15.4633150100708,-12.247880935668945
6.48,2.9527430534362793,-6.0909295082092285,-4.3752760887146,0.5963572263717651,0.20815233886241913,1.6365079879760742,-44.372989654541016,16.281789779663086,-11.356328010559082
6.49,3.5054850578308105,-6.635296821594238,-4.7712883949279785,0.6301075220108032,0.26572638750076294,1.813353419303894,-44.24144744873047,16.69102668762207,-12.1455717086792
6.51,3.9936206340789795,-7.75633430480957,-4.889732837677002,0.664315938949585,0.2096794992685318,1.9824103116989136,-43.72990417480469,18.06489372253418,-12.759428024291992
6.513,4.8813581466674805,-10.475777626037598,-5.296512603759766,0.7328855395317078,0.03084869496524334,2.334268569946289,-43.686058044433594,17.88950538635254,-13.007892608642578
6.52,5.0356950759887695,-11.748759269714355,-5.68773889541626,0.8022187352180481,-0.04581489413976669,2.5584561824798584,-43.802982330322266,18.386436462402344,-12.759428024291992
6.53,4.926821708679199,-12.898509979248047,-6.300302028656006,0.9275988340377808,-0.10293079167604446,2.8454103469848633,-43.27682113647461,19.19029426574707,-11.9847993850708
6.54,4.652843475341797,-13.085149765014648,-6.64486837387085,1.0829113721847534,-0.06643159687519073,3.0827314853668213,-43.393741607666016,20.286466598510742,-13.607131958007812
6.55,4.132404327392578,-12.606585502624512,-6.756134510040283,1.236543893814087,0.02626720443367958,3.2531628608703613,-42.809120178222656,21.324174880981445,-12.905582427978516
6.57,3.647857904434204,-12.208181381225586,-6.473781585693359,1.3982704877853394,0.19944749772548676,3.38297176361084,-42.22449493408203,22.274188995361328,-12.861736297607422
6.573,3.377469062805176,-13.447663307189941,-5.861218452453613,1.4715744256973267,0.37140607833862305,3.447723150253296,-41.3037109375,23.808828353881836,-13.972522735595703
6.58,3.6885359287261963,-14.626128196716309,-5.410171985626221,1.4466814994812012,0.5648975968360901,3.5130860805511475,-40.79216766357422,25.05115509033203,-13.592517852783203
6.59,4.268795490264893,-15.787842750549316,-5.200799465179443,1.368032693862915,0.8443684577941895,3.652057647705078,-40.777549743652344,25.445777893066406,-14.060215950012207
6.6,4.2592244148254395,-16.09651756286621,-5.203192710876465,1.2696833610534668,1.0920743942260742,3.7869064807891846,-40.2660026550293,26.43963623046875,-15.01023006439209
6.61,4.281955718994141,-15.470794677734375,-5.715256690979004,1.1995865106582642,1.341307282447815,3.849214553833008,-39.79830551147461,28.120431900024414,-15.682548522949219
6.631,4.728217601776123,-14.048261642456055,-6.199802875518799,1.2174543142318726,1.4028520584106445,3.8119518756866455,-39.447532653808594,29.596609115600586,-15.755626678466797
6.634,5.533401966094971,-12.635299682617188,-6.312265872955322,1.3194688558578491,1.3009902238845825,3.7194056510925293,-39.1844482421875,29.143524169921875,-16.69102668762207
6.64,5.601597309112549,-12.193824768066406,-6.424728870391846,1.3642147779464722,1.2331842184066772,3.687946319580078,-38.570594787597656,30.26892852783203,-16.647178649902344
6.65,5.698506832122803,-11.37547779083252,-6.27876615524292,1.4521794319152832,1.0172432661056519,3.581960916519165,-37.92750549316406,31.59894561767578,-16.939491271972656
6.66,5.970092296600342,-10.928020477294922,-6.041877269744873,1.5152511596679688,0.6466008424758911,3.3762521743774414,-37.8251953125,31.920490264892578,-17.085647583007812
6.67,6.187839031219482,-10.329814910888672,-5.686542987823486,1.5490015745162964,0.31810805201530457,3.204599142074585,-36.90441131591797,32.87050247192383,-16.837182998657227
6.69,6.035894870758057,-9.986444473266602,-5.278566360473633,1.5596915483474731,-0.03191770985722542,3.0268373489379883,-36.05670928955078,33.586673736572266,-17.71411895751953
6.693,5.723631381988525,-9.515058517456055,-4.755734920501709,1.5415184497833252,-0.4951062798500061,2.724306106567383,-34.989768981933594,34.31745147705078,-18.63490104675293
6.7,5.599205017089844,-9.238687515258789,-4.631308078765869,1.529911994934082,-0.6117815375328064,2.629774808883667,-34.59514617919922,34.87284469604492,-18.89798355102539
6.71,5.608776569366455,-9.065208435058594,-4.415954113006592,1.486387848854065,-0.8904888033866882,2.4081833362579346,-32.607425689697266,35.720550537109375,-20.125694274902344
6.72,5.546562671661377,-8.934799194335938,-4.447060585021973,1.449125051498413,-1.0850493907928467,2.2623393535614014,-32.30049514770508,36.23209762573242,-19.789535522460938
6.73,5.12901496887207,-8.74337387084961,-4.466203212738037,1.4146111011505127,-1.264643669128418,2.126727342605591,-30.985092163085938,37.22595977783203,-19.83338165283203
6.749,4.460221290588379,-8.438288688659668,-4.280759334564209,1.355204463005066,-1.4242323637008667,1.8504635095596313,-28.982751846313477,37.62057876586914,-20.871089935302734
6.752,3.7016966342926025,-8.133204460144043,-3.9553356170654297,1.3478741645812988,-1.4213306903839111,1.8212946653366089,-28.880443572998047,37.8251953125,-20.783395767211914
6.76,3.3415768146514893,-8.01236629486084,-3.8847475051879883,1.3293954133987427,-1.366810917854309,1.7059937715530396,-27.97427749633789,38.07366180419922,-20.213388442993164
6.77,2.9347968101501465,-7.944170951843262,-3.583251953125,1.3240504264831543,-1.2379183769226074,1.6113097667694092,-27.1704158782959,38.1467399597168,-20.491085052490234
6.78,2.7110679149627686,-7.753941535949707,-3.3547372817993164,1.3153455257415771,-1.0516045093536377,1.5404495000839233,-26.366558074951172,38.99444580078125,-21.221864700317383
6.79,2.6536402702331543,-7.5050883293151855,-3.3308091163635254,1.3154982328414917,-0.8509352803230286,1.4735596179962158,-25.89885902404785,38.97983169555664,-21.879568099975586
6.809,2.6488544940948486,-7.21316385269165,-3.968496322631836,1.3222178220748901,-0.5813909769058228,1.2870930433273315,-24.247295379638672,39.60830307006836,-22.025724411010742
6.812,2.6536402702331543,-7.207181453704834,-4.00199556350708,1.317789077758789,-0.5601634383201599,1.220050573348999,-24.2911434173584,39.82753372192383,-22.75650405883789
6.82,2.6763720512390137,-7.286144256591797,-3.836890935897827,1.2971723079681396,-0.5245805382728577,1.1201741695404053,-23.808828353881836,39.944461822509766,-22.873428344726562
