time,accel_x,accel_y,accel_z,gyro_x,gyro_y,gyro_z,mag_x,mag_y,mag_z
0.0,73.32003021240234,13.905523300170898,-21.950040817260742,-36.905052185058594,-9.859111785888672,-21.84992218017578,-27.450000762939453,-9.450000762939453,-27.750001907348633
0.01,68.30178833007812,21.720197677612305,-30.91393280029297,-36.905052185058594,-12.25727367401123,-28.644716262817383,-27.30000114440918,-9.15000057220459,-27.450000762939453
0.02,67.61225891113281,23.75048065185547,-31.83330535888672,-38.50382614135742,-14.655436515808105,-16.520673751831055,-27.450000762939453,-8.25,-28.05000114440918
0.03,69.64253997802734,24.938005447387695,-32.21637725830078,-41.568145751953125,-7.460949420928955,-13.323123931884766,-27.450000762939453,-8.25,-28.05000114440918
0.04,68.99131774902344,25.5892276763916,-32.484527587890625,-34.50688934326172,-16.920366287231445,-4.263399600982666,-27.000001907348633,-10.050000190734863,-28.950000762939453
0.059,68.49332427978516,24.095245361328125,-31.10546875,-21.45022964477539,-9.459418296813965,-9.992342948913574,-26.700000762939453,-8.25,-28.05000114440918
0.063,66.84611511230469,19.07699966430664,-32.56114196777344,-7.194486618041992,-17.186830520629883,-27.045940399169922,-26.700000762939453,-9.75,-28.05000114440918
0.07,66.9227294921875,20.83913230895996,-32.790985107421875,-14.788667678833008,-12.25727367401123,-31.042879104614258,-25.950000762939453,-8.700000762939453,-28.80000114440918
0.08,67.95702362060547,23.13756561279297,-32.790985107421875,-2.398162364959717,-15.188361167907715,-21.050535202026367,-25.950000762939453,-8.700000762939453,-28.80000114440918
0.09,67.34410858154297,26.278757095336914,-33.7869758605957,-1.3323123455047607,-4.396630764007568,-29.84379768371582,-28.05000114440918,-9.15000057220459,-29.400001525878906
0.1,67.19087982177734,22.946029663085938,-32.982521057128906,-5.728943347930908,0.5329249501228333,-25.580398559570312,-27.150001525878906,-8.700000762939453,-29.250001907348633
0.12,67.26749420166016,20.264522552490234,-31.986534118652344,1.1990811824798584,-0.7993874549865723,-19.584991455078125,-26.250001907348633,-8.850000381469727,-28.200000762939453
0.123,67.42072296142578,21.337125778198242,-31.143775939941406,-7.72741174697876,5.995405673980713,-10.258805274963379,-26.250001907348633,-8.850000381469727,-28.200000762939453
0.13,67.72718048095703,21.0689754486084,-30.60747528076172,-13.056661605834961,10.258805274963379,-17.053598403930664,-26.250001907348633,-8.850000381469727,-28.200000762939453
0.14,68.34009552001953,21.222204208374023,-30.301015853881836,-4.529861927032471,1.3323123455047607,-5.728943347930908,-26.250001907348633,-8.850000381469727,-28.200000762939453
0.15,67.95702362060547,21.030668258666992,-32.178070068359375,-7.460949420928955,-4.396630764007568,-2.797856092453003,-25.500001907348633,-9.15000057220459,-29.400001525878906
0.16,68.49332427978516,22.946029663085938,-31.948226928710938,-8.526799201965332,2.398162364959717,-9.459418296813965,-25.650001525878906,-8.25,-28.05000114440918
0.179,69.45100402832031,23.175872802734375,-31.10546875,-6.794793128967285,-5.995405673980713,-4.130168437957764,-27.000001907348633,-9.15000057220459,-27.900001525878906
0.182,68.60824584960938,19.574993133544922,-31.10546875,-7.860642910003662,-16.520673751831055,13.189892768859863,-27.750001907348633,-8.100000381469727,-28.200000762939453
0.19,67.34410858154297,20.724210739135742,-31.83330535888672,-7.460949420928955,-16.12097930908203,6.5283308029174805,-27.750001907348633,-8.100000381469727,-28.200000762939453
0.2,67.4973373413086,21.528661727905273,-33.17405700683594,-6.261868000030518,-10.791729927062988,23.848390579223633,-27.000001907348633,-8.850000381469727,-27.900001525878906
0.21,64.96905517578125,21.835119247436523,-32.331298828125,-15.45482349395752,2.131699800491333,7.06125545501709,-27.450000762939453,-9.0,-28.80000114440918
0.22,64.27952575683594,21.413740158081055,-33.40390396118164,-8.260336875915527,0.6661561727523804,18.519142150878906,-25.650001525878906,-7.800000190734863,-28.05000114440918
0.239,65.8501205444336,20.724210739135742,-33.13574981689453,-2.531393527984619,8.127105712890625,19.185298919677734,-27.450000762939453,-7.050000190734863,-28.500001907348633
0.243,65.69689178466797,22.103269577026367,-32.178070068359375,-6.794793128967285,20.784072875976562,9.459418296813965,-27.30000114440918,-7.650000095367432,-28.650001525878906
0.25,66.76950073242188,23.21417999267578,-31.7183837890625,3.86370587348938,17.32006072998047,21.583459854125977,-27.30000114440918,-7.650000095367432,-28.650001525878906
0.26,67.4973373413086,22.754493713378906,-29.64979362487793,7.06125545501709,14.655436515808105,15.721285820007324,-27.150001525878906,-8.25,-28.500001907348633
0.27,68.95301055908203,21.6818904876709,-30.224401473999023,8.660030364990234,12.124042510986328,16.65390396118164,-27.750001907348633,-8.850000381469727,-28.950000762939453
0.28,68.56993865966797,21.643583297729492,-31.29700469970703,19.185298919677734,5.8621745109558105,28.77794647216797,-25.200000762939453,-9.0,-28.80000114440918
0.299,68.41670989990234,22.2948055267334,-30.837318420410156,13.323123931884766,4.263399600982666,33.04134750366211,-25.200000762939453,-9.0,-28.80000114440918
0.303,66.61626434326172,21.298818588256836,-32.599449157714844,17.852985382080078,3.4640121459960938,37.97090148925781,-28.05000114440918,-9.15000057220459,-27.450000762939453
0.31,67.80379486083984,20.187908172607422,-31.182083129882812,5.196018218994141,15.721285820007324,31.709033966064453,-27.000001907348633,-10.350000381469727,-28.200000762939453
0.32,67.99533081054688,19.38345718383789,-31.52684783935547,11.857580184936523,6.395099639892578,34.50688934326172,-26.700000762939453,-9.75,-28.80000114440918
0.33,67.76548767089844,18.962078094482422,-30.99054718017578,4.396630764007568,17.32006072998047,41.701377868652344,-26.700000762939453,-9.75,-28.80000114440918
0.34,68.1485595703125,18.502389907836914,-30.26270866394043,-7.860642910003662,26.912710189819336,28.911178588867188,-25.500001907348633,-9.600000381469727,-27.450000762939453
0.356,67.76548767089844,17.00840950012207,-28.500577926635742,-6.5283308029174805,23.315465927124023,39.43644714355469,-27.150001525878906,-10.5,-28.500001907348633
0.36,68.56993865966797,19.306842803955078,-28.61549949645996,-4.796324729919434,18.119447708129883,37.03828430175781,-27.450000762939453,-9.75,-28.05000114440918
0.37,71.40467071533203,19.268535614013672,-27.351360321044922,-15.721285820007324,27.978559494018555,35.972434997558594,-26.400001525878906,-10.200000762939453,-27.30000114440918
0.38,70.90667724609375,19.613300323486328,-28.53888511657715,-12.656967163085938,27.445634841918945,25.04747200012207,-28.500001907348633,-10.350000381469727,-27.900001525878906
0.39,71.8260498046875,20.64759635925293,-28.423961639404297,3.3307809829711914,24.248085021972656,36.372127532958984,-28.500001907348633,-10.350000381469727,-27.900001525878906
0.409,73.16680145263672,20.570980072021484,-24.823083877563477,-4.529861927032471,17.986217498779297,31.842266082763672,-28.05000114440918,-9.15000057220459,-27.150001525878906
0.413,74.77571105957031,20.187908172607422,-24.59324073791504,-7.9938740730285645,6.661561965942383,43.56661605834961,-27.30000114440918,-9.600000381469727,-26.400001525878906
0.42,74.04786682128906,17.1999454498291,-25.857378005981445,-10.392036437988281,1.5987749099731445,60.22052001953125,-28.05000114440918,-10.050000190734863,-27.450000762939453
0.43,72.78372955322266,14.135366439819336,-25.09123420715332,-17.186830520629883,0.5329249501228333,70.87902069091797,-28.200000762939453,-9.75,-28.05000114440918
0.44,73.77971649169922,12.334927558898926,-25.435998916625977,-29.84379768371582,18.2526798248291,59.287899017333984,-28.200000762939453,-9.75,-28.05000114440918
0.45,72.97526550292969,9.27034854888916,-25.857378005981445,-44.09954071044922,13.58958625793457,57.955589294433594,-27.000001907348633,-11.550000190734863,-29.400001525878906
0.46,69.9873046875,9.806650161743164,-26.12552833557129,-51.027565002441406,17.453292846679688,78.07350158691406,-27.900001525878906,-11.40000057220459,-27.750001907348633
0.472,69.29777526855469,10.342951774597168,-25.435998916625977,-78.3399658203125,29.177640914916992,62.75191116333008,-29.250001907348633,-11.100000381469727,-27.150001525878906
0.48,69.71915435791016,12.258312225341797,-26.776752471923828,-75.5421142578125,29.177640914916992,71.81163787841797,-29.250001907348633,-11.850000381469727,-27.450000762939453
0.49,70.17884063720703,13.828908920288086,-26.929981231689453,-63.950992584228516,25.04747200012207,81.67074584960938,-29.250001907348633,-11.850000381469727,-27.450000762939453
0.5,71.63451385498047,16.242263793945312,-26.815059661865234,-52.75957107543945,24.381317138671875,81.13782501220703,-28.05000114440918,-12.750000953674316,-26.100000381469727
0.51,72.05589294433594,17.161638259887695,-29.64979362487793,-37.70444107055664,37.4379768371582,84.33537292480469,-28.80000114440918,-10.350000381469727,-27.900001525878906
0.529,70.6002197265625,17.353174209594727,-30.760704040527344,-27.84532928466797,48.49617004394531,93.12863159179688,-27.900001525878906,-10.950000762939453,-28.500001907348633
0.533,70.25545501708984,15.131354331970215,-29.917943954467773,-5.728943347930908,39.16998291015625,92.59571075439453,-28.05000114440918,-12.300000190734863,-26.400001525878906
0.54,72.4772720336914,13.943830490112305,-26.700138092041016,2.797856092453003,46.897396087646484,94.9938735961914,-28.05000114440918,-12.300000190734863,-26.400001525878906
0.55,73.43495178222656,15.476119995117188,-24.78477668762207,5.728943347930908,48.22970962524414,83.5359878540039,-29.700000762939453,-12.450000762939453,-25.500001907348633
0.56,72.32404327392578,17.046716690063477,-26.508602142333984,19.45176124572754,37.70444107055664,96.19295501708984,-29.400001525878906,-12.450000762939453,-26.250001907348633
0.57,70.79175567626953,14.36521053314209,-28.500577926635742,25.447166442871094,39.83613967895508,89.13169860839844,-29.700000762939453,-13.200000762939453,-27.30000114440918
0.588,68.87639617919922,13.560758590698242,-29.726408004760742,16.65390396118164,45.03215789794922,91.66309356689453,-28.650001525878906,-13.200000762939453,-27.30000114440918
0.593,68.53163146972656,13.599065780639648,-32.13976287841797,25.846860885620117,48.76263427734375,99.12403869628906,-28.650001525878906,-13.200000762939453,-27.30000114440918
0.6,69.45100402832031,17.583017349243164,-34.24666213989258,24.781009674072266,54.22511291503906,92.59571075439453,-28.650001525878906,-13.200000762939453,-27.30000114440918
0.61,67.65056610107422,19.07699966430664,-36.69832229614258,34.24042892456055,58.355281829833984,95.79325866699219,-30.000001907348633,-15.450000762939453,-26.400001525878906
0.62,68.64655303955078,20.034679412841797,-34.85957717895508,37.83767318725586,66.882080078125,83.66921997070312,-30.000001907348633,-14.550000190734863,-24.900001525878906
0.63,69.9489974975586,18.464082717895508,-32.292991638183594,45.69831466674805,55.55742645263672,81.8039779663086,-28.500001907348633,-15.450000762939453,-26.100000381469727
0.65,69.10623931884766,17.238252639770508,-30.79901123046875,60.75344467163086,58.355281829833984,73.9433364868164,-28.80000114440918,-16.5,-24.900001525878906
0.653,67.99533081054688,17.8128604888916,-30.569168090820312,53.42572784423828,55.82388687133789,55.29096221923828,-28.80000114440918,-16.5,-24.900001525878906
0.66,65.42874145507812,19.268535614013672,-30.837318420410156,56.49004364013672,56.356815338134766,59.95405578613281,-29.700000762939453,-16.350000381469727,-24.0
0.67,64.81582641601562,18.88546371459961,-31.450233459472656,53.159263610839844,43.56661605834961,52.75957107543945,-28.80000114440918,-17.400001525878906,-25.650001525878906
0.68,63.436767578125,18.464082717895508,-29.994558334350586,47.430320739746094,48.09647750854492,37.304744720458984,-29.700000762939453,-19.05000114440918,-24.450000762939453
0.69,64.73921203613281,18.88546371459961,-28.73042106628418,57.822357177734375,39.43644714355469,22.915773391723633,-30.30000114440918,-17.700000762939453,-24.900001525878906
0.71,64.77751922607422,20.226215362548828,-29.34333610534668,55.02450180053711,33.70750427246094,12.523736000061035,-30.30000114440918,-17.700000762939453,-24.900001525878906
0.714,65.46704864501953,24.095245361328125,-28.807035446166992,69.4134750366211,4.396630764007568,13.056661605834961,-31.05000114440918,-18.900001525878906,-24.600000381469727
0.72,66.80780792236328,29.496564865112305,-29.419950485229492,54.89126968383789,7.594180583953857,7.594180583953857,-31.200000762939453,-18.30000114440918,-24.450000762939453
0.73,65.73519897460938,29.611486434936523,-30.339323043823242,44.89892578125,5.062787055969238,20.38437843322754,-30.30000114440918,-19.200000762939453,-23.55000114440918
0.74,63.24523162841797,26.776752471923828,-33.44221115112305,51.160797119140625,-5.995405673980713,20.91730499267578,-31.05000114440918,-20.100000381469727,-24.150001525878906
0.75,62.59400939941406,24.13355255126953,-32.905906677246094,39.30321502685547,7.860642910003662,24.11485481262207,-31.05000114440918,-20.100000381469727,-24.150001525878906
0.769,62.63231658935547,25.51261329650879,-34.66804122924805,30.37672233581543,10.92496109008789,33.17457962036133,-29.700000762939453,-19.80000114440918,-24.750001907348633
0.773,64.31783294677734,27.964275360107422,-34.82126998901367,28.378253936767578,14.788667678833008,43.69984436035156,-30.150001525878906,-18.30000114440918,-24.0
0.78,68.7231674194336,31.067161560058594,-36.2003288269043,35.839202880859375,21.716691970825195,40.23583221435547,-30.450000762939453,-19.05000114440918,-22.5
0.79,72.4772720336914,33.40390396118164,-38.07738494873047,31.575803756713867,31.842266082763672,23.848390579223633,-30.30000114440918,-20.400001525878906,-24.150001525878906
0.801,75.50354766845703,33.978511810302734,-40.107666015625,40.76875686645508,24.64777946472168,9.859111785888672,-30.30000114440918,-20.400001525878906,-24.150001525878906
0.81,79.6024169921875,34.66804122924805,-40.18428039550781,45.69831466674805,9.859111785888672,25.447166442871094,-28.950000762939453,-20.55000114440918,-23.700000762939453
0.83,84.04605865478516,36.58340072631836,-37.96246337890625,35.03981399536133,6.9280242919921875,17.852985382080078,-29.55000114440918,-21.600000381469727,-22.80000114440918
0.833,86.88079071044922,40.107666015625,-35.97048568725586,29.444103240966797,-25.846860885620117,17.453292846679688,-30.900001525878906,-21.75,-23.25
0.841,85.76988220214844,39.30321502685547,-36.8132438659668,27.31240463256836,-37.17151641845703,15.45482349395752,-31.950000762939453,-22.5,-24.750001907348633
0.85,86.42110443115234,39.30321502685547,-36.2003288269043,2.131699800491333,-50.4946403503418,6.5283308029174805,-30.450000762939453,-20.55000114440918,-23.700000762939453
0.86,82.55207824707031,35.6257209777832,-39.341522216796875,-21.050535202026367,-50.22817611694336,-8.260336875915527,-30.450000762939453,-20.55000114440918,-23.700000762939453
0.87,78.64473724365234,35.6257209777832,-41.98472213745117,-39.30321502685547,-51.560489654541016,-22.116384506225586,-30.900001525878906,-21.75,-24.750001907348633
0.889,73.47325897216797,34.85957717895508,-42.52102279663086,-34.64012145996094,-54.89126968383789,-27.84532928466797,-29.250001907348633,-21.900001525878906,-25.650001525878906
0.893,68.53163146972656,34.897884368896484,-43.287166595458984,-39.70290756225586,-37.4379768371582,-67.94792938232422,-30.30000114440918,-20.100000381469727,-24.600000381469727
0.9,66.9610366821289,37.96246337890625,-45.164222717285156,-23.581928253173828,-31.709033966064453,-82.47013854980469,-30.30000114440918,-20.100000381469727,-24.900001525878906
0.91,66.4630355834961,41.02703857421875,-43.32547378540039,-6.9280242919921875,-36.771820068359375,-97.25880432128906,-30.30000114440918,-20.100000381469727,-24.900001525878906
0.92,66.23319244384766,40.758888244628906,-41.065345764160156,20.38437843322754,-33.4410400390625,-117.9096450805664,-30.000001907348633,-19.200000762939453,-25.350000381469727
0.93,66.38642120361328,40.49073791503906,-37.88584899902344,28.111791610717773,-33.4410400390625,-142.4241943359375,-29.700000762939453,-20.25,-26.250001907348633
0.949,66.04165649414062,38.99675750732422,-36.88985824584961,35.306278228759766,-46.364471435546875,-167.47166442871094,-30.30000114440918,-18.450000762939453,-24.900001525878906
0.953,65.73519897460938,37.656005859375,-37.694313049316406,55.15773391723633,-64.21745300292969,-179.595703125,-30.450000762939453,-19.05000114440918,-25.80000114440918
0.96,66.80780792236328,34.476505279541016,-35.97048568725586,50.36140823364258,-77.80704498291016,-201.0459442138672,-30.450000762939453,-19.05000114440918,-25.80000114440918
0.97,67.65056610107422,35.702335357666016,-35.817256927490234,46.63093185424805,-87.0,-207.70750427246094,-28.950000762939453,-16.80000114440918,-25.80000114440918
0.98,68.22517395019531,37.77092742919922,-35.05111312866211,33.84073257446289,-100.85604858398438,-207.4410400390625,-30.30000114440918,-16.5,-25.350000381469727
0.99,68.34009552001953,30.569168090820312,-36.27694320678711,12.124042510986328,-94.9938735961914,-221.29708862304688,-29.250001907348633,-15.750000953674316,-25.350000381469727
1.01,67.53564453125,28.155811309814453,-35.702335357666016,-0.7993874549865723,-106.71822357177734,-222.89585876464844,-30.150001525878906,-16.80000114440918,-26.250001907348633
1.013,69.68084716796875,29.611486434936523,-33.71036148071289,-22.915773391723633,-109.51607513427734,-209.4394989013672,-27.450000762939453,-14.100000381469727,-27.30000114440918
1.02,73.28172302246094,31.7183837890625,-32.484527587890625,-35.839202880859375,-99.65696716308594,-214.23582458496094,-27.450000762939453,-14.100000381469727,-27.30000114440918
1.03,74.89063262939453,30.224401473999023,-31.258697509765625,-56.62327575683594,-99.3905029296875,-225.69371032714844,-28.80000114440918,-13.800000190734863,-27.150001525878906
1.04,76.69107055664062,30.99054718017578,-30.0711727142334,-62.75191116333008,-104.85298156738281,-227.29249572753906,-28.80000114440918,-12.750000953674316,-27.900001525878906
1.05,76.537841796875,33.59543991088867,-29.573179244995117,-57.422664642333984,-115.37825012207031,-229.4241943359375,-28.200000762939453,-10.200000762939453,-27.30000114440918
1.07,75.9632339477539,37.617698669433594,-31.29700469970703,-51.160797119140625,-118.04287719726562,-234.35374450683594,-27.000001907348633,-10.050000190734863,-27.900001525878906
1.073,75.42693328857422,37.809234619140625,-32.9442138671875,-40.9019889831543,-120.84072875976562,-224.09494018554688,-27.000001907348633,-6.150000095367432,-28.200000762939453
1.08,75.73339080810547,38.19230651855469,-29.76471519470215,-45.831546783447266,-122.03981018066406,-236.3522186279297,-27.000001907348633,-6.150000095367432,-28.200000762939453
1.09,75.3503189086914,37.42616271972656,-30.14778709411621,-39.70290756225586,-125.63705444335938,-224.76109313964844,-26.250001907348633,-7.650000095367432,-28.650001525878906
1.1,74.89063262939453,34.66804122924805,-29.266721725463867,-56.756507873535156,-123.63858795166016,-219.43185424804688,-26.55000114440918,-8.850000381469727,-29.400001525878906
1.11,72.05589294433594,33.71036148071289,-30.952239990234375,-59.95405578613281,-124.17151641845703,-214.63552856445312,-24.150001525878906,-5.550000190734863,-29.850000381469727
1.13,70.06391906738281,34.66804122924805,-30.760704040527344,-62.75191116333008,-120.4410400390625,-211.5712127685547,-24.150001525878906,-5.550000190734863,-29.850000381469727
1.133,69.18285369873047,34.66804122924805,-31.22039031982422,-69.14701080322266,-99.52373504638672,-218.49923706054688,-22.5,-2.25,-31.200000762939453
1.14,68.7231674194336,33.05913543701172,-30.722396850585938,-71.01225280761719,-85.80091857910156,-228.89126586914062,-22.5,-2.25,-31.200000762939453
1.15,69.64253997802734,34.24666213989258,-30.68408966064453,-50.4946403503418,-89.66461944580078,-223.56201171875,-22.80000114440918,-1.8000000715255737,-31.950000762939453
1.16,69.3743896484375,35.702335357666016,-30.722396850585938,-34.10719680786133,-81.27105712890625,-219.69830322265625,-22.80000114440918,-1.8000000715255737,-31.950000762939453
1.17,69.10623931884766,36.430171966552734,-30.109479904174805,-28.111791610717773,-74.07656860351562,-235.4196014404297,-22.80000114440918,-1.8000000715255737,-31.950000762939453
1.19,68.30178833007812,37.00477981567383,-30.454246520996094,-16.78713607788086,-68.88054656982422,-224.09494018554688,-18.75,1.5,-32.85000228881836
1.193,67.91871643066406,38.843528747558594,-28.883649826049805,1.4655436277389526,-69.81317138671875,-216.90045166015625,-20.55000114440918,1.0500000715255737,-33.45000076293945
1.2,65.77350616455078,38.920143127441406,-31.948226928710938,5.329249382019043,-69.14701080322266,-205.1761016845703,-19.80000114440918,3.0,-32.25
1.21,65.58197021484375,38.728607177734375,-29.803022384643555,26.779478073120117,-72.87748718261719,-196.915771484375,-19.80000114440918,3.0,-32.25
1.22,66.19488525390625,36.2003288269043,-27.006595611572266,50.22817611694336,-82.47013854980469,-185.72434997558594,-19.200000762939453,3.6000001430511475,-31.350000381469727
1.23,63.36015319824219,31.52684783935547,-28.73042106628418,67.814697265625,-78.07350158691406,-178.5298614501953,-18.150001525878906,4.350000381469727,-32.85000228881836
1.25,61.636329650878906,31.373619079589844,-32.063148498535156,71.67840576171875,-69.28024291992188,-176.6646270751953,-16.80000114440918,3.750000238418579,-31.950000762939453
1.254,59.68265914916992,28.768728256225586,-32.52283477783203,81.13782501220703,-57.955589294433594,-168.67074584960938,-15.90000057220459,3.6000001430511475,-33.60000228881836
1.26,56.38823699951172,30.14778709411621,-33.59543991088867,83.26952362060547,-61.28636932373047,-147.75344848632812,-17.700000762939453,2.4000000953674316,-33.30000305175781
1.27,56.311622619628906,27.849353790283203,-33.978511810302734,92.99540710449219,-47.696781158447266,-136.29556274414062,-17.700000762939453,2.4000000953674316,-33.30000305175781
1.28,55.200714111328125,27.657817840576172,-33.7486686706543,82.33690643310547,-28.24502182006836,-129.10107421875,-16.5,4.5,-33.75
1.29,55.43055725097656,25.627534866333008,-31.29700469970703,93.12863159179688,-27.445634841918945,-113.3797836303711,-14.550000190734863,4.5,-33.75
1.309,57.001155853271484,26.776752471923828,-29.15180015563965,75.5421142578125,-16.78713607788086,-87.39968872070312,-15.90000057220459,4.050000190734863,-33.60000228881836
1.313,58.38021469116211,26.508602142333984,-29.266721725463867,74.47626495361328,-24.381317138671875,-53.95865249633789,-14.700000762939453,3.1500000953674316,-34.650001525878906
1.32,59.60604476928711,24.938005447387695,-28.960264205932617,65.81623077392578,-16.920366287231445,-41.035221099853516,-14.700000762939453,3.1500000953674316,-34.650001525878906
1.33,64.24121856689453,23.3291015625,-30.99054718017578,62.75191116333008,-10.92496109008789,-12.390504837036133,-13.950000762939453,4.050000190734863,-33.60000228881836
1.34,66.23319244384766,20.992361068725586,-33.557132720947266,52.093414306640625,-2.531393527984619,10.258805274963379,-16.5,4.200000286102295,-33.75
1.35,66.5013427734375,22.409727096557617,-34.782962799072266,38.63705825805664,16.387441635131836,36.372127532958984,-13.65000057220459,3.6000001430511475,-34.650001525878906
1.37,64.77751922607422,20.724210739135742,-34.66804122924805,31.042879104614258,23.04900360107422,80.20520782470703,-13.950000762939453,3.1500000953674316,-34.35000228881836
1.373,62.70893096923828,20.341136932373047,-33.25067138671875,4.263399600982666,40.36906433105469,81.00459289550781,-13.950000762939453,3.1500000953674316,-34.35000228881836
1.38,59.79758071899414,15.552734375,-35.43418502807617,-7.9938740730285645,47.9632453918457,97.12557220458984,-14.700000762939453,2.8500001430511475,-33.900001525878906
1.39,57.26930618286133,16.089035034179688,-34.85957717895508,-28.24502182006836,55.69065856933594,98.32465362548828,-16.05000114440918,1.0500000715255737,-34.20000076293945
1.4,57.95883560180664,16.433799743652344,-32.484527587890625,-33.17457962036133,50.36140823364258,118.17610931396484,-15.15000057220459,2.8500001430511475,-33.900001525878906
1.41,60.372188568115234,18.54069709777832,-33.94020462036133,-36.372127532958984,47.56355285644531,130.03369140625,-16.650001525878906,2.4000000953674316,-33.60000228881836
1.43,62.249244689941406,23.44402313232422,-33.672054290771484,-41.701377868652344,57.422664642333984,136.4287872314453,-16.650001525878906,2.4000000953674316,-33.60000228881836
1.433,62.90046691894531,25.51261329650879,-35.12772750854492,-21.84992218017578,45.03215789794922,156.94639587402344,-16.5,2.25,-33.75
1.44,60.52541732788086,23.44402313232422,-35.395877838134766,-16.920366287231445,46.09800720214844,161.34303283691406,-17.400001525878906,2.1000001430511475,-32.85000228881836
1.45,62.09601593017578,21.298818588256836,-32.676063537597656,-19.98468589782715,51.560489654541016,150.2848358154297,-16.950000762939453,2.1000001430511475,-32.55000305175781
1.46,62.51739501953125,18.34916114807129,-33.02082824707031,-20.517610549926758,49.96171569824219,149.88514709472656,-16.80000114440918,1.0500000715255737,-33.45000076293945
1.47,60.1806526184082,21.643583297729492,-34.3615837097168,-11.724349021911621,45.298622131347656,178.92955017089844,-16.80000114440918,1.0500000715255737,-33.45000076293945
1.489,60.1423454284668,21.56696891784668,-34.93619155883789,-16.25421142578125,47.830013275146484,167.0719757080078,-16.80000114440918,1.0500000715255737,-33.45000076293945
1.493,58.80159378051758,18.617311477661133,-37.656005859375,-16.920366287231445,53.42572784423828,159.61102294921875,-18.75,-0.75,-33.45000076293945
1.5,60.1806526184082,18.11931800842285,-36.54509353637695,-11.457886695861816,47.830013275146484,163.74119567871094,-18.75,0.0,-33.45000076293945
1.51,61.29156494140625,18.195932388305664,-36.04710006713867,-21.183767318725586,41.035221099853516,164.67381286621094,-18.0,-0.30000001192092896,-32.70000076293945
1.52,63.781532287597656,17.238252639770508,-34.32327651977539,-40.36906433105469,43.03369140625,171.7350616455078,-19.200000762939453,-1.6500000953674316,-32.55000305175781
1.53,65.12228393554688,16.318878173828125,-34.591426849365234,-58.222049713134766,37.17151641845703,172.93414306640625,-19.200000762939453,-1.6500000953674316,-32.55000305175781
1.549,64.73921203613281,16.395492553710938,-33.978511810302734,-79.67227935791016,40.36906433105469,174.9326171875,-20.55000114440918,-1.8000000715255737,-31.200000762939453
1.553,65.62027740478516,16.740259170532227,-31.450233459472656,-101.2557373046875,42.101070404052734,181.8606414794922,-20.25,-1.0500000715255737,-32.70000076293945
1.56,66.80780792236328,15.744270324707031,-32.25468444824219,-110.18223571777344,40.9019889831543,182.12710571289062,-19.950000762939453,-0.9000000357627869,-32.10000228881836
1.57,67.91871643066406,16.433799743652344,-32.905906677246094,-114.17916870117188,27.17917251586914,189.5880584716797,-21.75,-0.30000001192092896,-32.25
1.58,70.83006286621094,18.808849334716797,-35.510799407958984,-123.63858795166016,36.238895416259766,194.38436889648438,-21.75,-0.30000001192092896,-32.25
1.59,73.32003021240234,19.421764373779297,-36.35355758666992,-123.10566711425781,43.56661605834961,181.59417724609375,-19.650001525878906,-0.9000000357627869,-32.55000305175781
1.609,75.50354766845703,20.226215362548828,-36.123714447021484,-107.25114440917969,34.64012145996094,179.19601440429688,-21.30000114440918,-2.700000047683716,-31.500001907348633
1.612,77.95520782470703,20.11129379272461,-36.008792877197266,-107.3843765258789,30.643184661865234,179.4624786376953,-21.30000114440918,-2.700000047683716,-31.500001907348633
1.62,78.83627319335938,22.17988395690918,-37.00477981567383,-102.32159423828125,42.36753463745117,163.4747314453125,-22.05000114440918,-3.0,-29.700000762939453
1.63,78.45320129394531,24.78477668762207,-35.47249221801758,-90.86370086669922,37.03828430175781,158.9448699951172,-22.05000114440918,-3.0,-29.700000762939453
1.64,76.26969146728516,26.891674041748047,-34.897884368896484,-78.87289428710938,34.50688934326172,163.6079559326172,-20.700000762939453,-2.1000001430511475,-30.600000381469727
1.65,73.664794921875,25.89568519592285,-33.51882553100586,-65.81623077392578,38.77029037475586,172.6676788330078,-22.80000114440918,-2.700000047683716,-30.900001525878906
1.67,71.32805633544922,26.585216522216797,-32.676063537597656,-63.950992584228516,37.57120895385742,161.6094970703125,-22.05000114440918,-3.0,-31.500001907348633
1.673,67.53564453125,23.865402221679688,-32.40791320800781,-45.56508255004883,27.31240463256836,166.40582275390625,-22.200000762939453,-3.1500000953674316,-31.350000381469727
1.68,67.26749420166016,23.44402313232422,-32.82929229736328,-41.568145751953125,31.176109313964844,157.612548828125,-22.200000762939453,-3.1500000953674316,-31.350000381469727
1.69,66.5013427734375,22.48634147644043,-31.29700469970703,-37.57120895385742,36.63859176635742,150.151611328125,-22.5,-4.5,-30.450000762939453
1.7,65.39043426513672,21.107282638549805,-32.292991638183594,-23.715160369873047,29.444103240966797,151.35069274902344,-24.0,-4.200000286102295,-30.450000762939453
1.71,65.04566955566406,20.83913230895996,-32.02484130859375,-28.378253936767578,35.57273864746094,147.0872802734375,-23.25,-3.0,-31.200000762939453
1.726,64.66259765625,19.843143463134766,-30.4925537109375,-46.497703552246094,47.830013275146484,152.28330993652344,-23.25,-6.150000095367432,-30.150001525878906
1.73,63.781532287597656,20.685903549194336,-31.067161560058594,-49.02909469604492,53.558956146240234,150.6845245361328,-23.25,-6.150000095367432,-30.150001525878906
1.74,64.35614013671875,21.0689754486084,-31.7183837890625,-47.696781158447266,60.22052001953125,146.9540557861328,-23.25,-6.150000095367432,-30.150001525878906
1.75,64.73921203613281,22.026655197143555,-31.29700469970703,-44.23276901245117,59.68759536743164,163.6079559326172,-24.450000762939453,-6.300000190734863,-29.55000114440918
1.76,65.888427734375,23.673866271972656,-32.790985107421875,-50.09494400024414,69.14701080322266,156.5467071533203,-24.30000114440918,-5.400000095367432,-28.650001525878906
1.77,67.5739517211914,23.060951232910156,-32.63775634765625,-42.36753463745117,78.87289428710938,155.48085021972656,-22.650001525878906,-6.750000476837158,-28.05000114440918
1.789,67.72718048095703,25.550920486450195,-32.790985107421875,-24.381317138671875,84.33537292480469,146.9540557861328,-24.900001525878906,-7.050000190734863,-29.55000114440918
1.793,69.56592559814453,25.742456436157227,-32.369606018066406,-15.854516983032227,90.73047637939453,148.55282592773438,-24.900001525878906,-7.050000190734863,-29.55000114440918
1.8,70.90667724609375,26.929981231689453,-32.063148498535156,-12.25727367401123,89.39816284179688,147.22052001953125,-26.55000114440918,-8.100000381469727,-28.650001525878906
1.81,71.36636352539062,28.73042106628418,-31.143775939941406,8.926492691040039,77.00765228271484,149.61868286132812,-26.55000114440918,-8.850000381469727,-29.400001525878906
1.82,73.51156616210938,27.313053131103516,-31.29700469970703,16.65390396118164,74.47626495361328,147.0872802734375,-27.750001907348633,-9.600000381469727,-28.200000762939453
1.83,73.35833740234375,25.742456436157227,-32.063148498535156,16.12097930908203,79.53904724121094,135.22970581054688,-25.950000762939453,-9.450000762939453,-27.30000114440918
1.842,72.28573608398438,24.631547927856445,-32.13976287841797,19.31852912902832,74.60948944091797,138.96017456054688,-25.950000762939453,-9.450000762939453,-27.30000114440918
1.851,70.06391906738281,22.562957763671875,-32.292991638183594,25.580398559570312,74.34303283691406,139.2266387939453,-27.30000114440918,-8.850000381469727,-27.150001525878906
1.86,67.80379486083984,21.6818904876709,-32.40791320800781,5.995405673980713,80.20520782470703,115.2450180053711,-27.000001907348633,-11.100000381469727,-27.450000762939453
1.87,65.54366302490234,19.153614044189453,-32.599449157714844,0.7993874549865723,82.6033706665039,102.05513000488281,-28.500001907348633,-10.350000381469727,-27.900001525878906
1.88,65.73519897460938,18.34916114807129,-30.91393280029297,-12.390504837036133,78.20673370361328,103.25421142578125,-28.950000762939453,-10.200000762939453,-27.750001907348633
1.89,64.16460418701172,18.272546768188477,-30.37763023376465,-18.385910034179688,84.20214080810547,96.8591079711914,-28.950000762939453,-10.200000762939453,-27.750001907348633
1.903,65.65858459472656,19.115306854248047,-31.948226928710938,-17.719755172729492,78.47319793701172,87.9326171875,-28.80000114440918,-13.050000190734863,-27.900001525878906
1.91,69.22116088867188,21.26051139831543,-31.10546875,-33.70750427246094,79.80551147460938,77.14088439941406,-28.80000114440918,-13.050000190734863,-27.900001525878906
1.92,72.09420013427734,22.103269577026367,-30.032865524291992,-29.177640914916992,62.35221862792969,81.13782501220703,-27.450000762939453,-11.40000057220459,-25.80000114440918
1.93,73.32003021240234,21.911733627319336,-32.484527587890625,-25.447166442871094,57.55589294433594,78.87289428710938,-28.200000762939453,-13.200000762939453,-25.500001907348633
1.94,73.0135726928711,25.052927017211914,-33.365596771240234,-36.63859176635742,62.085758209228516,84.33537292480469,-28.200000762939453,-13.200000762939453,-25.500001907348633
1.958,72.78372955322266,22.984336853027344,-34.284969329833984,-36.10566711425781,62.618682861328125,81.67074584960938,-28.200000762939453,-13.200000762939453,-25.500001907348633
1.963,72.55388641357422,21.490354537963867,-34.62973403930664,-38.50382614135742,63.151607513427734,81.27105712890625,-30.150001525878906,-13.200000762939453,-25.500001907348633
1.97,68.83808898925781,22.141576766967773,-37.19631576538086,-46.764163970947266,74.47626495361328,65.15007781982422,-30.150001525878906,-13.200000762939453,-25.500001907348633
1.98,68.1102523803711,22.17988395690918,-38.49876403808594,-51.960182189941406,75.67534637451172,68.74732208251953,-29.250001907348633,-13.050000190734863,-25.350000381469727
1.99,69.48931121826172,24.13355255126953,-39.72459411621094,-31.975496292114258,75.67534637451172,63.551300048828125,-30.30000114440918,-13.500000953674316,-25.650001525878906
2.0,68.87639617919922,26.278757095336914,-40.83550262451172,-29.977027893066406,84.86830139160156,61.81929397583008,-30.30000114440918,-13.500000953674316,-25.650001525878906
2.019,71.71112823486328,27.121517181396484,-39.07337188720703,-17.453292846679688,80.73812866210938,56.09035110473633,-30.000001907348633,-13.800000190734863,-25.650001525878906
2.023,73.32003021240234,29.76471519470215,-39.57136535644531,0.9326186776161194,78.3399658203125,43.56661605834961,-31.500001907348633,-15.450000762939453,-24.900001525878906
2.03,75.73339080810547,31.90991973876953,-41.60165023803711,22.51607894897461,65.68299865722656,45.831546783447266,-32.400001525878906,-14.100000381469727,-24.450000762939453
2.04,75.54185485839844,35.05111312866211,-42.367794036865234,33.70750427246094,62.35221862792969,46.63093185424805,-32.400001525878906,-14.100000381469727,-24.450000762939453
2.05,75.77169799804688,37.502777099609375,-44.5896110534668,65.68299865722656,62.085758209228516,45.69831466674805,-31.200000762939453,-14.40000057220459,-22.200000762939453
2.06,71.8643569946289,34.70634841918945,-49.37801742553711,101.65543365478516,53.42572784423828,40.9019889831543,-31.650001525878906,-14.100000381469727,-23.700000762939453
2.078,68.60824584960938,33.02082824707031,-49.03324890136719,122.17304229736328,63.28483963012695,25.580398559570312,-31.200000762939453,-16.350000381469727,-22.950000762939453
2.082,67.65056610107422,31.450233459472656,-50.029239654541016,139.09341430664062,67.814697265625,10.92496109008789,-31.500001907348633,-16.200000762939453,-22.05000114440918
2.09,65.39043426513672,28.8453426361084,-46.16020965576172,142.82388305664062,62.8851432800293,18.519142150878906,-31.500001907348633,-16.200000762939453,-22.05000114440918
2.1,67.80379486083984,26.700138092041016,-43.51700973510742,132.56507873535156,65.68299865722656,13.989279747009277,-31.650001525878906,-18.75,-23.25
2.11,70.6002197265625,23.903709411621094,-41.48672866821289,107.78407287597656,62.35221862792969,6.261868000030518,-31.80000114440918,-17.400001525878906,-21.600000381469727
2.12,75.15878295898438,24.210166931152344,-43.74685287475586,92.3292465209961,51.29402542114258,15.987748146057129,-31.650001525878906,-16.80000114440918,-22.200000762939453
2.139,79.48749542236328,26.585216522216797,-46.77312469482422,93.12863159179688,35.306278228759766,16.387441635131836,-31.80000114440918,-16.5,-20.55000114440918
2.143,82.89684295654297,27.619510650634766,-44.704532623291016,78.87289428710938,15.854516983032227,13.856048583984375,-31.80000114440918,-16.5,-20.55000114440918
2.15,86.765869140625,27.619510650634766,-43.55531692504883,60.48698043823242,7.9938740730285645,-2.797856092453003,-31.80000114440918,-16.5,-20.55000114440918
2.16,87.3404769897461,26.163835525512695,-41.48672866821289,55.02450180053711,-19.584991455078125,-1.8652373552322388,-32.55000305175781,-17.700000762939453,-21.600000381469727
2.17,84.54405212402344,24.554933547973633,-40.29920196533203,30.509952545166016,-37.57120895385742,-5.196018218994141,-33.0,-18.450000762939453,-22.05000114440918
2.18,82.20730590820312,21.528661727905273,-39.4947509765625,-12.656967163085938,-38.77029037475586,-25.7136287689209,-31.950000762939453,-18.75,-22.5
2.19,78.4148941040039,17.50640296936035,-38.843528747558594,-36.771820068359375,-59.68759536743164,-35.705970764160156,-33.45000076293945,-16.350000381469727,-21.450000762939453
2.203,77.8019790649414,16.548721313476562,-35.395877838134766,-70.87902069091797,-73.14395141601562,-54.22511291503906,-33.45000076293945,-16.350000381469727,-21.450000762939453
2.21,77.91690063476562,17.085023880004883,-35.77894973754883,-88.59877014160156,-71.01225280761719,-68.08116149902344,-33.150001525878906,-17.100000381469727,-22.200000762939453
2.22,78.49150848388672,16.89348793029785,-34.82126998901367,-93.12863159179688,-83.66921997070312,-96.8591079711914,-30.450000762939453,-17.100000381469727,-23.700000762939453
2.23,78.22335815429688,16.81687355041504,-34.20835494995117,-83.26952362060547,-96.19295501708984,-118.97549438476562,-31.05000114440918,-17.400001525878906,-22.350000381469727
2.24,77.07414245605469,18.272546768188477,-36.928165435791016,-80.8713607788086,-100.72281646728516,-126.7029037475586,-30.900001525878906,-15.90000057220459,-23.700000762939453
2.259,77.84028625488281,21.796812057495117,-29.84132957458496,-86.0673828125,-102.05513000488281,-155.21438598632812,-30.900001525878906,-15.90000057220459,-23.700000762939453
2.263,79.94718170166016,23.597251892089844,-33.17405700683594,-67.94792938232422,-113.51301574707031,-157.0796356201172,-31.05000114440918,-15.000000953674316,-24.900001525878906
2.27,76.42292022705078,28.232425689697266,-29.4582576751709,-54.22511291503906,-116.31086730957031,-160.6768798828125,-29.400001525878906,-13.200000762939453,-25.80000114440918
2.28,75.2737045288086,27.351360321044922,-29.76471519470215,-29.31087303161621,-103.65390014648438,-180.26187133789062,-29.250001907348633,-12.750000953674316,-26.100000381469727
2.29,71.97927856445312,26.2021427154541,-28.577192306518555,3.3307809829711914,-100.9892807006836,-199.44715881347656,-29.55000114440918,-12.300000190734863,-26.100000381469727
2.3,71.7877426147461,27.044902801513672,-26.96828842163086,27.978559494018555,-98.99080657958984,-204.90963745117188,-29.55000114440918,-12.300000190734863,-26.100000381469727
2.32,71.94097137451172,27.27474594116211,-26.01060676574707,64.21745300292969,-112.04747009277344,-205.04287719726562,-28.05000114440918,-11.850000381469727,-27.150001525878906
2.323,73.54987335205078,25.39769172668457,-23.788787841796875,91.52986145019531,-109.915771484375,-217.30015563964844,-28.500001907348633,-10.050000190734863,-26.850000381469727
2.33,75.3503189086914,23.597251892089844,-21.835119247436523,100.45635223388672,-111.781005859375,-219.0321502685547,-28.650001525878906,-10.5,-26.250001907348633
2.34,78.60643005371094,25.014619827270508,-20.83913230895996,112.84685516357422,-131.49923706054688,-202.77793884277344,-28.950000762939453,-9.75,-27.30000114440918
2.35,82.0157699584961,21.75850486755371,-20.41775131225586,90.99693298339844,-132.16539001464844,-200.5130157470703,-28.950000762939453,-9.75,-27.30000114440918
2.36,83.39483642578125,16.855180740356445,-18.77054214477539,71.2787094116211,-135.4961700439453,-193.05206298828125,-28.950000762939453,-9.75,-27.30000114440918
2.379,81.32624053955078,15.85919189453125,-17.12333106994629,60.22052001953125,-141.35833740234375,-193.7182159423828,-25.500001907348633,-7.650000095367432,-29.400001525878906
2.383,80.75163269042969,15.437812805175781,-20.034679412841797,29.044410705566406,-129.6339874267578,-183.45941162109375,-25.05000114440918,-8.40000057220459,-29.400001525878906
2.39,80.90486145019531,12.947842597961426,-11.224017143249512,5.462480545043945,-137.09494018554688,-182.39356994628906,-25.650001525878906,-8.25,-29.55000114440918
2.4,79.44918823242188,11.568782806396484,-15.361198425292969,-5.462480545043945,-140.02603149414062,-191.58651733398438,-24.0,-7.650000095367432,-30.450000762939453
2.41,76.4995346069336,18.272546768188477,-16.510414123535156,-6.5283308029174805,-138.6937255859375,-183.1929473876953,-24.0,-7.650000095367432,-30.450000762939453
2.42,74.39263153076172,19.68991470336914,-16.625335693359375,-17.852985382080078,-130.03369140625,-210.1056671142578,-22.650001525878906,-5.850000381469727,-31.350000381469727
2.44,76.88260650634766,18.4257755279541,-16.1656494140625,-9.72588062286377,-142.82388305664062,-207.84072875976562,-22.80000114440918,-7.650000095367432,-32.25
2.443,79.06611633300781,18.732234954833984,-17.276559829711914,-23.04900360107422,-135.0964813232422,-225.2940216064453,-21.900001525878906,-5.850000381469727,-32.55000305175781
2.45,79.10442352294922,23.405715942382812,-18.4257755279541,-19.584991455078125,-145.75497436523438,-213.8361358642578,-21.75,-5.700000286102295,-33.75
2.46,79.48749542236328,25.39769172668457,-19.306842803955078,-27.31240463256836,-135.22970581054688,-212.77027893066406,-21.75,-5.700000286102295,-33.75
2.47,78.45320129394531,24.823083877563477,-18.04270362854004,-17.186830520629883,-142.4241943359375,-216.2342987060547,-21.30000114440918,-3.750000238418579,-33.75
2.48,77.95520782470703,20.41775131225586,-18.157625198364258,-33.57427215576172,-136.29556274414062,-215.3016815185547,-19.650001525878906,-4.050000190734863,-33.900001525878906
2.5,77.07414245605469,15.629348754882812,-16.81687355041504,-49.16232681274414,-122.9724349975586,-220.6309356689453,-21.0,-3.450000047683716,-34.5
2.504,73.664794921875,15.016432762145996,-20.724210739135742,-44.76569747924805,-124.70443725585938,-236.48544311523438,-19.80000114440918,-2.25,-34.20000076293945
2.51,73.93294525146484,15.284584045410156,-19.421764373779297,-44.49923324584961,-119.5084228515625,-233.42112731933594,-19.80000114440918,-2.25,-34.20000076293945
2.52,73.89463806152344,14.36521053314209,-19.421764373779297,-50.76110076904297,-117.24349212646484,-227.1592559814453,-16.650001525878906,-1.6500000953674316,-34.650001525878906
2.53,75.73339080810547,16.35718536376953,-17.73624610900879,-66.34915924072266,-112.84685516357422,-236.88514709472656,-19.05000114440918,-1.8000000715255737,-34.5
2.54,76.99752807617188,17.774553298950195,-15.591041564941406,-65.15007781982422,-123.50535583496094,-210.50535583496094,-15.15000057220459,0.45000001788139343,-35.85000228881836
2.559,76.42292022705078,18.617311477661133,-15.24627685546875,-72.61102294921875,-124.70443725585938,-207.70750427246094,-15.300000190734863,0.30000001192092896,-37.05000305175781
2.563,76.23138427734375,17.8128604888916,-17.12333106994629,-82.20367431640625,-115.2450180053711,-198.9142303466797,-15.300000190734863,0.30000001192092896,-37.05000305175781
2.57,74.20109558105469,20.64759635925293,-20.226215362548828,-75.14241790771484,-110.98162078857422,-197.0489959716797,-15.300000190734863,0.30000001192092896,-37.05000305175781
2.58,71.8260498046875,19.345149993896484,-19.919757843017578,-66.74884796142578,-111.24808502197266,-177.86370849609375,-15.15000057220459,2.4000000953674316,-35.85000228881836
2.59,69.18285369873047,18.464082717895508,-21.26051139831543,-54.091880798339844,-99.52373504638672,-175.9984588623047,-15.000000953674316,3.450000047683716,-36.30000305175781
2.6,66.69288635253906,17.73624610900879,-21.528661727905273,-47.0306282043457,-90.19754791259766,-175.9984588623047,-14.550000190734863,3.750000238418579,-36.30000305175781
2.619,65.00736236572266,18.157625198364258,-21.75850486755371,-47.830013275146484,-68.74732208251953,-162.94180297851562,-12.450000762939453,2.1000001430511475,-35.400001525878906
2.623,61.559715270996094,18.54069709777832,-22.2948055267334,-34.773353576660156,-58.888206481933594,-163.0750274658203,-12.450000762939453,2.1000001430511475,-35.400001525878906
2.63,57.805606842041016,16.70195198059082,-21.107282638549805,-30.643184661865234,-48.362937927246094,-152.1500701904297,-12.300000190734863,5.400000095367432,-35.25
2.64,56.15839385986328,15.667655944824219,-21.0689754486084,-29.31087303161621,-44.49923324584961,-144.1562042236328,-10.950000762939453,6.300000190734863,-35.400001525878906
2.65,54.74102783203125,14.326903343200684,-21.26051139831543,-18.78560447692871,-45.831546783447266,-134.69677734375,-11.25,4.950000286102295,-34.95000076293945
2.66,52.44259262084961,15.131354331970215,-21.720197677612305,-21.84992218017578,-42.36753463745117,-123.37212371826172,-12.450000762939453,5.550000190734863,-37.650001525878906
2.68,52.97889709472656,17.889474868774414,-21.413740158081055,-20.650842666625977,-38.50382614135742,-114.71209716796875,-12.450000762939453,5.550000190734863,-37.650001525878906
2.683,48.956634521484375,17.391481399536133,-24.401702880859375,-1.3323123455047607,-35.839202880859375,-97.5252685546875,-10.800000190734863,7.650000095367432,-35.55000305175781
2.69,46.619895935058594,17.353174209594727,-24.36339569091797,3.0643184185028076,-36.771820068359375,-89.93108367919922,-10.800000190734863,7.650000095367432,-35.55000305175781
2.7,47.38603973388672,18.23423957824707,-22.7161865234375,1.4655436277389526,-33.17457962036133,-78.3399658203125,-8.25,6.150000095367432,-36.75
2.71,48.57356262207031,18.732234954833984,-24.24847412109375,6.794793128967285,-34.10719680786133,-69.54670715332031,-8.700000762939453,7.800000190734863,-36.150001525878906
2.72,47.34773254394531,17.583017349243164,-26.355371475219727,27.17917251586914,-39.16998291015625,-49.42878723144531,-8.700000762939453,7.800000190734863,-36.150001525878906
2.739,44.05331039428711,17.8128604888916,-26.2021427154541,27.71209716796875,-26.113323211669922,-39.03675079345703,-9.75,6.450000286102295,-36.0
2.742,42.252872467041016,16.28057098388672,-25.244462966918945,36.372127532958984,-11.724349021911621,-31.176109313964844,-7.800000190734863,7.650000095367432,-36.0
2.75,41.41011428833008,14.480132102966309,-23.252487182617188,41.701377868652344,-15.987748146057129,-17.986217498779297,-7.800000190734863,7.650000095367432,-36.0
2.76,39.80120849609375,13.637372970581055,-21.528661727905273,31.44257164001465,-12.390504837036133,-17.053598403930664,-9.90000057220459,5.100000381469727,-36.150001525878906
2.77,37.809234619140625,11.568782806396484,-21.75850486755371,22.915773391723633,-1.1990811824798584,-20.91730499267578,-9.90000057220459,5.100000381469727,-36.150001525878906
2.78,37.502777099609375,14.595053672790527,-23.405715942382812,18.385910034179688,-0.1332312375307083,-11.591117858886719,-9.300000190734863,6.150000095367432,-36.75
2.801,40.107666015625,18.579004287719727,-23.980323791503906,24.51454734802246,-12.124042510986328,10.525267601013184,-7.500000476837158,7.200000286102295,-36.0
2.805,43.13393783569336,17.544710159301758,-27.121517181396484,5.329249382019043,-13.989279747009277,26.779478073120117,-8.700000762939453,7.500000476837158,-37.650001525878906
2.81,45.892059326171875,21.796812057495117,-25.742456436157227,5.595712184906006,-21.45022964477539,51.160797119140625,-8.700000762939453,7.500000476837158,-37.650001525878906
2.82,48.11387634277344,23.673866271972656,-24.13355255126953,-1.1990811824798584,-19.718223571777344,70.87902069091797,-9.15000057220459,6.300000190734863,-36.60000228881836
2.83,46.313438415527344,22.448034286499023,-33.097442626953125,19.85145378112793,-9.992342948913574,93.66156005859375,-9.15000057220459,6.300000190734863,-36.60000228881836
2.84,47.07958221435547,28.960264205932617,-29.76471519470215,21.183767318725586,-0.6661561727523804,101.9218978881836,-10.950000762939453,6.750000476837158,-36.60000228881836
2.86,45.24083709716797,22.026655197143555,-28.692113876342773,31.575803756713867,13.456355094909668,125.37059783935547,-9.300000190734863,5.400000095367432,-37.5
2.863,54.66441345214844,24.746469497680664,-29.305028915405273,39.30321502685547,20.650842666625977,152.54977416992188,-8.550000190734863,5.400000095367432,-36.30000305175781
2.878,60.02742385864258,21.950040817260742,-32.292991638183594,17.986217498779297,57.55589294433594,191.18682861328125,-8.550000190734863,5.400000095367432,-36.30000305175781
2.882,59.83588790893555,22.2948055267334,-35.0128059387207,14.788667678833008,71.14547729492188,175.0658416748047,-10.800000190734863,3.450000047683716,-37.05000305175781
2.89,61.942787170410156,23.290794372558594,-34.74465560913086,14.788667678833008,75.5421142578125,192.11944580078125,-11.25,4.5,-36.0
2.9,66.76950073242188,24.401702880859375,-34.74465560913086,-5.995405673980713,83.93567657470703,210.37213134765625,-10.800000190734863,5.700000286102295,-35.55000305175781
2.91,70.79175567626953,26.700138092041016,-35.77894973754883,-36.10566711425781,83.26952362060547,214.3690643310547,-11.40000057220459,2.4000000953674316,-35.400001525878906
2.928,72.82203674316406,30.952239990234375,-40.682273864746094,-40.76875686645508,91.52986145019531,220.09800720214844,-11.40000057220459,2.4000000953674316,-35.400001525878906
2.932,72.82203674316406,34.782962799072266,-40.64396667480469,-32.108726501464844,71.41194152832031,248.2097930908203,-11.25,3.750000238418579,-35.25
2.94,73.39664459228516,30.952239990234375,-40.18428039550781,-42.76722717285156,66.882080078125,245.545166015625,-13.65000057220459,3.6000001430511475,-35.10000228881836
2.95,75.04386138916016,28.19411849975586,-44.512996673583984,-59.15467071533203,70.21286010742188,253.93873596191406,-14.700000762939453,3.6000001430511475,-35.85000228881836
2.96,82.4754638671875,30.760704040527344,-44.97268295288086,-65.15007781982422,60.08728790283203,277.5206604003906,-14.700000762939453,2.4000000953674316,-35.400001525878906
2.97,96.3809814453125,31.871612548828125,-42.367794036865234,-70.07962799072266,65.15007781982422,286.1806945800781,-14.700000762939453,2.4000000953674316,-35.400001525878906
2.98,108.2179183959961,28.19411849975586,-44.6279182434082,-89.66461944580078,76.4747314453125,280.8514404296875,-14.250000953674316,0.30000001192092896,-34.5
2.995,114.04061889648438,30.032865524291992,-48.650177001953125,-87.53292083740234,101.38896942138672,270.326171875,-16.5,0.30000001192092896,-33.45000076293945
3.0,106.60901641845703,38.49876403808594,-57.15438461303711,-70.47932434082031,94.19448852539062,264.9969177246094,-16.650001525878906,0.45000001788139343,-33.900001525878906
3.01,104.31057739257812,40.64396667480469,-58.45682907104492,-37.97090148925781,113.91270446777344,260.7335205078125,-15.300000190734863,0.30000001192092896,-33.0
3.02,103.5827407836914,44.47468948364258,-61.67463684082031,-5.462480545043945,116.17764282226562,250.87442016601562,-16.80000114440918,1.0500000715255737,-33.45000076293945
3.03,107.87315368652344,46.504974365234375,-56.34992980957031,17.852985382080078,101.38896942138672,253.67227172851562,-16.80000114440918,1.0500000715255737,-33.45000076293945
3.049,110.0566635131836,41.21857833862305,-52.480899810791016,2.6646246910095215,110.18223571777344,245.81163024902344,-17.400001525878906,-1.6500000953674316,-33.30000305175781
3.053,108.10299682617188,38.38384246826172,-53.170433044433594,-9.72588062286377,106.05206298828125,237.41806030273438,-19.05000114440918,-1.0500000715255737,-32.70000076293945
3.06,99.36894989013672,35.66402816772461,-53.13212585449219,-3.197549819946289,95.39356231689453,236.88514709472656,-19.950000762939453,-1.6500000953674316,-33.30000305175781
3.07,94.84869384765625,34.66804122924805,-51.90629196166992,-6.395099639892578,100.85604858398438,222.22970581054688,-21.150001525878906,-3.1500000953674316,-31.05000114440918
3.08,88.79615020751953,33.71036148071289,-50.83369064331055,-7.194486618041992,109.24961853027344,198.6477813720703,-21.150001525878906,-3.1500000953674316,-31.05000114440918
3.09,84.58235931396484,32.905906677246094,-48.765098571777344,2.2649309635162354,111.38131713867188,189.32159423828125,-21.30000114440918,-4.200000286102295,-31.200000762939453
3.109,79.52580261230469,32.292991638183594,-48.68848419189453,12.923430442810059,107.25114440917969,168.27105712890625,-22.200000762939453,-4.050000190734863,-31.80000114440918
3.113,75.08216857910156,30.530860900878906,-47.19450378417969,29.044410705566406,118.97549438476562,134.29708862304688,-21.75,-3.0,-29.700000762939453
3.12,73.0135726928711,28.002582550048828,-45.010990142822266,35.972434997558594,120.97396087646484,131.0995330810547,-22.05000114440918,-4.950000286102295,-30.900001525878906
3.13,69.87238311767578,26.048913955688477,-43.63193130493164,47.297088623046875,121.77335357666016,104.98621368408203,-22.05000114440918,-4.950000286102295,-30.900001525878906
3.141,69.45100402832031,26.278757095336914,-41.21857833862305,54.091880798339844,105.38591003417969,104.05359649658203,-22.950000762939453,-5.850000381469727,-29.250001907348633
3.15,65.888427734375,27.46628189086914,-42.1379508972168,44.89892578125,112.84685516357422,95.66002655029297,-24.0,-7.200000286102295,-30.450000762939453
3.169,62.364166259765625,26.393678665161133,-40.758888244628906,38.63705825805664,116.71056365966797,108.18376159667969,-24.30000114440918,-6.450000286102295,-28.650001525878906
3.173,58.112064361572266,24.44001007080078,-38.613685607910156,36.10566711425781,116.0444107055664,99.25727081298828,-24.750001907348633,-7.200000286102295,-28.950000762939453
3.18,53.553504943847656,22.677879333496094,-37.08139419555664,42.101070404052734,108.58345794677734,110.44869232177734,-24.750001907348633,-7.200000286102295,-28.950000762939453
3.19,52.63412857055664,23.3291015625,-35.93217849731445,37.57120895385742,110.848388671875,104.98621368408203,-26.250001907348633,-7.650000095367432,-28.650001525878906
3.2,51.369991302490234,22.37141990661621,-33.32728576660156,51.4272575378418,102.72128295898438,112.04747009277344,-24.900001525878906,-9.450000762939453,-28.05000114440918
3.21,48.30541229248047,21.720197677612305,-33.02082824707031,59.15467071533203,101.9218978881836,113.77947998046875,-25.950000762939453,-9.450000762939453,-28.80000114440918
3.231,47.922340393066406,21.98834800720215,-34.782962799072266,61.81929397583008,104.7197494506836,101.12251281738281,-26.55000114440918,-10.050000190734863,-27.900001525878906
3.234,48.152183532714844,24.13355255126953,-33.863590240478516,80.33843994140625,102.32159423828125,117.77641296386719,-25.950000762939453,-9.75,-27.30000114440918
3.24,49.03324890136719,23.75048065185547,-36.69832229614258,89.66461944580078,95.39356231689453,113.24655151367188,-25.950000762939453,-9.75,-27.30000114440918
3.25,47.539268493652344,22.83110809326172,-35.395877838134766,94.72740936279297,115.11178588867188,91.52986145019531,-27.000001907348633,-11.550000190734863,-27.150001525878906
3.26,46.42835998535156,20.877439498901367,-36.50678634643555,110.58192443847656,109.11638641357422,85.93415069580078,-28.650001525878906,-11.40000057220459,-25.80000114440918
3.27,45.12591552734375,20.226215362548828,-38.307228088378906,115.91117858886719,103.12097930908203,76.34149932861328,-27.150001525878906,-11.700000762939453,-26.250001907348633
3.289,47.96064758300781,19.07699966430664,-33.7869758605957,116.17764282226562,87.26646423339844,80.33843994140625,-27.000001907348633,-13.800000190734863,-25.350000381469727
3.293,48.037261962890625,16.089035034179688,-33.40390396118164,80.33843994140625,78.60643005371094,72.74425506591797,-27.000001907348633,-13.800000190734863,-25.350000381469727
3.3,46.390052795410156,9.117119789123535,-30.0711727142334,65.15007781982422,68.08116149902344,77.00765228271484,-28.80000114440918,-13.800000190734863,-24.600000381469727
3.31,46.083595275878906,7.163451671600342,-29.879636764526367,17.586523056030273,58.4885139465332,88.73200225830078,-29.55000114440918,-15.450000762939453,-24.600000381469727
3.32,45.432373046875,8.465897560119629,-30.454246520996094,-19.584991455078125,60.08728790283203,85.53445434570312,-30.150001525878906,-14.100000381469727,-24.750001907348633
3.33,47.19450378417969,11.109095573425293,-33.25067138671875,-43.30015182495117,63.418067932128906,84.20214080810547,-28.650001525878906,-15.15000057220459,-23.700000762939453
3.349,48.037261962890625,18.617311477661133,-35.16603469848633,-49.56201934814453,64.21745300292969,83.40275573730469,-28.650001525878906,-15.15000057220459,-23.700000762939453
3.353,48.57356262207031,19.07699966430664,-37.11970138549805,-39.03675079345703,65.81623077392578,84.4686050415039,-29.55000114440918,-14.550000190734863,-23.100000381469727
3.36,49.03324890136719,20.532672882080078,-36.77493667602539,-24.248085021972656,61.01990509033203,75.8085708618164,-30.000001907348633,-16.200000762939453,-24.150001525878906
3.37,49.45463180541992,22.256498336791992,-37.311241149902344,-1.8652373552322388,63.151607513427734,67.814697265625,-31.200000762939453,-14.850000381469727,-22.950000762939453
3.38,50.98691940307617,26.048913955688477,-36.39186477661133,27.445634841918945,48.362937927246094,64.3506851196289,-30.150001525878906,-14.100000381469727,-21.75
3.39,52.902278900146484,27.389667510986328,-35.28095626831055,52.493106842041016,39.70290756225586,65.41653442382812,-30.150001525878906,-14.100000381469727,-21.75
3.5,97.83665466308594,14.36521053314209,-30.952239990234375,7.327718257904053,-50.89433288574219,-12.523736000061035,-31.200000762939453,-18.30000114440918,-21.150001525878906
3.51,95.65314483642578,10.266336441040039,-30.301015853881836,-41.967838287353516,-50.09494400024414,-52.626338958740234,-30.750001907348633,-20.850000381469727,-21.600000381469727
3.529,91.89904022216797,13.369222640991211,-31.41192626953125,-78.3399658203125,-68.74732208251953,-58.888206481933594,-31.200000762939453,-19.5,-20.700000762939453
3.533,90.97966766357422,18.693927764892578,-30.837318420410156,-121.3736572265625,-75.5421142578125,-73.9433364868164,-29.700000762939453,-18.30000114440918,-20.700000762939453
3.54,88.18323516845703,21.950040817260742,-32.71437072753906,-129.36753845214844,-83.26952362060547,-89.7978515625,-29.700000762939453,-18.30000114440918,-20.700000762939453
3.55,88.94937896728516,25.51261329650879,-36.35355758666992,-108.45022583007812,-89.5313949584961,-96.8591079711914,-29.700000762939453,-18.30000114440918,-20.700000762939453
3.56,89.71552276611328,29.879636764526367,-40.375816345214844,-72.74425506591797,-99.12403869628906,-116.17764282226562,-29.400001525878906,-15.90000057220459,-22.5
3.57,92.39703369140625,37.08139419555664,-47.117889404296875,-39.9693717956543,-87.26646423339844,-126.30321502685547,-28.650001525878906,-16.80000114440918,-23.25
3.59,95.95960235595703,41.21857833862305,-47.002967834472656,2.2649309635162354,-78.73966217041016,-130.83306884765625,-30.450000762939453,-17.100000381469727,-22.950000762939453
3.593,98.48788452148438,37.73262023925781,-44.704532623291016,29.177640914916992,-83.80245208740234,-142.4241943359375,-29.400001525878906,-15.600000381469727,-24.0
3.6,102.70167541503906,29.113492965698242,-38.03907775878906,28.911178588867188,-86.20060729980469,-147.22052001953125,-29.400001525878906,-15.600000381469727,-24.0
3.61,104.34888458251953,25.81907081604004,-34.20835494995117,9.326186180114746,-97.7917251586914,-162.27565002441406,-29.400001525878906,-15.15000057220459,-22.5
3.62,104.65534210205078,23.13756561279297,-33.48051834106445,-13.189892768859863,-111.64777374267578,-161.87594604492188,-29.250001907348633,-14.550000190734863,-23.100000381469727
3.63,106.87716674804688,22.60126495361328,-34.24666213989258,-40.36906433105469,-116.44409942626953,-163.34149169921875,-28.200000762939453,-15.600000381469727,-25.200000762939453
3.65,106.60901641845703,25.972299575805664,-36.04710006713867,-74.47626495361328,-116.17764282226562,-174.0,-29.700000762939453,-13.200000762939453,-25.500001907348633
3.653,105.49810028076172,27.542896270751953,-35.16603469848633,-78.07350158691406,-123.37212371826172,-199.18069458007812,-28.05000114440918,-12.750000953674316,-25.650001525878906
3.66,106.11102294921875,34.897884368896484,-34.51481246948242,-71.2787094116211,-133.09800720214844,-191.9862060546875,-28.05000114440918,-12.750000953674316,-25.650001525878906
3.67,104.7319564819336,37.08139419555664,-36.27694320678711,-74.60948944091797,-126.16998291015625,-205.30934143066406,-26.55000114440918,-11.550000190734863,-26.100000381469727
3.68,103.35289764404297,34.55311965942383,-34.82126998901367,-69.01377868652344,-132.29861450195312,-216.36752319335938,-26.250001907348633,-11.100000381469727,-27.450000762939453
3.69,98.18142700195312,29.34333610534668,-32.790985107421875,-68.08116149902344,-141.75804138183594,-225.02755737304688,-27.000001907348633,-10.050000190734863,-24.900001525878906
3.709,92.55026245117188,29.419950485229492,-29.726408004760742,-78.20673370361328,-140.95864868164062,-221.29708862304688,-27.000001907348633,-10.050000190734863,-24.900001525878906
3.712,89.14091491699219,29.879636764526367,-29.76471519470215,-93.12863159179688,-120.70750427246094,-244.4793243408203,-24.150001525878906,-8.700000762939453,-28.500001907348633
3.72,77.53382873535156,27.083209991455078,-33.94020462036133,-94.59417724609375,-113.3797836303711,-248.2097930908203,-24.150001525878906,-8.700000762939453,-28.500001907348633
3.73,72.24742889404297,25.474306106567383,-36.08540725708008,-84.4686050415039,-109.64930725097656,-251.80703735351562,-22.200000762939453,-4.800000190734863,-28.80000114440918
3.74,67.38241577148438,23.367408752441406,-31.948226928710938,-91.52986145019531,-100.45635223388672,-262.99847412109375,-22.200000762939453,-5.850000381469727,-28.80000114440918
3.75,64.27952575683594,21.643583297729492,-31.41192626953125,-102.72128295898438,-89.5313949584961,-277.1209716796875,-22.200000762939453,-5.850000381469727,-28.80000114440918
3.77,64.24121856689453,24.89969825744629,-27.198131561279297,-99.79019927978516,-107.51760864257812,-277.7871398925781,-22.650001525878906,-3.6000001430511475,-29.55000114440918
3.774,61.90447998046875,23.788787841796875,-24.24847412109375,-118.97549438476562,-98.72434997558594,-282.5834655761719,-22.650001525878906,-1.6500000953674316,-29.55000114440918
3.78,58.9548225402832,24.59324073791504,-25.167848587036133,-119.37519073486328,-98.05818939208984,-294.4410400390625,-21.75,-1.5,-30.900001525878906
3.79,57.95883560180664,25.052927017211914,-26.31706428527832,-107.25114440917969,-98.85757446289062,-296.17303466796875,-21.0,-0.30000001192092896,-30.150001525878906
3.8,57.614070892333984,28.768728256225586,-26.700138092041016,-81.13782501220703,-102.8545150756836,-293.5084228515625,-21.0,-0.30000001192092896,-30.150001525878906
3.81,57.0777702331543,31.258697509765625,-26.585216522216797,-43.69984436035156,-99.65696716308594,-306.96478271484375,-18.450000762939453,1.350000023841858,-30.600000381469727
3.829,56.46485137939453,31.10546875,-26.96828842163086,-11.457886695861816,-103.65390014648438,-307.76416015625,-17.400001525878906,2.4000000953674316,-30.600000381469727
3.832,56.235008239746094,27.15982437133789,-24.095245361328125,23.315465927124023,-112.4471664428711,-303.10107421875,-18.75,3.450000047683716,-31.500001907348633
3.84,57.192691802978516,23.290794372558594,-23.9420166015625,33.30780792236328,-107.25114440917969,-294.7074890136719,-16.05000114440918,3.750000238418579,-30.900001525878906
3.85,56.80961608886719,21.605276107788086,-24.286781311035156,35.839202880859375,-101.38896942138672,-298.97088623046875,-16.05000114440918,3.750000238418579,-30.900001525878906
3.86,57.34592056274414,18.54069709777832,-23.63555908203125,35.839202880859375,-97.5252685546875,-289.9111633300781,-14.40000057220459,5.100000381469727,-32.10000228881836
3.87,57.805606842041016,18.54069709777832,-21.183897018432617,27.978559494018555,-104.32006072998047,-268.1944885253906,-14.700000762939453,4.350000381469727,-34.35000228881836
3.89,58.49513626098633,18.34916114807129,-21.0689754486084,3.3307809829711914,-103.25421142578125,-245.81163024902344,-13.950000762939453,4.050000190734863,-32.10000228881836
3.894,58.38021469116211,16.433799743652344,-19.49837875366211,-25.7136287689209,-96.99234008789062,-234.4869842529297,-12.0,4.5,-33.0
3.9,56.04347229003906,15.322891235351562,-18.579004287719727,-29.84379768371582,-97.65850067138672,-207.17457580566406,-12.0,4.5,-33.0
3.91,55.73701477050781,16.66364288330078,-19.460071563720703,-46.764163970947266,-102.8545150756836,-194.91729736328125,-10.050000190734863,6.450000286102295,-32.25
3.92,53.93657684326172,14.748282432556152,-18.693927764892578,-61.81929397583008,-93.66156005859375,-187.98927307128906,-9.90000057220459,5.850000381469727,-32.85000228881836
3.93,51.59983444213867,14.863204002380371,-18.808849334716797,-60.62021255493164,-98.99080657958984,-173.86676025390625,-9.300000190734863,9.600000381469727,-33.0
3.949,49.56955337524414,18.4257755279541,-18.77054214477539,-59.95405578613281,-96.8591079711914,-161.87594604492188,-9.450000762939453,8.700000762939453,-33.30000305175781
3.953,50.41231155395508,22.524648666381836,-21.56696891784668,-56.889739990234375,-88.46553802490234,-146.28790283203125,-7.950000286102295,9.75,-34.35000228881836
3.96,49.14817428588867,21.528661727905273,-21.87342643737793,-48.362937927246094,-98.72434997558594,-140.42572021484375,-7.950000286102295,9.75,-34.35000228881836
3.97,48.4969482421875,20.877439498901367,-21.643583297729492,-36.10566711425781,-98.05818939208984,-123.9050521850586,-7.650000095367432,10.5,-33.60000228881836
3.98,49.26309585571289,20.992361068725586,-20.992361068725586,-41.035221099853516,-98.59111785888672,-92.72894287109375,-6.900000095367432,9.75,-33.60000228881836
3.99,48.30541229248047,21.45204734802246,-21.0689754486084,-54.4915771484375,-87.53292083740234,-92.46247863769531,-7.050000190734863,8.850000381469727,-32.70000076293945
4.01,47.04127502441406,22.754493713378906,-23.9420166015625,-47.696781158447266,-74.74272155761719,-72.34455871582031,-5.25,10.350000381469727,-32.25
4.013,45.394065856933594,22.639572143554688,-22.37141990661621,-57.55589294433594,-45.16539001464844,-49.82848358154297,-5.25,10.350000381469727,-32.25
4.02,44.0150032043457,22.524648666381836,-21.605276107788086,-59.68759536743164,-41.568145751953125,-47.56355285644531,-4.950000286102295,10.5,-33.30000305175781
4.03,44.398075103759766,22.524648666381836,-23.3291015625,-47.163856506347656,-37.83767318725586,-39.43644714355469,-4.200000286102295,11.700000762939453,-33.900001525878906
4.04,43.63193130493164,24.401702880859375,-26.31706428527832,-27.84532928466797,-34.906585693359375,-30.776416778564453,-4.5,11.100000381469727,-33.0
4.05,44.24484634399414,28.347347259521484,-26.355371475219727,-16.520673751831055,-40.36906433105469,-20.784072875976562,-4.5,10.800000190734863,-32.25
4.07,48.42033386230469,33.25067138671875,-31.10546875,-8.260336875915527,-29.044410705566406,-3.4640121459960938,-4.5,10.800000190734863,-32.25
4.073,52.13613510131836,34.13174057006836,-33.097442626953125,14.522205352783203,-29.444103240966797,31.575803756713867,-3.9000000953674316,10.5,-31.80000114440918
4.08,56.19670104980469,32.063148498535156,-34.170047760009766,22.649311065673828,-25.18070411682129,47.163856506347656,-3.9000000953674316,11.40000057220459,-33.900001525878906
4.09,56.541465759277344,31.90991973876953,-35.0128059387207,26.246553421020508,1.3323123455047607,52.89280319213867,-3.9000000953674316,9.75,-32.85000228881836
4.1,57.920528411865234,31.258697509765625,-36.008792877197266,39.16998291015625,9.459418296813965,68.4808578491211,-3.9000000953674316,10.950000762939453,-33.30000305175781
4.11,55.200714111328125,30.032865524291992,-36.2386360168457,45.69831466674805,16.12097930908203,75.94180297851562,-3.9000000953674316,10.950000762939453,-33.30000305175781
4.129,54.05149841308594,30.760704040527344,-37.617698669433594,41.168453216552734,25.7136287689209,88.46553802490234,-3.3000001907348633,10.350000381469727,-34.95000076293945
4.133,58.839900970458984,29.53487205505371,-41.946414947509766,30.24349021911621,33.84073257446289,102.98774719238281,-4.050000190734863,8.850000381469727,-33.45000076293945
4.14,58.26529312133789,28.347347259521484,-40.60565948486328,15.321592330932617,47.830013275146484,106.4517593383789,-4.650000095367432,9.450000762939453,-32.55000305175781
4.15,61.40648651123047,27.964275360107422,-38.49876403808594,-3.597243309020996,38.37059783935547,139.2266387939453,-3.9000000953674316,9.450000762939453,-32.55000305175781
4.16,65.62027740478516,29.84132957458496,-36.39186477661133,-26.912710189819336,41.83460998535156,151.084228515625,-3.9000000953674316,9.450000762939453,-32.55000305175781
4.17,67.5739517211914,35.47249221801758,-38.38384246826172,-39.43644714355469,39.43644714355469,181.8606414794922,-3.9000000953674316,9.450000762939453,-32.55000305175781
4.19,67.07595825195312,33.863590240478516,-40.145973205566406,-36.238895416259766,43.30015182495117,201.17916870117188,-5.400000095367432,10.200000762939453,-32.85000228881836
4.193,65.08397674560547,33.288978576660156,-44.6279182434082,-53.026031494140625,71.14547729492188,219.16539001464844,-5.25,8.100000381469727,-33.0
4.2,69.68084716796875,36.58340072631836,-46.42835998535156,-51.027565002441406,81.13782501220703,222.76263427734375,-6.150000095367432,7.500000476837158,-32.55000305175781
4.21,71.7877426147461,39.37982940673828,-45.81544494628906,-28.911178588867188,88.59877014160156,252.07350158691406,-6.300000190734863,9.15000057220459,-32.70000076293945
4.22,77.38059997558594,37.96246337890625,-48.07556915283203,-9.859111785888672,96.05972290039062,257.4027404785156,-6.300000190734863,9.15000057220459,-32.70000076293945
4.23,83.6629867553711,37.617698669433594,-49.9526252746582,-6.261868000030518,108.84992218017578,256.6033630371094,-8.550000190734863,8.100000381469727,-31.950000762939453
4.249,90.44336700439453,38.15399932861328,-48.458641052246094,-2.398162364959717,107.65084075927734,264.3307800292969,-8.25,7.200000286102295,-31.950000762939453
4.253,97.26204681396484,35.31926345825195,-45.777137756347656,-6.261868000030518,97.92495727539062,298.30474853515625,-8.25,7.200000286102295,-31.950000762939453
4.26,97.18543243408203,37.043087005615234,-47.07958221435547,-15.45482349395752,98.19142150878906,294.174560546875,-11.25,6.450000286102295,-30.900001525878906
4.27,97.30035400390625,37.73262023925781,-46.23682403564453,-43.56661605834961,105.5191421508789,300.5696716308594,-11.25,6.450000286102295,-30.900001525878906
4.28,94.42731475830078,39.87782287597656,-47.04127502441406,-51.693721771240234,105.11944580078125,311.62786865234375,-10.800000190734863,4.200000286102295,-29.700000762939453
4.29,88.33646392822266,36.50678634643555,-46.696510314941406,-62.75191116333008,112.98008728027344,311.8943176269531,-12.15000057220459,5.550000190734863,-29.55000114440918
4.303,82.89684295654297,34.43819808959961,-48.26710510253906,-75.00918579101562,132.9647674560547,314.1592712402344,-12.750000953674316,4.200000286102295,-29.700000762939453
4.31,77.8019790649414,36.008792877197266,-46.27513122558594,-65.15007781982422,143.75650024414062,311.36138916015625,-15.300000190734863,3.750000238418579,-30.450000762939453
4.32,76.92091369628906,39.18829345703125,-46.811431884765625,-29.044410705566406,150.81776428222656,294.7074890136719,-15.300000190734863,3.750000238418579,-30.450000762939453
4.33,73.16680145263672,40.95042419433594,-43.86177444458008,21.716691970825195,148.8192901611328,290.0444030761719,-15.15000057220459,2.8500001430511475,-28.05000114440918
4.34,70.0256118774414,42.061336517333984,-43.74685287475586,56.889739990234375,164.27410888671875,262.3323059082031,-16.05000114440918,3.0,-29.400001525878906
4.35,66.61626434326172,39.839515686035156,-43.287166595458984,110.98162078857422,159.3445587158203,253.2725830078125,-17.700000762939453,1.350000023841858,-29.250001907348633
4.368,66.65457153320312,38.99675750732422,-43.09563064575195,173.73353576660156,149.61868286132812,237.95098876953125,-19.05000114440918,0.75,-27.450000762939453
4.372,69.18285369873047,33.13574981689453,-36.77493667602539,176.13169860839844,154.14854431152344,222.09646606445312,-19.05000114440918,0.75,-27.450000762939453
4.38,68.761474609375,30.37763023376465,-35.5874137878418,174.9326171875,146.28790283203125,225.69371032714844,-19.05000114440918,0.75,-27.450000762939453
4.39,68.26348114013672,27.734432220458984,-34.74465560913086,167.47166442871094,140.29249572753906,229.0244903564453,-19.650001525878906,-2.4000000953674316,-27.000001907348633
4.4,67.22918701171875,24.44001007080078,-33.863590240478516,142.15773010253906,144.55589294433594,226.7595672607422,-21.30000114440918,-1.8000000715255737,-26.850000381469727
4.41,63.36015319824219,22.60126495361328,-35.24264907836914,116.0444107055664,149.21897888183594,214.50228881835938,-21.75,-3.750000238418579,-26.400001525878906
4.422,59.146358489990234,20.149600982666016,-34.05512619018555,84.73506927490234,152.016845703125,206.1087188720703,-21.75,-4.200000286102295,-26.400001525878906
4.43,55.96685791015625,19.80483627319336,-33.90189743041992,81.13782501220703,145.2220458984375,205.5758056640625,-21.75,-4.200000286102295,-26.400001525878906
4.44,52.4042854309082,21.45204734802246,-36.008792877197266,61.01990509033203,152.28330993652344,195.1837615966797,-21.450000762939453,-6.300000190734863,-25.200000762939453
4.45,51.29337692260742,24.286781311035156,-35.16603469848633,60.88667678833008,149.08575439453125,186.3905029296875,-22.950000762939453,-8.700000762939453,-23.700000762939453
4.46,50.91030502319336,24.05693817138672,-30.875625610351562,61.28636932373047,135.36293029785156,195.84991455078125,-21.75,-7.650000095367432,-24.150001525878906
4.47,51.94459915161133,20.072986602783203,-28.347347259521484,61.552833557128906,132.0321502685547,173.33384704589844,-25.05000114440918,-8.850000381469727,-24.600000381469727
4.486,49.87601089477539,19.80483627319336,-27.88766098022461,55.95711898803711,117.50994873046875,156.28024291992188,-25.05000114440918,-9.600000381469727,-23.100000381469727
4.49,52.63412857055664,24.938005447387695,-30.91393280029297,55.15773391723633,119.24195861816406,158.4119415283203,-25.05000114440918,-9.600000381469727,-23.100000381469727
4.5,51.676448822021484,25.933992385864258,-30.760704040527344,63.018375396728516,109.915771484375,150.151611328125,-24.900001525878906,-9.75,-23.700000762939453
4.51,50.87199783325195,25.972299575805664,-34.55311965942383,74.60948944091797,120.30780792236328,128.83460998535156,-26.55000114440918,-10.800000190734863,-21.600000381469727
4.52,45.54729461669922,24.516624450683594,-38.46045684814453,88.59877014160156,121.10719299316406,120.70750427246094,-24.900001525878906,-10.950000762939453,-22.5
4.539,44.16823196411133,25.244462966918945,-36.69832229614258,104.45329284667969,113.3797836303711,117.9096450805664,-24.900001525878906,-10.950000762939453,-22.5
4.543,45.585601806640625,22.409727096557617,-32.369606018066406,90.99693298339844,104.85298156738281,106.4517593383789,-28.200000762939453,-14.850000381469727,-20.700000762939453
4.55,45.010990142822266,19.153614044189453,-29.53487205505371,72.87748718261719,106.4517593383789,97.5252685546875,-28.200000762939453,-14.850000381469727,-20.700000762939453
4.56,44.091617584228516,18.310853958129883,-29.84132957458496,66.48238372802734,98.59111785888672,92.86217498779297,-25.950000762939453,-14.100000381469727,-22.200000762939453
4.571,44.89606857299805,22.409727096557617,-33.672054290771484,58.4885139465332,93.12863159179688,98.4578857421875,-27.000001907348633,-14.250000953674316,-20.850000381469727
4.58,48.38202667236328,26.929981231689453,-35.54910659790039,63.551300048828125,91.3966293334961,92.3292465209961,-27.000001907348633,-14.250000953674316,-20.850000381469727
4.59,53.208740234375,29.03687858581543,-37.924156188964844,73.9433364868164,88.99846649169922,73.0107192993164,-27.30000114440918,-15.000000953674316,-19.5
4.603,56.733001708984375,29.573179244995117,-42.09964370727539,120.97396087646484,68.4808578491211,60.48698043823242,-27.30000114440918,-16.5,-18.75
4.61,65.39043426513672,33.25067138671875,-43.785160064697266,129.36753845214844,64.61714935302734,58.4885139465332,-27.30000114440918,-16.5,-18.30000114440918
4.62,70.48529815673828,34.51481246948242,-41.5250358581543,140.29249572753906,47.830013275146484,69.54670715332031,-27.150001525878906,-17.100000381469727,-18.150001525878906
4.63,71.67282104492188,32.484527587890625,-38.80522155761719,144.55589294433594,24.11485481262207,72.21133422851562,-27.150001525878906,-17.100000381469727,-18.150001525878906
4.64,74.2777099609375,26.891674041748047,-39.149986267089844,132.16539001464844,12.523736000061035,80.33843994140625,-26.55000114440918,-16.950000762939453,-17.25
4.658,76.11646270751953,21.56696891784668,-38.99675750732422,110.04900360107422,9.992342948913574,63.018375396728516,-28.200000762939453,-19.5,-15.90000057220459
4.662,78.45320129394531,21.796812057495117,-43.09563064575195,94.0612564086914,7.72741174697876,61.41960144042969,-28.650001525878906,-17.850000381469727,-18.150001525878906
4.67,86.49771881103516,27.427974700927734,-45.62390899658203,87.53292083740234,9.859111785888672,56.22358322143555,-27.000001907348633,-18.450000762939453,-17.25
4.68,93.2780990600586,26.585216522216797,-44.66622543334961,71.14547729492188,3.86370587348938,43.96630859375,-27.000001907348633,-18.450000762939453,-17.25
4.69,98.71772766113281,26.393678665161133,-40.64396667480469,57.55589294433594,-6.794793128967285,35.17304611206055,-28.05000114440918,-18.450000762939453,-18.30000114440918
4.7,103.62104797363281,26.048913955688477,-37.11970138549805,38.10413360595703,-26.912710189819336,21.45022964477539,-28.80000114440918,-19.650001525878906,-16.5
4.719,106.03440856933594,23.3291015625,-31.641769409179688,21.84992218017578,-56.889739990234375,-5.8621745109558105,-28.200000762939453,-19.80000114440918,-17.400001525878906
4.723,105.68963623046875,19.000385284423828,-31.067161560058594,-12.923430442810059,-80.8713607788086,-47.56355285644531,-27.450000762939453,-19.5,-17.100000381469727
4.73,99.75202178955078,18.962078094482422,-32.063148498535156,-28.911178588867188,-84.33537292480469,-66.74884796142578,-27.450000762939453,-19.5,-17.100000381469727
4.74,96.26605987548828,18.655620574951172,-31.60346221923828,-30.37672233581543,-112.58039855957031,-88.06584930419922,-28.650001525878906,-19.05000114440918,-18.450000762939453
4.75,95.57653045654297,20.532672882080078,-32.790985107421875,-46.63093185424805,-121.64012145996094,-124.8376693725586,-26.400001525878906,-17.850000381469727,-18.450000762939453
4.76,94.35070037841797,20.76251792907715,-35.77894973754883,-45.96477508544922,-127.36906433105469,-142.95712280273438,-28.05000114440918,-16.5,-18.75
4.778,93.20148468017578,20.41775131225586,-39.762901306152344,-37.4379768371582,-144.42266845703125,-155.48085021972656,-27.750001907348633,-17.700000762939453,-19.80000114440918
4.782,96.26605987548828,21.75850486755371,-38.99675750732422,-48.62940216064453,-140.42572021484375,-177.06431579589844,-27.750001907348633,-17.700000762939453,-19.80000114440918
4.79,102.3569107055664,22.17988395690918,-38.57537841796875,-57.02296829223633,-140.95864868164062,-184.6584930419922,-25.200000762939453,-15.600000381469727,-19.950000762939453
4.8,106.64732360839844,23.980323791503906,-36.08540725708008,-61.15313720703125,-151.084228515625,-185.5911102294922,-24.450000762939453,-16.350000381469727,-20.700000762939453
4.81,110.55465698242188,24.018630981445312,-33.51882553100586,-73.27718353271484,-162.6753387451172,-184.39202880859375,-25.80000114440918,-15.450000762939453,-21.30000114440918
4.82,111.47402954101562,24.36339569091797,-30.91393280029297,-87.53292083740234,-163.0750274658203,-192.65237426757812,-24.150001525878906,-14.40000057220459,-22.200000762939453
4.839,109.86512756347656,25.09123420715332,-29.688100814819336,-88.46553802490234,-178.79632568359375,-187.05665588378906,-24.150001525878906,-12.90000057220459,-20.700000762939453
4.843,105.80455780029297,26.96828842163086,-32.369606018066406,-84.73506927490234,-176.7978515625,-191.71975708007812,-24.150001525878906,-12.90000057220459,-20.700000762939453
4.85,100.4415512084961,26.623523712158203,-31.60346221923828,-88.99846649169922,-172.134765625,-192.91883850097656,-24.30000114440918,-11.550000190734863,-23.55000114440918
4.86,96.72574615478516,24.89969825744629,-33.288978576660156,-97.12557220458984,-161.6094970703125,-203.17764282226562,-24.450000762939453,-10.200000762939453,-23.700000762939453
4.87,93.9676284790039,23.980323791503906,-30.569168090820312,-85.26799011230469,-161.47625732421875,-199.18069458007812,-22.650001525878906,-11.700000762939453,-24.0
4.88,94.35070037841797,23.788787841796875,-29.688100814819336,-103.65390014648438,-158.67840576171875,-206.37518310546875,-24.0,-8.40000057220459,-25.650001525878906
4.899,94.69546508789062,24.554933547973633,-28.309040069580078,-105.38591003417969,-164.4073486328125,-209.57273864746094,-24.0,-8.40000057220459,-25.650001525878906
4.904,93.23979187011719,24.9763126373291,-27.006595611572266,-134.43031311035156,-157.21286010742188,-213.16998291015625,-21.30000114440918,-8.100000381469727,-24.900001525878906
4.91,89.67721557617188,26.891674041748047,-26.508602142333984,-134.03062438964844,-164.27410888671875,-199.713623046875,-20.25,-7.650000095367432,-25.350000381469727
4.92,87.03401947021484,26.85336685180664,-27.236438751220703,-130.03369140625,-166.40582275390625,-205.5758056640625,-20.700000762939453,-7.800000190734863,-24.750001907348633
4.93,83.1266860961914,26.278757095336914,-28.155811309814453,-140.42572021484375,-152.54977416992188,-220.49769592285156,-18.30000114440918,-5.700000286102295,-26.100000381469727
4.94,77.61044311523438,25.321077346801758,-26.240449905395508,-125.90351867675781,-153.21592712402344,-229.4241943359375,-18.30000114440918,-5.700000286102295,-26.100000381469727
4.96,72.20912170410156,26.66183090209961,-23.673866271972656,-124.8376693725586,-151.6171417236328,-232.2220458984375,-18.900001525878906,-4.050000190734863,-25.80000114440918
4.963,68.56993865966797,27.351360321044922,-26.278757095336914,-121.3736572265625,-137.62786865234375,-250.0750274658203,-18.900001525878906,-2.8500001430511475,-27.750001907348633
4.97,62.670623779296875,27.389667510986328,-28.577192306518555,-104.5865249633789,-139.09341430664062,-248.47625732421875,-16.650001525878906,-2.1000001430511475,-28.05000114440918
4.98,62.44078063964844,26.815059661865234,-26.54690933227539,-101.78866577148438,-131.7657012939453,-262.06585693359375,-15.90000057220459,-1.6500000953674316,-26.55000114440918
4.99,62.364166259765625,25.167848587036133,-23.290794372558594,-91.52986145019531,-140.42572021484375,-276.98773193359375,-15.90000057220459,-1.6500000953674316,-26.55000114440918
5.0,62.670623779296875,23.903709411621094,-22.984336853027344,-90.86370086669922,-130.96630859375,-272.19140625,-16.650001525878906,-1.350000023841858,-29.250001907348633
5.019,61.06172180175781,24.823083877563477,-20.724210739135742,-84.86830139160156,-133.09800720214844,-275.6554260253906,-14.250000953674316,1.0500000715255737,-28.950000762939453
5.023,60.1423454284668,22.984336853027344,-20.83913230895996,-67.5482406616211,-138.96017456054688,-274.9892883300781,-15.15000057220459,0.9000000357627869,-27.30000114440918
5.03,57.57576370239258,24.9763126373291,-21.720197677612305,-72.0781021118164,-133.76416015625,-281.91729736328125,-14.700000762939453,2.1000001430511475,-28.500001907348633
5.04,55.622093200683594,25.321077346801758,-22.869415283203125,-59.287899017333984,-127.23583221435547,-277.92034912109375,-13.050000190734863,4.950000286102295,-28.650001525878906
5.05,54.702720642089844,25.359384536743164,-24.018630981445312,-40.9019889831543,-130.30015563964844,-270.5926513671875,-13.050000190734863,4.950000286102295,-28.650001525878906
5.06,51.21676254272461,22.83110809326172,-25.129541397094727,-35.57273864746094,-119.10872650146484,-276.5880432128906,-12.90000057220459,4.800000190734863,-28.05000114440918
5.079,50.79538345336914,20.034679412841797,-23.175872802734375,-30.24349021911621,-116.84379577636719,-280.05206298828125,-11.550000190734863,4.200000286102295,-29.400001525878906
5.083,48.88002014160156,20.456058502197266,-21.605276107788086,-30.509952545166016,-116.31086730957031,-263.5314025878906,-10.200000762939453,5.100000381469727,-30.30000114440918
5.09,47.730804443359375,20.149600982666016,-20.41775131225586,-32.5084228515625,-112.18070220947266,-259.5344543457031,-8.700000762939453,6.300000190734863,-29.850000381469727
5.1,47.539268493652344,20.877439498901367,-20.724210739135742,-40.76875686645508,-95.52679443359375,-249.94180297851562,-8.700000762939453,6.300000190734863,-29.850000381469727
5.11,47.46265411376953,19.460071563720703,-22.06496238708496,-35.57273864746094,-101.2557373046875,-233.0214385986328,-7.800000190734863,6.900000095367432,-28.950000762939453
5.12,47.04127502441406,19.49837875366211,-23.788787841796875,-34.24042892456055,-95.39356231689453,-217.5666046142578,-7.500000476837158,6.900000095367432,-31.200000762939453
5.139,49.109867095947266,23.980323791503906,-22.256498336791992,-35.972434997558594,-88.99846649169922,-210.37213134765625,-7.950000286102295,8.700000762939453,-29.850000381469727
5.143,52.44259262084961,23.865402221679688,-20.685903549194336,-24.64777946472168,-82.20367431640625,-195.050537109375,-4.650000095367432,8.25,-30.30000114440918
5.15,51.21676254272461,25.39769172668457,-21.107282638549805,-15.588054656982422,-86.86676788330078,-181.8606414794922,-4.650000095367432,8.25,-30.30000114440918
5.16,49.3397102355957,26.623523712158203,-23.367408752441406,0.5329249501228333,-95.66002655029297,-163.87442016601562,-4.950000286102295,9.0,-29.850000381469727
5.17,44.74283981323242,24.286781311035156,-25.70414924621582,8.39356803894043,-80.60489654541016,-175.46554565429688,-4.650000095367432,8.25,-29.55000114440918
5.18,38.728607177734375,21.413740158081055,-25.70414924621582,22.915773391723633,-81.40428924560547,-165.4731903076172,-3.750000238418579,8.850000381469727,-29.400001525878906
5.2,38.38384246826172,20.341136932373047,-23.712173461914062,39.70290756225586,-91.13016510009766,-139.6263427734375,-4.5,8.40000057220459,-29.700000762939453
5.204,40.758888244628906,21.030668258666992,-22.7161865234375,42.101070404052734,-88.33231353759766,-120.4410400390625,-2.700000047683716,8.25,-29.850000381469727
5.21,47.46265411376953,21.337125778198242,-25.627534866333008,36.63859176635742,-75.27565002441406,-114.84532928466797,-2.700000047683716,8.25,-29.850000381469727
5.22,49.03324890136719,24.401702880859375,-28.92195701599121,42.101070404052734,-65.68299865722656,-80.8713607788086,-0.9000000357627869,10.200000762939453,-30.600000381469727
5.23,52.05952072143555,24.938005447387695,-30.837318420410156,43.16691970825195,-50.09494400024414,-68.4808578491211,-0.30000001192092896,9.600000381469727,-30.450000762939453
5.24,57.920528411865234,24.9763126373291,-30.760704040527344,34.24042892456055,-30.110260009765625,-38.37059783935547,-1.9500000476837158,10.200000762939453,-29.250001907348633
5.261,62.90046691894531,25.81907081604004,-33.17405700683594,20.650842666625977,-8.660030364990234,-13.456355094909668,0.75,10.050000190734863,-30.150001525878906
5.264,64.20291137695312,28.423961639404297,-36.54509353637695,25.447166442871094,9.592649459838867,21.45022964477539,-1.2000000476837158,9.0,-31.05000114440918
5.27,55.35394287109375,26.929981231689453,-39.456443786621094,20.517610549926758,29.31087303161621,20.517610549926758,-1.2000000476837158,9.0,-31.05000114440918
5.28,50.642154693603516,27.236438751220703,-39.68628692626953,27.445634841918945,31.709033966064453,28.644716262817383,-1.0500000715255737,8.850000381469727,-31.200000762939453
5.29,46.198516845703125,24.89969825744629,-36.2386360168457,25.580398559570312,44.09954071044922,55.4241943359375,-0.30000001192092896,8.100000381469727,-31.200000762939453
5.3,42.7508659362793,21.528661727905273,-36.66001510620117,18.119447708129883,51.4272575378418,66.21592712402344,-2.4000000953674316,9.0,-30.600000381469727
5.319,41.10365295410156,21.37543296813965,-33.13574981689453,18.652372360229492,55.4241943359375,74.34303283691406,-2.4000000953674316,9.0,-30.600000381469727
5.322,44.35976791381836,22.409727096557617,-39.68628692626953,27.445634841918945,51.82695007324219,102.72128295898438,-1.8000000715255737,7.650000095367432,-29.700000762939453
5.33,54.166419982910156,28.19411849975586,-47.2711181640625,35.839202880859375,62.75191116333008,115.2450180053711,-1.8000000715255737,7.650000095367432,-29.700000762939453
5.34,61.40648651123047,30.530860900878906,-48.956634521484375,38.10413360595703,78.3399658203125,136.4287872314453,-2.4000000953674316,7.800000190734863,-29.850000381469727
5.35,75.54185485839844,30.569168090820312,-49.416324615478516,42.500762939453125,88.33231353759766,176.7978515625,-3.3000001907348633,7.650000095367432,-29.700000762939453
5.36,85.31019592285156,33.365596771240234,-52.902278900146484,38.90352249145508,90.73047637939453,209.83920288085938,-3.3000001907348633,7.650000095367432,-29.700000762939453
5.381,85.38681030273438,33.02082824707031,-53.59181213378906,44.89892578125,97.92495727539062,231.4226531982422,-3.450000047683716,5.850000381469727,-29.850000381469727
5.385,79.41088104248047,29.266721725463867,-53.668426513671875,31.975496292114258,113.51301574707031,259.4012145996094,-4.200000286102295,6.300000190734863,-30.30000114440918
5.39,77.7253646850586,27.236438751220703,-53.247047424316406,26.513015747070312,120.4410400390625,274.5895690917969,-4.200000286102295,6.300000190734863,-30.30000114440918
5.4,81.63269805908203,26.815059661865234,-53.74504089355469,2.797856092453003,126.03675079345703,287.51300048828125,-4.050000190734863,7.200000286102295,-28.950000762939453
5.41,87.22555541992188,30.339323043823242,-52.595821380615234,-14.12251091003418,142.95712280273438,316.8238830566406,-4.050000190734863,7.200000286102295,-28.950000762939453
5.42,90.74982452392578,32.63775634765625,-50.757076263427734,-23.848390579223633,141.4915771484375,330.1470031738281,-7.650000095367432,4.350000381469727,-29.250001907348633
5.439,93.04825592041016,30.454246520996094,-50.18246841430664,-16.25421142578125,140.29249572753906,352.9295349121094,-7.200000286102295,3.6000001430511475,-28.80000114440918
5.443,89.2558364868164,29.113492965698242,-50.450618743896484,-10.525267601013184,142.95712280273438,349.99847412109375,-8.550000190734863,2.25,-27.900001525878906
5.45,83.47145080566406,31.641769409179688,-50.60384750366211,-12.124042510986328,159.74424743652344,338.4073486328125,-8.550000190734863,2.25,-27.900001525878906
5.46,81.4028549194336,32.13976287841797,-50.335697174072266,6.5283308029174805,164.94027709960938,338.140869140625,-8.550000190734863,2.25,-27.900001525878906
5.47,75.3503189086914,32.292991638183594,-50.79538345336914,21.050535202026367,161.07656860351562,341.2052001953125,-12.0,1.8000000715255737,-27.150001525878906
5.48,74.58417510986328,30.339323043823242,-48.4969482421875,29.31087303161621,175.19908142089844,330.4134826660156,-11.550000190734863,-0.75,-27.150001525878906
5.499,73.35833740234375,29.95625114440918,-46.54328155517578,32.108726501464844,173.2006072998047,330.54669189453125,-13.800000190734863,0.75,-27.150001525878906
5.504,70.79175567626953,29.496564865112305,-44.85776138305664,34.64012145996094,163.4747314453125,318.6891174316406,-12.450000762939453,0.45000001788139343,-28.05000114440918
5.51,71.09821319580078,28.73042106628418,-42.71255874633789,43.03369140625,163.74119567871094,316.55743408203125,-12.450000762939453,0.45000001788139343,-28.05000114440918
5.52,70.6002197265625,28.423961639404297,-42.02302932739258,29.7105655670166,171.20213317871094,316.0245056152344,-14.550000190734863,-2.25,-27.150001525878906
5.53,70.37037658691406,26.43198585510254,-41.333499908447266,27.445634841918945,171.20213317871094,306.83154296875,-15.750000953674316,-3.750000238418579,-26.100000381469727
5.54,68.1102523803711,26.240449905395508,-40.145973205566406,35.439510345458984,166.67227172851562,300.7029113769531,-16.950000762939453,-4.050000190734863,-24.750001907348633
5.559,66.69288635253906,27.58120346069336,-38.843528747558594,31.176109313964844,175.0658416748047,283.78253173828125,-17.55000114440918,-4.200000286102295,-25.650001525878906
5.563,64.16460418701172,27.198131561279297,-38.230613708496094,55.55742645263672,173.33384704589844,261.5329284667969,-17.55000114440918,-4.200000286102295,-25.650001525878906
5.57,64.0113754272461,30.37763023376465,-37.96246337890625,63.950992584228516,162.1424102783203,260.6003112792969,-18.75,-6.900000095367432,-22.80000114440918
5.58,63.32184600830078,31.10546875,-36.8515510559082,76.87442779541016,159.07809448242188,241.814697265625,-20.400001525878906,-7.050000190734863,-24.450000762939453
5.59,62.172630310058594,30.569168090820312,-35.24264907836914,77.67381286621094,159.74424743652344,231.55589294433594,-19.5,-8.100000381469727,-24.150001525878906
5.6,59.5294303894043,29.03687858581543,-32.369606018066406,84.86830139160156,147.8866729736328,214.63552856445312,-20.55000114440918,-8.40000057220459,-22.80000114440918
5.62,57.23099899291992,30.14778709411621,-33.7486686706543,90.86370086669922,148.28636169433594,213.4364471435547,-20.25,-11.100000381469727,-22.80000114440918
5.623,51.1784553527832,27.427974700927734,-35.54910659790039,103.25421142578125,143.62327575683594,196.64930725097656,-20.25,-11.100000381469727,-22.05000114440918
5.63,50.29738998413086,28.155811309814453,-35.12772750854492,98.72434997558594,150.55130004882812,178.5298614501953,-21.30000114440918,-11.850000381469727,-22.05000114440918
5.64,49.07155990600586,26.623523712158203,-35.510799407958984,108.18376159667969,140.6921844482422,166.93873596191406,-21.75,-10.350000381469727,-21.30000114440918
5.65,47.539268493652344,25.627534866333008,-37.502777099609375,112.98008728027344,149.61868286132812,150.55130004882812,-21.900001525878906,-12.15000057220459,-20.400001525878906
5.66,47.38603973388672,24.401702880859375,-39.035064697265625,99.25727081298828,148.15313720703125,127.10260009765625,-21.900001525878906,-12.15000057220459,-20.400001525878906
5.679,48.19049072265625,23.175872802734375,-36.736629486083984,98.4578857421875,141.4915771484375,127.5022964477539,-22.650001525878906,-14.850000381469727,-19.200000762939453
5.682,51.10184097290039,21.37543296813965,-33.557132720947266,83.66921997070312,131.7657012939453,106.98468017578125,-22.80000114440918,-14.250000953674316,-20.100000381469727
5.69,52.25105667114258,20.83913230895996,-32.599449157714844,66.882080078125,133.6309356689453,96.05972290039062,-22.200000762939453,-15.15000057220459,-18.900001525878906
5.7,52.174442291259766,21.45204734802246,-33.02082824707031,61.28636932373047,112.84685516357422,96.19295501708984,-23.25,-15.750000953674316,-17.55000114440918
5.71,50.91030502319336,26.087221145629883,-34.66804122924805,65.28330993652344,103.12097930908203,93.92802429199219,-23.55000114440918,-16.200000762939453,-17.55000114440918
5.72,50.22077560424805,28.73042106628418,-37.57939147949219,68.88054656982422,97.12557220458984,82.20367431640625,-23.55000114440918,-16.200000762939453,-17.55000114440918
5.739,47.65419006347656,28.960264205932617,-40.260894775390625,102.72128295898438,84.73506927490234,57.289432525634766,-24.150001525878906,-15.15000057220459,-17.400001525878906
5.743,45.54729461669922,27.389667510986328,-41.71657180786133,103.52066802978516,81.00459289550781,46.497703552246094,-24.150001525878906,-15.15000057220459,-17.400001525878906
5.75,46.16020965576172,26.43198585510254,-39.60967254638672,103.52066802978516,72.0781021118164,45.03215789794922,-22.650001525878906,-16.80000114440918,-17.100000381469727
5.76,47.19450378417969,25.167848587036133,-36.8515510559082,91.92955017089844,65.68299865722656,33.57427215576172,-25.200000762939453,-17.55000114440918,-16.350000381469727
5.77,49.79939651489258,20.034679412841797,-33.212364196777344,71.01225280761719,53.82542037963867,28.378253936767578,-25.200000762939453,-17.55000114440918,-16.350000381469727
5.78,51.7530632019043,18.004396438598633,-33.44221115112305,47.696781158447266,35.306278228759766,36.372127532958984,-24.150001525878906,-18.30000114440918,-14.40000057220459
5.799,55.12409973144531,18.4257755279541,-37.043087005615234,30.643184661865234,35.306278228759766,34.773353576660156,-24.900001525878906,-17.55000114440918,-15.15000057220459
5.803,66.80780792236328,27.351360321044922,-46.77312469482422,35.03981399536133,33.70750427246094,38.10413360595703,-23.400001525878906,-17.100000381469727,-16.350000381469727
5.81,71.63451385498047,30.186094284057617,-48.07556915283203,41.701377868652344,31.44257164001465,40.9019889831543,-24.750001907348633,-18.450000762939453,-14.700000762939453
5.82,76.95922088623047,30.99054718017578,-48.458641052246094,58.355281829833984,27.84532928466797,42.23430252075195,-24.750001907348633,-18.450000762939453,-14.700000762939453
5.83,87.30216979980469,35.05111312866211,-49.64616775512695,70.07962799072266,24.64777946472168,32.90811538696289,-24.150001525878906,-19.80000114440918,-15.15000057220459
5.84,92.6651840209961,35.204341888427734,-48.80340576171875,88.06584930419922,3.9969370365142822,38.23736572265625,-24.450000762939453,-19.5,-14.40000057220459
5.856,96.72574615478516,30.875625610351562,-44.74283981323242,57.689125061035156,-25.18070411682129,3.197549819946289,-25.500001907348633,-20.400001525878906,-15.750000953674316
5.86,99.2540283203125,20.532672882080078,-35.702335357666016,41.434913635253906,-38.90352249145508,-6.9280242919921875,-25.500001907348633,-20.400001525878906,-15.750000953674316
5.87,98.25804138183594,19.80483627319336,-35.510799407958984,6.5283308029174805,-64.88361358642578,-27.978559494018555,-25.500001907348633,-20.400001525878906,-15.750000953674316
5.88,95.65314483642578,18.272546768188477,-38.15399932861328,-23.315465927124023,-89.7978515625,-35.439510345458984,-23.55000114440918,-19.200000762939453,-13.200000762939453
5.891,93.9293212890625,20.95405387878418,-41.448421478271484,-50.36140823364258,-100.72281646728516,-51.960182189941406,-23.700000762939453,-19.80000114440918,-13.65000057220459
5.909,100.05847930908203,22.409727096557617,-44.97268295288086,-71.2787094116211,-104.85298156738281,-49.02909469604492,-23.55000114440918,-20.850000381469727,-15.750000953674316
5.913,108.10299682617188,23.02264404296875,-54.089805603027344,-85.53445434570312,-102.8545150756836,-112.4471664428711,-22.80000114440918,-18.150001525878906,-15.000000953674316
5.92,113.31277465820312,28.692113876342773,-55.813629150390625,-69.94640350341797,-114.17916870117188,-118.8422622680664,-22.5,-18.150001525878906,-16.05000114440918
5.93,115.26644897460938,32.292991638183594,-52.480899810791016,-60.22052001953125,-113.77947998046875,-143.88973999023438,-22.5,-18.150001525878906,-16.05000114440918
5.94,119.93992614746094,34.284969329833984,-44.74283981323242,-54.22511291503906,-137.49464416503906,-153.882080078125,-22.05000114440918,-16.950000762939453,-16.05000114440918
5.95,121.77867889404297,32.599449157714844,-43.4020881652832,-45.56508255004883,-158.0122528076172,-157.0796356201172,-23.400001525878906,-17.100000381469727,-16.350000381469727
5.96,121.85529327392578,30.875625610351562,-40.79719543457031,-54.22511291503906,-175.9984588623047,-172.93414306640625,-22.05000114440918,-15.750000953674316,-17.55000114440918
5.973,123.11943054199219,28.8453426361084,-40.60565948486328,-71.54517364501953,-176.39816284179688,-183.5926513671875,-22.200000762939453,-17.100000381469727,-16.350000381469727
5.98,124.9964828491211,26.163835525512695,-38.8818359375,-82.33690643310547,-181.19448852539062,-205.30934143066406,-22.200000762939453,-17.100000381469727,-16.350000381469727
5.99,124.88156127929688,26.12552833557129,-41.10365295410156,-91.79632568359375,-188.2557373046875,-193.18528747558594,-21.30000114440918,-14.250000953674316,-18.0
6.0,123.38758087158203,28.117504119873047,-40.33750915527344,-114.97856140136719,-179.32923889160156,-207.5742645263672,-22.5,-13.050000190734863,-18.75
6.01,121.89360046386719,27.619510650634766,-40.33750915527344,-130.56661987304688,-172.6676788330078,-228.35833740234375,-22.650001525878906,-12.15000057220459,-21.150001525878906
6.029,116.18582153320312,26.700138092041016,-40.18428039550781,-133.49769592285156,-174.0,-229.29095458984375,-20.400001525878906,-11.40000057220459,-19.950000762939453
6.033,110.17158508300781,24.478317260742188,-36.8132438659668,-151.35069274902344,-158.4119415283203,-264.3307800292969,-20.400001525878906,-11.40000057220459,-19.950000762939453
6.04,103.23797607421875,21.37543296813965,-34.93619155883789,-155.747314453125,-157.612548828125,-287.3797912597656,-19.80000114440918,-10.050000190734863,-21.30000114440918
6.05,97.18543243408203,21.835119247436523,-33.7869758605957,-159.74424743652344,-154.54823303222656,-298.03826904296875,-20.700000762939453,-8.700000762939453,-22.200000762939453
6.06,90.71151733398438,23.290794372558594,-31.680076599121094,-151.75038146972656,-160.14395141601562,-306.69830322265625,-20.25,-6.900000095367432,-21.30000114440918
6.07,84.42913055419922,24.171859741210938,-28.462270736694336,-162.5421142578125,-152.949462890625,-328.94793701171875,-18.900001525878906,-7.050000190734863,-22.200000762939453
6.088,77.1507568359375,22.06496238708496,-27.696125030517578,-161.47625732421875,-150.151611328125,-335.6094970703125,-18.900001525878906,-7.050000190734863,-22.200000762939453
6.093,70.25545501708984,23.21417999267578,-26.393678665161133,-149.61868286132812,-155.21438598632812,-344.4027404785156,-16.5,-2.25,-23.55000114440918
6.1,65.3138198852539,24.708162307739258,-25.857378005981445,-133.23123168945312,-153.34915161132812,-353.72894287109375,-16.5,-2.25,-23.55000114440918
6.11,60.372188568115234,22.677879333496094,-26.240449905395508,-127.10260009765625,-138.56048583984375,-363.4548034667969,-15.750000953674316,-1.5,-23.100000381469727
6.12,57.0777702331543,21.14558982849121,-27.313053131103516,-111.64777374267578,-130.1669158935547,-365.9862060546875,-15.000000953674316,0.30000001192092896,-24.900001525878906
6.13,56.77130889892578,21.605276107788086,-27.542896270751953,-88.99846649169922,-136.4287872314453,-369.3169860839844,-15.000000953674316,0.30000001192092896,-24.900001525878906
6.15,55.392250061035156,23.597251892089844,-26.929981231689453,-69.81317138671875,-120.84072875976562,-376.64471435546875,-15.000000953674316,0.30000001192092896,-24.900001525878906
6.153,54.81764221191406,24.286781311035156,-27.58120346069336,-42.500762939453125,-127.23583221435547,-359.5910949707031,-11.550000190734863,3.750000238418579,-23.850000381469727
6.16,55.928550720214844,24.631547927856445,-23.865402221679688,-25.846860885620117,-127.36906433105469,-352.3966369628906,-11.550000190734863,3.750000238418579,-23.850000381469727
6.17,56.426544189453125,23.712173461914062,-21.911733627319336,-20.650842666625977,-127.63552856445312,-345.4685974121094,-12.750000953674316,3.750000238418579,-24.600000381469727
6.18,56.2733154296875,21.6818904876709,-19.613300323486328,-22.382848739624023,-128.03521728515625,-339.20672607421875,-10.950000762939453,6.300000190734863,-24.0
6.19,58.49513626098633,18.195932388305664,-18.693927764892578,-21.983154296875,-133.49769592285156,-341.4716491699219,-10.950000762939453,6.300000190734863,-24.0
6.21,57.614070892333984,17.8128604888916,-17.774553298950195,-26.64624786376953,-140.42572021484375,-327.2159118652344,-10.800000190734863,7.650000095367432,-24.600000381469727
6.214,55.35394287109375,17.889474868774414,-19.345149993896484,-24.11485481262207,-145.75497436523438,-292.44256591796875,-6.450000286102295,6.750000476837158,-24.750001907348633
6.22,55.89024353027344,20.64759635925293,-22.48634147644043,-30.776416778564453,-145.48851013183594,-283.915771484375,-6.450000286102295,6.750000476837158,-24.750001907348633
6.23,53.208740234375,21.337125778198242,-22.83110809326172,-23.98162269592285,-144.2894287109375,-268.8606262207031,-5.550000190734863,7.200000286102295,-27.150001525878906
6.24,52.13613510131836,18.4257755279541,-21.26051139831543,-24.64777946472168,-140.02603149414062,-259.00152587890625,-5.550000190734863,7.200000286102295,-27.150001525878906
6.25,50.642154693603516,18.157625198364258,-21.0689754486084,-33.17457962036133,-129.10107421875,-245.9448699951172,-4.050000190734863,8.850000381469727,-25.350000381469727
6.27,47.99895477294922,18.272546768188477,-19.728221893310547,-28.378253936767578,-126.83613586425781,-237.2848358154297,-3.450000047683716,8.25,-25.500001907348633
6.273,48.956634521484375,18.4257755279541,-19.268535614013672,-29.177640914916992,-117.77641296386719,-217.43338012695312,-1.8000000715255737,9.15000057220459,-26.100000381469727
6.28,46.696510314941406,19.153614044189453,-18.157625198364258,-22.782541275024414,-114.97856140136719,-206.37518310546875,-1.8000000715255737,9.15000057220459,-26.100000381469727
6.29,45.777137756347656,18.808849334716797,-16.548721313476562,-13.58958625793457,-111.91423797607422,-196.915771484375,-1.8000000715255737,9.15000057220459,-26.100000381469727
6.3,45.66221618652344,18.04270362854004,-17.889474868774414,-5.196018218994141,-102.05513000488281,-184.1255645751953,-38.400001525878906,11.40000057220459,-25.200000762939453
6.31,44.16823196411133,18.11931800842285,-18.579004287719727,15.188361167907715,-104.7197494506836,-162.00918579101562,0.75,11.550000190734863,-26.100000381469727
6.33,42.63594436645508,19.306842803955078,-20.456058502197266,18.91883659362793,-87.79938507080078,-152.54977416992188,1.0500000715255737,11.850000381469727,-26.100000381469727
6.333,40.682273864746094,18.54069709777832,-21.835119247436523,33.97396469116211,-83.00305938720703,-125.37059783935547,1.0500000715255737,11.850000381469727,-26.100000381469727
6.34,36.008792877197266,16.395492553710938,-19.38345718383789,38.90352249145508,-77.4073486328125,-114.84532928466797,1.0500000715255737,11.850000381469727,-26.100000381469727
6.35,33.365596771240234,15.131354331970215,-20.915746688842773,36.10566711425781,-61.552833557128906,-106.05206298828125,3.1500000953674316,9.75,-26.55000114440918
6.36,31.52684783935547,14.595053672790527,-18.11931800842285,37.83767318725586,-58.355281829833984,-103.38744354248047,3.450000047683716,9.75,-27.30000114440918
6.37,30.722396850585938,14.633360862731934,-18.77054214477539,50.62786865234375,-62.21898651123047,-73.14395141601562,3.9000000953674316,10.200000762939453,-27.750001907348633
6.389,31.7183837890625,21.14558982849121,-20.76251792907715,56.889739990234375,-57.02296829223633,-49.56201934814453,4.050000190734863,8.40000057220459,-26.850000381469727
6.393,36.50678634643555,23.02264404296875,-23.367408752441406,71.81163787841797,-35.839202880859375,-11.990811347961426,4.050000190734863,8.40000057220459,-26.850000381469727
6.4,41.5633430480957,21.950040817260742,-27.198131561279297,85.93415069580078,-36.238895416259766,13.323123931884766,5.400000095367432,10.950000762939453,-26.55000114440918
6.41,45.08760452270508,20.64759635925293,-26.585216522216797,90.73047637939453,-21.84992218017578,46.09800720214844,3.3000001907348633,8.850000381469727,-27.150001525878906
6.42,50.5655403137207,20.532672882080078,-25.665842056274414,80.33843994140625,2.531393527984619,78.47319793701172,4.800000190734863,9.600000381469727,-26.400001525878906
6.43,50.87199783325195,19.958065032958984,-28.38565444946289,73.41041564941406,33.4410400390625,104.18682861328125,4.200000286102295,9.0,-27.000001907348633
6.45,49.9143180847168,19.68991470336914,-29.611486434936523,66.08269500732422,44.36600112915039,137.62786865234375,4.200000286102295,9.0,-27.000001907348633
6.453,50.335697174072266,16.778566360473633,-26.815059661865234,22.649311065673828,70.61255645751953,161.87594604492188,4.050000190734863,8.40000057220459,-27.150001525878906
6.46,50.98691940307617,15.782577514648438,-29.726408004760742,7.460949420928955,75.14241790771484,170.66921997070312,3.750000238418579,7.650000095367432,-26.100000381469727
6.47,48.42033386230469,15.131354331970215,-30.37763023376465,-12.25727367401123,71.41194152832031,199.44715881347656,3.1500000953674316,7.800000190734863,-27.000001907348633
6.48,47.845726013183594,20.30282974243164,-34.24666213989258,-25.313934326171875,75.67534637451172,213.0367431640625,4.050000190734863,6.150000095367432,-27.150001525878906
6.49,48.841712951660156,25.359384536743164,-38.65199279785156,-34.24042892456055,91.52986145019531,228.35833740234375,4.050000190734863,6.150000095367432,-27.150001525878906
6.51,53.89826965332031,27.696125030517578,-42.061336517333984,-24.248085021972656,92.46247863769531,257.0030517578125,1.5,6.900000095367432,-28.200000762939453
6.513,66.5396499633789,30.91393280029297,-42.7508659362793,-5.995405673980713,102.45481872558594,295.107177734375,1.0500000715255737,6.900000095367432,-26.850000381469727
6.52,86.68925476074219,38.230613708496094,-46.27513122558594,5.329249382019043,109.915771484375,322.9525146484375,1.2000000476837158,7.500000476837158,-25.80000114440918
6.53,97.26204681396484,39.57136535644531,-50.450618743896484,15.721285820007324,118.70903015136719,359.4578857421875,1.2000000476837158,6.750000476837158,-25.80000114440918
6.54,105.65132904052734,38.613685607910156,-56.311622619628906,8.526799201965332,141.35833740234375,400.49310302734375,1.2000000476837158,6.750000476837158,-25.80000114440918
6.55,104.54042053222656,36.27694320678711,-57.7289924621582,-3.0643184185028076,164.80703735351562,418.8789978027344,-1.9500000476837158,5.100000381469727,-27.750001907348633
6.57,100.55647277832031,32.484527587890625,-57.307613372802734,-27.445634841918945,187.05665588378906,420.7442626953125,-2.5500001907348633,4.200000286102295,-24.900001525878906
6.573,99.13910675048828,27.734432220458984,-54.472877502441406,-54.091880798339844,192.51913452148438,431.13629150390625,-3.1500000953674316,5.550000190734863,-26.250001907348633
6.58,109.5203628540039,29.76471519470215,-48.80340576171875,-68.88054656982422,179.0627899169922,448.7228088378906,-4.950000286102295,3.6000001430511475,-25.500001907348633
6.59,118.40763854980469,32.71437072753906,-45.892059326171875,-115.2450180053711,174.9326171875,461.51300048828125,-5.400000095367432,3.1500000953674316,-26.250001907348633
6.6,125.30294036865234,37.08139419555664,-44.32146072387695,-146.1546630859375,165.4731903076172,466.8422546386719,-5.400000095367432,3.1500000953674316,-26.250001907348633
6.61,125.6860122680664,33.94020462036133,-45.73883056640625,-161.07656860351562,153.21592712402344,480.96478271484375,-6.150000095367432,4.050000190734863,-24.450000762939453
6.631,120.01654052734375,35.05111312866211,-50.98691940307617,-162.94180297851562,160.41041564941406,484.8284606933594,-7.950000286102295,2.8500001430511475,-23.700000762939453
6.634,110.63127136230469,36.621707916259766,-53.361968994140625,-160.6768798828125,180.12863159179688,459.5145263671875,-9.450000762939453,2.1000001430511475,-22.950000762939453
6.64,99.94355773925781,41.48672866821289,-54.587799072265625,-140.42572021484375,177.99693298339844,465.24346923828125,-10.050000190734863,3.0,-23.100000381469727
6.65,95.76806640625,40.49073791503906,-56.19670104980469,-109.915771484375,181.19448852539062,450.5880432128906,-10.050000190734863,3.0,-23.100000381469727
6.66,89.67721557617188,41.29519271850586,-53.055511474609375,-67.68146514892578,196.24961853027344,424.6079406738281,-12.300000190734863,0.75,-22.05000114440918
6.67,86.61264038085938,41.21857833862305,-50.79538345336914,-35.306278228759766,205.7090301513672,395.2970886230469,-13.200000762939453,-0.9000000357627869,-20.400001525878906
6.69,81.90084838867188,44.16823196411133,-47.96064758300781,15.055130004882812,198.24807739257812,377.8437805175781,-13.800000190734863,-1.5,-20.55000114440918
6.693,79.6024169921875,41.5633430480957,-44.89606857299805,61.68606185913086,197.0489959716797,330.1470031738281,-13.800000190734863,-2.700000047683716,-20.55000114440918
6.7,73.97125244140625,41.180267333984375,-41.37180709838867,84.06890869140625,193.18528747558594,312.1607971191406,-13.800000190734863,-2.700000047683716,-20.55000114440918
6.71,73.24341583251953,40.7205810546875,-39.37982940673828,120.57427215576172,184.92495727539062,299.6370544433594,-14.550000190734863,-4.200000286102295,-21.600000381469727
6.72,72.20912170410156,40.49073791503906,-38.537071228027344,141.75804138183594,177.46400451660156,284.4486999511719,-16.950000762939453,-4.800000190734863,-20.400001525878906
6.73,72.01758575439453,39.91613006591797,-38.34553527832031,164.14088439941406,172.53445434570312,264.0643005371094,-16.80000114440918,-4.200000286102295,-19.5
6.749,69.18285369873047,36.54509353637695,-39.41813659667969,170.93568420410156,174.1332244873047,235.9525146484375,-17.55000114440918,-6.450000286102295,-20.100000381469727
6.752,66.84611511230469,32.44622039794922,-36.46847915649414,171.46859741210938,172.134765625,222.89585876464844,-17.55000114440918,-6.450000286102295,-20.100000381469727
6.76,65.54366302490234,26.815059661865234,-35.24264907836914,171.46859741210938,164.5405731201172,211.5712127685547,-18.450000762939453,-8.25,-18.900001525878906
6.77,64.31783294677734,25.321077346801758,-33.63374710083008,148.55282592773438,171.06890869140625,188.2557373046875,-19.5,-8.40000057220459,-18.30000114440918
6.78,63.13031005859375,23.252487182617188,-31.60346221923828,126.16998291015625,172.53445434570312,185.19142150878906,-19.05000114440918,-10.350000381469727,-18.30000114440918
6.79,61.36817932128906,22.83110809326172,-29.879636764526367,103.25421142578125,159.74424743652344,190.38743591308594,-19.950000762939453,-11.40000057220459,-17.700000762939453
6.809,59.644351959228516,22.06496238708496,-30.26270866394043,80.33843994140625,163.6079559326172,162.40887451171875,-19.200000762939453,-13.200000762939453,-17.700000762939453
6.812,58.26529312133789,19.766529083251953,-34.62973403930664,62.618682861328125,163.6079559326172,146.82083129882812,-19.200000762939453,-13.200000762939453,-17.700000762939453
6.82,57.6906852722168,18.923770904541016,-34.782962799072266,65.68299865722656,158.14547729492188,138.6937255859375,-21.0,-15.000000953674316,-16.80000114440918
6.83,58.533443450927734,21.107282638549805,-31.028854370117188,53.69218826293945,152.1500701904297,140.6921844482422,-21.30000114440918,-14.250000953674316,-16.80000114440918
6.84,60.64033889770508,20.76251792907715,-27.351360321044922,22.382848739624023,144.2894287109375,119.7748794555664,-21.450000762939453,-15.15000057220459,-16.650001525878906
6.85,59.60604476928711,20.494365692138672,-24.823083877563477,4.663093090057373,125.23736572265625,122.83920288085938,-21.450000762939453,-16.350000381469727,-15.15000057220459
6.869,57.88222122192383,19.766529083251953,-22.48634147644043,-21.45022964477539,122.17304229736328,119.90811157226562,-21.450000762939453,-16.350000381469727,-15.15000057220459
6.873,54.35795593261719,21.950040817260742,-23.175872802734375,-49.69525146484375,119.24195861816406,105.65237426757812,-22.5,-16.5,-15.450000762939453
6.88,52.4042854309082,21.98834800720215,-31.258697509765625,-43.30015182495117,121.64012145996094,112.18070220947266,-21.450000762939453,-17.100000381469727,-14.40000057220459
6.89,51.40829849243164,22.792800903320312,-35.12772750854492,-25.7136287689209,111.5145492553711,100.3231201171875,-21.30000114440918,-16.200000762939453,-14.250000953674316
6.901,53.361968994140625,24.631547927856445,-35.395877838134766,-1.9984685182571411,114.57886505126953,72.47779083251953,-22.650001525878906,-18.75,-14.100000381469727
6.91,54.396263122558594,26.163835525512695,-33.71036148071289,2.398162364959717,110.44869232177734,76.34149932861328,-22.650001525878906,-18.75,-14.100000381469727
6.929,56.120086669921875,27.542896270751953,-27.77273941040039,7.06125545501709,100.85604858398438,52.75957107543945,-22.5,-18.900001525878906,-13.500000953674316
6.933,51.90629196166992,32.13976287841797,-28.577192306518555,12.124042510986328,77.94027709960938,59.15467071533203,-23.25,-18.450000762939453,-12.450000762939453
6.94,49.224788665771484,32.21637725830078,-29.22841453552246,8.39356803894043,72.21133422851562,61.41960144042969,-23.25,-18.450000762939453,-12.450000762939453
6.95,47.2711181640625,27.542896270751953,-29.917943954467773,21.45022964477539,72.0781021118164,47.0306282043457,-23.400001525878906,-17.850000381469727,-11.550000190734863
6.96,42.980709075927734,25.474306106567383,-32.676063537597656,31.176109313964844,54.89126968383789,52.493106842041016,-23.400001525878906,-17.850000381469727,-11.550000190734863
6.97,44.512996673583984,25.89568519592285,-31.60346221923828,47.297088623046875,54.22511291503906,33.97396469116211,-23.25,-16.5,-12.450000762939453
6.99,48.4969482421875,25.972299575805664,-35.05111312866211,46.897396087646484,49.42878723144531,22.382848739624023,-23.25,-18.450000762939453,-12.0
6.993,52.51920700073242,24.89969825744629,-36.66001510620117,55.69065856933594,40.102603912353516,21.050535202026367,-23.700000762939453,-18.75,-10.800000190734863
7.0,56.96284866333008,24.401702880859375,-35.28095626831055,50.09494400024414,29.84379768371582,15.055130004882812,-23.700000762939453,-18.75,-10.800000190734863
7.01,60.7935676574707,24.478317260742188,-34.591426849365234,29.577335357666016,31.042879104614258,14.12251091003418,-23.700000762939453,-18.30000114440918,-11.850000381469727
7.02,69.14454650878906,26.31706428527832,-31.7183837890625,13.722817420959473,13.856048583984375,-4.130168437957764,-23.700000762939453,-18.30000114440918,-11.850000381469727
7.03,78.3765869140625,27.46628189086914,-32.676063537597656,11.990811347961426,-16.12097930908203,8.660030364990234,-22.950000762939453,-17.850000381469727,-12.300000190734863
7.05,90.59659576416016,25.550920486450195,-30.60747528076172,-19.31852912902832,-32.24195861816406,-12.390504837036133,-23.25,-16.5,-12.450000762939453
7.053,114.19384765625,22.60126495361328,-31.182083129882812,-48.8958625793457,-71.67840576171875,-15.987748146057129,-22.200000762939453,-17.55000114440918,-13.050000190734863
7.06,115.9942855834961,23.482330322265625,-31.680076599121094,-67.68146514892578,-87.0,-22.51607894897461,-22.200000762939453,-17.55000114440918,-13.050000190734863
7.07,117.52657318115234,20.915746688842773,-32.44622039794922,-106.31852722167969,-108.84992218017578,-45.16539001464844,-22.200000762939453,-17.55000114440918,-13.050000190734863
7.08,116.45397186279297,14.97812557220459,-31.067161560058594,-154.14854431152344,-121.64012145996094,-94.46094512939453,-22.80000114440918,-18.150001525878906,-12.0
7.09,109.06067657470703,8.197746276855469,-30.60747528076172,-190.25421142578125,-127.36906433105469,-132.0321502685547,-22.05000114440918,-16.5,-12.450000762939453
7.106,102.43352508544922,5.4013190269470215,-31.488540649414062,-232.2220458984375,-135.76263427734375,-202.11178588867188,-22.650001525878906,-16.80000114440918,-13.65000057220459
7.11,104.27227020263672,13.943830490112305,-38.76691436767578,-237.55130004882812,-147.62020874023438,-198.24807739257812,-22.650001525878906,-16.80000114440918,-13.65000057220459
