time,accel_x,accel_y,accel_z,gyro_x,gyro_y,gyro_z,mag_x,mag_y,mag_z
0.0,3.816551923751831,-8.550751686096191,2.4430718421936035,0.011301006190478802,-0.03497203439474106,-0.0027488935738801956,-51.183860778808594,47.866119384765625,-42.16603469848633
0.009,3.799802303314209,-8.571090698242188,2.4765713214874268,0.027030786499381065,-0.06414084881544113,0.0,-50.80385971069336,47.69073486328125,-42.77988815307617
0.029,3.76151704788208,-8.755337715148926,2.5328028202056885,0.05955936014652252,-0.09300423413515091,0.003817907767370343,-50.46770095825195,47.67612075805664,-42.078338623046875
0.032,3.728017568588257,-8.773283958435059,2.554337978363037,0.06398813426494598,-0.09560041129589081,0.0025961773935705423,-50.61385726928711,47.99766159057617,-42.54603958129883
0.04,3.704089403152466,-8.816354751586914,2.533998966217041,0.07009679079055786,-0.0959058403968811,-0.00015271631127689034,-51.03771209716797,48.216896057128906,-42.22449493408203
0.05,3.6981072425842285,-8.837889671325684,2.5782663822174072,0.06933320313692093,-0.0858265683054924,-0.004581489134579897,-50.62847137451172,47.95381546020508,-42.12218475341797
0.06,3.62153697013855,-8.848657608032227,2.5531415939331055,0.058795779943466187,-0.06001751124858856,-0.01618792861700058,-50.87693786621094,47.76381301879883,-41.74217987060547
0.07,3.544966459274292,-8.796015739440918,2.520838737487793,0.04841107130050659,-0.029626963660120964,-0.019089538604021072,-50.789241790771484,47.500728607177734,-42.253726959228516
0.088,3.4576287269592285,-8.670392990112305,2.431107759475708,0.05345070734620094,0.0044287727214396,-0.01160643994808197,-50.979244232177734,47.64688491821289,-42.12218475341797
0.092,3.4265217781066895,-8.629714965820312,2.416750907897949,0.051923543214797974,-0.0007635815418325365,-0.011301006190478802,-51.02309036254883,47.58842468261719,-42.57527160644531
0.1,3.4301111698150635,-8.663214683532715,2.427518606185913,0.04657847434282303,-0.014049900695681572,-0.009926560334861279,-51.286170959472656,47.851505279541016,-42.38526916503906
0.11,3.442075490951538,-8.784051895141602,2.462214469909668,0.04413501173257828,-0.02275473065674305,-0.0088575454428792,-50.83308792114258,47.60304260253906,-41.639869689941406
0.12,3.5365920066833496,-8.989834785461426,2.5351955890655518,0.04092797264456749,-0.011453723534941673,0.0003054326225537807,-51.25694274902344,47.95381546020508,-41.42063903808594
0.13,3.675375461578369,-9.074779510498047,2.63449764251709,0.033597588539123535,0.0003054326225537807,0.012522736564278603,-50.64308547973633,48.289974212646484,-42.268341064453125
0.148,3.689732551574707,-8.857032775878906,2.57228422164917,0.01878410577774048,0.02672535367310047,0.016493361443281174,-50.61385726928711,48.1584358215332,-42.56065368652344
0.151,3.7220354080200195,-8.790033340454102,2.5627129077911377,0.014049900695681572,0.03145955875515938,0.014355332590639591,-50.87693786621094,47.99766159057617,-41.77141189575195
0.16,3.8021950721740723,-8.731410026550293,2.5435705184936523,0.0074830991216003895,0.03527746722102165,0.009621127508580685,-50.48231506347656,48.2607421875,-42.57527160644531
0.17,3.8799617290496826,-8.71107006072998,2.4765713214874268,0.014508049935102463,0.027641652151942253,0.0088575454428792,-50.555397033691406,48.24612808227539,-42.03449249267578
0.18,3.920639753341675,-8.58066177368164,2.3569302558898926,0.0429132841527462,0.01313360221683979,0.01038470957428217,-50.540775299072266,48.50920867919922,-42.867584228515625
0.19,3.85483717918396,-8.531608581542969,2.3988046646118164,0.06902776658535004,0.004886921960860491,0.01313360221683979,-50.48231506347656,47.70534896850586,-41.9614143371582
0.202,3.8249268531799316,-8.700303077697754,2.445464611053467,0.06841690838336945,-0.010537425056099892,0.00809396430850029,-50.73078155517578,48.34843444824219,-42.6629638671875
0.21,3.8560335636138916,-8.884550094604492,2.472982168197632,0.06291911751031876,-0.016493361443281174,-0.0006108652451075613,-50.555397033691406,47.77842712402344,-42.41449737548828
0.22,3.882354736328125,-8.967103004455566,2.465803623199463,0.058948494493961334,0.0010690141934901476,-0.0039706239476799965,-51.154632568359375,48.23151397705078,-42.136802673339844
0.23,3.8536407947540283,-8.82114028930664,2.469392776489258,0.05100724473595619,0.009773843921720982,-0.0036651913542300463,-50.365386962890625,47.851505279541016,-41.97603225708008
0.24,3.7902309894561768,-8.638089179992676,2.4430718421936035,0.03680463135242462,0.005345070734620094,-0.00931569468230009,-50.760013580322266,47.41303634643555,-41.888336181640625
0.25,3.805784225463867,-8.541180610656738,2.434696912765503,0.03039054572582245,0.0,-0.018325956538319588,-50.70154571533203,47.41303634643555,-42.38526916503906
0.266,3.9242289066314697,-8.591429710388184,2.4502503871917725,0.037110064178705215,-0.02626720443367958,-0.02932153083384037,-51.00847625732422,47.310726165771484,-42.312191009521484
0.27,3.915853977203369,-8.627321243286133,2.445464611053467,0.03955352306365967,-0.03726277872920036,-0.027947084978222847,-51.30078887939453,47.486114501953125,-42.049110412597656
0.28,3.8524441719055176,-8.708678245544434,2.533998966217041,0.04871650040149689,-0.05467243865132332,-0.025656340643763542,-51.22771453857422,48.114585876464844,-41.56679153442383
0.29,3.73758864402771,-8.7505521774292,2.596212387084961,0.04871650040149689,-0.058490343391895294,-0.025045473128557205,-51.0815544128418,47.79304122924805,-42.29757308959961
0.3,3.6155548095703125,-8.730213165283203,2.651247262954712,0.04001167416572571,-0.05100724473595619,-0.0277943667024374,-51.198482513427734,48.20227813720703,-42.92604446411133
0.319,3.5545380115509033,-8.706284523010254,2.6488544940948486,0.025503622367978096,-0.04184426739811897,-0.030695976689457893,-50.08769607543945,47.486114501953125,-42.502193450927734
0.322,3.43489670753479,-8.679964065551758,2.641676187515259,0.014966198243200779,-0.028557950630784035,-0.0354301817715168,-50.90616989135742,47.57380676269531,-41.91756820678711
0.33,3.377469062805176,-8.642874717712402,2.66560435295105,0.01160643994808197,-0.02626720443367958,-0.03375030308961868,-50.46770095825195,47.60304260253906,-41.85910415649414
0.34,3.3990042209625244,-8.616554260253906,2.68953275680542,0.005345070734620094,-0.031154125928878784,-0.033139437437057495,-51.198482513427734,47.99766159057617,-41.698333740234375
0.35,3.4887354373931885,-8.673981666564941,2.730210542678833,-0.0044287727214396,-0.04505131021142006,-0.02886338159441948,-50.774627685546875,47.63227081298828,-41.99064636230469
0.36,3.5545380115509033,-8.736194610595703,2.7565317153930664,-0.001679879380390048,-0.05115996673703194,-0.025503622367978096,-51.169246673583984,48.34843444824219,-42.3414192199707
0.378,3.586841106414795,-8.731410026550293,2.778066873550415,0.0039706239476799965,-0.03848451003432274,-0.021991148591041565,-50.89155578613281,47.8807373046875,-42.268341064453125
0.382,3.6119656562805176,-8.652446746826172,2.8319056034088135,0.0012217304902151227,-0.023365594446659088,-0.02535090781748295,-50.62847137451172,47.661502838134766,-42.29757308959961
0.39,3.6335010528564453,-8.623732566833496,2.8558335304260254,0.0,-0.01863138936460018,-0.023976460099220276,-50.584625244140625,47.500728607177734,-42.56065368652344
0.4,3.6957144737243652,-8.569893836975098,2.8187451362609863,0.004734205547720194,-0.024129178375005722,-0.019853120669722557,-50.70154571533203,47.909969329833984,-41.449867248535156
0.41,3.6837503910064697,-8.528019905090332,2.7864418029785156,0.021838432177901268,-0.04199698567390442,-0.016340645030140877,-50.48231506347656,47.67612075805664,-41.47909927368164
0.42,3.6837503910064697,-8.522037506103516,2.7421746253967285,0.04886921867728233,-0.06612616032361984,-0.0032070425804704428,-50.745399475097656,47.500728607177734,-42.3414192199707
0.439,3.682553768157959,-8.563911437988281,2.6907289028167725,0.0907134935259819,-0.10491610318422318,0.0088575454428792,-50.993858337402344,47.544578552246094,-41.93218231201172
0.443,3.623929738998413,-8.671588897705078,2.633301258087158,0.13041973114013672,-0.12324206531047821,0.01160643994808197,-50.81847381591797,47.80765914916992,-42.18064880371094
0.45,3.6083762645721436,-8.732605934143066,2.583051919937134,0.14782939851284027,-0.1189659982919693,0.007635815534740686,-50.61385726928711,46.98918533325195,-41.46448516845703
0.46,3.5581271648406982,-8.842676162719727,2.568694829940796,0.156686931848526,-0.09178250283002853,-0.0018325956771150231,-51.02309036254883,48.026893615722656,-41.91756820678711
0.47,3.55214524269104,-8.883354187011719,2.513659954071045,0.15164729952812195,-0.044287726283073425,-0.010231993161141872,-50.51154327392578,47.471500396728516,-41.80064392089844
0.48,3.4959137439727783,-8.842676162719727,2.445464611053467,0.1345430612564087,0.027488935738801956,-0.027641652151942253,-50.950016021728516,47.67612075805664,-42.01987838745117
0.498,3.489931583404541,-8.755337715148926,2.407179594039917,0.11071932315826416,0.07727444916963577,-0.04153883829712868,-50.65769958496094,47.36919021606445,-42.0052604675293
0.503,3.645465135574341,-8.739784240722656,2.3545374870300293,0.06612616032361984,0.10048733651638031,-0.04948008432984352,-50.570011138916016,47.354576110839844,-41.91756820678711
0.51,3.7567315101623535,-8.801998138427734,2.310270071029663,0.054367005825042725,0.09422595798969269,-0.050243668258190155,-50.2776985168457,46.8430290222168,-42.64834976196289
0.52,3.844069242477417,-8.878567695617676,2.2815563678741455,0.03649919852614403,0.07131851464509964,-0.05360342189669609,-50.570011138916016,47.99766159057617,-42.72142791748047
0.53,3.909872055053711,-8.922835350036621,2.2504496574401855,0.031612277030944824,0.04902193322777748,-0.06398813426494598,-50.19000244140625,47.14995574951172,-42.48757553100586
0.54,3.988835334777832,-8.776873588562012,2.214557409286499,0.03756821155548096,0.04932736977934837,-0.06383541971445084,-50.68693161010742,47.51534652709961,-41.85910415649414
0.559,4.028316974639893,-8.657232284545898,2.1954145431518555,0.041691552847623825,0.04199698567390442,-0.06062837690114975,-50.81847381591797,47.36919021606445,-41.78602600097656
0.563,4.102494239807129,-8.58185863494873,2.2301106452941895,0.04092797264456749,0.006566801108419895,-0.05910121276974678,-51.12540054321289,47.39842224121094,-41.873722076416016
0.57,4.125226020812988,-8.532805442810059,2.2157537937164307,0.03344487026333809,-0.02825251594185829,-0.0633772686123848,-50.760013580322266,47.2230339050293,-42.19526290893555
0.58,4.128815174102783,-8.47178840637207,2.2576282024383545,0.023976460099220276,-0.09789115190505981,-0.06322455406188965,-51.30078887939453,47.354576110839844,-42.91142654418945
0.59,4.043870449066162,-8.451449394226074,2.2408783435821533,0.025045473128557205,-0.13790282607078552,-0.054367005825042725,-50.68693161010742,48.026893615722656,-42.326805114746094
0.6,4.016352653503418,-8.46341323852539,2.310270071029663,0.03649919852614403,-0.17379117012023926,-0.04001167416572571,-51.1400146484375,47.57380676269531,-42.3414192199707
0.619,3.9086756706237793,-8.524430274963379,2.416750907897949,0.040164388716220856,-0.2028072625398636,-0.0277943667024374,-50.993858337402344,47.486114501953125,-41.82987594604492
0.623,3.775874137878418,-8.537590980529785,2.4849462509155273,0.02626720443367958,-0.2093740552663803,-0.003817907767370343,-50.90616989135742,47.456886291503906,-42.54603958129883
0.635,3.7770702838897705,-8.635696411132812,2.526820659637451,0.009621127508580685,-0.2025018185377121,0.020616700872778893,-50.760013580322266,47.38380432128906,-42.619117736816406
0.64,3.779463291168213,-8.654839515686035,2.551945447921753,0.001527163083665073,-0.19639316201210022,0.033139437437057495,-50.70154571533203,47.661502838134766,-41.756797790527344
0.65,3.7698919773101807,-8.647661209106445,2.5974087715148926,-0.013591751456260681,-0.18341228365898132,0.06215553730726242,-50.65769958496094,47.281497955322266,-42.01987838745117
0.66,3.7674992084503174,-8.606983184814453,2.57228422164917,-0.02122756652534008,-0.17363843321800232,0.10247264802455902,-50.67231750488281,47.71996307373047,-41.698333740234375
0.67,3.8249268531799316,-8.543573379516602,2.5734806060791016,-0.017562376335263252,-0.17318028211593628,0.15424346923828125,-50.20461654663086,47.106109619140625,-42.078338623046875
0.68,3.8979079723358154,-8.511269569396973,2.633301258087158,-0.006872233934700489,-0.20387627184391022,0.22021691501140594,-50.73078155517578,47.76381301879883,-41.9614143371582
0.699,4.0247273445129395,-8.651249885559082,2.719442844390869,0.014355332590639591,-0.26022857427597046,0.2848159074783325,-50.29231262207031,47.661502838134766,-42.12218475341797
0.703,4.052245140075684,-8.673981666564941,2.7589244842529297,0.024129178375005722,-0.2629774808883667,0.29504790902137756,-50.21923065185547,47.851505279541016,-41.80064392089844
0.71,4.120440483093262,-8.677571296691895,2.7625136375427246,0.04413501173257828,-0.2567161023616791,0.30115655064582825,-49.70768737792969,47.98304748535156,-41.61064147949219
0.72,4.253242015838623,-8.620142936706543,2.785245418548584,0.06872233748435974,-0.23609942197799683,0.2958114743232727,-50.336158752441406,47.89535140991211,-41.56679153442383
0.73,4.362115383148193,-8.434700012207031,2.779263496398926,0.10094548016786575,-0.21166479587554932,0.26939156651496887,-49.853843688964844,48.099971771240234,-41.332942962646484
0.748,4.41475772857666,-8.233702659606934,2.7672994136810303,0.12461650371551514,-0.17928895354270935,0.24007004499435425,-49.225372314453125,48.596900939941406,-42.312191009521484
0.752,4.412364959716797,-7.998009204864502,2.737389087677002,0.15882496535778046,-0.10613783448934555,0.18325957655906677,-49.34230041503906,48.041507720947266,-42.10757064819336
0.76,4.469792366027832,-7.8687968254089355,2.7278177738189697,0.17363843321800232,-0.047800205647945404,0.13836097717285156,-49.44460678100586,48.216896057128906,-42.39988327026367
0.77,4.634897232055664,-7.682156562805176,2.6703901290893555,0.19135352969169617,0.01817324012517929,0.08246680349111557,-49.26921844482422,48.50920867919922,-42.049110412597656
0.78,4.768895149230957,-7.572086811065674,2.5459630489349365,0.21578815579414368,0.04199698567390442,0.039248090237379074,-49.093833923339844,48.421512603759766,-41.97603225708008
0.79,4.919642925262451,-7.637889862060547,2.414357900619507,0.27809640765190125,0.02382374368607998,0.01114829070866108,-49.41537857055664,48.01227569580078,-42.282955169677734
0.809,4.996213436126709,-8.085347175598145,2.475374937057495,0.3321579694747925,-0.018325956538319588,-0.0027488935738801956,-48.9622917175293,52.35311508178711,-43.14527893066406
0.813,4.96630334854126,-8.565108299255371,2.733799695968628,0.36514467000961304,-0.08246680349111557,-0.02275473065674305,-49.45922088623047,48.07073974609375,-42.29757308959961
0.82,4.855037212371826,-8.681159973144531,2.8797619342803955,0.3568980097770691,-0.10949759185314178,-0.04001167416572571,-49.839229583740234,48.24612808227539,-42.58988571166992
0.83,4.518845558166504,-8.605786323547363,2.8666014671325684,0.33200523257255554,-0.12049316614866257,-0.07269296050071716,-49.035369873046875,48.18766403198242,-43.393741607666016
0.84,4.194617748260498,-8.360522270202637,2.7589244842529297,0.3090977966785431,-0.06902776658535004,-0.12629638612270355,-49.4007568359375,48.611515045166016,-43.10143280029297
0.85,3.9314074516296387,-8.11406135559082,2.7589244842529297,0.2974913716316223,0.003359758760780096,-0.16004669666290283,-48.75767135620117,48.27535629272461,-42.64834976196289
0.868,3.786641836166382,-8.057829856872559,2.695514678955078,0.2898555397987366,0.09896016865968704,-0.18127425014972687,-49.780765533447266,48.39228439331055,-42.999122619628906
0.872,3.735196113586426,-8.218149185180664,2.715853691101074,0.2886338233947754,0.20616701245307922,-0.19043724238872528,-49.75153350830078,47.909969329833984,-42.692195892333984
0.88,3.7387852668762207,-8.358129501342773,2.7122642993927,0.2926044464111328,0.26511549949645996,-0.18356500566005707,-49.95615005493164,48.17304992675781,-42.77988815307617
0.89,3.7531421184539795,-8.531608581542969,2.6799612045288086,0.3139847218990326,0.34208452701568604,-0.15241087973117828,-49.663841247558594,47.851505279541016,-43.393741607666016
0.9,3.7746775150299072,-8.577072143554688,2.5124638080596924,0.35185837745666504,0.36392295360565186,-0.12003502249717712,-50.263084411621094,48.62613296508789,-43.67144012451172
0.91,3.840480089187622,-8.529216766357422,2.3988046646118164,0.39813143014907837,0.33429598808288574,-0.07559457421302795,-49.780765533447266,47.70534896850586,-43.48143768310547
0.929,3.9182469844818115,-8.421539306640625,2.3186450004577637,0.4460843503475189,0.24846942722797394,-0.020158551633358,-50.160770416259766,48.27535629272461,-43.627593994140625
0.933,4.0319061279296875,-8.423932075500488,2.242074728012085,0.5180137157440186,0.08246680349111557,0.06017022579908371,-49.766151428222656,48.216896057128906,-43.56913375854492
0.94,4.0833516120910645,-8.5160551071167,2.2671992778778076,0.5558873414993286,0.025045473128557205,0.08933904021978378,-50.0584602355957,48.62613296508789,-43.89067459106445
0.95,4.169493198394775,-8.614161491394043,2.3054845333099365,0.6062837243080139,-0.0022907445672899485,0.11071932315826416,-49.049983978271484,47.9391975402832,-43.17451095581055
0.96,4.070191383361816,-8.520841598510742,2.341376781463623,0.6484334468841553,0.042760565876960754,0.12079859524965286,-49.70768737792969,48.494590759277344,-44.86991882324219
0.97,3.9517464637756348,-8.258827209472656,2.410768747329712,0.660803496837616,0.1313360333442688,0.11881328374147415,-49.6784553527832,47.98304748535156,-45.001461029052734
0.989,3.858426570892334,-8.030312538146973,2.537588357925415,0.6264423131942749,0.22907446324825287,0.11087203770875931,-49.80999755859375,48.669979095458984,-44.82607650756836
0.993,3.9589247703552246,-8.032705307006836,2.699103832244873,0.49266281723976135,0.3300199508666992,0.09254607558250427,-49.92692184448242,48.479976654052734,-45.24992752075195
1.0,4.035495281219482,-8.193024635314941,2.7050859928131104,0.42210787534713745,0.3426953852176666,0.07910704612731934,-49.853843688964844,48.72844314575195,-45.235313415527344
1.01,4.052245140075684,-8.453842163085938,2.6177480220794678,0.3594941794872284,0.35124751925468445,0.0529925599694252,-49.4007568359375,48.36305236816406,-45.26454162597656
1.02,4.077369689941406,-8.718249320983887,2.5770697593688965,0.34895676374435425,0.3836233615875244,0.020158551633358,-49.82461166381836,48.62613296508789,-45.83454895019531
1.03,3.964907169342041,-8.842676162719727,2.63449764251709,0.35674530267715454,0.44226643443107605,-0.014660765416920185,-49.6784553527832,48.62613296508789,-46.346099853515625
1.049,3.810570001602173,-8.760123252868652,2.651247262954712,0.3452915847301483,0.535881519317627,-0.05711590126156807,-49.576148986816406,48.684593200683594,-47.2230339050293
1.053,3.583251953125,-8.60219669342041,2.5663022994995117,0.3026837408542633,0.64217209815979,-0.08048149198293686,-49.795379638671875,48.52382278442383,-46.857643127441406
1.06,3.5497522354125977,-8.488537788391113,2.4430718421936035,0.27611106634140015,0.7032586336135864,-0.08277223259210587,-50.10231018066406,48.88921356201172,-47.500728607177734
1.07,3.565305471420288,-8.414360046386719,2.228914260864258,0.24327708780765533,0.7443392872810364,-0.06505714356899261,-50.01461410522461,48.611515045166016,-48.1584358215332
1.08,3.8333017826080322,-8.59501838684082,2.0757734775543213,0.2002110779285431,0.7133378982543945,-0.011301006190478802,-49.94153594970703,49.07921600341797,-48.88921356201172
1.09,4.019941806793213,-8.970691680908203,1.9956140518188477,0.11927143484354019,0.5983425378799438,0.07788532227277756,-49.32768249511719,48.56766891479492,-47.99766159057617
1.108,4.127618789672852,-9.150154113769531,2.550748825073242,-0.1670716404914856,0.38606685400009155,0.21212296187877655,-49.70768737792969,48.713829040527344,-47.80765914916992
1.112,4.086941242218018,-8.825925827026367,3.276970386505127,-0.24892757833003998,0.38606685400009155,0.21319197118282318,-49.239986419677734,48.845367431640625,-48.479976654052734
1.12,4.0905303955078125,-8.636893272399902,3.5712878704071045,-0.3764457106590271,0.41202861070632935,0.19486600160598755,-50.02922821044922,49.283836364746094,-48.479976654052734
1.13,4.139583110809326,-8.423932075500488,3.786641836166382,-0.5442808866500854,0.4908302128314972,0.1537853181362152,-50.08769607543945,48.713829040527344,-48.5384407043457
1.14,4.242474555969238,-8.289934158325195,3.816551923751831,-0.6814201474189758,0.6062837243080139,0.10170906037092209,-50.21923065185547,49.15229415893555,-47.70534896850586
1.15,4.342973232269287,-8.181060791015625,3.7292141914367676,-0.7612908482551575,0.775340735912323,0.033139437437057495,-49.26921844482422,48.93306350708008,-48.07073974609375
1.169,4.411168098449707,-8.02074146270752,3.6251261234283447,-0.7493789196014404,0.8985827565193176,-0.014966198243200779,-50.01461410522461,49.37152862548828,-47.82227325439453
1.173,4.463810443878174,-7.907082557678223,3.678964614868164,-0.6522513628005981,1.0109819173812866,-0.05467243865132332,-50.0584602355957,49.26921844482422,-48.2607421875
1.18,4.514059543609619,-7.905885696411133,3.8153557777404785,-0.6175847053527832,1.0251846313476562,-0.05497787147760391,-50.51154327392578,49.13768005371094,-48.1584358215332
1.19,4.579862117767334,-8.002795219421387,4.104887008666992,-0.5740606188774109,1.0314459800720215,-0.031612277030944824,-50.0584602355957,48.81613540649414,-48.479976654052734
1.2,4.694717884063721,-8.34018325805664,4.442275047302246,-0.56810462474823,0.9758571982383728,0.0277943667024374,-50.10231018066406,48.78690719604492,-48.52382278442383
1.21,5.111069202423096,-9.09152889251709,4.810770034790039,-0.5774204134941101,0.8889616131782532,0.09666942805051804,-50.13154220581055,48.69921112060547,-47.82227325439453
1.229,5.639883041381836,-9.950552940368652,5.112265586853027,-0.570853590965271,0.6340781450271606,0.25992316007614136,-50.39461898803711,48.9184455871582,-48.289974212646484
1.232,5.925825119018555,-10.922039031982422,5.325226783752441,-0.559857964515686,0.5998696684837341,0.26969701051712036,-50.233848571777344,49.38614273071289,-47.909969329833984
1.24,5.698506832122803,-11.219944953918457,5.302494525909424,-0.4973970353603363,0.4980078935623169,0.26801711320877075,-50.65769958496094,49.70768737792969,-47.64688491821289
1.25,5.117051124572754,-11.069197654724121,5.0943193435668945,-0.2816088795661926,0.42791110277175903,0.14553864300251007,-50.146156311035156,49.07921600341797,-48.23151397705078
1.26,4.889732837677002,-10.402796745300293,5.2151570320129395,-0.07987063378095627,0.48838675022125244,0.04657847434282303,-50.146156311035156,49.50307083129883,-47.851505279541016
1.27,4.855037212371826,-9.820143699645996,5.2797627449035645,0.040622539818286896,0.5800164937973022,0.014049900695681572,-49.86845779418945,49.34230041503906,-48.216896057128906
1.289,4.967499732971191,-9.430113792419434,4.9423747062683105,0.12736541032791138,0.6032294034957886,0.026572639122605324,-49.7223014831543,49.75153350830078,-49.035369873046875
1.293,5.044069766998291,-9.049654960632324,3.954139232635498,0.36453381180763245,0.44348815083503723,0.09712757170200348,-50.17538833618164,49.4007568359375,-49.590763092041016
1.3,5.0464630126953125,-8.950352668762207,3.59043025970459,0.5583308339118958,0.2996293902397156,0.13958270847797394,-50.365386962890625,49.663841247558594,-49.18152618408203
1.31,4.893321990966797,-8.571090698242188,2.803191661834717,0.8593347072601318,0.08475754410028458,0.20311269164085388,-49.766151428222656,49.86845779418945,-50.0584602355957
1.32,4.930410861968994,-8.342576026916504,2.2301106452941895,1.178053617477417,-0.16142113506793976,0.2765692174434662,-50.2776985168457,49.94153594970703,-50.64308547973633
1.33,5.249852657318115,-8.221738815307617,1.31365966796875,1.4839444160461426,-0.4763221740722656,0.3816380500793457,-50.11692810058594,49.6784553527832,-50.70154571533203
1.349,7.946564197540283,-8.496912956237793,-5.894718170166016,2.1954495906829834,-2.719266653060913,0.5601634383201599,-50.07307434082031,49.37152862548828,-51.03771209716797
1.352,6.495316982269287,-11.83011531829834,-1.9968103170394897,1.9007071256637573,-2.9987375736236572,0.5412266254425049,-49.853843688964844,49.56153106689453,-50.48231506347656
1.36,3.9876389503479004,-12.90927791595459,0.9655039310455322,1.0824532508850098,-2.68261456489563,0.39874228835105896,-50.146156311035156,50.10231018066406,-51.72464370727539
1.37,1.7455641031265259,-13.216755867004395,2.854637384414673,-0.21960605680942535,-1.3571898937225342,0.10277807712554932,-49.795379638671875,49.70768737792969,-51.505409240722656
1.38,1.4596216678619385,-12.211770057678223,3.07716965675354,-1.3379476070404053,0.17287485301494598,-0.22647827863693237,-50.02922821044922,50.13154220581055,-50.87693786621094
1.39,3.335594892501831,-10.774880409240723,1.7898313999176025,-2.0199787616729736,0.9669996500015259,-0.44028112292289734,-50.43846893310547,49.853843688964844,-49.50307083129883
1.409,4.910071849822998,-8.823533058166504,0.46420758962631226,-2.163837432861328,0.3874412775039673,-0.42821651697158813,-51.25694274902344,49.10844802856445,-48.14381790161133
1.412,4.7365922927856445,-8.551947593688965,0.28594231605529785,-2.054797887802124,0.00809396430850029,-0.40744709968566895,-50.70154571533203,49.32768249511719,-48.099971771240234
1.42,4.706681728363037,-8.155935287475586,0.20099709928035736,-1.834122896194458,-0.5338962078094482,-0.4036291837692261,-51.31540298461914,49.41537857055664,-47.661502838134766
1.43,4.517648696899414,-7.77906608581543,0.2667997181415558,-1.6006195545196533,-0.971428394317627,-0.37201693654060364,-51.578487396240234,45.01607894897461,-46.60917663574219
1.44,4.31306266784668,-7.8664045333862305,0.5335994362831116,-1.560760736465454,-1.1869111061096191,-0.3701843023300171,-52.03157043457031,48.56766891479492,-45.0599250793457
1.45,4.135993957519531,-8.01116943359375,0.62931227684021,-1.7096590995788574,-1.3559681177139282,-0.4323398768901825,-51.3592529296875,48.24612808227539,-44.7822265625
1.469,3.4648072719573975,-8.045866012573242,0.5826523303985596,-2.1171061992645264,-1.2733485698699951,-0.6505715250968933,-52.13387680053711,48.1584358215332,-42.502193450927734
1.473,3.2949166297912598,-8.037490844726562,0.778863787651062,-2.143831491470337,-1.2264646291732788,-0.6696610450744629,-52.25080108642578,47.836891174316406,-42.35603332519531
1.48,3.060420036315918,-8.02791976928711,1.1748758554458618,-2.2040016651153564,-1.0613783597946167,-0.7078401446342468,-52.952354431152344,48.23151397705078,-41.099090576171875
1.49,2.81276273727417,-8.117650985717773,1.9142580032348633,-2.2186625003814697,-0.8107708692550659,-0.7437283992767334,-52.323883056640625,46.7991828918457,-40.48523712158203
1.5,3.146561861038208,-8.23011302947998,2.427518606185913,-2.1282544136047363,-0.5940664410591125,-0.7925975918769836,-53.08388900756836,46.8430290222168,-39.155216217041016
1.51,4.125226020812988,-8.103293418884277,2.6524438858032227,-1.7588337659835815,-0.6661485433578491,-0.7849618196487427,-52.66004180908203,45.790706634521484,-38.61444091796875
1.525,4.012763500213623,-10.451848983764648,3.8045878410339355,-1.13620924949646,-0.9036223888397217,-0.5433646440505981,-53.05466079711914,45.761470794677734,-37.035953521728516
1.53,3.5126636028289795,-11.185249328613281,4.041477203369141,-0.9923505187034607,-0.8837692737579346,-0.4775438904762268,-53.127742767333984,45.33761978149414,-36.729026794433594
1.54,3.6023943424224854,-12.65922737121582,4.723431587219238,-0.8229882121086121,-0.789237916469574,-0.35445454716682434,-53.58082580566406,45.33761978149414,-36.39286804199219
1.55,3.5988051891326904,-13.348361015319824,5.020142078399658,-0.7970263957977295,-0.8726209998130798,-0.2509129047393799,-53.434669494628906,45.08915710449219,-36.4074821472168
1.56,3.363112211227417,-13.01695442199707,4.780859470367432,-0.806036651134491,-1.0436632633209229,-0.1820378452539444,-53.66851806640625,45.64455032348633,-35.355159759521484
1.57,3.62153697013855,-12.028718948364258,4.00917387008667,-0.7476990222930908,-1.2290607690811157,-0.10231993347406387,-53.80005645751953,44.84069061279297,-34.916690826416016
1.585,3.1166512966156006,-10.575079917907715,2.3294126987457275,-0.6913467645645142,-1.3686436414718628,-0.0679587572813034,-53.17158508300781,44.928382873535156,-34.05436706542969
1.59,3.493520736694336,-9.985248565673828,1.8628122806549072,-0.7724390625953674,-1.3135130405426025,-0.1385136991739273,-52.937740325927734,44.46068572998047,-33.83513641357422
1.6,3.946960687637329,-8.837889671325684,0.8303093910217285,-1.0248790979385376,-1.1352930068969727,-0.19318613409996033,-53.30312728881836,44.82607650756836,-33.45513153076172
1.61,3.6885359287261963,-8.286344528198242,-0.1172483041882515,-1.3165671825408936,-0.7698429226875305,-0.2919935882091522,-53.04004669189453,44.446067810058594,-32.95820236206055
1.62,3.783052444458008,-7.919046401977539,-0.4749752879142761,-1.430493712425232,-0.49296826124191284,-0.38087448477745056,-53.478515625,44.358375549316406,-32.446651458740234
1.638,3.504288673400879,-7.579265117645264,-0.349352091550827,-1.4092661142349243,-0.3090977966785431,-0.4335615932941437,-53.332359313964844,43.817596435546875,-32.25665283203125
1.642,3.2829525470733643,-7.008577346801758,0.39840495586395264,-1.1879801750183105,-0.2588541507720947,-0.4418082535266876,-54.15083312988281,43.91990661621094,-31.584331512451172
1.65,3.0005996227264404,-7.048058986663818,1.0061818361282349,-0.9952521920204163,-0.43447789549827576,-0.4369213581085205,-53.478515625,43.29143524169922,-31.365097045898438
1.66,2.3473589420318604,-7.4261250495910645,1.4500504732131958,-0.7438811659812927,-0.6600399017333984,-0.578489363193512,-53.39081954956055,43.379127502441406,-31.438175201416016
1.67,1.9609181880950928,-7.860422611236572,1.8293129205703735,-0.5978842973709106,-0.6704245805740356,-0.6948592066764832,-53.58082580566406,42.706809997558594,-30.99970817565918
1.68,2.1535403728485107,-7.983652591705322,2.0231313705444336,-0.488539457321167,-0.5438227653503418,-0.7179194092750549,-54.267757415771484,42.37065124511719,-29.97661590576172
1.69,2.3222343921661377,-8.059026718139648,2.1332013607025146,-0.4164573848247528,-0.43997567892074585,-0.6215553879737854,-54.15083312988281,41.93218231201172,-29.36275863647461
1.703,2.093719720840454,-8.088936805725098,1.7024933099746704,-0.3068070709705353,-0.33017265796661377,-0.5167919993400574,-54.37007141113281,41.9029541015625,-29.172758102416992
1.71,2.0207386016845703,-7.9860453605651855,1.4931212663650513,-0.2541199326515198,-0.2399173229932785,-0.48838675022125244,-54.15083312988281,41.36217498779297,-29.698917388916016
1.72,1.891526222229004,-7.8113694190979,1.1162517070770264,-0.2382374405860901,-0.11194105446338654,-0.46761733293533325,-54.77930450439453,41.97603225708008,-29.581993103027344
1.73,1.7778671979904175,-7.597211837768555,0.7214360237121582,-0.26221391558647156,-0.07620543986558914,-0.4398229718208313,-54.633148193359375,41.11370849609375,-29.932767868041992
1.74,1.695314884185791,-7.385447025299072,0.3613162338733673,-0.2741257846355438,-0.15286903083324432,-0.3988949954509735,-54.6185302734375,41.318328857421875,-29.304296493530273
1.758,1.6079767942428589,-7.194020748138428,0.1375872939825058,-0.24129176139831543,-0.2791654169559479,-0.3539963960647583,-54.691612243652344,40.85062789916992,-29.421222686767578
1.762,1.2287143468856812,-7.0061845779418945,0.34695929288864136,-0.14996741712093353,-0.3436116874217987,-0.27718010544776917,-55.2177734375,40.74831771850586,-28.778135299682617
1.77,1.007378339767456,-6.897311210632324,0.7058826684951782,-0.10965030640363693,-0.2767219543457031,-0.2298380434513092,-55.13007736206055,40.06138610839844,-28.80736541748047
1.78,0.8973084688186646,-6.5312089920043945,1.0229315757751465,-0.06154467165470123,-0.10094548016786575,-0.14645493030548096,-54.969303131103516,40.61677932739258,-28.982751846313477
1.79,0.8386843204498291,-6.206982135772705,1.1772687435150146,-0.004123340360820293,0.1293507218360901,-0.0507018156349659,-54.691612243652344,40.25138854980469,-28.73428726196289
1.8,1.0037890672683716,-5.8683977127075195,1.1617152690887451,0.0682641938328743,0.3448334336280823,0.010690141469240189,-54.969303131103516,40.572933197021484,-29.085063934326172
1.819,1.3674980401992798,-5.715256690979004,1.2275179624557495,0.15546520054340363,0.5430591702461243,0.025656340643763542,-54.91084289550781,40.10523223876953,-29.947385787963867
1.823,2.438286066055298,-5.863611698150635,1.1676974296569824,0.2719877362251282,0.8907942175865173,0.00855211354792118,-55.23238754272461,40.61677932739258,-29.932767868041992
1.83,3.376272678375244,-6.137589454650879,0.8291130065917969,0.318566232919693,1.0600038766860962,0.04581489413976669,-55.20315933227539,39.98830795288086,-30.57585334777832
1.84,4.570291042327881,-6.711866855621338,0.25004997849464417,0.37782013416290283,1.1827878952026367,0.13271047174930573,-56.06547546386719,40.777549743652344,-30.751243591308594
1.85,5.42572546005249,-7.353143692016602,-0.35413771867752075,0.4014911651611328,1.1954632997512817,0.19379699230194092,-55.65624237060547,40.41215896606445,-31.45279312133789
1.86,6.183053970336914,-8.124829292297363,-1.1270194053649902,0.37369680404663086,1.1788172721862793,0.19318613409996033,-56.51856231689453,40.73370361328125,-31.18971061706543
1.878,7.091129779815674,-8.823533058166504,-1.9130616188049316,0.2243402600288391,1.1898127794265747,0.15057827532291412,-56.32855987548828,40.98217010498047,-32.21280288696289
1.882,8.116454124450684,-9.381060600280762,-3.6873395442962646,0.05604688450694084,1.1728612184524536,0.07284567505121231,-56.606258392333984,40.93832015991211,-32.066646575927734
1.89,8.6033935546875,-9.451648712158203,-4.610969066619873,-0.010537425056099892,1.1678215265274048,0.003359758760780096,-56.007015228271484,41.05524826049805,-32.46126937866211
1.9,9.335597038269043,-9.571290016174316,-5.2175493240356445,-0.052839841693639755,1.1598803997039795,-0.11071932315826416,-57.20549774169922,41.82987594604492,-32.56357955932617
1.91,10.208977699279785,-9.45045280456543,-5.016552448272705,-0.08216137439012527,1.1053606271743774,-0.2632829248905182,-56.75241470336914,40.99678421020508,-33.060508728027344
1.92,11.33958625793457,-9.232706069946289,-4.096512317657471,-0.06658431142568588,0.7730499505996704,-0.5143485069274902,-57.103187561035156,41.36217498779297,-33.002044677734375
1.939,12.43310546875,-9.389435768127441,-2.68953275680542,-0.016493361443281174,0.09819658100605011,-0.6745479106903076,-57.24934387207031,40.93832015991211,-34.33206558227539
1.943,11.576476097106934,-9.964909553527832,-2.2408783435821533,0.07070764899253845,-0.6840163469314575,-0.6966918110847473,-57.556270599365234,40.42677688598633,-33.71821212768555
1.95,10.447062492370605,-10.436296463012695,-1.872383713722229,0.07192938029766083,-0.9320276379585266,-0.6433938145637512,-57.17626190185547,40.09061813354492,-34.03975296020508
1.96,9.004191398620605,-10.651649475097656,-1.5553346872329712,0.007941247895359993,-1.235474944114685,-0.583528995513916,-57.556270599365234,40.397544860839844,-33.49897384643555
1.97,7.494320392608643,-10.363314628601074,-1.345962643623352,0.02474004216492176,-1.5638149976730347,-0.4486805200576782,-57.38088607788086,39.60830307006836,-33.10435485839844
1.98,5.827719688415527,-9.982855796813965,-0.8243273496627808,0.08964447677135468,-1.7398968935012817,-0.3045163154602051,-57.337032318115234,39.944461822509766,-33.07512283325195
1.999,4.348955154418945,-9.389435768127441,-0.23808583617210388,0.15164729952812195,-1.8336646556854248,-0.1869247555732727,-57.45396041870117,39.389068603515625,-32.08126449584961
2.003,3.078366279602051,-9.115457534790039,0.5060819387435913,0.23090705275535583,-2.012342929840088,0.03634648025035858,-57.41011428833008,39.49137496948242,-32.28588104248047
2.01,2.444268226623535,-9.68255615234375,0.5958127975463867,0.21762074530124664,-2.096794843673706,0.12599095702171326,-56.78164291381836,39.374454498291016,-31.350481033325195
2.02,1.3184452056884766,-11.93659496307373,0.49531427025794983,0.039706241339445114,-2.1682660579681396,0.3880521357059479,-57.0154914855957,40.04676818847656,-31.10201644897461
2.03,-0.1615155190229416,-14.6668062210083,-0.7489534616470337,-0.09758572280406952,-1.9773707389831543,0.6108652353286743,-56.182403564453125,39.8421516418457,-29.552762985229492
2.04,-1.7742778062820435,-15.40499210357666,-2.359323024749756,-0.021838432177901268,-1.5468635559082031,0.6722572445869446,-54.969303131103516,40.10523223876953,-29.37737464904785
2.059,-2.5603203773498535,-13.665410041809082,-2.764906644821167,0.18585574626922607,-0.9524915814399719,0.4593706429004669,-55.1593132019043,40.19292449951172,-29.523530960083008
2.063,1.5002998113632202,-7.601996898651123,-1.0301101207733154,0.33689215779304504,0.22617284953594208,0.13729196786880493,-54.77930450439453,40.309852600097656,-29.201988220214844
2.07,3.10109806060791,-6.156732559204102,-0.6101697683334351,0.40286561846733093,0.5230533480644226,0.11835514008998871,-54.954689025878906,40.397544860839844,-30.07892417907715
2.08,5.598008632659912,-4.2484564781188965,0.5874379277229309,0.4940372407436371,0.6440047025680542,0.16890422999858856,-55.188541412353516,40.71908950805664,-30.00584602355957
2.09,5.960521221160889,-4.4542388916015625,2.053041696548462,0.5619960427284241,0.6688974499702454,0.29993483424186707,-54.8377685546875,40.587547302246094,-30.181232452392578
2.1,5.411368370056152,-5.26181697845459,2.974278450012207,0.6436992287635803,0.56810462474823,0.4358523488044739,-55.30546951293945,41.05524826049805,-31.423559188842773
2.119,4.728217601776123,-6.440281867980957,3.397808074951172,0.7422012686729431,0.3631593883037567,0.5644394755363464,-54.51622772216797,42.282955169677734,-31.04355239868164
2.122,3.858426570892334,-8.434700012207031,3.3786656856536865,0.8840747475624084,0.03436116874217987,0.7695375084877014,-54.764686584472656,41.82987594604492,-30.824321746826172
2.13,3.55214524269104,-8.95394229888916,3.2434709072113037,0.9340129494667053,-0.0019853119738399982,0.8513934016227722,-54.35545349121094,42.16603469848633,-31.482023239135742
2.14,2.6428725719451904,-9.522236824035645,2.775674343109131,0.9795224070549011,0.15286903083324432,0.8796459436416626,-54.91084289550781,42.56065368652344,-32.08126449584961
2.15,2.1786649227142334,-9.268598556518555,2.196611166000366,1.0070112943649292,0.5184718370437622,0.7680103182792664,-53.94621658325195,42.882198333740234,-32.242034912109375
2.16,2.228914260864258,-8.645268440246582,1.5314065217971802,1.000749945640564,1.014647126197815,0.5464189648628235,-54.50160598754883,43.452205657958984,-32.82666015625
2.179,2.737389087677002,-8.110472679138184,1.164108157157898,0.8953757286071777,1.6468926668167114,0.3173445165157318,-54.38468551635742,44.4022216796875,-34.40514373779297
2.183,3.9876389503479004,-7.812565803527832,1.1102696657180786,0.5751296281814575,2.3577871322631836,0.08460482954978943,-54.82314682006836,43.3645133972168,-35.76439666748047
2.19,4.377668857574463,-7.922635555267334,1.3399806022644043,0.4375322163105011,2.333352565765381,0.0036651913542300463,-55.01315689086914,43.393741607666016,-35.866703033447266
2.2,4.565505504608154,-8.087740898132324,1.534995675086975,0.3280346393585205,2.023949384689331,-0.04963279888033867,-55.33469772338867,43.686058044433594,-36.4074821472168
2.21,4.588237285614014,-8.274380683898926,1.6534403562545776,0.3036000430583954,1.564578652381897,-0.035124752670526505,-55.378543853759766,43.83221435546875,-36.96287536621094
2.22,4.488935470581055,-8.359325408935547,1.470389485359192,0.33979377150535583,1.141554355621338,0.06276640295982361,-55.68547058105469,44.562992095947266,-38.13212585449219
2.239,4.53080940246582,-8.549554824829102,1.2957134246826172,0.6010913848876953,0.48640143871307373,0.3572034239768982,-55.758548736572266,44.95761489868164,-39.05290985107422
2.242,4.537988185882568,-9.049654960632324,1.5445669889450073,0.671493649482727,0.37048977613449097,0.4219551682472229,-55.71470260620117,44.606842041015625,-39.389068603515625
2.25,4.5200419425964355,-9.182456970214844,1.7970097064971924,0.7654141187667847,0.23258693516254425,0.4948008358478546,-55.14469909667969,44.811458587646484,-38.93598175048828
2.26,4.405186176300049,-9.265008926391602,2.146361827850342,0.8462010622024536,0.10354165732860565,0.540921151638031,-55.51008605957031,45.32300567626953,-39.73984146118164
2.27,4.602594375610352,-9.105886459350586,2.097308874130249,0.8741481304168701,0.014966198243200779,0.5597052574157715,-54.70622634887695,44.79684066772461,-39.8421516418457
2.28,4.616950988769531,-8.825925827026367,1.8424733877182007,0.9166033267974854,-0.11667525768280029,0.587652325630188,-55.14469909667969,45.162235260009766,-40.61677932739258
2.299,4.5822553634643555,-8.627321243286133,1.730010747909546,0.9500481486320496,-0.18997909128665924,0.5661193132400513,-54.72084426879883,45.62993240356445,-41.77141189575195
2.303,4.874179840087891,-8.149953842163086,1.3160523176193237,1.0196868181228638,-0.27611106634140015,0.5487096905708313,-54.51622772216797,45.90762710571289,-41.332942962646484
2.31,4.808376789093018,-8.109275817871094,1.2131609916687012,1.0468703508377075,-0.30085110664367676,0.5462662577629089,-54.12160110473633,45.83454895019531,-41.332942962646484
2.32,4.506881237030029,-8.37129020690918,1.3160523176193237,1.0586293935775757,-0.3113885521888733,0.4993823170661926,-54.39929962158203,46.43379211425781,-41.318328857421875
2.33,4.170689582824707,-8.794819831848145,1.490728497505188,1.0245736837387085,-0.35735616087913513,0.36804628372192383,-53.99005889892578,45.26454162597656,-43.01374053955078
2.34,4.192224979400635,-8.998208999633789,1.5002998113632202,0.9983065128326416,-0.41370847821235657,0.2863430678844452,-53.90237045288086,46.03916931152344,-42.67757797241211
2.359,4.11924409866333,-8.927620887756348,1.5002998113632202,0.9929614663124084,-0.5629122853279114,0.3126102685928345,-53.58082580566406,47.07687759399414,-43.15989685058594
2.363,3.998406410217285,-8.883354187011719,1.5804593563079834,0.9905179738998413,-0.5855143666267395,0.32039880752563477,-53.741600036621094,46.930721282958984,-43.379127502441406
2.37,3.8141591548919678,-8.739784240722656,1.5816556215286255,0.9877691268920898,-0.6612616181373596,0.33719760179519653,-53.215431213378906,46.930721282958984,-43.48143768310547
2.38,3.6873395442962646,-8.443074226379395,1.5457634925842285,1.0027352571487427,-0.7809911966323853,0.36804628372192383,-53.58082580566406,46.740718841552734,-44.21221923828125
2.39,3.535395383834839,-8.214560508728027,1.636690616607666,1.0193814039230347,-0.8892670273780823,0.408363401889801,-52.64542770385742,46.550716400146484,-44.358375549316406
2.4,3.190828800201416,-8.207381248474121,1.7862420082092285,1.004873275756836,-0.9668470025062561,0.4288273751735687,-52.58695983886719,47.36919021606445,-44.27068328857422
2.419,2.9168508052825928,-8.26839828491211,2.39401912689209,0.8226827383041382,-0.9401216506958008,0.308181494474411,-52.718502044677734,48.07073974609375,-44.0806770324707
2.423,2.847459077835083,-8.239684104919434,2.4323041439056396,0.7507533431053162,-0.8894197344779968,0.2690861225128174,-52.67465591430664,47.79304122924805,-44.03683090209961
2.43,2.7661027908325195,-8.15234661102295,2.544766664505005,0.6438519358634949,-0.76846843957901,0.20647244155406952,-52.338497161865234,47.64688491821289,-44.84069061279297
2.44,2.723031997680664,-8.244470596313477,2.8354947566986084,0.4922046661376953,-0.5442808866500854,0.11224649101495743,-52.58695983886719,47.354576110839844,-44.69453430175781
2.45,2.9288148880004883,-8.34018325805664,2.998206615447998,0.3364340364933014,-0.27290403842926025,0.014355332590639591,-52.075416564941406,47.38380432128906,-44.50453186035156
2.46,3.170490026473999,-8.286344528198242,3.0065815448760986,0.20372354984283447,0.03451388329267502,-0.07757988572120667,-52.47003936767578,47.98304748535156,-45.83454895019531
2.479,3.4983065128326416,-8.209774017333984,3.180061101913452,0.03940080478787422,0.6307183504104614,-0.2321287989616394,-53.127742767333984,48.056121826171875,-44.89915466308594
2.482,3.55932354927063,-8.171488761901855,3.190828800201416,0.007788531482219696,0.7703010439872742,-0.2580905556678772,-52.703887939453125,47.456886291503906,-45.14761734008789
2.49,3.772284984588623,-8.12123966217041,3.239881753921509,-0.03955352306365967,0.9544769525527954,-0.2770273983478546,-52.689273834228516,46.82841491699219,-45.68839645385742
2.5,4.0450663566589355,-8.141578674316406,3.31884503364563,-0.08781187981367111,1.1493428945541382,-0.2802344262599945,-53.5369758605957,47.39842224121094,-46.1414794921875
2.51,4.1659040451049805,-8.188239097595215,3.290131092071533,-0.10903944075107574,1.2744176387786865,-0.275347501039505,-52.733116149902344,46.7991828918457,-46.346099853515625
2.52,4.2376885414123535,-8.2695951461792,3.146561861038208,-0.08933904021978378,1.3394746780395508,-0.27320948243141174,-53.449283599853516,47.296112060546875,-47.33995819091797
2.538,3.972085475921631,-8.293522834777832,2.7625136375427246,0.08460482954978943,1.3703234195709229,-0.25641068816185,-54.29698944091797,46.78456497192383,-48.24612808227539
2.541,3.9385857582092285,-8.309076309204102,2.7326035499572754,0.11362093687057495,1.3745994567871094,-0.25014930963516235,-54.12160110473633,46.82841491699219,-47.82227325439453
2.55,3.851248025894165,-8.239684104919434,2.531606435775757,0.2451096773147583,1.377501130104065,-0.22372940182685852,-53.814674377441406,46.755332946777344,-47.9391975402832
2.56,3.7423744201660156,-8.185846328735352,2.3569302558898926,0.3888157308101654,1.3199270963668823,-0.18677204847335815,-54.633148193359375,47.03303146362305,-48.421512603759766
2.57,3.586841106414795,-8.029115676879883,2.266003131866455,0.532369077205658,1.220050573348999,-0.1420261561870575,-54.19468307495117,46.726104736328125,-49.42999267578125
2.58,3.5461630821228027,-7.820940971374512,2.2097716331481934,0.6600399017333984,1.0836749076843262,-0.08155050873756409,-54.70622634887695,47.67612075805664,-48.845367431640625
2.599,3.5270204544067383,-8.029115676879883,2.5004994869232178,0.7696901559829712,0.6159048676490784,0.12400564551353455,-54.9400749206543,47.2230339050293,-50.21923065185547
2.604,3.438485860824585,-8.149953842163086,2.548356056213379,0.7701483368873596,0.5597052574157715,0.14477506279945374,-54.42852783203125,46.740718841552734,-51.03771209716797
2.61,3.363112211227417,-8.420342445373535,2.6871397495269775,0.759305477142334,0.41691553592681885,0.20952677726745605,-53.93159866333008,46.477638244628906,-51.578487396240234
2.62,3.239881753921509,-8.828319549560547,2.8103702068328857,0.726471483707428,0.27458393573760986,0.29016098380088806,-54.41391372680664,47.00379943847656,-52.0608024597168
2.63,3.104687213897705,-9.20279598236084,2.915654182434082,0.6907358169555664,0.19120082259178162,0.33796119689941406,-54.20929718017578,46.65302658081055,-51.900028228759766
2.64,3.0065815448760986,-9.56770133972168,2.9754748344421387,0.637132465839386,0.16325373947620392,0.35903605818748474,-53.90237045288086,47.39842224121094,-52.499271392822266
2.653,2.9515466690063477,-9.889535903930664,3.0592236518859863,0.5818491578102112,0.23747386038303375,0.35475999116897583,-53.50774383544922,47.237648010253906,-52.703887939453125
2.66,2.946760892868042,-9.856036186218262,3.0687947273254395,0.5372559428215027,0.30833423137664795,0.34865131974220276,-54.10698699951172,47.39842224121094,-53.61005783081055
2.67,3.1130621433258057,-9.58325481414795,3.0508487224578857,0.4547891914844513,0.3940081000328064,0.34926217794418335,-53.50774383544922,46.53609848022461,-53.449283599853516
2.68,3.377469062805176,-9.250652313232422,3.0592236518859863,0.3631593883037567,0.451123982667923,0.3539963960647583,-54.10698699951172,47.1791877746582,-54.033905029296875
2.69,3.772284984588623,-9.017352104187012,3.170490026473999,0.21700987219810486,0.4579961895942688,0.3617849349975586,-54.15083312988281,47.1791877746582,-53.55158996582031
2.709,4.244867324829102,-9.066404342651367,3.3415768146514893,0.08567384630441666,0.42012259364128113,0.35124751925468445,-52.96696853637695,47.76381301879883,-53.97544479370117
2.713,4.689931869506836,-9.23031234741211,3.3296124935150146,-0.031154125928878784,0.3715587854385376,0.31551188230514526,-53.06927490234375,47.544578552246094,-54.42852783203125
2.72,4.844269275665283,-9.376275062561035,3.3619158267974854,-0.06429356336593628,0.3660609722137451,0.28267788887023926,-52.893890380859375,48.041507720947266,-53.7562141418457
2.73,5.0009989738464355,-9.529415130615234,3.404986619949341,-0.076052725315094,0.39507707953453064,0.22602012753486633,-52.76234817504883,47.2230339050293,-55.4954719543457
2.74,5.07397985458374,-9.629914283752441,3.5437703132629395,-0.07742717117071152,0.4804455041885376,0.13011428713798523,-53.244667053222656,48.056121826171875,-54.954689025878906
2.75,5.318048000335693,-9.717252731323242,3.860819101333618,-0.11850785464048386,0.5328271985054016,0.04581489413976669,-53.06927490234375,47.471500396728516,-55.14469909667969
2.768,5.722434997558594,-9.6466646194458,4.063012599945068,-0.2119702398777008,0.5597052574157715,0.001679879380390048,-53.30312728881836,48.18766403198242,-55.553932189941406
2.772,6.343372344970703,-9.378667831420898,3.9086756706237793,-0.3419318199157715,0.6540839672088623,0.07757988572120667,-53.025428771972656,47.96842956542969,-55.02777099609375
2.78,6.695117950439453,-9.506684303283691,3.8081772327423096,-0.37491855025291443,0.7121161818504333,0.1466076523065567,-53.01081466674805,47.661502838134766,-55.787784576416016
2.79,7.302894115447998,-9.866804122924805,3.720839262008667,-0.3730859160423279,0.6635523438453674,0.17058412730693817,-53.17158508300781,47.661502838134766,-55.02777099609375
2.8,8.169095993041992,-10.254441261291504,3.6873395442962646,-0.3280346393585205,0.4586070775985718,0.13988813757896423,-53.37620544433594,48.026893615722656,-55.67085647583008
2.81,8.47059154510498,-10.432705879211426,3.407379150390625,-0.22861631214618683,0.17562375962734222,0.06582073122262955,-52.67465591430664,48.056121826171875,-54.70622634887695
2.829,8.085347175598145,-10.1874418258667,2.6799612045288086,-0.020005837082862854,-0.04596760869026184,-0.04092797264456749,-53.244667053222656,48.465362548828125,-55.13007736206055
2.833,7.0923261642456055,-9.394221305847168,1.6618152856826782,0.508698046207428,-0.16019940376281738,-0.23350323736667633,-53.142356872558594,47.9391975402832,-56.007015228271484
2.84,6.634100437164307,-9.000602722167969,1.4117653369903564,0.6921103000640869,-0.17547103762626648,-0.27290403842926025,-53.434669494628906,47.69073486328125,-56.12394332885742
2.85,6.14716100692749,-8.70508861541748,0.94037926197052,1.017701506614685,-0.3217732608318329,-0.28588491678237915,-53.46390151977539,47.13534164428711,-55.802398681640625
2.86,6.203392505645752,-11.645867347717285,-7.209574222564697,1.137431025505066,-1.534035325050354,-0.21578815579414368,-53.829288482666016,47.866119384765625,-56.48933029174805
2.87,3.7495527267456055,-13.13300609588623,-2.943171739578247,0.4418082535266876,-2.808605670928955,0.024587325751781464,-53.94621658325195,47.79304122924805,-56.708560943603516
2.889,1.8161523342132568,-12.221341133117676,1.574477195739746,-0.4395175576210022,-2.281276226043701,0.1774563491344452,-54.50160598754883,48.041507720947266,-55.89009094238281
2.893,1.5050853490829468,-10.603793144226074,4.889732837677002,-1.5575536489486694,-0.5789475440979004,-0.05971207842230797,-54.633148193359375,47.60304260253906,-53.99005889892578
2.9,1.9453648328781128,-10.114461898803711,4.961517333984375,-1.9851592779159546,0.027030786499381065,-0.294437050819397,-54.6185302734375,48.085357666015625,-54.91084289550781
2.91,3.376272678375244,-8.860621452331543,2.7804598808288574,-2.288759231567383,0.24663683772087097,-0.5499314665794373,-55.23238754272461,47.79304122924805,-52.67465591430664
2.92,3.5700912475585938,-8.713462829589844,0.23330020904541016,-2.2214114665985107,-0.20265454053878784,-0.6630942225456238,-55.42238998413086,47.96842956542969,-52.8792724609375
2.93,3.69930362701416,-8.885746002197266,-0.574277400970459,-1.9462167024612427,-0.797179102897644,-0.6227771043777466,-55.84624481201172,47.866119384765625,-52.0608024597168
2.949,3.620340585708618,-8.784051895141602,0.4893321990966797,-1.7279850244522095,-0.9404270052909851,-0.5502368807792664,-56.182403564453125,47.1207275390625,-50.365386962890625
2.953,4.012763500213623,-8.25284481048584,2.3090739250183105,-1.7017178535461426,-1.0713049173355103,-0.5838344097137451,-56.13855743408203,47.486114501953125,-50.760013580322266
2.96,3.838087320327759,-8.007580757141113,2.678764820098877,-1.718363881111145,-1.1201741695404053,-0.6206390857696533,-57.05934143066406,47.64688491821289,-49.89768981933594
2.97,3.476771354675293,-7.893921375274658,2.8977081775665283,-1.7017178535461426,-1.112691044807434,-0.6905831694602966,-56.75241470336914,47.456886291503906,-49.07921600341797
2.98,3.0209386348724365,-8.116454124450684,3.0484561920166016,-1.6397150754928589,-1.0309878587722778,-0.7701483368873596,-57.307804107666016,46.82841491699219,-48.69921112060547
2.99,2.6943180561065674,-8.628518104553223,3.0975089073181152,-1.539533019065857,-0.887739896774292,-0.854295015335083,-58.053199768066406,46.60917663574219,-47.33995819091797
3.008,2.6261227130889893,-9.372685432434082,3.1680970191955566,-1.2594513893127441,-0.5795583724975586,-0.9379835724830627,-58.76936340332031,46.316864013671875,-44.70914840698242
3.012,2.8725833892822266,-10.815557479858398,3.4408788681030273,-1.185231328010559,-0.5174028873443604,-0.9196576476097107,-58.681671142578125,46.1414794921875,-44.94300079345703
3.02,2.9599215984344482,-11.532208442687988,3.562912940979004,-1.0862711668014526,-0.44486260414123535,-0.8593347072601318,-59.57322692871094,45.995323181152344,-44.446067810058594
3.03,3.0137598514556885,-12.425928115844727,3.6119656562805176,-0.9750936627388,-0.38667771220207214,-0.7533495426177979,-59.51476287841797,45.86378479003906,-44.051448822021484
3.04,3.0616164207458496,-12.857831954956055,3.500699520111084,-0.8953757286071777,-0.39935314655303955,-0.645073652267456,-59.8363037109375,45.07453918457031,-43.51066970825195
3.05,3.0376882553100586,-12.859027862548828,3.2949166297912598,-0.9250026345252991,-0.5143485069274902,-0.5510004162788391,-60.52324295043945,45.14761734008789,-43.6422119140625
3.069,3.2506494522094727,-11.694920539855957,2.2815563678741455,-1.0722211599349976,-0.7396051287651062,-0.4980078935623169,-60.34785079956055,43.93452072143555,-42.54603958129883
3.073,2.7110679149627686,-9.987641334533691,0.9595218300819397,-1.2412781715393066,-0.906676709651947,-0.41859540343284607,-60.66939163208008,44.27068328857422,-41.756797790527344
3.08,2.4837498664855957,-8.987441062927246,0.47138604521751404,-1.2567025423049927,-0.7780895829200745,-0.3478877544403076,-60.71324157714844,44.577606201171875,-41.756797790527344
3.09,2.190629005432129,-8.061419486999512,0.38644087314605713,-1.1357512474060059,-0.607810914516449,-0.21181751787662506,-60.07015609741211,43.84682846069336,-40.85062789916992
3.1,2.0446667671203613,-7.84127950668335,1.1330015659332275,-0.8538368940353394,-0.6924157738685608,-0.056352317333221436,-61.005558013916016,44.577606201171875,-40.514469146728516
3.11,1.7395819425582886,-7.878368377685547,2.2169501781463623,-0.7113525867462158,-0.8816311955451965,0.02382374368607998,-60.91786193847656,43.61297607421875,-39.31599044799805
3.129,1.3076776266098022,-7.960920810699463,2.6117656230926514,-0.6223189830780029,-1.0945178270339966,0.012522736564278603,-60.53785705566406,44.21221923828125,-40.10523223876953
3.132,1.0947163105010986,-8.080561637878418,2.799602508544922,-0.6302602291107178,-1.0807733535766602,-0.0138971833512187,-61.28324890136719,44.007598876953125,-39.1259880065918
3.14,1.3076776266098022,-7.88076114654541,2.6500511169433594,-0.65958172082901,-0.9737191796302795,-0.08185594528913498,-61.005558013916016,44.10990905761719,-38.35136032104492
3.15,1.612762451171875,-7.6630144119262695,2.3676979541778564,-0.698066234588623,-0.7145596146583557,-0.12736541032791138,-60.46477508544922,43.84682846069336,-38.40982437133789
3.16,1.8065810203552246,-7.5050883293151855,1.9680966138839722,-0.7385360598564148,-0.2967277765274048,-0.16432274878025055,-61.06401824951172,43.91990661621094,-38.08827590942383
3.17,1.9728822708129883,-7.365107536315918,1.3914263248443604,-0.7493789196014404,0.07941248267889023,-0.22250765562057495,-60.94709014892578,43.3206672668457,-37.56211853027344
3.189,2.3078773021698,-7.304090976715088,0.9738787412643433,-0.7506006360054016,0.4054618179798126,-0.3494149148464203,-61.54633331298828,42.72142791748047,-37.708274841308594
3.193,2.9001009464263916,-7.160521507263184,0.3888336718082428,-0.6690501570701599,0.75105881690979,-0.5345070958137512,-61.38555908203125,42.882198333740234,-37.56211853027344
3.2,3.4719855785369873,-7.018148422241211,0.12203395366668701,-0.628885805606842,0.8617781400680542,-0.5739078521728516,-62.26249313354492,42.882198333740234,-37.4451904296875
3.21,4.1144585609436035,-6.911667823791504,-0.11485548317432404,-0.4944954216480255,0.9601274132728577,-0.625220537185669,-61.82402801513672,42.29757308959961,-37.54750061035156
3.22,4.502095699310303,-6.9822564125061035,-0.1986042857170105,-0.3819434940814972,0.8260425329208374,-0.645073652267456,-62.61327362060547,42.38526916503906,-38.1467399597168
3.23,4.58584451675415,-7.052844524383545,-0.2835494577884674,-0.27748554944992065,0.5561928153038025,-0.6108652353286743,-63.2125129699707,41.5814094543457,-37.98596954345703
3.248,3.996013641357422,-6.954739093780518,-0.016749758273363113,-0.09376781433820724,-0.11942415684461594,-0.485027015209198,-63.12481689453125,41.61064147949219,-39.53522491455078
3.252,3.94815731048584,-6.922435760498047,0.11126624792814255,-0.07391469925642014,-0.17073683440685272,-0.46471571922302246,-63.168663024902344,41.61064147949219,-39.1259880065918
3.26,3.9038898944854736,-6.638886451721191,0.3756731152534485,0.008399397134780884,-0.2964223325252533,-0.36651915311813354,-63.09558868408203,41.6252555847168,-38.04443359375
3.27,3.4265217781066895,-6.189035892486572,0.7381857633590698,0.09987646341323853,-0.24236077070236206,-0.2695443034172058,-63.49020767211914,41.522945404052734,-38.96521759033203
3.28,2.9970104694366455,-6.027519702911377,0.8590232729911804,0.16279558837413788,-0.022449297830462456,-0.21334467828273773,-64.1771469116211,41.47909927368164,-37.839813232421875
3.29,3.012563705444336,-5.925825119018555,0.8111668825149536,0.21059578657150269,0.26893341541290283,-0.18707747757434845,-63.650978088378906,40.61677932739258,-39.1844482421875
3.309,3.678964614868164,-6.729813575744629,0.5407779216766357,0.35414913296699524,0.7357872128486633,-0.08475754410028458,-64.2502212524414,40.6021614074707,-38.73136520385742
3.312,3.8009984493255615,-6.9164533615112305,0.4989035129547119,0.38316524028778076,0.7553348541259766,-0.05696318298578262,-64.1186752319336,41.39140701293945,-39.06752395629883
3.32,4.098905086517334,-7.599604606628418,0.29431718587875366,0.40912699699401855,0.7327328324317932,-0.01924225501716137,-64.87869262695312,41.42063903808594,-39.27214050292969
3.33,4.266402721405029,-8.194220542907715,0.05862415209412575,0.407905250787735,0.6223189830780029,0.05207626149058342,-64.58638000488281,41.01139831542969,-39.28675842285156
3.34,4.076173305511475,-8.701499938964844,-0.38165518641471863,0.38698312640190125,0.5091561675071716,0.13805553317070007,-65.24407958984375,40.98217010498047,-39.228294372558594
3.35,4.384847164154053,-8.937192916870117,-0.9511469602584839,0.3715587854385376,0.4311181306838989,0.18219056725502014,-64.7909927368164,40.93832015991211,-40.9237060546875
3.369,5.691328525543213,-9.498309135437012,-2.6775684356689453,0.24648413062095642,0.4550946056842804,0.27870726585388184,-64.76176452636719,41.142940521240234,-41.04063034057617
3.373,5.973681449890137,-9.607182502746582,-3.2004001140594482,0.1895209401845932,0.583528995513916,0.2541199326515198,-64.86407470703125,41.34756088256836,-41.53756332397461
3.38,6.780062675476074,-9.656235694885254,-3.823730707168579,0.13805553317070007,0.8446739315986633,0.17318028211593628,-65.0102310180664,41.47909927368164,-41.81526184082031
3.39,8.276773452758789,-9.610772132873535,-3.7016966342926025,0.12431107461452484,1.1572842597961426,-0.015882495790719986,-64.99561309814453,41.099090576171875,-42.22449493408203
3.4,10.021141052246094,-9.451648712158203,-2.693121910095215,0.11759155988693237,1.1989758014678955,-0.25564709305763245,-65.40485382080078,41.80064392089844,-42.10757064819336
3.41,11.09910774230957,-9.20877742767334,-1.868794322013855,0.04489859566092491,0.7646505236625671,-0.5221370458602905,-65.88716125488281,41.02601623535156,-43.20374298095703
3.424,11.33838939666748,-8.931209564208984,-1.9860427379608154,-0.03848451003432274,-0.013286319561302662,-0.5845980048179626,-66.5302505493164,40.64601135253906,-43.393741607666016
3.43,10.737792015075684,-9.176474571228027,-2.504088878631592,-0.039706241339445114,-0.2701551616191864,-0.5212207436561584,-66.16486358642578,40.397544860839844,-43.627593994140625
3.44,9.184849739074707,-9.622735977172852,-2.8761725425720215,-0.029168814420700073,-0.7777841687202454,-0.35643988847732544,-66.86641693115234,40.73370361328125,-43.3206672668457
3.45,6.849454879760742,-9.990034103393555,-2.798405885696411,-0.027183502912521362,-1.1925616264343262,-0.2620611786842346,-66.63256072998047,40.762935638427734,-42.882198333740234
3.46,5.198407173156738,-10.053443908691406,-2.5471596717834473,0.0074830991216003895,-1.448819637298584,-0.2324342280626297,-66.72026062011719,40.48523712158203,-42.16603469848633
3.47,4.277170181274414,-9.77587604522705,-2.137986898422241,0.11835514008998871,-1.5958853960037231,-0.18387043476104736,-66.58871459960938,39.944461822509766,-41.332942962646484
3.488,3.0616164207458496,-9.570094108581543,-1.294516921043396,0.27030786871910095,-1.942856788635254,0.02168571576476097,-66.82256317138672,40.42677688598633,-40.70447540283203
3.492,2.726621150970459,-9.255437850952148,-0.9176474213600159,0.270766019821167,-1.9604192972183228,0.060933806002140045,-66.86641693115234,40.572933197021484,-40.35369873046875
3.5,1.9621144533157349,-8.6907320022583,-0.33379876613616943,0.26313018798828125,-1.9228510856628418,0.17012597620487213,-66.55948638916016,39.769073486328125,-39.68138122558594
3.51,1.1150553226470947,-7.624728679656982,0.4055834412574768,0.26190847158432007,-1.7023286819458008,0.2922990024089813,-66.61795043945312,40.07600402832031,-38.61444091796875
3.52,0.9224331378936768,-7.512266635894775,1.1306086778640747,0.3292563557624817,-1.2696833610534668,0.44348815083503723,-66.67640686035156,40.73370361328125,-38.5267448425293
3.538,1.3316056728363037,-10.015158653259277,1.179661512374878,0.39095374941825867,-0.780380368232727,0.6285803318023682,-65.94563293457031,40.74831771850586,-38.468284606933594
3.542,1.23589289188385,-13.877174377441406,-0.26081767678260803,0.537408709526062,0.07757988572120667,0.8614726662635803,-65.8140869140625,41.3037109375,-39.06752395629883
3.55,1.3746765851974487,-16.05344581604004,-1.2634103298187256,0.6844744682312012,0.6453791260719299,0.9153815507888794,-65.40485382080078,41.23063278198242,-39.330604553222656
3.56,2.724228620529175,-16.50808334350586,-0.7525426745414734,0.6685919761657715,1.2110402584075928,0.8095491528511047,-65.9164047241211,42.10757064819336,-38.90675354003906
3.57,6.254837989807129,-13.225130081176758,1.714457392692566,0.15790866315364838,1.1359038352966309,0.5141957998275757,-65.71177673339844,42.16603469848633,-39.65214920043945
3.58,8.226524353027344,-6.9643096923828125,1.451246976852417,-0.10262536257505417,0.6789767146110535,0.1823432743549347,-66.29640197753906,42.77988815307617,-41.084476470947266
3.59,8.951549530029297,-4.086941242218018,0.8961120247840881,-0.10247264802455902,0.5022839307785034,-0.06215553730726242,-65.77024841308594,42.282955169677734,-40.952938079833984
3.603,7.649853706359863,-3.5497522354125977,1.5936198234558105,0.18509215116500854,0.6204863786697388,0.15134187042713165,-66.34024810791016,42.15141677856445,-41.2452507019043
3.61,6.344569206237793,-3.889533042907715,1.887937068939209,0.39568793773651123,0.47448956966400146,0.2532036304473877,-66.29640197753906,42.049110412597656,-41.522945404052734
3.62,5.115854740142822,-5.021337985992432,2.310270071029663,0.9486737251281738,-0.13408491015434265,0.47280970215797424,-66.09178924560547,42.516807556152344,-42.3414192199707
3.63,4.040280818939209,-7.234699249267578,2.9838497638702393,1.137431025505066,-0.46502113342285156,0.6676757335662842,-66.00408935546875,43.057586669921875,-42.67757797241211
3.64,3.2039895057678223,-8.62492847442627,2.9551358222961426,1.123533844947815,-0.4755585789680481,0.8616254329681396,-65.94563293457031,43.686058044433594,-42.98450469970703
3.658,2.2803597450256348,-9.029315948486328,2.4119651317596436,1.0399980545043945,-0.3828597962856293,0.925613522529602,-65.33177185058594,43.94913864135742,-42.882198333740234
3.662,0.7525426745414734,-8.937192916870117,1.4572290182113647,0.9601274132728577,-0.2626720666885376,0.7564038634300232,-65.06869506835938,44.47529983520508,-43.27682113647461
3.67,0.29790639877319336,-8.796015739440918,1.2538390159606934,0.9263771176338196,-0.09773843735456467,0.517861008644104,-64.454833984375,44.03683090209961,-42.79450607299805
3.68,0.44745784997940063,-8.432307243347168,1.3866406679153442,0.8558222055435181,0.040622539818286896,0.3423899710178375,-65.03945922851562,44.28529739379883,-43.29143524169922
3.69,0.6915256977081299,-8.34855842590332,1.7359927892684937,0.7386887669563293,0.2102903574705124,0.2713768780231476,-64.49868774414062,44.24144744873047,-43.978370666503906
3.7,1.3351950645446777,-8.459823608398438,2.069791555404663,0.6265950202941895,0.3906483054161072,0.25564709305763245,-65.0540771484375,44.38760757446289,-44.38760757446289
3.719,2.187039852142334,-8.770891189575195,2.421536445617676,0.5627596378326416,0.46883904933929443,0.28191429376602173,-64.82022857666016,44.562992095947266,-44.76761245727539
3.723,3.0352954864501953,-9.366703987121582,3.005384922027588,0.5015203952789307,0.488539457321167,0.3729332387447357,-65.15638732910156,44.986846923828125,-44.97222900390625
3.73,3.521038293838501,-9.621540069580078,3.177668571472168,0.4772384762763977,0.5009095072746277,0.44058653712272644,-64.82022857666016,44.97222900390625,-45.30839157104492
3.74,4.0079779624938965,-9.742377281188965,3.2961132526397705,0.47937649488449097,0.488539457321167,0.5493205189704895,-64.99561309814453,45.30839157104492,-45.58608627319336
3.75,4.100101470947266,-9.620343208312988,3.1345977783203125,0.5436700582504272,0.4514293968677521,0.5940664410591125,-64.4109878540039,44.986846923828125,-45.93686294555664
3.76,4.460221290588379,-9.381060600280762,2.8666014671325684,0.6601925492286682,0.4124867618083954,0.5479460954666138,-64.96638488769531,45.235313415527344,-46.53609848022461
3.778,5.067997932434082,-8.733802795410156,2.4287149906158447,0.8565858006477356,0.317497193813324,0.4740314185619354,-64.49868774414062,45.95147705078125,-46.755332946777344
3.782,5.449653625488281,-8.139185905456543,2.3126630783081055,1.0183123350143433,0.26282477378845215,0.49754971265792847,-64.60099029541016,46.185325622558594,-47.70534896850586
3.79,5.294119834899902,-8.049454689025879,2.3509480953216553,1.0651962757110596,0.2848159074783325,0.530536413192749,-64.00175476074219,46.22917175292969,-48.465362548828125
3.8,5.087141036987305,-7.759923458099365,2.1056838035583496,1.0867292881011963,0.3149010241031647,0.5455026626586914,-64.49868774414062,47.01841354370117,-49.34230041503906
3.81,4.82751989364624,-7.499105453491211,1.6235301494598389,1.146288514137268,0.28191429376602173,0.5002986192703247,-63.9140625,46.05378341674805,-48.93306350708008
3.82,4.64805793762207,-7.331608772277832,1.4428720474243164,1.2281445264816284,0.12889257073402405,0.41813725233078003,-64.39637756347656,47.281497955322266,-49.94153594970703
3.839,4.590630054473877,-7.379465103149414,1.4823535680770874,1.2858713865280151,-0.002138028386980295,0.38148534297943115,-64.10406494140625,46.49225616455078,-50.62847137451172
3.842,4.455435752868652,-7.680960178375244,1.8029918670654297,1.2571606636047363,-0.18402314186096191,0.36743542551994324,-63.75328826904297,47.16456985473633,-51.403099060058594
3.85,4.308277130126953,-7.93459939956665,1.9381862878799438,1.2134836912155151,-0.28787022829055786,0.3481931984424591,-63.79713439941406,46.38994216918945,-51.53464126586914
3.86,3.899104356765747,-8.309076309204102,2.091326951980591,1.1200214624404907,-0.37400221824645996,0.2906191349029541,-63.72406005859375,47.25226593017578,-51.24232864379883
3.87,3.689732551574707,-8.609375,2.275574207305908,0.9989173412322998,-0.3459024429321289,0.17989981174468994,-63.56328582763672,46.916107177734375,-50.760013580322266
3.88,3.875175952911377,-8.6967134475708,2.3162522315979004,0.8313875794410706,-0.26740625500679016,0.06459899991750717,-63.28559112548828,47.310726165771484,-51.72464370727539
3.899,3.889533042907715,-8.645268440246582,2.2157537937164307,0.7307475805282593,-0.19593501091003418,0.013439035043120384,-63.06635665893555,46.53609848022461,-51.53464126586914
3.903,3.7806599140167236,-8.70508861541748,2.210968017578125,0.6394231915473938,-0.07330382615327835,-0.043676864355802536,-63.460975646972656,47.00379943847656,-51.213096618652344
3.91,3.6562328338623047,-8.701499938964844,2.2743778228759766,0.6171265840530396,-0.024587325751781464,-0.0656680166721344,-63.358665466308594,46.27302169799805,-52.04618453979492
3.92,3.504288673400879,-8.529216766357422,2.304288148880005,0.5699372291564941,0.0858265683054924,-0.09941831976175308,-64.14791107177734,46.98918533325195,-52.25080108642578
3.93,3.3583264350891113,-8.234898567199707,2.3389840126037598,0.5337435007095337,0.24449880421161652,-0.1511891484260559,-63.98713684082031,47.04764938354492,-53.34697341918945
3.94,3.359522819519043,-7.830511569976807,2.4095723628997803,0.5019785165786743,0.318566232919693,-0.17027868330478668,-64.06021881103516,46.550716400146484,-53.843902587890625
3.959,3.2171499729156494,-7.661818027496338,2.4717857837677,0.4486805200576782,0.3729332387447357,-0.19318613409996033,-63.95790481567383,46.82841491699219,-54.42852783203125
3.963,3.13220477104187,-7.499105453491211,2.44785737991333,0.3677408695220947,0.5051855444908142,-0.25915956497192383,-63.94329071044922,46.15609359741211,-54.77930450439453
3.97,3.273381233215332,-7.464410305023193,2.434696912765503,0.3494149148464203,0.5581781268119812,-0.2756529450416565,-64.19175720214844,45.93686294555664,-54.954689025878906
3.98,3.6562328338623047,-7.641478538513184,2.5351955890655518,0.31413745880126953,0.6603453159332275,-0.28267788887023926,-64.14791107177734,46.25840377807617,-56.15317153930664
3.99,3.669393539428711,-8.102097511291504,2.750549554824829,0.2866485118865967,0.7394523620605469,-0.2756529450416565,-64.61560821533203,46.02455520629883,-56.15317153930664
4.0,3.644268751144409,-8.410771369934082,2.7146570682525635,0.2785545587539673,0.8544477224349976,-0.2788599729537964,-64.77638244628906,45.95147705078125,-55.553932189941406
4.019,3.6227335929870605,-8.634500503540039,2.63449764251709,0.31352660059928894,0.9621127247810364,-0.28588491678237915,-64.82022857666016,45.45454788208008,-56.620872497558594
4.023,3.5270204544067383,-8.675178527832031,2.599801778793335,0.39446622133255005,1.083369493484497,-0.28237244486808777,-64.76176452636719,45.118385314941406,-56.98625946044922
4.03,3.5700912475585938,-8.636893272399902,2.4849462509155273,0.44348815083503723,1.088561773300171,-0.26939156651496887,-64.46945190429688,45.162235260009766,-56.98625946044922
4.04,3.586841106414795,-8.441878318786621,2.2947168350219727,0.5073235630989075,1.014952540397644,-0.2376265674829483,-65.25869750976562,45.01607894897461,-57.46857452392578
4.05,3.4097721576690674,-8.383254051208496,2.159522294998169,0.585667073726654,0.9091201424598694,-0.20631973445415497,-64.5133056640625,44.636070251464844,-57.936275482177734
4.06,3.2374887466430664,-8.507680892944336,2.1547367572784424,0.6670648455619812,0.8002334237098694,-0.17241671681404114,-65.28793334960938,44.75299835205078,-59.17860412597656
4.079,3.1657042503356934,-8.668000221252441,2.2911276817321777,0.7130324244499207,0.7014260292053223,-0.12171489745378494,-65.28793334960938,44.431453704833984,-61.020172119140625
4.083,2.9838497638702393,-8.567501068115234,2.480160713195801,0.6905831694602966,0.584139883518219,-0.015577062964439392,-64.96638488769531,44.13914108276367,-60.391700744628906
4.09,2.9790639877319336,-8.645268440246582,2.662015199661255,0.6498079299926758,0.5503895878791809,0.04306599870324135,-64.84945678710938,44.256065368652344,-60.289390563964844
4.1,2.968296527862549,-8.751748085021973,2.8689942359924316,0.5467243790626526,0.5169447064399719,0.13179416954517365,-65.56562042236328,44.75299835205078,-60.88862991333008
4.11,3.019742250442505,-8.94556713104248,3.0867412090301514,0.42592576146125793,0.5100724697113037,0.20631973445415497,-65.06869506835938,44.48991394042969,-61.26863479614258
4.12,3.122633457183838,-9.235098838806152,3.2817561626434326,0.299476683139801,0.49266281723976135,0.2532036304473877,-65.3902359008789,44.94300079345703,-61.75094985961914
4.139,3.3882367610931396,-9.586843490600586,3.5341989994049072,0.0734565407037735,0.4810563623905182,0.32100966572761536,-64.76176452636719,44.562992095947266,-61.648643493652344
4.142,3.5186455249786377,-9.955338478088379,3.73758864402771,0.03451388329267502,0.5054909586906433,0.3286454975605011,-64.20637512207031,44.446067810058594,-62.364803314208984
4.15,3.6047871112823486,-9.991230964660645,3.7459635734558105,-0.001527163083665073,0.5545129179954529,0.3358231484889984,-64.16252899169922,44.19760513305664,-61.98480224609375
4.16,3.7746775150299072,-10.052248001098633,3.6981072425842285,-0.0039706239476799965,0.6259841322898865,0.3352122902870178,-64.87869262695312,44.50453186035156,-62.364803314208984
4.17,4.0558342933654785,-10.067800521850586,3.6801609992980957,0.025961771607398987,0.663705050945282,0.331852525472641,-64.16252899169922,44.738380432128906,-62.81789016723633
4.18,4.4135613441467285,-9.960124015808105,3.789034366607666,0.04214970022439957,0.6392704248428345,0.32650747895240784,-64.2502212524414,44.94300079345703,-62.715576171875
4.199,4.697110652923584,-9.78544807434082,3.933800458908081,-0.007941247895359993,0.5299255847930908,0.32620203495025635,-63.75328826904297,45.498390197753906,-64.54253387451172
4.203,5.201996326446533,-9.421738624572754,3.967299699783325,-0.11438451707363129,0.42928555607795715,0.3367394804954529,-63.665592193603516,45.07453918457031,-63.475589752197266
4.21,5.4173502922058105,-9.206384658813477,3.7914273738861084,-0.1716531366109848,0.44318273663520813,0.3738495111465454,-63.44636154174805,44.738380432128906,-63.19789123535156
4.22,5.808576583862305,-9.04845905303955,3.6095728874206543,-0.19944749772548676,0.5511531829833984,0.4404338300228119,-63.60713195800781,45.29377365112305,-63.475589752197266
4.23,6.358925819396973,-9.259027481079102,3.6574294567108154,-0.199294775724411,0.6397286653518677,0.47342056035995483,-63.168663024902344,45.45454788208008,-64.77638244628906
4.24,7.031309127807617,-9.639486312866211,3.7950165271759033,-0.21365012228488922,0.5717698335647583,0.4583016633987427,-62.80327606201172,45.58608627319336,-63.899444580078125
4.259,8.738588333129883,-10.734201431274414,4.262813568115234,-0.2681698203086853,0.16752979159355164,0.4147774875164032,-62.9932746887207,46.170711517333984,-64.44022369384766
4.263,9.040083885192871,-10.912467002868652,4.223331928253174,-0.2730567753314972,0.11301006376743317,0.4118758738040924,-62.65711975097656,45.89301300048828,-64.00175476074219
4.27,9.157332420349121,-11.01057243347168,3.9792640209198,-0.266642689704895,-0.025503622367978096,0.39385536313056946,-62.1748046875,45.922245025634766,-64.26483154296875
4.28,8.652446746826172,-10.590632438659668,3.1369903087615967,-0.1739438772201538,-0.11407908797264099,0.30695977807044983,-62.584041595458984,46.185325622558594,-63.709442138671875
4.29,8.165507316589355,-9.718448638916016,1.8125630617141724,0.14385876059532166,-0.09789115190505981,0.09789115190505981,-62.40864944458008,46.24378967285156,-64.16252899169922
4.3,6.592226505279541,-8.755337715148926,-5.408975601196289,0.8529205918312073,-0.047800205647945404,-0.15546520054340363,-62.27711486816406,46.25840377807617,-64.0748291015625
4.319,7.0923261642456055,-13.969298362731934,-2.262413740158081,0.03329215571284294,-1.9770652055740356,-0.5044220089912415,-63.30020523071289,45.26454162597656,-64.4109878540039
4.322,5.793023586273193,-13.598410606384277,-0.5288137793540955,-0.29535335302352905,-2.121840476989746,-0.5169447064399719,-63.12481689453125,45.29377365112305,-64.27944946289062
4.33,3.7974092960357666,-12.283554077148438,0.9487541317939758,-1.0529789924621582,-2.096031427383423,-0.5639813542366028,-63.168663024902344,45.22069549560547,-63.00789260864258
4.34,2.654836893081665,-10.631311416625977,2.9036900997161865,-1.7246253490447998,-1.221577763557434,-0.7035639882087708,-63.9140625,45.3814697265625,-61.88248825073242
4.35,2.1930220127105713,-8.72064208984375,4.6540398597717285,-2.130239725112915,-0.42989641427993774,-0.925613522529602,-64.2502212524414,45.556854248046875,-59.82168960571289
4.36,1.8628122806549072,-7.362715244293213,4.3896331787109375,-2.4585800170898438,0.13897183537483215,-1.1693487167358398,-64.68869018554688,45.04530715942383,-60.04092025756836
4.379,1.5840485095977783,-6.259624004364014,1.6749757528305054,-2.492482900619507,0.2993239462375641,-1.5370895862579346,-65.17100524902344,44.70914840698242,-58.857059478759766
4.383,1.6797614097595215,-6.562315464019775,1.1880364418029785,-2.3580925464630127,0.19364428520202637,-1.5575536489486694,-65.40485382080078,44.621456146240234,-57.746273040771484
4.39,1.8269200325012207,-7.067201137542725,0.8255237936973572,-2.0648770332336426,0.02076941914856434,-1.52578866481781,-65.63870239257812,43.686058044433594,-57.22011184692383
4.4,3.0209386348724365,-9.120243072509766,0.9858428835868835,-1.6123788356781006,-0.34574970602989197,-1.4190399646759033,-67.0564193725586,44.007598876953125,-57.570884704589844
4.41,3.9768712520599365,-10.87418270111084,1.5278172492980957,-1.2137892246246338,-0.912021815776825,-1.244027018547058,-66.89564514160156,43.189125061035156,-55.86085891723633
4.42,4.287938117980957,-12.038290023803711,2.3497517108917236,-0.8982772827148438,-1.4895949363708496,-0.9929614663124084,-67.52411651611328,42.882198333740234,-55.52470016479492
4.436,2.768495798110962,-13.74078369140625,3.851248025894165,-0.8431467413902283,-1.8701637983322144,-0.530536413192749,-67.74334716796875,43.072200775146484,-53.72698211669922
4.44,2.441875457763672,-13.860424995422363,3.9003007411956787,-0.9477574229240417,-1.7977763414382935,-0.47479501366615295,-68.18181610107422,42.896812438964844,-53.27389907836914
4.45,1.4141581058502197,-13.885549545288086,3.6466617584228516,-1.2160799503326416,-1.5128077268600464,-0.5079344511032104,-68.29874420166016,42.75065612792969,-51.783103942871094
4.46,1.3758729696273804,-13.49312686920166,3.07716965675354,-1.4804319143295288,-1.1143709421157837,-0.6528621912002563,-68.09412384033203,42.79450607299805,-51.476173400878906
4.47,1.7958134412765503,-12.583853721618652,2.609373092651367,-1.6507105827331543,-0.6835582256317139,-0.7770205736160278,-67.99181365966797,42.29757308959961,-49.7223014831543
4.48,2.438286066055298,-11.534601211547852,2.44785737991333,-1.7117971181869507,-0.3300199508666992,-0.7602217793464661,-68.40104675292969,42.20988082885742,-48.713829040527344
4.499,2.7122642993927,-10.037890434265137,2.200200319290161,-1.5285375118255615,-0.4715879559516907,-0.5199990272521973,-69.42414855957031,41.74217987060547,-47.51534652709961
4.503,2.575873613357544,-9.783055305480957,2.218146562576294,-1.4301881790161133,-0.6133086681365967,-0.4873177409172058,-68.97106170654297,41.522945404052734,-47.26688003540039
4.51,2.2480568885803223,-9.242277145385742,2.328216314315796,-1.2773191928863525,-0.7281513810157776,-0.39324450492858887,-69.16106414794922,41.46448516845703,-46.974571228027344
4.52,2.0099709033966064,-8.941977500915527,2.888136863708496,-1.0468703508377075,-0.9129380583763123,-0.23380866646766663,-69.07337188720703,41.756797790527344,-46.60917663574219
4.53,1.7623138427734375,-8.863015174865723,3.1070802211761475,-0.9289733171463013,-1.129337191581726,-0.07666358351707458,-68.67874908447266,41.157554626464844,-45.4837760925293
4.548,1.6689937114715576,-8.60219669342041,2.874976396560669,-0.9793696999549866,-1.2412781715393066,-0.032070424407720566,-68.7956771850586,41.9614143371582,-44.47529983520508
4.552,1.657029628753662,-8.063812255859375,1.9680966138839722,-1.069472312927246,-1.0403034687042236,-0.022602012380957603,-68.56182098388672,41.157554626464844,-43.84682846069336
4.56,1.8975082635879517,-7.660621643066406,1.621137261390686,-1.0919215679168701,-0.8704829812049866,-0.008704829961061478,-68.63490295410156,40.894474029541016,-42.92604446411133
4.57,2.0685951709747314,-7.1509504318237305,1.397408366203308,-1.0587822198867798,-0.6772968769073486,0.007788531482219696,-68.51797485351562,41.522945404052734,-40.98217010498047
4.58,2.3569302558898926,-6.570690631866455,1.380658507347107,-0.958142101764679,-0.578489363193512,0.02474004216492176,-68.25489044189453,40.952938079833984,-40.879859924316406
4.59,2.2133607864379883,-6.338587284088135,1.6869399547576904,-0.8046622276306152,-0.656069278717041,-0.007177666295319796,-68.31336212158203,41.43525314331055,-40.572933197021484
4.61,1.9764714241027832,-6.902096748352051,2.0159530639648438,-0.8416195511817932,-0.4509712755680084,-0.15592335164546967,-68.78105926513672,40.572933197021484,-41.2014045715332
4.613,2.4263219833374023,-6.530013084411621,1.3758729696273804,-0.8813258409500122,-0.006566801108419895,-0.2736676335334778,-68.56182098388672,40.9237060546875,-39.944461822509766
4.62,2.8737800121307373,-6.296712398529053,1.2071789503097534,-0.8326093554496765,0.2701551616191864,-0.3119994103908539,-67.97720336914062,40.952938079833984,-40.23677444458008
4.63,3.3164520263671875,-6.028716564178467,1.031306505203247,-0.7116580009460449,0.5534439086914062,-0.33399054408073425,-67.65565490722656,40.499855041503906,-39.63753128051758
4.64,3.8452658653259277,-6.003591537475586,0.9690931439399719,-0.569631814956665,0.7944302558898926,-0.3393356204032898,-68.1964340209961,40.587547302246094,-39.87138366699219
4.65,4.493720531463623,-6.075376510620117,0.9284151792526245,-0.4352414906024933,0.9298896193504333,-0.34956762194633484,-68.56182098388672,40.36831283569336,-40.309852600097656
4.669,5.02731990814209,-6.157928943634033,0.698704183101654,-0.352011114358902,0.8278751373291016,-0.355981707572937,-68.63490295410156,40.514469146728516,-40.543701171875
4.673,4.9052863121032715,-6.20937442779541,0.5539384484291077,-0.22113321721553802,0.5991060733795166,-0.3888157308101654,-69.10260009765625,40.339080810546875,-41.157554626464844
4.68,4.528416633605957,-6.128018856048584,0.5802595019340515,-0.12629638612270355,0.4456261694431305,-0.4001167118549347,-69.2926025390625,40.002925872802734,-41.522945404052734
4.69,3.930211305618286,-5.998805999755859,0.5994020700454712,0.03329215571284294,0.36392295360565186,-0.39843684434890747,-68.89797973632812,39.769073486328125,-40.9237060546875
4.7,3.851248025894165,-5.921039581298828,0.7345964908599854,0.23228150606155396,0.43967023491859436,-0.34315353631973267,-69.35106658935547,39.72522735595703,-41.099090576171875
4.71,3.875175952911377,-5.7918267250061035,0.605384111404419,0.3599523603916168,0.451123982667923,-0.2762638032436371,-69.40953063964844,39.35983657836914,-40.79216766357422
4.729,3.964907169342041,-5.897111415863037,0.6173481941223145,0.4460843503475189,0.4509712755680084,-0.20830504596233368,-69.6287612915039,39.82753372192383,-41.37678909301758
4.733,3.930211305618286,-6.135197162628174,0.5886343717575073,0.49846601486206055,0.4815145432949066,-0.053297992795705795,-69.58491516113281,39.25752639770508,-41.873722076416016
4.74,4.059423446655273,-6.313462257385254,0.5503491759300232,0.5018258094787598,0.4824308156967163,-0.0022907445672899485,-69.78953552246094,39.374454498291016,-42.312191009521484
4.75,4.095315933227539,-6.5419769287109375,0.32662028074264526,0.494189977645874,0.4764748811721802,0.09285151958465576,-69.6287612915039,39.11137008666992,-42.73604202270508
4.76,4.19581413269043,-6.897311210632324,-0.1627119481563568,0.4538728594779968,0.5067126750946045,0.1310305893421173,-69.77491760253906,39.72522735595703,-42.76527404785156
4.77,4.420739650726318,-7.203592300415039,-0.8973084688186646,0.3585779070854187,0.5575672388076782,0.1466076523065567,-70.08184814453125,39.330604553222656,-42.896812438964844
4.789,4.691128730773926,-7.433303356170654,-1.6929219961166382,0.2304489016532898,0.5455026626586914,0.16050483286380768,-69.57030487060547,39.69599533081055,-43.91990661621094
4.793,5.003392219543457,-8.288737297058105,-3.115455150604248,0.07254024595022202,0.4489859640598297,0.16142113506793976,-69.76030731201172,39.564453125,-43.7445182800293
4.8,5.095515727996826,-8.723034858703613,-3.6251261234283447,0.031612277030944824,0.47219884395599365,0.13209959864616394,-69.84799194335938,39.68138122558594,-43.93452072143555
4.81,5.651846885681152,-10.152746200561523,-4.411168098449707,0.015577062964439392,0.656069278717041,0.046273037791252136,-69.61415100097656,39.228294372558594,-44.066062927246094
4.82,6.587440490722656,-11.157731056213379,-4.238884925842285,0.03649919852614403,0.9225592017173767,-0.1014036312699318,-69.86261749267578,40.207542419433594,-44.85530471801758
4.83,8.126025199890137,-11.734402656555176,-3.284149169921875,0.10903944075107574,1.032667636871338,-0.2779436707496643,-69.74568939208984,39.5059928894043,-45.07453918457031
4.849,9.477970123291016,-12.067005157470703,-1.8388842344284058,0.1443169116973877,0.8402451872825623,-0.39843684434890747,-70.0087661743164,38.7459831237793,-46.375328063964844
4.853,10.17428207397461,-11.216355323791504,-1.2335000038146973,0.021991148591041565,0.24816399812698364,-0.4248567819595337,-70.2718505859375,38.395206451416016,-45.41069793701172
4.86,9.950552940368652,-10.742576599121094,-1.467996597290039,-0.014202617108821869,0.023365594446659088,-0.39904773235321045,-70.09646606445312,38.68751907348633,-46.21455764770508
4.87,9.013762474060059,-9.845268249511719,-2.0542380809783936,-0.043218713253736496,-0.17577646672725677,-0.37659841775894165,-70.21338653564453,38.71674728393555,-46.185325622558594
4.88,7.93579626083374,-9.109475135803223,-2.4251255989074707,-0.07147122919559479,-0.3527746796607971,-0.3752239942550659,-70.19877624511719,38.71674728393555,-46.25840377807617
4.89,6.969095706939697,-8.295915603637695,-2.4263219833374023,-0.0481056347489357,-0.5862779021263123,-0.3686571717262268,-70.62261962890625,38.468284606933594,-45.4399299621582
4.909,5.828916072845459,-7.574480056762695,-2.163111686706543,0.0277943667024374,-1.0569496154785156,-0.2658790946006775,-70.11107635498047,38.17597198486328,-44.50453186035156
4.912,4.518845558166504,-6.842276096343994,-1.2538390159606934,0.06872233748435974,-1.1577422618865967,-0.21578815579414368,-70.66647338867188,38.32212829589844,-44.022212982177734
4.92,4.098905086517334,-7.385447025299072,-0.30149564146995544,0.13561208546161652,-1.2617422342300415,-0.08704829961061478,-70.19877624511719,37.91289138793945,-43.72990417480469
4.93,3.5258240699768066,-10.441081047058105,0.36610186100006104,0.031001411378383636,-1.1418598890304565,0.15470163524150848,-69.87722778320312,38.29289627075195,-43.057586669921875
4.94,3.455235719680786,-15.367902755737305,-1.2251251935958862,-0.3729332387447357,-0.741284966468811,0.3430008292198181,-69.81876373291016,38.234432220458984,-43.817596435546875
4.95,4.3788652420043945,-19.00738525390625,-1.8939191102981567,-0.3764457106590271,-0.47448956966400146,0.36682456731796265,-69.76030731201172,38.775211334228516,-42.76527404785156
4.969,6.114858150482178,-21.058034896850586,-0.7920242547988892,0.05009094625711441,-0.6010913848876953,0.3165809214115143,-69.04413604736328,38.819061279296875,-41.449867248535156
4.973,7.758727073669434,-13.581660270690918,-1.5840485095977783,0.03344487026333809,-0.8248208165168762,0.006719517521560192,-69.07337188720703,38.92136764526367,-42.01987838745117
4.98,7.921439170837402,-7.3878397941589355,-2.6596221923828125,-0.20891591906547546,-0.9766207933425903,-0.15714508295059204,-69.30722045898438,39.08213806152344,-41.40602111816406
4.99,6.631708145141602,-2.4370899200439453,-0.29312074184417725,-0.28955012559890747,-0.7502952218055725,-0.1264491081237793,-68.91259765625,39.25752639770508,-40.82139587402344
5.0,4.449453830718994,-0.42352959513664246,2.361715793609619,-0.08002334833145142,-0.6224716901779175,0.11178833991289139,-68.64952087402344,39.05290985107422,-40.952938079833984
5.01,2.169093608856201,-0.019142581149935722,2.641676187515259,0.49235737323760986,-0.9560041427612305,0.4036291837692261,-68.60567474365234,39.389068603515625,-40.83601379394531
5.029,-0.2763710021972656,-3.397808074951172,2.796013355255127,1.0366382598876953,-0.8709411025047302,0.7257079482078552,-67.48026275634766,39.710609436035156,-40.207542419433594
5.033,-0.019142581149935722,-4.682753562927246,2.8773691654205322,1.0390818119049072,-0.8106181621551514,0.7657195925712585,-67.90412139892578,39.783687591552734,-40.11984634399414
5.04,0.3445664644241333,-6.666403770446777,3.156132936477661,1.0093021392822266,-0.6041457653045654,0.9097310304641724,-67.99181365966797,40.309852600097656,-40.2221565246582
5.05,0.47617167234420776,-8.913264274597168,3.5856447219848633,0.9329439401626587,-0.21792617440223694,1.1129964590072632,-67.11487579345703,40.23677444458008,-40.41215896606445
5.06,0.9152546525001526,-10.752148628234863,4.061816215515137,0.7999280095100403,0.3767511248588562,1.3474159240722656,-66.73487091064453,42.09295654296875,-41.01139831542969
5.07,-0.2715853750705719,-12.106486320495605,4.240081787109375,0.6551529169082642,0.6914994120597839,1.3277156352996826,-66.12101745605469,41.65448760986328,-41.2452507019043
5.089,-0.6891329288482666,-11.802597045898438,3.841676712036133,0.5233587622642517,0.6927211284637451,0.4586070775985718,-65.84332275390625,43.057586669921875,-41.40602111816406
5.092,0.5694918036460876,-10.246066093444824,3.266202688217163,0.5288565754890442,0.6745479106903076,0.38011088967323303,-65.9164047241211,43.13066482543945,-41.522945404052734
5.1,1.239482045173645,-9.686145782470703,3.2279176712036133,0.5514585971832275,0.663705050945282,0.23594669997692108,-66.29640197753906,43.189125061035156,-42.53142547607422
5.11,2.053041696548462,-9.140582084655762,3.06999135017395,0.5656611919403076,0.8445212244987488,0.2926044464111328,-65.82870483398438,42.76527404785156,-42.85296630859375
5.12,2.9766714572906494,-8.560322761535645,2.654836893081665,0.612850546836853,1.0151053667068481,0.4792237877845764,-66.29640197753906,43.466819763183594,-43.686058044433594
5.13,3.7471601963043213,-8.171488761901855,2.416750907897949,0.7101308107376099,1.06351637840271,0.6899722814559937,-65.56562042236328,43.30604934692383,-44.621456146240234
5.149,4.323830604553223,-7.700103282928467,2.717050075531006,0.9419541954994202,0.9069821834564209,0.9908233880996704,-64.96638488769531,44.066062927246094,-45.39608383178711
5.153,4.432703971862793,-7.688138484954834,2.7385854721069336,1.006095051765442,0.8909469246864319,1.034194827079773,-65.18561553955078,44.50453186035156,-44.82607650756836
5.16,4.508077621459961,-7.814958572387695,2.9072792530059814,1.0896308422088623,0.8915578126907349,1.0690141916275024,-64.80561828613281,44.738380432128906,-45.615318298339844
5.17,4.4542388916015625,-8.127222061157227,2.715853691101074,1.1896600723266602,0.9790642261505127,1.0070112943649292,-64.27944946289062,44.928382873535156,-46.56533432006836
5.18,4.42193603515625,-8.411967277526855,2.7086751461029053,1.2974777221679688,1.2069170475006104,0.8200865387916565,-64.39637756347656,45.58608627319336,-47.14995574951172
5.19,5.100301265716553,-8.706284523010254,2.7804598808288574,1.3813190460205078,1.5300647020339966,0.5780312418937683,-63.49020767211914,45.96609115600586,-48.90382766723633
5.203,6.772884368896484,-9.206384658813477,3.091526985168457,1.4045318365097046,1.7314974069595337,0.3553708493709564,-63.650978088378906,45.95147705078125,-49.56153106689453
5.21,7.416553497314453,-9.21715259552002,3.071187734603882,1.341460108757019,1.727832317352295,0.33628129959106445,-63.0371208190918,46.06840133666992,-50.61385726928711
5.22,7.6390862464904785,-8.915657043457031,2.6488544940948486,1.2024881839752197,1.7119498252868652,0.35903605818748474,-63.650978088378906,46.06840133666992,-51.695411682128906
5.23,7.509873390197754,-8.209774017333984,1.6713865995407104,1.10139000415802,1.7203491926193237,0.4628831148147583,-62.554805755615234,46.43379211425781,-52.79158401489258
5.24,6.276373863220215,-7.788637638092041,0.7537391185760498,0.8387179970741272,1.83992600440979,0.6459900140762329,-62.43788528442383,46.22917175292969,-54.10698699951172
5.25,4.892125606536865,-7.406982421875,-0.453439861536026,0.47250425815582275,1.7116444110870361,0.6696610450744629,-61.838645935058594,46.316864013671875,-54.10698699951172
5.267,3.9326038360595703,-7.578068733215332,-1.0109676122665405,0.3591887652873993,0.3666718602180481,0.08246680349111557,-62.18941879272461,46.71148681640625,-55.64162826538086
5.271,4.097708702087402,-7.869993209838867,-0.5850450992584229,0.3900374472141266,0.21090121567249298,0.010231993161141872,-61.69248962402344,47.1207275390625,-55.758548736572266
5.28,4.742574214935303,-8.244470596313477,0.49172505736351013,0.5248859524726868,-0.24526238441467285,-0.1498146951198578,-62.07249069213867,46.82841491699219,-55.86085891723633
5.29,5.230710506439209,-8.271987915039062,1.368694543838501,0.6575964689254761,-0.5128213763237,-0.11759155988693237,-61.5755615234375,46.49225616455078,-56.25548553466797
5.3,4.234099388122559,-8.415556907653809,1.5433706045150757,0.8126034736633301,-0.5997169613838196,-0.10384708642959595,-62.08710479736328,46.19994354248047,-56.95703125
5.318,4.068994522094727,-8.443074226379395,2.0159530639648438,0.9190467596054077,-0.6218608021736145,-0.15577064454555511,-61.54633331298828,46.33148193359375,-56.2993278503418
5.322,3.9972100257873535,-8.422735214233398,2.455035924911499,0.9181304574012756,-0.6783658266067505,-0.14355333149433136,-62.160186767578125,45.995323181152344,-56.54779052734375
5.33,3.754338502883911,-8.336593627929688,2.5710878372192383,0.8831583857536316,-0.683863639831543,-0.09987646341323853,-61.8971061706543,46.185325622558594,-55.91931915283203
5.34,3.293720245361328,-8.208578109741211,2.592623233795166,0.8315402865409851,-0.6111707091331482,-0.0682641938328743,-62.364803314208984,46.1414794921875,-56.021629333496094
5.35,2.8905298709869385,-8.080561637878418,2.6668004989624023,0.7780895829200745,-0.4781547486782074,-0.07620543986558914,-62.20403289794922,45.542240142822266,-56.693946838378906
5.36,2.68953275680542,-8.109275817871094,2.874976396560669,0.6808093190193176,-0.30375272035598755,-0.12507465481758118,-62.1748046875,45.90762710571289,-56.16778564453125
5.37,2.5196421146392822,-8.153542518615723,3.0376882553100586,0.49525898694992065,-0.07422012835741043,-0.2021963894367218,-62.04326248168945,45.68839645385742,-56.72317886352539
5.383,2.2432711124420166,-8.065009117126465,2.968296527862549,0.30772337317466736,0.20005835592746735,-0.29336804151535034,-62.1748046875,45.732242584228516,-56.927799224853516
5.39,2.2169501781463623,-8.044669151306152,2.909672260284424,0.22372940182685852,0.4024074673652649,-0.33918291330337524,-61.940948486328125,45.68839645385742,-56.2993278503418
5.4,2.227717876434326,-8.039883613586426,2.93001127243042,0.14538592100143433,0.6934847235679626,-0.3793473243713379,-62.2332649230957,45.41069793701172,-57.24934387207031
5.41,2.2480568885803223,-7.9142608642578125,2.898904800415039,0.09010262042284012,0.9946413040161133,-0.36529740691185,-61.736331939697266,45.24992752075195,-56.56240463256836
5.42,2.1990039348602295,-7.947760105133057,2.946760892868042,0.05268712714314461,1.3127492666244507,-0.33276882767677307,-62.45249938964844,45.132999420166016,-58.170127868652344
5.439,2.266003131866455,-8.25404167175293,2.967099905014038,0.03634648025035858,1.4552338123321533,-0.29657506942749023,-62.29172897338867,44.48991394042969,-58.56474685668945
5.443,2.493321180343628,-8.894121170043945,3.2004001140594482,0.02122756652534008,1.4917329549789429,-0.2542726695537567,-61.98480224609375,44.48991394042969,-59.456298828125
5.45,2.713460922241211,-9.34157943725586,3.335594892501831,0.00015271631127689034,1.4680618047714233,-0.22052235901355743,-61.926334381103516,44.16836929321289,-59.58784103393555
5.46,2.8426733016967773,-9.827322959899902,3.359522819519043,-0.022602012380957603,1.403157353401184,-0.16279558837413788,-62.65711975097656,44.13914108276367,-60.990936279296875
5.47,2.7912275791168213,-10.024730682373047,3.500699520111084,-0.044287726283073425,1.3504703044891357,-0.10247264802455902,-61.80941390991211,43.89067459106445,-60.90324401855469
5.48,2.8522443771362305,-10.01874828338623,3.6562328338623047,-0.06673702597618103,1.3519974946975708,-0.05650503188371658,-62.30634307861328,44.24144744873047,-61.44401931762695
5.498,2.830709218978882,-9.936195373535156,3.671786069869995,-0.08521570265293121,1.379180908203125,0.0025961773935705423,-61.721717834472656,44.051448822021484,-62.08710479736328
5.503,3.0903303623199463,-9.678967475891113,3.5509486198425293,-0.06368270516395569,1.3203850984573364,0.09896016865968704,-61.049400329589844,43.78836441040039,-61.5755615234375
5.51,3.273381233215332,-9.522236824035645,3.4923245906829834,-0.0507018156349659,1.2382237911224365,0.13041973114013672,-61.48787307739258,44.41683578491211,-62.540191650390625
5.52,3.2614171504974365,-9.298508644104004,3.4133615493774414,-0.018478674814105034,0.972955584526062,0.204487144947052,-60.72785949707031,44.358375549316406,-61.69248962402344
5.53,3.394218921661377,-9.0843505859375,3.2925240993499756,0.03298672288656235,0.7672467231750488,0.2612975835800171,-60.406314849853516,44.051448822021484,-63.460975646972656
5.54,3.6323046684265137,-8.918049812316895,3.214756965637207,0.08903361111879349,0.5836817622184753,0.3243694305419922,-60.56708526611328,44.48991394042969,-63.02250671386719
5.559,4.067798614501953,-8.992227554321289,3.2410783767700195,0.1543961763381958,0.39385536313056946,0.3917173445224762,-60.55247116088867,44.372989654541016,-63.12481689453125
5.562,4.627718925476074,-9.205188751220703,3.373879909515381,0.24037547409534454,0.06582073122262955,0.4993823170661926,-60.08477020263672,44.24144744873047,-64.03099060058594
5.57,4.906482696533203,-9.255437850952148,3.3894331455230713,0.2724458873271942,-0.04199698567390442,0.5363396406173706,-60.187076568603516,44.446067810058594,-63.475589752197266
5.58,5.041677474975586,-9.166903495788574,3.489931583404541,0.3445279896259308,-0.18448129296302795,0.6136141419410706,-59.8363037109375,44.811458587646484,-63.168663024902344
5.59,5.201996326446533,-8.737391471862793,3.531806230545044,0.3830125033855438,-0.1589776873588562,0.6727153658866882,-59.032447814941406,45.07453918457031,-64.22098541259766
5.6,5.434100151062012,-8.413164138793945,3.4612178802490234,0.4098905920982361,-0.054825153201818466,0.7186830043792725,-59.58784103393555,44.79684066772461,-63.98713684082031
5.62,5.772684574127197,-8.262415885925293,3.352344274520874,0.4424191415309906,0.053297992795705795,0.7269296646118164,-58.82782745361328,45.45454788208008,-64.2502212524414
5.624,6.638886451721191,-8.656035423278809,3.489931583404541,0.485027015209198,0.1264491081237793,0.6788239479064941,-58.33089828491211,45.22069549560547,-64.27944946289062
5.63,7.165307521820068,-9.008976936340332,3.6299118995666504,0.47739118337631226,0.10537425428628922,0.6606507897377014,-58.6962890625,45.52762222290039,-64.27944946289062
5.64,8.599804878234863,-10.126425743103027,4.143172264099121,0.42500948905944824,-0.010995574295520782,0.674089789390564,-57.89242935180664,46.00994110107422,-64.39637756347656
5.65,9.614360809326172,-10.985447883605957,4.231706619262695,0.3608686327934265,-0.2687807083129883,0.6947064995765686,-57.67319107055664,46.126861572265625,-63.98713684082031
5.66,9.597611427307129,-11.513065338134766,3.693321704864502,0.38117989897727966,-0.5299255847930908,0.6458372473716736,-57.84858322143555,46.43379211425781,-64.674072265625
5.679,8.70389175415039,-11.37547779083252,2.5052852630615234,0.5780312418937683,-0.5667302012443542,0.4662429094314575,-57.07395553588867,46.06840133666992,-64.20637512207031
5.683,6.16271448135376,-12.124431610107422,-10.344171524047852,1.31748366355896,-0.04871650040149689,-0.02626720443367958,-56.85471725463867,46.46302032470703,-64.42560577392578
5.69,8.187042236328125,-16.526029586791992,-8.924031257629395,0.8090909719467163,-0.9111055135726929,-0.1953241527080536,-56.927799224853516,46.097633361816406,-64.82022857666016
5.7,6.703492164611816,-15.339188575744629,-2.14516544342041,-0.7096726894378662,-2.461786985397339,-0.3269656002521515,-57.570884704589844,46.521484375,-64.16252899169922
5.71,3.620340585708618,-12.748958587646484,0.8602197170257568,-1.4527901411056519,-2.3551909923553467,-0.41722097992897034,-57.746273040771484,46.08301544189453,-63.06635665893555
5.72,3.31884503364563,-10.737792015075684,3.6502509117126465,-1.6937766075134277,-1.4616477489471436,-0.4622722566127777,-58.81321334838867,46.88687515258789,-62.569419860839844
5.739,3.352344274520874,-9.042476654052734,5.198407173156738,-1.9475911855697632,-0.43508875370025635,-0.634994387626648,-58.7547492980957,47.661502838134766,-60.08477020263672
5.743,1.7575281858444214,-7.654639720916748,4.510470390319824,-2.2237021923065186,0.18066339194774628,-0.8947648406028748,-58.33089828491211,46.930721282958984,-59.51476287841797
5.75,1.293320655822754,-7.767101764678955,3.25663161277771,-2.3101396560668945,0.3358231484889984,-1.1253665685653687,-58.360130310058594,47.19380569458008,-59.17860412597656
5.76,1.5589239597320557,-8.288737297058105,1.4536396265029907,-2.331061601638794,0.14508049190044403,-1.2945761680603027,-59.16398620605469,47.354576110839844,-58.6962890625
5.77,1.4883357286453247,-8.492127418518066,0.3756731152534485,-2.217135429382324,-0.29657506942749023,-1.2783881425857544,-58.88629150390625,47.09149169921875,-57.570884704589844
5.78,1.499103307723999,-8.693124771118164,0.4773681163787842,-1.87611985206604,-0.7512114644050598,-1.1924089193344116,-60.23093032836914,46.95995330810547,-57.43934631347656
5.799,2.3473589420318604,-9.102296829223633,1.5637094974517822,-1.5648839473724365,-1.0065531730651855,-1.1609493494033813,-60.55247116088867,46.82841491699219,-55.02777099609375
5.803,2.9515466690063477,-9.82971477508545,2.8067808151245117,-1.2321151494979858,-1.1899654865264893,-1.0175487995147705,-60.71324157714844,46.170711517333984,-53.36158752441406
5.81,3.342773199081421,-10.204191207885742,3.2446675300598145,-1.1687380075454712,-1.2223414182662964,-0.9483683109283447,-60.4940071105957,46.22917175292969,-53.72698211669922
5.82,3.6538400650024414,-10.698309898376465,3.511467218399048,-1.0754282474517822,-1.309389591217041,-0.7878634333610535,-61.2540168762207,45.717628479003906,-52.36772918701172
5.83,3.689732551574707,-11.188838005065918,3.5030922889709473,-0.9717338681221008,-1.4572190046310425,-0.6511823534965515,-62.2332649230957,46.857643127441406,-51.62232971191406
5.84,3.862015724182129,-12.003594398498535,3.504288673400879,-0.9233227968215942,-1.5047138929367065,-0.5943718552589417,-62.1748046875,46.57994842529297,-50.81847381591797
5.859,3.8021950721740723,-12.416356086730957,3.4372897148132324,-0.9824240207672119,-1.454470157623291,-0.4963279962539673,-63.09558868408203,46.59456253051758,-48.669979095458984
5.862,3.4121649265289307,-12.41994571685791,3.3655049800872803,-1.0268644094467163,-1.3779592514038086,-0.4726569652557373,-62.1748046875,46.33148193359375,-48.33382034301758
5.87,3.232703447341919,-12.153145790100098,3.263810157775879,-1.1184942722320557,-1.2533427476882935,-0.4300491213798523,-62.20403289794922,46.44840621948242,-48.30459213256836
5.88,2.926422119140625,-11.291729927062988,2.8965117931365967,-1.2131783962249756,-1.155909776687622,-0.3943135142326355,-62.21864700317383,46.50687026977539,-46.19994354248047
5.89,2.7110679149627686,-10.242477416992188,2.779263496398926,-1.256244421005249,-1.1305588483810425,-0.32528576254844666,-61.955570220947266,46.901493072509766,-45.191463470458984
5.9,2.169093608856201,-9.043672561645508,1.9824535846710205,-1.1946996450424194,-1.0555751323699951,-0.25305092334747314,-62.43788528442383,46.287635803222656,-44.76761245727539
5.919,1.6462620496749878,-8.044669151306152,1.8400804996490479,-0.8468118906021118,-1.0175487995147705,-0.13377948105335236,-62.744815826416016,46.22917175292969,-43.15989685058594
5.922,1.6929219961166382,-7.817351341247559,1.9334007501602173,-0.8139779567718506,-1.0085384845733643,-0.12980885803699493,-62.43788528442383,46.316864013671875,-42.53142547607422
5.93,1.710868239402771,-7.668996334075928,2.0159530639648438,-0.736245334148407,-0.9859365224838257,-0.11972958594560623,-62.01403045654297,45.922245025634766,-42.09295654296875
5.94,1.683350682258606,-7.529016494750977,2.1643080711364746,-0.5943718552589417,-0.9909761548042297,-0.1082758679986,-62.92020034790039,46.02455520629883,-41.37678909301758
5.95,1.4021941423416138,-7.533802032470703,2.4335005283355713,-0.5291619896888733,-0.9384416937828064,-0.16310101747512817,-62.67173385620117,46.40456008911133,-40.762935638427734
5.96,1.2382856607437134,-7.759923458099365,2.554337978363037,-0.5783366560935974,-0.6973026394844055,-0.23319780826568604,-62.569419860839844,46.56533432006836,-40.03215408325195
5.979,1.573280930519104,-7.651050090789795,2.3844475746154785,-0.7608326077461243,-0.30146196484565735,-0.44257184863090515,-62.540191650390625,45.89301300048828,-39.374454498291016
5.982,2.1164515018463135,-6.867401123046875,1.6414762735366821,-0.7206682562828064,-0.2716823220252991,-0.5192354321479797,-62.364803314208984,46.316864013671875,-39.28675842285156
5.99,2.4502503871917725,-6.75374174118042,1.447657585144043,-0.6356052756309509,-0.22815817594528198,-0.6230825781822205,-62.45249938964844,46.4191780090332,-38.71674728393555
6.0,2.3198413848876953,-6.994220733642578,1.4799607992172241,-0.5448917746543884,-0.007788531482219696,-0.6998988389968872,-63.168663024902344,46.21455764770508,-38.51213073730469
6.01,2.5842483043670654,-7.256234169006348,1.1449655294418335,-0.5691736936569214,0.5262603759765625,-0.7562512159347534,-63.40251541137695,45.77608871459961,-37.605960845947266
6.02,3.2171499729156494,-6.991827487945557,0.6664010882377625,-0.5375614166259766,0.7938193678855896,-0.8255844116210938,-63.50482177734375,45.58608627319336,-38.205204010009766
6.039,3.4707889556884766,-6.788437843322754,0.49531427025794983,-0.3381139039993286,0.545655369758606,-0.8718574047088623,-64.54253387451172,44.94300079345703,-38.32212829589844
6.042,3.3894331455230713,-6.690331935882568,0.5000999569892883,-0.28359419107437134,0.4141666293144226,-0.8506298065185547,-64.30867767333984,44.738380432128906,-37.43057632446289
6.05,3.286541700363159,-6.577868938446045,0.5730810165405273,-0.194713294506073,0.16249015927314758,-0.8043568134307861,-64.63021850585938,44.38760757446289,-37.91289138793945
6.06,3.0628130435943604,-6.423532009124756,0.7286145091056824,-0.0757472887635231,-0.17272214591503143,-0.7199047207832336,-64.92253875732422,44.19760513305664,-37.22595977783203
6.07,2.799602508544922,-6.299105644226074,1.042074203491211,0.016035212203860283,-0.40912699699401855,-0.6059783101081848,-64.83484649658203,44.27068328857422,-36.99210739135742
6.08,2.4981067180633545,-6.040680885314941,1.1832507848739624,0.0832303911447525,-0.5006040930747986,-0.48548513650894165,-65.6094741821289,44.3437614440918,-36.75825881958008
6.099,2.3676979541778564,-5.702096462249756,1.2071789503097534,0.24419337511062622,-0.24037547409534454,-0.2405281811952591,-65.03945922851562,43.65682601928711,-37.50365447998047
6.103,2.337787628173828,-5.392225742340088,1.0911270380020142,0.2970332205295563,-0.1485929638147354,-0.18310685455799103,-65.06869506835938,43.7006721496582,-37.57673263549805
6.11,2.4047865867614746,-5.462813854217529,0.9032905101776123,0.3752239942550659,-0.035582900047302246,-0.10766499489545822,-65.0540771484375,43.75913619995117,-37.26980209350586
6.12,2.5639095306396484,-5.8444695472717285,0.7657032608985901,0.44165557622909546,0.08643742650747299,-0.03405573591589928,-65.40485382080078,44.50453186035156,-36.39286804199219
6.13,2.6261227130889893,-6.317051887512207,0.6819544434547424,0.4608978033065796,0.18677204847335815,0.02122756652534008,-65.3902359008789,44.09529113769531,-37.679039001464844
6.14,2.662015199661255,-6.75374174118042,0.5515456199645996,0.45692721009254456,0.32940909266471863,0.07223481684923172,-65.53639221191406,44.72376251220703,-37.4451904296875
6.159,3.2063820362091064,-7.622336387634277,-0.3649054169654846,0.44547346234321594,0.5778785347938538,0.14278973639011383,-65.56562042236328,44.86991882324219,-38.93598175048828
6.163,3.5437703132629395,-7.956134796142578,-0.6221339106559753,0.4346306025981903,0.59803706407547,0.15225815773010254,-65.33177185058594,44.7822265625,-38.278282165527344
6.17,4.040280818939209,-8.566305160522461,-1.0815558433532715,0.3738495111465454,0.6368269920349121,0.17470745742321014,-65.50716400146484,44.66530227661133,-38.760597229003906
6.18,4.810770034790039,-9.517451286315918,-1.8628122806549072,0.18555031716823578,0.6895141005516052,0.18417586386203766,-65.44869995117188,45.235313415527344,-38.90675354003906
6.19,5.678168296813965,-10.329814910888672,-3.0927231311798096,-0.14278973639011383,0.7900014519691467,0.14126259088516235,-65.9164047241211,45.746856689453125,-38.833675384521484
6.2,6.7752766609191895,-11.027322769165039,-4.5391845703125,-0.3338378667831421,1.0349584817886353,0.06444628536701202,-66.10639953613281,45.60070037841797,-38.62905502319336
6.212,8.518448829650879,-11.081161499023438,-4.7605204582214355,-0.3347541391849518,1.5128077268600464,-0.1014036312699318,-66.28179168701172,45.52762222290039,-39.929847717285156
6.22,10.042675971984863,-11.137392044067383,-3.871586799621582,-0.23396137356758118,1.665371298789978,-0.23609942197799683,-66.0333251953125,45.64455032348633,-40.397544860839844
6.23,11.592028617858887,-11.32522964477539,-2.27677059173584,-0.11774427443742752,1.492190957069397,-0.43936482071876526,-66.16486358642578,45.805320739746094,-40.6021614074707
6.24,12.112467765808105,-11.667403221130371,-1.561316728591919,-0.13836097717285156,0.9393580555915833,-0.6490443348884583,-67.3487319946289,45.118385314941406,-41.157554626464844
6.25,11.411370277404785,-11.528619766235352,-2.1810576915740967,-0.28878653049468994,0.5613851547241211,-0.6754642128944397,-67.392578125,44.97222900390625,-41.084476470947266
6.26,9.761519432067871,-10.750951766967773,-3.184846878051758,-0.3355177044868469,0.26251932978630066,-0.6076582074165344,-67.933349609375,44.562992095947266,-41.25986862182617
6.276,7.469195365905762,-9.140582084655762,-3.0520453453063965,-0.24098633229732513,-0.289702832698822,-0.4274529218673706,-67.65565490722656,44.85530471801758,-40.93832015991211
6.28,6.674778461456299,-8.62612533569336,-2.909672260284424,-0.21288654208183289,-0.36529740691185,-0.39904773235321045,-68.2695083618164,44.606842041015625,-40.529083251953125
6.29,5.546562671661377,-7.846065044403076,-2.720639228820801,-0.09239336103200912,-0.6409503817558289,-0.2805398404598236,-68.34259033203125,44.50453186035156,-39.973690032958984
6.3,4.5607194900512695,-7.433303356170654,-2.667997121810913,0.118660569190979,-0.9222537875175476,-0.13958270847797394,-68.18181610107422,44.84069061279297,-39.345218658447266
6.31,4.4997029304504395,-7.919046401977539,-0.9798608422279358,0.2791654169559479,-1.1817187070846558,0.031154125928878784,-68.21105194091797,44.621456146240234,-39.213680267333984
6.328,4.309473514556885,-9.848857879638672,-0.07417750358581543,0.3871358335018158,-1.368032693862915,0.33139437437057495,-68.05027770996094,45.14761734008789,-38.205204010009766
6.332,4.400400638580322,-14.019548416137695,-0.15553347766399384,0.3251330256462097,-1.0012081861495972,0.6962336897850037,-67.30487823486328,45.001461029052734,-37.51826858520508
6.34,4.923232555389404,-15.961322784423828,-0.0023928226437419653,0.2180788815021515,-0.6302602291107178,0.8793404698371887,-67.31949615478516,45.556854248046875,-37.92750549316406
6.35,5.108675956726074,-16.430316925048828,0.6879364848136902,0.1843285858631134,-0.35613444447517395,0.9611964225769043,-67.11487579345703,46.521484375,-38.33674621582031
6.36,4.435096740722656,-11.554940223693848,1.172482967376709,0.17867808043956757,-0.32162055373191833,0.6821837425231934,-66.73487091064453,46.682254791259766,-36.69979476928711
6.37,5.387440204620361,-6.735795497894287,0.8279166221618652,0.18280142545700073,-0.3877466917037964,0.403323769569397,-66.1502456665039,47.32534408569336,-36.7436408996582
6.388,5.3455657958984375,-3.723231792449951,1.4644074440002441,0.2571742534637451,-0.5821545720100403,0.20891591906547546,-66.64717864990234,47.237648010253906,-35.969017028808594
6.392,4.11924409866333,-3.014956474304199,2.4849462509155273,0.3104722499847412,-0.6533203721046448,0.16081027686595917,-66.17948150634766,47.310726165771484,-35.895938873291016
6.4,3.3583264350891113,-3.342773199081421,2.6021945476531982,0.4896084666252136,-0.6979135274887085,0.27122417092323303,-65.84332275390625,47.427650451660156,-34.799766540527344
6.41,2.9694929122924805,-5.533401966094971,3.1238298416137695,0.7220426797866821,-0.7556402683258057,0.4508185386657715,-65.34638977050781,47.486114501953125,-35.355159759521484
6.42,2.633301258087158,-7.657032012939453,3.3308091163635254,0.8077166080474854,-0.637132465839386,0.6947064995765686,-65.90177917480469,48.2607421875,-35.296695709228516
6.43,2.149951219558716,-9.188438415527344,3.163311243057251,0.8113817572593689,-0.3445279896259308,0.9440922141075134,-65.3171615600586,48.33382034301758,-35.69131851196289
6.449,1.4416755437850952,-10.037890434265137,2.8905298709869385,0.817337691783905,-0.016035212203860283,1.0641272068023682,-64.55714416503906,49.12306213378906,-34.88745880126953
6.453,-0.09092725813388824,-10.043872833251953,2.84386944770813,0.8206974267959595,0.35781431198120117,0.8888089060783386,-64.27944946289062,49.91230773925781,-35.340545654296875
6.46,-0.43549370765686035,-9.477970123291016,2.798405885696411,0.7841982841491699,0.4954116940498352,0.6154467463493347,-63.85559844970703,49.91230773925781,-36.17363357543945
6.47,0.31345975399017334,-8.561518669128418,2.66560435295105,0.7002043128013611,0.6484334468841553,0.2759583592414856,-64.16252899169922,50.540775299072266,-36.93364715576172
6.48,1.113858938217163,-8.061419486999512,2.510071039199829,0.5827654004096985,0.8106181621551514,0.14767667651176453,-64.2502212524414,50.5992431640625,-35.88132095336914
6.49,1.805384635925293,-7.9381890296936035,2.3365912437438965,0.4740314185619354,0.978606104850769,0.1690569519996643,-64.22098541259766,50.87693786621094,-37.81058120727539
6.509,2.662015199661255,-8.153542518615723,2.396411657333374,0.36254850029945374,1.1285735368728638,0.33307427167892456,-63.650978088378906,50.950016021728516,-38.278282165527344
6.513,3.809373378753662,-8.925228118896484,2.565105676651001,0.2981022298336029,1.0923796892166138,0.5607743263244629,-64.52791595458984,51.388484954833984,-38.5267448425293
6.52,4.222135543823242,-9.276973724365234,2.660818576812744,0.2915354371070862,0.9903652667999268,0.7008151412010193,-64.06021881103516,51.6807975769043,-38.7459831237793
6.53,4.348955154418945,-9.387042999267578,2.7014968395233154,0.34315353631973267,0.7898487448692322,0.8436048626899719,-64.19175720214844,52.17772674560547,-38.570594787597656
6.54,4.249652862548828,-9.355936050415039,2.695514678955078,0.4686863422393799,0.5590943694114685,0.8874344229698181,-64.30867767333984,52.25080108642578,-38.4828987121582
6.55,4.24367094039917,-9.221938133239746,2.7349960803985596,0.6308711171150208,0.35445454716682434,0.8223773241043091,-63.43174743652344,52.543113708496094,-38.97983169555664
6.569,3.803391456604004,-8.927620887756348,2.293520450592041,0.8827002644538879,0.28817567229270935,0.7244861125946045,-63.40251541137695,52.96696853637695,-39.564453125
6.573,4.168296813964844,-8.901299476623535,2.788834571838379,1.112385630607605,0.4691444933414459,0.5978842973709106,-62.90558624267578,53.37620544433594,-39.69599533081055
6.58,4.059423446655273,-8.737391471862793,3.286541700363159,1.1288789510726929,0.6093380451202393,0.5491678714752197,-62.84711837768555,53.58082580566406,-39.929847717285156
6.59,4.6061835289001465,-8.151150703430176,2.616551399230957,1.1210904121398926,0.8429940342903137,0.5145012736320496,-62.61327362060547,53.66851806640625,-40.85062789916992
6.6,5.237888813018799,-7.71087121963501,1.8269200325012207,1.2302825450897217,0.8917105197906494,0.535881519317627,-63.0371208190918,54.048526763916016,-42.253726959228516
6.61,5.542973518371582,-7.4835524559021,1.4177473783493042,1.429271936416626,0.7115052938461304,0.5890268087387085,-62.2332649230957,54.472373962402344,-42.47296142578125
6.629,5.535795211791992,-7.354340076446533,1.4057832956314087,1.560302495956421,0.4970915913581848,0.6418666243553162,-61.970184326171875,55.071617126464844,-44.606842041015625
6.633,5.4209394454956055,-7.0923261642456055,1.5493526458740234,1.6108516454696655,0.2736676335334778,0.6756169199943542,-62.07249069213867,55.02777099609375,-44.38760757446289
6.64,5.4687957763671875,-6.999006271362305,1.6701900959014893,1.5867223739624023,0.13225232064723969,0.6745479106903076,-61.5171012878418,55.32008361816406,-45.3814697265625
6.65,5.227120876312256,-7.1054863929748535,1.6905291080474854,1.4957035779953003,-0.05925392732024193,0.6453791260719299,-61.48787307739258,55.84624481201172,-46.06840133666992
6.66,4.800002098083496,-7.395018577575684,1.6319050788879395,1.3148874044418335,-0.2499965876340866,0.5403103232383728,-61.66325759887695,56.53317642211914,-46.50687026977539
6.67,4.1419758796691895,-7.963313102722168,1.4644074440002441,1.1343767642974854,-0.33628129959106445,0.4138611853122711,-60.800933837890625,56.16778564453125,-46.872257232666016
6.689,3.7363924980163574,-8.366503715515137,1.4871392250061035,0.9665415287017822,-0.3851505219936371,0.25564709305763245,-60.23093032836914,56.06547546386719,-46.46302032470703
6.693,3.5736804008483887,-8.641678810119629,1.7407783269882202,0.7825183272361755,-0.3254384398460388,0.03420845419168472,-60.30400466918945,56.16778564453125,-47.529964447021484
6.7,3.6430721282958984,-8.72782039642334,1.8640087842941284,0.7414376735687256,-0.2779436707496643,-0.011453723534941673,-60.26015853881836,56.79625701904297,-47.74919891357422
6.71,3.511467218399048,-8.729016304016113,1.9836498498916626,0.6834054589271545,-0.07406741380691528,-0.09544768929481506,-60.4940071105957,56.44548416137695,-47.734580993652344
6.72,3.260220766067505,-9.07717227935791,2.4849462509155273,0.6334671974182129,0.20723602175712585,-0.17379117012023926,-60.85940170288086,56.503944396972656,-48.34843444824219
6.73,3.4815566539764404,-9.000602722167969,2.885744094848633,0.49785515666007996,0.4017966091632843,-0.22174407541751862,-60.976322174072266,56.05086135864258,-48.5384407043457
6.749,3.369094133377075,-8.568697929382324,2.939582586288452,0.21914789080619812,0.607810914516449,-0.2811506986618042,-60.96170425415039,56.606258392333984,-48.81613540649414
