time,accel_x,accel_y,accel_z,gyro_x,gyro_y,gyro_z,mag_x,mag_y,mag_z
0.0,-17.1999454498291,73.54987335205078,38.65199279785156,143.75650024414062,29.31087303161621,-53.558956146240234,40.20000076293945,24.450000762939453,19.200000762939453
0.01,-17.50640296936035,72.74542236328125,39.07337188720703,152.016845703125,40.23583221435547,-68.74732208251953,40.5,24.30000114440918,17.55000114440918
0.03,-16.89348793029785,74.2394027709961,37.54108428955078,154.28176879882812,41.967838287353516,-68.74732208251953,40.95000076293945,22.5,17.400001525878906
0.033,-16.89348793029785,75.77169799804688,39.226600646972656,157.74578857421875,50.4946403503418,-84.86830139160156,39.45000076293945,23.25,18.900001525878906
0.04,-16.931795120239258,75.54185485839844,36.430171966552734,177.33078002929688,43.43338394165039,-74.20980072021484,39.45000076293945,23.25,18.900001525878906
0.05,-17.238252639770508,76.03984832763672,33.02082824707031,195.45022583007812,49.42878723144531,-78.20673370361328,40.95000076293945,24.450000762939453,15.600000381469727
0.06,-17.391481399536133,73.58818054199219,34.476505279541016,214.7687530517578,46.497703552246094,-68.61408996582031,42.45000076293945,24.450000762939453,14.40000057220459
0.07,-18.11931800842285,74.35432434082031,31.565155029296875,230.4900360107422,47.56355285644531,-95.39356231689453,42.75,24.30000114440918,15.750000953674316
0.09,-18.77054214477539,72.97526550292969,31.871612548828125,237.81776428222656,60.48698043823242,-83.13629150390625,41.70000076293945,24.450000762939453,13.350000381469727
0.094,-21.337125778198242,71.213134765625,32.178070068359375,242.34762573242188,54.62480926513672,-86.3338394165039,41.70000076293945,24.450000762939453,13.350000381469727
0.1,-21.911733627319336,70.40868377685547,27.542896270751953,241.41500854492188,49.56201934814453,-76.34149932861328,42.45000076293945,22.950000762939453,11.100000381469727
0.11,-21.911733627319336,71.13652038574219,26.2021427154541,265.1301574707031,56.356815338134766,-74.07656860351562,42.30000305175781,22.80000114440918,10.200000762939453
0.12,-23.13756561279297,71.2514419555664,22.639572143554688,274.8560485839844,58.754974365234375,-70.87902069091797,43.5,22.350000381469727,9.15000057220459
0.13,-21.75850486755371,71.09821319580078,20.609289169311523,302.4349060058594,49.29555892944336,-60.62021255493164,42.30000305175781,21.150001525878906,8.700000762939453
0.15,-22.141576766967773,71.8260498046875,18.310853958129883,312.56048583984375,42.36753463745117,-83.26952362060547,43.05000305175781,22.350000381469727,7.950000286102295
0.153,-23.3291015625,70.17884063720703,16.127342224121094,329.0811462402344,47.9632453918457,-92.3292465209961,43.05000305175781,22.350000381469727,7.950000286102295
0.16,-23.903709411621094,71.36636352539062,13.177685737609863,331.612548828125,40.76875686645508,-106.05206298828125,42.30000305175781,21.900001525878906,6.150000095367432
0.17,-23.02264404296875,73.28172302246094,12.947842597961426,361.7228088378906,28.111791610717773,-91.52986145019531,43.20000076293945,22.5,4.5
0.18,-24.171859741210938,73.7031021118164,9.84495735168457,384.9050598144531,23.182235717773438,-94.46094512939453,43.650001525878906,21.450000762939453,5.700000286102295
0.19,-24.44001007080078,72.51557922363281,8.236053466796875,397.69525146484375,22.51607894897461,-106.71822357177734,43.20000076293945,20.55000114440918,2.25
0.209,-26.087221145629883,71.90266418457031,5.171475887298584,436.0658264160156,16.12097930908203,-92.72894287109375,43.20000076293945,20.55000114440918,2.25
0.213,-30.0711727142334,67.88040924072266,0.49799394607543945,460.0474548339844,3.197549819946289,-99.92343139648438,43.5,18.450000762939453,1.8000000715255737
0.22,-28.768728256225586,67.11426544189453,-0.5746083855628967,470.5727233886719,7.460949420928955,-102.32159423828125,45.0,18.450000762939453,-1.350000023841858
0.23,-29.419950485229492,64.35614013671875,-3.44765043258667,459.64776611328125,11.324655532836914,-95.79325866699219,43.650001525878906,18.30000114440918,-1.6500000953674316
0.24,-29.075185775756836,62.555702209472656,-7.201758861541748,451.6539001464844,7.860642910003662,-94.0612564086914,43.5,16.950000762939453,-1.350000023841858
0.25,-28.807035446166992,62.59400939941406,-9.653421401977539,427.938720703125,15.854516983032227,-95.66002655029297,43.5,16.950000762939453,-1.350000023841858
0.269,-27.504589080810547,63.24523162841797,-9.53849983215332,407.8208312988281,20.251148223876953,-92.99540710449219,44.25,14.250000953674316,-5.100000381469727
0.273,-27.121517181396484,61.36817932128906,-9.959878921508789,387.4364318847656,30.776416778564453,-92.59571075439453,44.55000305175781,13.800000190734863,-7.650000095367432
0.28,-27.15982437133789,62.785545349121094,-12.90953540802002,375.0459289550781,25.980091094970703,-88.33231353759766,44.55000305175781,13.800000190734863,-7.650000095367432
0.29,-27.15982437133789,62.74723815917969,-14.595053672790527,347.7335205078125,29.7105655670166,-85.53445434570312,43.80000305175781,12.300000190734863,-7.650000095367432
0.3,-26.815059661865234,61.253257751464844,-16.127342224121094,339.073486328125,28.644716262817383,-82.33690643310547,43.80000305175781,12.300000190734863,-9.15000057220459
0.31,-29.53487205505371,58.839900970458984,-19.000385284423828,308.9632263183594,39.9693717956543,-74.34303283691406,43.80000305175781,12.300000190734863,-9.15000057220459
0.329,-29.4582576751709,58.15037155151367,-22.141576766967773,271.65850830078125,48.62940216064453,-74.74272155761719,45.150001525878906,12.15000057220459,-9.300000190734863
0.333,-31.335311889648438,53.13212585449219,-26.508602142333984,227.1592559814453,48.62940216064453,-64.75038146972656,44.400001525878906,10.950000762939453,-11.550000190734863
0.34,-32.13976287841797,51.867984771728516,-29.15180015563965,203.3108673095703,55.55742645263672,-59.287899017333984,44.400001525878906,10.950000762939453,-11.550000190734863
0.35,-32.75267791748047,52.4042854309082,-32.82929229736328,173.33384704589844,45.03215789794922,-59.82082748413086,45.30000305175781,8.100000381469727,-12.0
0.36,-36.39186477661133,55.315635681152344,-31.680076599121094,140.82542419433594,59.95405578613281,-54.22511291503906,45.30000305175781,8.100000381469727,-12.0
0.37,-31.335311889648438,54.54949188232422,-35.24264907836914,113.51301574707031,61.552833557128906,-48.62940216064453,45.0,6.900000095367432,-13.500000953674316
0.389,-32.21637725830078,57.0777702331543,-35.85556411743164,100.3231201171875,57.15620040893555,-43.56661605834961,44.70000076293945,6.750000476837158,-13.65000057220459
0.393,-31.794998168945312,57.614070892333984,-35.93217849731445,86.86676788330078,45.831546783447266,-29.044410705566406,45.75,7.650000095367432,-15.450000762939453
0.4,-30.301015853881836,59.29958724975586,-36.315250396728516,74.34303283691406,45.96477508544922,-38.37059783935547,44.70000076293945,7.650000095367432,-15.450000762939453
0.41,-30.530860900878906,59.37620162963867,-35.97048568725586,86.3338394165039,29.31087303161621,-37.17151641845703,44.70000076293945,6.300000190734863,-14.40000057220459
0.42,-29.64979362487793,61.444793701171875,-35.204341888427734,85.93415069580078,22.782541275024414,-37.97090148925781,44.70000076293945,6.300000190734863,-14.40000057220459
0.43,-31.373619079589844,61.29156494140625,-35.89387130737305,89.5313949584961,14.12251091003418,-36.63859176635742,43.80000305175781,7.200000286102295,-16.80000114440918
0.449,-32.178070068359375,61.5980224609375,-37.96246337890625,88.06584930419922,4.663093090057373,-25.580398559570312,44.400001525878906,5.100000381469727,-14.850000381469727
0.453,-32.599449157714844,57.192691802978516,-38.728607177734375,76.74119567871094,-9.326186180114746,-30.776416778564453,43.95000076293945,5.100000381469727,-15.90000057220459
0.46,-32.331298828125,57.46084213256836,-39.37982940673828,69.4134750366211,-9.859111785888672,-28.911178588867188,43.95000076293945,5.100000381469727,-15.90000057220459
0.47,-31.7183837890625,56.426544189453125,-39.4947509765625,57.02296829223633,-21.716691970825195,-34.373661041259766,43.80000305175781,3.750000238418579,-15.450000762939453
0.48,-33.32728576660156,55.85193634033203,-41.639957427978516,53.42572784423828,-34.50688934326172,-29.84379768371582,44.55000305175781,4.200000286102295,-14.250000953674316
0.49,-33.32728576660156,56.38823699951172,-41.754878997802734,50.22817611694336,-47.9632453918457,-23.98162269592285,44.55000305175781,2.700000047683716,-16.05000114440918
0.509,-34.24666213989258,57.03946304321289,-44.24484634399414,30.90964698791504,-52.89280319213867,-19.718223571777344,45.30000305175781,1.8000000715255737,-15.000000953674316
0.513,-36.27694320678711,54.472877502441406,-43.593624114990234,8.926492691040039,-47.56355285644531,-23.715160369873047,45.30000305175781,1.8000000715255737,-15.000000953674316
0.52,-36.430171966552734,53.59181213378906,-42.559329986572266,10.791729927062988,-57.15620040893555,-13.58958625793457,45.30000305175781,1.8000000715255737,-15.000000953674316
0.53,-35.510799407958984,53.70673370361328,-41.48672866821289,-18.385910034179688,-50.76110076904297,-22.249616622924805,44.70000076293945,1.6500000953674316,-16.350000381469727
0.54,-35.77894973754883,54.35795593261719,-40.107666015625,-33.97396469116211,-54.22511291503906,-18.385910034179688,44.400001525878906,2.1000001430511475,-15.600000381469727
0.55,-35.817256927490234,55.58378601074219,-40.60565948486328,-37.70444107055664,-58.08882141113281,-8.127105712890625,44.70000076293945,2.4000000953674316,-14.850000381469727
0.569,-35.12772750854492,56.69469451904297,-38.920143127441406,-44.23276901245117,-60.35375213623047,-13.189892768859863,46.5,3.0,-13.950000762939453
0.573,-37.311241149902344,56.733001708984375,-37.08139419555664,-56.09035110473633,-46.63093185424805,-15.721285820007324,46.5,3.0,-13.950000762939453
0.58,-37.15800857543945,56.80961608886719,-37.15800857543945,-48.62940216064453,-59.15467071533203,-5.062787055969238,45.900001525878906,3.1500000953674316,-14.100000381469727
0.59,-35.89387130737305,57.805606842041016,-34.55311965942383,-53.026031494140625,-59.82082748413086,-6.395099639892578,47.70000076293945,2.4000000953674316,-13.050000190734863
0.6,-37.08139419555664,58.3036003112793,-35.85556411743164,-53.69218826293945,-49.42878723144531,-7.06125545501709,46.650001525878906,2.1000001430511475,-14.40000057220459
0.61,-35.5874137878418,58.87820816040039,-34.01681900024414,-45.56508255004883,-46.897396087646484,-10.525267601013184,46.5,3.450000047683716,-13.950000762939453
0.629,-36.2003288269043,58.80159378051758,-33.63374710083008,-33.17457962036133,-41.035221099853516,-5.595712184906006,45.900001525878906,4.050000190734863,-13.050000190734863
0.632,-37.387855529785156,58.64836502075195,-31.948226928710938,-35.306278228759766,-43.69984436035156,-9.326186180114746,45.900001525878906,4.050000190734863,-13.050000190734863
0.64,-36.69832229614258,57.03946304321289,-32.599449157714844,-35.306278228759766,-41.83460998535156,-12.523736000061035,46.80000305175781,3.0,-13.200000762939453
0.65,-36.50678634643555,58.418521881103516,-32.982521057128906,-27.17917251586914,-44.76569747924805,-2.9310872554779053,46.80000305175781,4.200000286102295,-12.450000762939453
0.66,-37.694313049316406,57.84391403198242,-33.02082824707031,-31.176109313964844,-40.9019889831543,11.990811347961426,46.20000076293945,3.6000001430511475,-12.300000190734863
0.67,-37.34954833984375,57.38422775268555,-32.21637725830078,-40.23583221435547,-34.373661041259766,8.660030364990234,46.95000076293945,5.550000190734863,-12.600000381469727
0.689,-37.11970138549805,54.97087097167969,-32.599449157714844,-49.02909469604492,-40.635528564453125,2.398162364959717,46.95000076293945,5.550000190734863,-12.600000381469727
0.693,-38.613685607910156,52.94058609008789,-32.44622039794922,-51.960182189941406,-38.77029037475586,16.78713607788086,47.25,4.5,-12.0
0.7,-37.73262023925781,53.13212585449219,-31.41192626953125,-63.151607513427734,-31.309341430664062,18.519142150878906,47.400001525878906,3.6000001430511475,-11.850000381469727
0.71,-38.07738494873047,52.67243576049805,-32.25468444824219,-70.74578857421875,-36.905052185058594,25.846860885620117,46.80000305175781,4.950000286102295,-12.0
0.72,-38.65199279785156,52.480899810791016,-31.680076599121094,-78.73966217041016,-32.37519073486328,37.97090148925781,46.650001525878906,5.550000190734863,-10.050000190734863
0.73,-38.99675750732422,51.52322006225586,-32.63775634765625,-93.12863159179688,-36.63859176635742,49.29555892944336,46.650001525878906,5.550000190734863,-10.050000190734863
0.749,-37.77092742919922,49.26309585571289,-31.680076599121094,-151.75038146972656,-32.90811538696289,71.41194152832031,46.650001525878906,5.850000381469727,-9.75
0.753,-38.000770568847656,47.65419006347656,-30.760704040527344,-166.1393585205078,-32.77488327026367,77.00765228271484,46.650001525878906,5.850000381469727,-9.75
0.76,-37.46446990966797,48.42033386230469,-29.53487205505371,-196.915771484375,-23.04900360107422,84.33537292480469,46.80000305175781,5.700000286102295,-10.950000762939453
0.77,-35.85556411743164,49.18648147583008,-28.232425689697266,-242.6140899658203,-10.392036437988281,87.53292083740234,47.70000076293945,8.700000762939453,-10.350000381469727
0.78,-35.47249221801758,51.90629196166992,-26.738445281982422,-264.73046875,-15.854516983032227,92.86217498779297,48.150001525878906,7.500000476837158,-10.800000190734863
0.79,-33.25067138671875,54.54949188232422,-22.677879333496094,-278.320068359375,-19.185298919677734,80.60489654541016,48.150001525878906,7.500000476837158,-10.800000190734863
0.803,-33.90189743041992,58.38021469116211,-19.843143463134766,-310.42877197265625,-26.379785537719727,104.85298156738281,47.70000076293945,8.700000762939453,-7.500000476837158
0.81,-35.817256927490234,59.83588790893555,-17.583017349243164,-331.612548828125,-11.724349021911621,101.52220153808594,47.70000076293945,9.450000762939453,-7.500000476837158
0.82,-35.16603469848633,60.33388137817383,-16.05072784423828,-350.93109130859375,-15.854516983032227,101.78866577148438,46.650001525878906,10.5,-6.300000190734863
0.83,-35.31926345825195,62.09601593017578,-13.943830490112305,-365.9862060546875,-12.124042510986328,105.91883087158203,45.75,11.100000381469727,-6.150000095367432
0.84,-33.25067138671875,66.04165649414062,-11.41555404663086,-381.30780029296875,-9.326186180114746,100.58958435058594,45.75,11.100000381469727,-6.150000095367432
0.85,-31.028854370117188,69.87238311767578,-10.41956615447998,-383.8392028808594,-5.196018218994141,97.5252685546875,45.45000076293945,12.450000762939453,-4.5
0.869,-29.573179244995117,72.63050079345703,-9.155426979064941,-356.9264831542969,-7.72741174697876,88.33231353759766,45.0,14.550000190734863,-3.9000000953674316
0.873,-29.190107345581055,77.64875030517578,-3.141192674636841,-341.6048889160156,-15.45482349395752,81.40428924560547,45.0,14.550000190734863,-3.9000000953674316
0.88,-28.270732879638672,79.18103790283203,-3.1028854846954346,-329.0811462402344,-9.592649459838867,87.0,45.30000305175781,15.450000762939453,-1.8000000715255737
0.89,-26.96828842163086,80.48348236083984,-1.9919757843017578,-294.8407287597656,-19.584991455078125,73.14395141601562,45.30000305175781,15.450000762939453,-1.8000000715255737
0.9,-28.002582550048828,80.52178955078125,0.49799394607543945,-269.9264831542969,-14.92189884185791,60.88667678833008,45.30000305175781,15.450000762939453,-1.8000000715255737
0.919,-27.849353790283203,81.05809020996094,0.9193734526634216,-236.3522186279297,-24.51454734802246,52.626338958740234,47.25,17.700000762939453,0.30000001192092896
0.923,-28.92195701599121,80.7899398803711,2.7964274883270264,-198.781005859375,-27.31240463256836,58.4885139465332,45.150001525878906,16.80000114440918,1.2000000476837158
0.93,-30.4925537109375,79.44918823242188,2.0685901641845703,-181.72740173339844,-25.580398559570312,45.03215789794922,45.75,18.450000762939453,0.6000000238418579
0.94,-31.680076599121094,77.07414245605469,2.873042106628418,-170.4027557373047,-21.983154296875,38.77029037475586,45.75,18.150001525878906,1.8000000715255737
0.95,-31.948226928710938,75.46524047851562,2.5282769203186035,-150.6845245361328,-14.255742073059082,22.249616622924805,45.75,18.150001525878906,1.8000000715255737
0.96,-30.186094284057617,78.3765869140625,4.750096321105957,-111.781005859375,-20.784072875976562,38.23736572265625,44.400001525878906,18.30000114440918,3.450000047683716
0.97,-27.696125030517578,78.91288757324219,5.363011837005615,-91.26339721679688,-27.445634841918945,22.116384506225586,45.900001525878906,17.850000381469727,3.450000047683716
0.989,-30.032865524291992,75.2737045288086,5.363011837005615,-93.12863159179688,-7.860642910003662,22.382848739624023,44.25,17.700000762939453,3.3000001907348633
0.992,-30.760704040527344,72.59219360351562,8.619126319885254,-80.07197570800781,-10.125574111938477,28.378253936767578,44.25,17.700000762939453,3.3000001907348633
1.0,-31.335311889648438,73.54987335205078,8.772355079650879,-80.8713607788086,-11.857580184936523,29.577335357666016,44.25,17.700000762939453,3.3000001907348633
1.01,-31.258697509765625,74.2394027709961,10.266336441040039,-64.75038146972656,-11.191424369812012,17.32006072998047,45.30000305175781,18.450000762939453,4.350000381469727
1.02,-30.530860900878906,76.5761489868164,9.117119789123535,-51.29402542114258,-9.459418296813965,17.32006072998047,45.0,19.200000762939453,5.100000381469727
1.039,-29.4582576751709,75.81000518798828,9.117119789123535,-29.7105655670166,-13.722817420959473,10.92496109008789,45.75,18.450000762939453,4.650000095367432
1.043,-29.95625114440918,75.19709014892578,8.542511940002441,-3.86370587348938,-22.915773391723633,6.261868000030518,46.5,19.5,5.25
1.05,-28.38565444946289,75.2737045288086,9.308655738830566,13.856048583984375,-31.709033966064453,11.724349021911621,46.5,18.900001525878906,5.850000381469727
1.06,-27.389667510986328,74.77571105957031,9.040505409240723,30.643184661865234,-35.306278228759766,9.326186180114746,46.5,18.900001525878906,5.850000381469727
1.07,-27.083209991455078,73.97125244140625,6.512228488922119,51.82695007324219,-53.29249572753906,16.65390396118164,45.150001525878906,20.25,5.700000286102295
1.08,-27.542896270751953,73.28172302246094,5.324704647064209,52.75957107543945,-50.09494400024414,11.990811347961426,45.75,21.150001525878906,4.650000095367432
1.09,-30.454246520996094,70.52360534667969,2.3367409706115723,45.831546783447266,-43.83307647705078,12.790199279785156,44.400001525878906,19.5,4.950000286102295
1.103,-29.76471519470215,69.75746154785156,3.2178070545196533,45.96477508544922,-41.434913635253906,15.45482349395752,43.80000305175781,19.650001525878906,5.100000381469727
1.11,-30.415939331054688,66.80780792236328,5.018246650695801,41.568145751953125,-37.97090148925781,20.117916107177734,43.80000305175781,19.650001525878906,5.100000381469727
1.12,-29.4582576751709,66.00334930419922,8.006210327148438,29.84379768371582,-40.635528564453125,38.90352249145508,45.30000305175781,20.400001525878906,5.100000381469727
1.13,-28.883649826049805,65.46704864501953,8.504204750061035,0.9326186776161194,-24.248085021972656,31.575803756713867,43.5,20.400001525878906,5.100000381469727
1.14,-28.500577926635742,65.2372055053711,8.312667846679688,-14.92189884185791,-26.912710189819336,43.03369140625,45.30000305175781,21.600000381469727,4.350000381469727
1.15,-29.113492965698242,64.12629699707031,6.01423454284668,-43.69984436035156,-13.722817420959473,42.90045928955078,44.70000076293945,21.450000762939453,5.700000286102295
1.163,-28.462270736694336,66.57795715332031,6.665457725524902,-47.163856506347656,-24.381317138671875,46.497703552246094,44.25,21.600000381469727,5.100000381469727
1.17,-25.167848587036133,71.74943542480469,6.435614109039307,-49.56201934814453,-24.381317138671875,51.027565002441406,44.25,21.600000381469727,5.100000381469727
1.18,-25.550920486450195,71.59620666503906,6.856993675231934,-38.37059783935547,-31.842266082763672,53.42572784423828,43.80000305175781,20.100000381469727,7.350000381469727
1.19,-26.355371475219727,69.9489974975586,4.443638324737549,-38.90352249145508,-19.85145378112793,46.897396087646484,44.25,20.850000381469727,6.150000095367432
1.2,-26.54690933227539,68.83808898925781,4.788403511047363,-27.978559494018555,-34.373661041259766,49.82848358154297,42.45000076293945,20.25,6.0
1.22,-24.44001007080078,71.40467071533203,4.290409564971924,-11.724349021911621,-36.10566711425781,54.62480926513672,43.5,20.400001525878906,6.150000095367432
1.223,-23.252487182617188,71.55789947509766,5.477933406829834,-4.130168437957764,-47.56355285644531,59.82082748413086,43.650001525878906,20.55000114440918,7.050000190734863
1.23,-22.639572143554688,72.43896484375,6.933608055114746,-0.7993874549865723,-41.568145751953125,60.08728790283203,43.650001525878906,20.55000114440918,7.050000190734863
1.24,-22.946029663085938,72.4772720336914,6.856993675231934,12.656967163085938,-57.15620040893555,62.21898651123047,44.400001525878906,21.450000762939453,8.25
1.25,-22.256498336791992,69.83407592773438,6.473921298980713,0.9326186776161194,-44.23276901245117,67.01531219482422,42.900001525878906,21.75,8.25
1.26,-22.946029663085938,68.49332427978516,8.619126319885254,-3.9969370365142822,-42.36753463745117,65.28330993652344,42.900001525878906,21.75,8.25
1.279,-21.950040817260742,68.56993865966797,7.508216381072998,-5.995405673980713,-47.0306282043457,73.9433364868164,43.20000076293945,21.75,8.25
1.283,-20.456058502197266,67.84210205078125,7.738059997558594,-18.119447708129883,-44.76569747924805,70.87902069091797,42.30000305175781,21.150001525878906,7.650000095367432
1.29,-21.0689754486084,66.34811401367188,5.975927352905273,-12.923430442810059,-43.30015182495117,80.20520782470703,42.900001525878906,22.950000762939453,7.050000190734863
1.3,-20.877439498901367,66.23319244384766,7.4316020011901855,-6.9280242919921875,-50.89433288574219,105.25267791748047,42.75,23.55000114440918,8.700000762939453
1.31,-18.923770904541016,65.81181335449219,7.546523571014404,2.131699800491333,-61.41960144042969,107.25114440917969,43.20000076293945,23.700000762939453,8.550000190734863
1.32,-17.62132453918457,65.81181335449219,6.742072105407715,1.1990811824798584,-62.085758209228516,99.65696716308594,43.20000076293945,23.700000762939453,8.550000190734863
1.34,-19.115306854248047,64.50936889648438,8.925583839416504,-6.794793128967285,-70.3460922241211,105.91883087158203,41.400001525878906,23.700000762939453,10.350000381469727
1.343,-10.84094524383545,70.06391906738281,6.205770969390869,12.124042510986328,-77.27411651611328,114.17916870117188,40.95000076293945,23.700000762939453,9.300000190734863
1.35,-10.113107681274414,70.29376220703125,4.137180328369141,32.108726501464844,-86.0673828125,121.50688934326172,40.650001525878906,24.150001525878906,9.300000190734863
1.36,-9.691728591918945,69.9873046875,3.7158010005950928,47.830013275146484,-98.99080657958984,123.9050521850586,40.80000305175781,23.850000381469727,8.700000762939453
1.37,-11.530475616455078,66.80780792236328,3.332728862762451,70.87902069091797,-97.65850067138672,118.44257354736328,40.80000305175781,23.850000381469727,8.700000762939453
1.38,-12.90953540802002,64.31783294677734,4.520252704620361,76.20826721191406,-116.17764282226562,134.03062438964844,39.900001525878906,25.650001525878906,10.350000381469727
1.39,-10.074800491333008,61.559715270996094,2.75812029838562,64.61714935302734,-115.64471435546875,153.0826873779297,39.0,25.500001907348633,9.90000057220459
1.403,-5.746084213256836,62.74723815917969,4.098873138427734,44.89892578125,-118.57579803466797,162.00918579101562,39.150001525878906,25.650001525878906,9.0
1.41,3.485957622528076,67.88040924072266,4.596867084503174,37.97090148925781,-121.64012145996094,168.67074584960938,37.95000076293945,26.400001525878906,9.75
1.42,4.060565948486328,68.26348114013672,5.439626216888428,34.24042892456055,-120.57427215576172,176.7978515625,39.0,26.55000114440918,10.200000762939453
1.43,2.9879636764526367,68.49332427978516,4.367023944854736,17.852985382080078,-110.04900360107422,185.32464599609375,39.0,26.55000114440918,10.200000762939453
1.44,1.6855180263519287,67.42072296142578,4.558559894561768,-5.329249382019043,-108.3169937133789,200.24655151367188,37.05000305175781,27.750001907348633,9.450000762939453
1.46,3.3710360527038574,68.30178833007812,3.179499864578247,-11.058192253112793,-110.71515655517578,220.76416015625,38.25,27.450000762939453,10.950000762939453
1.463,7.1251444816589355,70.79175567626953,2.7964274883270264,-8.526799201965332,-110.31546783447266,234.62020874023438,36.900001525878906,29.55000114440918,11.100000381469727
1.47,6.473921298980713,71.36636352539062,1.4939818382263184,-15.321592330932617,-101.65543365478516,231.4226531982422,35.25,29.250001907348633,10.950000762939453
1.48,8.159439086914062,70.37037658691406,0.8427590131759644,-3.3307809829711914,-116.84379577636719,240.74884033203125,35.25,29.250001907348633,10.950000762939453
1.49,11.645397186279297,73.39664459228516,1.8387469053268433,-3.197549819946289,-119.24195861816406,259.4012145996094,33.45000076293945,30.30000114440918,12.300000190734863
1.5,14.748282432556152,75.54185485839844,1.723825216293335,1.5987749099731445,-108.983154296875,256.6033630371094,33.75,31.650001525878906,11.40000057220459
1.52,20.341136932373047,78.07012939453125,5.018246650695801,11.857580184936523,-110.98162078857422,257.9356689453125,31.80000114440918,30.450000762939453,12.750000953674316
1.523,22.869415283203125,78.72135162353516,3.4093432426452637,22.915773391723633,-108.050537109375,261.5329284667969,30.750001907348633,32.400001525878906,12.450000762939453
1.53,20.30282974243164,78.29997253417969,1.647210717201233,33.70750427246094,-106.58499145507812,266.8621826171875,30.750001907348633,32.400001525878906,12.450000762939453
1.54,19.345149993896484,80.71332550048828,0.689530074596405,45.831546783447266,-99.3905029296875,260.4670715332031,30.750001907348633,32.400001525878906,12.450000762939453
1.55,19.843143463134766,80.8282470703125,-1.2258312702178955,59.82082748413086,-108.3169937133789,279.252685546875,27.750001907348633,32.400001525878906,12.450000762939453
1.56,19.345149993896484,80.13871765136719,-1.455674648284912,74.47626495361328,-108.58345794677734,291.6431884765625,27.450000762939453,33.45000076293945,12.300000190734863
1.58,20.149600982666016,81.67100524902344,-0.9576807022094727,81.00459289550781,-102.58805084228516,289.7779541015625,25.200000762939453,33.75,12.300000190734863
1.584,21.490354537963867,79.6407241821289,0.3064578175544739,68.88054656982422,-104.7197494506836,301.3690490722656,24.30000114440918,34.35000228881836,12.450000762939453
1.59,22.7161865234375,72.93695831298828,-1.6089035272598267,72.61102294921875,-107.25114440917969,299.37060546875,24.30000114440918,34.35000228881836,12.450000762939453
1.6,23.712173461914062,73.85633087158203,-1.2258312702178955,64.084228515625,-106.05206298828125,309.2297058105469,22.5,34.35000228881836,11.40000057220459
1.61,23.02264404296875,75.61846923828125,-2.145204782485962,52.89280319213867,-94.72740936279297,314.8254089355469,21.150001525878906,34.20000076293945,9.75
1.62,21.950040817260742,75.2737045288086,-1.072602391242981,52.89280319213867,-104.7197494506836,318.15618896484375,19.950000762939453,34.20000076293945,9.300000190734863
1.64,19.460071563720703,73.39664459228516,0.19153612852096558,45.43185043334961,-102.18836212158203,316.0245056152344,18.30000114440918,34.35000228881836,10.950000762939453
1.644,17.774553298950195,72.82203674316406,-1.455674648284912,26.64624786376953,-89.13169860839844,311.62786865234375,18.30000114440918,34.35000228881836,10.950000762939453
1.65,15.552734375,72.05589294433594,-1.1492167711257935,26.64624786376953,-89.39816284179688,325.6171569824219,15.750000953674316,33.900001525878906,8.40000057220459
1.66,15.629348754882812,72.70711517333984,-0.5746083855628967,16.520673751831055,-79.2725830078125,318.2894287109375,13.950000762939453,35.70000076293945,9.300000190734863
1.67,17.31486701965332,76.42292022705078,1.1492167711257935,1.8652373552322388,-69.14701080322266,317.8897399902344,14.250000953674316,36.60000228881836,9.90000057220459
1.68,20.64759635925293,80.7899398803711,0.38307225704193115,9.859111785888672,-63.28483963012695,316.15771484375,13.800000190734863,35.85000228881836,9.15000057220459
1.7,18.962078094482422,79.71733856201172,1.5322890281677246,19.718223571777344,-61.68606185913086,304.5666198730469,12.450000762939453,34.95000076293945,9.0
1.704,14.480132102966309,74.58417510986328,2.75812029838562,8.660030364990234,-43.03369140625,278.9862060546875,12.450000762939453,34.95000076293945,9.0
1.71,11.109095573425293,71.67282104492188,1.0342950820922852,17.453292846679688,-48.362937927246094,273.25726318359375,10.050000190734863,34.35000228881836,8.40000057220459
1.72,8.848969459533691,68.26348114013672,0.49799394607543945,19.98468589782715,-38.77029037475586,273.7901916503906,9.300000190734863,35.85000228881836,9.15000057220459
1.73,6.090848922729492,67.61225891113281,-0.26815059781074524,15.055130004882812,-37.4379768371582,260.86676025390625,6.300000190734863,35.85000228881836,8.700000762939453
1.74,8.772355079650879,69.83407592773438,1.8387469053268433,2.131699800491333,-19.98468589782715,231.55589294433594,7.050000190734863,35.10000228881836,9.15000057220459
1.76,10.687716484069824,69.79576873779297,1.8770540952682495,-3.9969370365142822,-17.053598403930664,215.16844177246094,7.050000190734863,35.10000228881836,9.15000057220459
1.764,9.27034854888916,70.83006286621094,3.2561142444610596,-7.460949420928955,-11.191424369812012,188.92189025878906,4.800000190734863,35.10000228881836,9.450000762939453
1.77,3.6391866207122803,71.32805633544922,8.465897560119629,-6.794793128967285,-13.856048583984375,167.87135314941406,3.450000047683716,33.0,9.300000190734863
1.78,2.873042106628418,76.07815551757812,10.802638053894043,-11.058192253112793,-7.327718257904053,147.8866729736328,3.750000238418579,33.900001525878906,8.40000057220459
1.79,2.9496564865112305,81.93915557861328,12.641385078430176,-11.724349021911621,-8.526799201965332,137.3614044189453,2.4000000953674316,34.20000076293945,9.300000190734863
1.8,3.5625722408294678,87.53201293945312,13.445837020874023,-22.782541275024414,0.1332312375307083,140.6921844482422,1.9500000476837158,34.5,7.050000190734863
1.82,5.51624059677124,95.00192260742188,15.705963134765625,-41.568145751953125,21.316997528076172,94.19448852539062,1.9500000476837158,34.5,7.050000190734863
1.823,7.240066051483154,103.16136169433594,16.548721313476562,-53.42572784423828,39.70290756225586,66.08269500732422,-0.15000000596046448,33.75,8.550000190734863
1.83,15.016432762145996,115.15152740478516,17.774553298950195,-38.90352249145508,26.64624786376953,44.36600112915039,-0.15000000596046448,33.75,8.550000190734863
1.84,18.34916114807129,119.21208953857422,23.558944702148438,-36.238895416259766,34.24042892456055,-3.4640121459960938,0.30000001192092896,34.35000228881836,9.90000057220459
1.85,21.490354537963867,123.27265930175781,29.075185775756836,-33.84073257446289,47.297088623046875,-30.24349021911621,0.45000001788139343,33.45000076293945,9.300000190734863
1.86,23.865402221679688,126.41384887695312,31.373619079589844,-40.502296447753906,49.02909469604492,-75.8085708618164,0.45000001788139343,33.45000076293945,9.300000190734863
1.88,26.508602142333984,129.70826721191406,29.611486434936523,-47.163856506347656,69.4134750366211,-114.44563293457031,0.45000001788139343,33.0,10.800000190734863
1.883,24.78477668762207,136.9100341796875,28.61549949645996,-55.4241943359375,93.79479217529297,-151.48391723632812,0.30000001192092896,33.60000228881836,9.90000057220459
1.89,22.2948055267334,143.5754852294922,27.811046600341797,-51.29402542114258,115.64471435546875,-184.1255645751953,0.30000001192092896,33.60000228881836,9.90000057220459
1.9,24.325088500976562,147.8658905029297,27.044902801513672,-30.776416778564453,127.10260009765625,-207.5742645263672,1.9500000476837158,32.25,12.600000381469727
1.91,27.121517181396484,152.19461059570312,29.726408004760742,-21.583459854125977,147.22052001953125,-223.82847595214844,1.9500000476837158,32.25,12.600000381469727
1.92,32.56114196777344,151.7732391357422,25.780763626098633,4.929555892944336,166.1393585205078,-281.91729736328125,1.9500000476837158,32.25,12.600000381469727
1.94,34.782962799072266,145.87391662597656,25.665842056274414,31.042879104614258,165.3399658203125,-303.2342834472656,3.3000001907348633,34.80000305175781,11.700000762939453
1.944,33.097442626953125,143.1157989501953,25.39769172668457,32.37519073486328,189.9877471923828,-339.073486328125,5.700000286102295,35.25,10.800000190734863
1.95,33.94020462036133,136.02896118164062,23.405715942382812,32.77488327026367,206.90811157226562,-361.3231201171875,5.700000286102295,35.25,10.800000190734863
1.96,37.19631576538086,136.297119140625,24.171859741210938,52.626338958740234,210.37213134765625,-377.0444030761719,7.050000190734863,34.80000305175781,12.0
1.97,37.57939147949219,131.6619415283203,21.98834800720215,54.35834503173828,222.09646606445312,-392.4992370605469,7.050000190734863,34.80000305175781,12.0
1.98,37.46446990966797,128.48243713378906,21.183897018432617,66.61561584472656,237.6845245361328,-419.67840576171875,9.450000762939453,33.75,12.300000190734863
2.0,38.46045684814453,128.55905151367188,18.579004287719727,85.00152587890625,235.4196014404297,-433.4012145996094,10.200000762939453,36.150001525878906,11.850000381469727
2.004,39.035064697265625,127.10337829589844,16.433799743652344,133.23123168945312,224.62786865234375,-432.73504638671875,14.700000762939453,35.70000076293945,11.100000381469727
2.01,41.21857833862305,122.92789459228516,15.935806274414062,142.29095458984375,215.16844177246094,-426.7396545410156,14.700000762939453,35.70000076293945,11.100000381469727
2.02,40.83550262451172,119.7100830078125,15.054739952087402,151.084228515625,217.69984436035156,-411.151611328125,14.700000762939453,35.70000076293945,11.100000381469727
2.03,42.59763717651367,107.79653930664062,15.131354331970215,169.8698272705078,193.3185272216797,-401.8254089355469,16.05000114440918,34.80000305175781,11.40000057220459
2.04,42.71255874633789,98.10481262207031,14.67166805267334,167.33843994140625,185.19142150878906,-390.6340026855469,19.80000114440918,36.30000305175781,12.0
2.06,42.09964370727539,89.37075805664062,13.48414421081543,161.47625732421875,180.3950958251953,-376.64471435546875,22.5,33.900001525878906,10.200000762939453
2.063,40.49073791503906,78.83627319335938,11.262324333190918,154.6814727783203,157.34608459472656,-340.9387512207031,22.80000114440918,33.900001525878906,9.90000057220459
2.07,42.94240188598633,64.58598327636719,8.08282470703125,160.6768798828125,134.16384887695312,-321.7534484863281,22.80000114440918,33.900001525878906,9.90000057220459
2.08,44.85776138305664,58.533443450927734,3.064578056335449,151.084228515625,107.51760864257812,-289.64471435546875,25.950000762939453,32.25,7.500000476837158
2.09,42.1379508972168,48.765098571777344,-2.604891538619995,145.6217498779297,97.7917251586914,-278.9862060546875,26.700000762939453,31.05000114440918,7.500000476837158
2.1,39.60967254638672,37.73262023925781,-4.022258758544922,144.42266845703125,73.0107192993164,-234.4869842529297,26.700000762939453,31.500001907348633,6.0
2.119,37.77092742919922,23.52063751220703,-4.788403511047363,132.56507873535156,60.22052001953125,-214.50228881835938,28.500001907348633,30.900001525878906,6.600000381469727
2.123,36.8515510559082,9.193734169006348,-7.7763671875,105.11944580078125,42.76722717285156,-187.85604858398438,28.500001907348633,30.900001525878906,6.600000381469727
2.13,35.35757064819336,-4.903325080871582,-6.320692539215088,96.05972290039062,30.643184661865234,-165.87289428710938,28.500001907348633,30.150001525878906,5.400000095367432
2.14,36.2386360168457,-10.955866813659668,-4.32871675491333,106.58499145507812,6.9280242919921875,-144.1562042236328,29.55000114440918,29.250001907348633,4.650000095367432
2.15,40.682273864746094,-18.081010818481445,-2.9879636764526367,126.83613586425781,-16.920366287231445,-132.16539001464844,28.80000114440918,30.150001525878906,4.650000095367432
2.16,40.49073791503906,-24.59324073791504,-5.669469833374023,146.9540557861328,-37.03828430175781,-126.5696792602539,29.700000762939453,30.30000114440918,3.450000047683716
2.18,41.21857833862305,-29.34333610534668,-8.121131896972656,162.1424102783203,-53.42572784423828,-90.33078002929688,31.650001525878906,29.100000381469727,5.25
2.184,40.41412353515625,-31.90991973876953,-11.798625946044922,162.94180297851562,-57.289432525634766,-29.044410705566406,31.650001525878906,29.100000381469727,5.25
2.19,41.29519271850586,-31.335311889648438,-15.514427185058594,152.68299865722656,-48.362937927246094,11.724349021911621,33.0,26.55000114440918,3.3000001907348633
2.2,41.21857833862305,-32.21637725830078,-12.105083465576172,125.90351867675781,-50.22817611694336,61.01990509033203,31.650001525878906,26.850000381469727,2.700000047683716
2.21,43.67023849487305,-30.26270866394043,-4.596867084503174,97.92495727539062,-50.09494400024414,114.97856140136719,30.900001525878906,27.900001525878906,4.200000286102295
2.22,48.88002014160156,-26.087221145629883,-1.4939818382263184,40.502296447753906,-49.42878723144531,151.084228515625,31.950000762939453,28.80000114440918,3.0
2.239,53.668426513671875,-17.8128604888916,-6.550535678863525,-30.24349021911621,-39.70290756225586,192.65237426757812,31.950000762939453,28.80000114440918,3.0
2.243,56.15839385986328,0.7661445140838623,-11.91354751586914,-110.58192443847656,-45.16539001464844,251.27410888671875,30.450000762939453,29.100000381469727,3.450000047683716
2.25,69.79576873779297,36.315250396728516,-16.35718536376953,-139.89280700683594,-56.356815338134766,271.7917175292969,28.950000762939453,30.600000381469727,3.750000238418579
2.26,77.84028625488281,58.3419075012207,-16.127342224121094,-132.56507873535156,-69.67993927001953,309.49615478515625,28.200000762939453,31.05000114440918,4.950000286102295
2.27,90.21351623535156,77.95520782470703,-7.5848307609558105,-98.99080657958984,-117.64318084716797,331.47930908203125,25.950000762939453,31.500001907348633,5.700000286102295
2.28,95.95960235595703,91.09458923339844,-5.324704647064209,-56.49004364013672,-139.6263427734375,321.88665771484375,25.950000762939453,31.500001907348633,5.700000286102295
2.3,95.84468078613281,103.69766235351562,-8.427590370178223,-40.76875686645508,-153.61561584472656,307.63092041015625,25.950000762939453,31.500001907348633,5.700000286102295
2.304,94.04424285888672,121.74037170410156,-6.971915245056152,-15.45482349395752,-169.60336303710938,318.15618896484375,24.900001525878906,34.5,5.700000286102295
2.31,83.1266860961914,137.33140563964844,-7.469909191131592,9.72588062286377,-177.46400451660156,330.2802429199219,22.950000762939453,34.20000076293945,7.500000476837158
2.32,77.61044311523438,139.974609375,-6.473921298980713,26.513015747070312,-181.06124877929688,330.679931640625,22.80000114440918,34.80000305175781,7.650000095367432
2.33,69.60423278808594,140.62582397460938,-9.921571731567383,32.37519073486328,-167.87135314941406,330.2802429199219,19.5,34.80000305175781,7.350000381469727
2.34,65.69689178466797,145.14608764648438,-18.693927764892578,41.035221099853516,-172.00152587890625,334.6768798828125,19.5,34.80000305175781,7.350000381469727
2.36,67.38241577148438,149.43649291992188,-20.64759635925293,54.89126968383789,-177.06431579589844,332.1454772949219,18.450000762939453,35.70000076293945,5.700000286102295
2.363,67.91871643066406,151.46678161621094,-22.06496238708496,75.67534637451172,-186.12403869628906,328.5482177734375,18.0,35.10000228881836,6.600000381469727
2.37,62.8238525390625,149.5897216796875,-22.37141990661621,77.4073486328125,-200.37977600097656,333.34454345703125,16.200000762939453,33.75,4.950000286102295
2.38,58.418521881103516,145.72068786621094,-23.52063751220703,73.9433364868164,-204.90963745117188,350.66461181640625,13.500000953674316,34.35000228881836,4.650000095367432
2.39,54.24303436279297,143.00088500976562,-22.677879333496094,56.49004364013672,-206.6416473388672,352.79632568359375,13.500000953674316,34.35000228881836,4.650000095367432
2.4,52.71074295043945,143.19241333007812,-20.034679412841797,30.643184661865234,-194.78407287597656,367.185302734375,13.200000762939453,33.45000076293945,3.750000238418579
2.419,46.73481750488281,141.85166931152344,-20.034679412841797,30.509952545166016,-195.050537109375,380.241943359375,11.700000762939453,34.5,3.0
2.423,35.74064254760742,138.8253936767578,-15.667655944824219,17.053598403930664,-178.6630859375,376.7779541015625,9.300000190734863,33.60000228881836,3.3000001907348633
2.43,25.70414924621582,136.2205047607422,-10.917559623718262,13.323123931884766,-165.4731903076172,372.781005859375,7.950000286102295,34.5,4.5
2.44,20.685903549194336,137.0249481201172,-7.738059997558594,33.30780792236328,-160.14395141601562,346.4012145996094,7.800000190734863,35.10000228881836,3.9000000953674316
2.45,13.330915451049805,135.45436096191406,-1.2258312702178955,66.882080078125,-152.81622314453125,338.4073486328125,7.800000190734863,35.10000228881836,3.9000000953674316
2.46,1.455674648284912,131.0873260498047,5.324704647064209,95.66002655029297,-144.1562042236328,313.0934143066406,4.950000286102295,34.20000076293945,3.450000047683716
2.481,-7.010222434997559,123.11943054199219,5.592854976654053,98.19142150878906,-122.70597076416016,279.6523742675781,4.950000286102295,33.0,0.9000000357627869
2.485,-19.07699966430664,110.24819946289062,3.9839515686035156,108.050537109375,-105.11944580078125,257.13629150390625,2.25,32.85000228881836,1.8000000715255737
2.49,-30.875625610351562,88.83445739746094,4.060565948486328,93.12863159179688,-87.39968872070312,249.27565002441406,2.25,32.85000228881836,1.8000000715255737
2.5,-34.62973403930664,82.93515014648438,5.822698593139648,68.61408996582031,-77.4073486328125,221.5635528564453,2.25,32.85000228881836,1.8000000715255737
2.51,-39.762901306152344,72.89865112304688,4.750096321105957,42.101070404052734,-60.48698043823242,176.13169860839844,0.75,33.60000228881836,1.8000000715255737
2.52,-43.55531692504883,64.89244079589844,4.405331134796143,14.255742073059082,-50.62786865234375,157.74578857421875,-0.30000001192092896,32.400001525878906,0.6000000238418579
2.539,-47.19450378417969,53.247047424316406,5.094861030578613,-43.30015182495117,-2.398162364959717,107.91730499267578,-1.0500000715255737,31.200000762939453,-0.30000001192092896
2.543,-69.64253997802734,51.48491287231445,-7.4316020011901855,-47.430320739746094,-10.125574111938477,90.06431579589844,-1.8000000715255737,32.85000228881836,1.0500000715255737
2.55,-64.66259765625,32.790985107421875,5.5545477867126465,-77.4073486328125,-0.2664624750614166,62.75191116333008,-1.9500000476837158,30.30000114440918,0.15000000596046448
2.56,-64.47106170654297,25.81907081604004,1.2641384601593018,-98.99080657958984,10.92496109008789,5.995405673980713,-1.9500000476837158,30.30000114440918,0.15000000596046448
2.57,-65.46704864501953,23.060951232910156,6.01423454284668,-113.51301574707031,17.053598403930664,-8.793261528015137,-4.200000286102295,31.05000114440918,1.2000000476837158
2.58,-62.670623779296875,26.66183090209961,6.742072105407715,-112.71363067626953,14.92189884185791,-43.56661605834961,-2.4000000953674316,30.30000114440918,1.2000000476837158
2.6,-59.759273529052734,29.113492965698242,4.290409564971924,-99.79019927978516,23.182235717773438,-53.29249572753906,-2.700000047683716,32.25,2.25
2.604,-54.66441345214844,33.7486686706543,-0.3064578175544739,-103.38744354248047,34.10719680786133,-77.67381286621094,-3.1500000953674316,32.55000305175781,2.700000047683716
2.61,-45.54729461669922,36.430171966552734,7.546523571014404,-97.25880432128906,40.36906433105469,-105.25267791748047,-3.1500000953674316,32.55000305175781,2.700000047683716
2.62,-41.448421478271484,37.34954833984375,2.5665841102600098,-88.06584930419922,50.22817611694336,-126.96936798095703,-2.5500001907348633,33.150001525878906,2.8500001430511475
2.63,-41.29519271850586,39.035064697265625,0.2298433631658554,-123.50535583496094,78.47319793701172,-162.6753387451172,-1.5,31.200000762939453,3.9000000953674316
2.64,-34.55311965942383,47.38603973388672,-1.647210717201233,-162.27565002441406,114.57886505126953,-205.1761016845703,-0.9000000357627869,31.500001907348633,5.25
2.66,-24.861391067504883,66.80780792236328,-0.8810662031173706,-167.33843994140625,138.02755737304688,-225.56048583984375,0.0,32.400001525878906,4.650000095367432
2.663,-14.595053672790527,92.43534088134766,4.213795185089111,-131.49923706054688,139.35987854003906,-244.21286010742188,0.0,32.400001525878906,4.650000095367432
2.67,7.546523571014404,134.5349884033203,7.010222434997559,-123.50535583496094,141.4915771484375,-269.2603454589844,0.0,32.400001525878906,4.650000095367432
2.68,23.82709503173828,155.83380126953125,7.891288757324219,-74.20980072021484,134.69677734375,-278.18682861328125,1.5,34.35000228881836,8.40000057220459
2.69,41.5633430480957,176.13662719726562,8.006210327148438,-29.444103240966797,133.6309356689453,-278.18682861328125,1.6500000953674316,33.75,9.0
2.7,59.5294303894043,187.28402709960938,4.213795185089111,-33.4410400390625,153.7488555908203,-346.8009033203125,2.4000000953674316,34.20000076293945,9.300000190734863
2.72,87.30216979980469,182.64886474609375,7.010222434997559,-41.168453216552734,164.80703735351562,-406.7549743652344,4.5,35.10000228881836,9.90000057220459
2.723,96.53421020507812,198.81451416015625,3.5242648124694824,9.992342948913574,178.13015747070312,-489.7580261230469,6.750000476837158,33.60000228881836,9.450000762939453
2.73,89.29414367675781,211.3792724609375,8.006210327148438,61.15313720703125,166.93873596191406,-486.56048583984375,6.750000476837158,33.60000228881836,9.450000762939453
2.74,83.89282989501953,201.95570373535156,1.1875240802764893,83.80245208740234,175.33230590820312,-505.8789978027344,8.550000190734863,36.30000305175781,11.40000057220459
2.75,84.85050964355469,175.48541259765625,-1.647210717201233,96.45941925048828,175.0658416748047,-516.404296875,11.40000057220459,34.95000076293945,11.550000190734863
2.76,81.78592681884766,165.25738525390625,-3.485957622528076,111.11485290527344,174.9326171875,-513.6064453125,13.65000057220459,35.25,11.100000381469727
2.78,78.18505096435547,156.94471740722656,-4.788403511047363,98.4578857421875,181.99386596679688,-514.6722412109375,13.65000057220459,35.25,11.100000381469727
2.783,72.86034393310547,144.2650146484375,-7.967903137207031,66.08269500732422,203.57733154296875,-502.4150085449219,19.05000114440918,34.80000305175781,8.700000762939453
2.79,61.48310089111328,127.17999267578125,-13.599065780639648,56.62327575683594,212.37059020996094,-499.084228515625,19.05000114440918,34.80000305175781,8.700000762939453
2.8,55.660400390625,119.90161895751953,-13.905523300170898,27.84532928466797,237.01837158203125,-491.3568115234375,20.25,35.10000228881836,10.950000762939453
2.81,52.289363861083984,113.61923217773438,-16.242263793945312,7.06125545501709,249.27565002441406,-490.29095458984375,22.950000762939453,36.150001525878906,10.350000381469727
2.82,52.3659782409668,115.3813705444336,-11.990161895751953,19.45176124572754,243.5467071533203,-458.4486999511719,24.0,37.5,9.450000762939453
2.84,54.24303436279297,113.27446746826172,-11.262324333190918,58.4885139465332,233.42112731933594,-421.1439514160156,24.0,37.5,9.450000762939453
2.843,50.91030502319336,100.74800872802734,-9.308655738830566,83.80245208740234,210.2388916015625,-398.2281799316406,28.200000762939453,32.55000305175781,9.0
2.85,41.41011428833008,84.73558807373047,-10.955866813659668,95.79325866699219,203.3108673095703,-381.9739685058594,30.000001907348633,32.55000305175781,9.0
2.86,38.115692138671875,75.31201171875,-10.304644584655762,111.24808502197266,184.39202880859375,-352.1301574707031,32.25,32.85000228881836,6.600000381469727
2.87,35.817256927490234,63.97306823730469,-8.274360656738281,123.9050521850586,171.86830139160156,-324.4180603027344,32.25,32.85000228881836,6.600000381469727
2.88,34.93619155883789,54.01319122314453,-4.9799394607543945,125.50382232666016,164.94027709960938,-306.1653747558594,32.25,32.85000228881836,6.600000381469727
2.899,34.70634841918945,43.93838882446289,-7.2783732414245605,135.76263427734375,145.2220458984375,-281.2511291503906,34.80000305175781,30.150001525878906,6.900000095367432
2.903,30.186094284057617,31.29700469970703,-6.090848922729492,137.49464416503906,114.57886505126953,-241.54823303222656,36.0,29.700000762939453,6.150000095367432
2.91,30.224401473999023,14.748282432556152,-5.51624059677124,123.37212371826172,117.77641296386719,-223.4287872314453,37.650001525878906,29.100000381469727,4.950000286102295
2.92,29.879636764526367,8.389283180236816,-4.558559894561768,102.32159423828125,102.32159423828125,-200.646240234375,37.650001525878906,29.100000381469727,4.950000286102295
2.93,30.14778709411621,-2.183511972427368,-2.9879636764526367,83.40275573730469,82.7365951538086,-175.59877014160156,37.650001525878906,29.100000381469727,4.950000286102295
2.94,29.305028915405273,-9.921571731567383,-0.8044517636299133,70.74578857421875,69.14701080322266,-142.02450561523438,37.80000305175781,27.000001907348633,2.8500001430511475
2.959,31.794998168945312,-17.889474868774414,2.5665841102600098,60.08728790283203,59.55436325073242,-163.0750274658203,37.650001525878906,27.150001525878906,3.0
2.963,35.5874137878418,-22.448034286499023,2.8347349166870117,57.422664642333984,35.439510345458984,-143.3568115234375,39.30000305175781,26.55000114440918,2.1000001430511475
2.97,36.2386360168457,-22.409727096557617,3.179499864578247,65.016845703125,18.2526798248291,-114.04593658447266,39.45000076293945,25.200000762939453,2.25
2.98,35.0128059387207,-22.103269577026367,0.26815059781074524,67.14854431152344,9.192955017089844,-83.66921997070312,39.45000076293945,25.200000762939453,2.25
2.99,33.863590240478516,-19.919757843017578,-2.5665841102600098,67.14854431152344,-7.327718257904053,-53.29249572753906,38.55000305175781,26.250001907348633,0.6000000238418579
3.0,33.05913543701172,-19.07699966430664,-2.183511972427368,62.618682861328125,-23.581928253173828,-22.116384506225586,39.75,27.000001907348633,1.350000023841858
3.019,33.05913543701172,-19.99637222290039,-2.873042106628418,51.4272575378418,-23.715160369873047,22.782541275024414,39.900001525878906,27.150001525878906,1.6500000953674316
3.023,34.93619155883789,-18.655620574951172,2.604891538619995,45.298622131347656,-28.111791610717773,42.36753463745117,39.900001525878906,27.150001525878906,1.6500000953674316
3.03,33.48051834106445,-18.464082717895508,3.754108190536499,46.63093185424805,-34.373661041259766,77.54058074951172,39.900001525878906,27.150001525878906,1.6500000953674316
3.04,32.484527587890625,-17.42978858947754,6.358999729156494,40.635528564453125,-63.151607513427734,114.44563293457031,40.5,26.250001907348633,2.1000001430511475
3.05,29.03687858581543,-10.189722061157227,-3.026270866394043,-0.2664624750614166,-69.81317138671875,152.41653442382812,39.75,26.250001907348633,1.350000023841858
3.06,24.938005447387695,1.1492167711257935,-16.81687355041504,-25.846860885620117,-78.47319793701172,183.45941162109375,40.5,27.000001907348633,2.5500001907348633
3.079,28.155811309814453,27.313053131103516,-23.75048065185547,-34.773353576660156,-91.52986145019531,224.22817993164062,39.45000076293945,29.55000114440918,3.450000047683716
3.083,44.55130386352539,74.39263153076172,-36.8132438659668,-43.96630859375,-98.99080657958984,301.6355285644531,39.45000076293945,29.55000114440918,3.450000047683716
3.09,48.91832733154297,82.82022857666016,-36.35355758666992,-58.08882141113281,-87.66615295410156,346.4012145996094,39.45000076293945,29.55000114440918,3.450000047683716
3.1,56.2733154296875,93.58455657958984,-37.00477981567383,-60.62021255493164,-88.59877014160156,408.3537292480469,36.150001525878906,31.500001907348633,4.950000286102295
3.11,65.35212707519531,99.10079956054688,-33.7486686706543,-75.67534637451172,-93.52832794189453,443.26031494140625,35.55000305175781,32.400001525878906,6.150000095367432
3.12,72.63050079345703,101.59076690673828,-33.365596771240234,-123.9050521850586,-78.47319793701172,446.8575744628906,35.400001525878906,32.25,5.700000286102295
3.139,80.75163269042969,112.20186614990234,-35.89387130737305,-153.0826873779297,-84.06890869140625,483.62939453125,33.45000076293945,34.5,6.300000190734863
3.143,87.07232666015625,145.75900268554688,-46.27513122558594,-146.0214385986328,-81.13782501220703,505.0796203613281,33.45000076293945,34.5,6.300000190734863
3.15,85.84649658203125,152.5393829345703,-46.313438415527344,-102.45481872558594,-101.38896942138672,515.6049194335938,29.250001907348633,35.10000228881836,5.850000381469727
3.16,83.89282989501953,164.56784057617188,-48.650177001953125,-58.754974365234375,-109.51607513427734,533.724365234375,27.750001907348633,36.60000228881836,7.650000095367432
3.17,85.27188873291016,174.18296813964844,-47.845726013183594,28.911178588867188,-142.4241943359375,538.387451171875,25.05000114440918,37.80000305175781,7.350000381469727
3.18,87.64693450927734,176.44308471679688,-43.09563064575195,101.52220153808594,-164.5405731201172,534.656982421875,22.950000762939453,36.45000076293945,7.050000190734863
3.2,88.71953582763672,168.62841796875,-45.12591552734375,115.77794647216797,-166.93873596191406,536.1224975585938,22.950000762939453,36.45000076293945,7.050000190734863
3.204,79.5641098022461,147.48281860351562,-42.367794036865234,82.86982727050781,-165.07350158691406,562.3690795898438,19.80000114440918,39.30000305175781,5.100000381469727
3.21,75.84831237792969,141.8133544921875,-41.48672866821289,49.02909469604492,-164.14088439941406,564.9004516601562,17.25,39.75,7.950000286102295
3.22,71.1748275756836,137.7144775390625,-39.57136535644531,-11.324655532836914,-157.612548828125,562.1026000976562,14.250000953674316,39.30000305175781,6.150000095367432
3.23,65.73519897460938,135.41604614257812,-32.86759948730469,-78.20673370361328,-134.5635528564453,565.6998291015625,12.300000190734863,39.75,5.850000381469727
3.24,60.372188568115234,131.5853271484375,-26.01060676574707,-130.43338012695312,-137.3614044189453,568.3644409179688,9.300000190734863,39.30000305175781,5.400000095367432
3.259,52.787357330322266,130.972412109375,-20.570980072021484,-186.5237274169922,-122.03981018066406,557.039794921875,4.950000286102295,39.60000228881836,6.750000476837158
3.263,35.35757064819336,127.83121490478516,-8.274360656738281,-184.6584930419922,-124.97090148925781,558.2388916015625,4.950000286102295,39.60000228881836,6.750000476837158
3.27,31.641769409179688,127.37152862548828,-7.4316020011901855,-183.99234008789062,-114.57886505126953,543.7166748046875,3.3000001907348633,39.0,6.150000095367432
3.28,22.90772247314453,124.9964828491211,-5.477933406829834,-163.74119567871094,-115.37825012207031,519.4685668945312,3.1500000953674316,37.95000076293945,6.750000476837158
3.29,13.062764167785645,122.81297302246094,-0.1149216815829277,-126.83613586425781,-114.04593658447266,467.6416320800781,-1.5,39.0,8.40000057220459
3.309,3.754108190536499,119.59516143798828,1.4173674583435059,-82.20367431640625,-116.44409942626953,434.0673828125,-1.5,39.0,8.40000057220459
3.313,-8.734047889709473,112.92970275878906,-0.19153612852096558,-27.578866958618164,-101.65543365478516,373.1806945800781,-4.050000190734863,37.5,8.700000762939453
3.32,-27.198131561279297,98.44957733154297,-2.451662540435791,9.992342948913574,-92.72894287109375,342.6707458496094,-4.650000095367432,38.85000228881836,9.300000190734863
3.33,-37.00477981567383,87.07232666015625,-1.9153614044189453,27.578866958618164,-63.81776428222656,301.10260009765625,-7.050000190734863,35.85000228881836,7.950000286102295
3.34,-49.03324890136719,72.13250732421875,-0.07661445438861847,32.77488327026367,-49.42878723144531,237.01837158203125,-9.15000057220459,36.900001525878906,9.0
3.35,-61.52140808105469,58.68667221069336,0.5363011956214905,39.16998291015625,-47.163856506347656,197.71514892578125,-9.300000190734863,34.80000305175781,7.350000381469727
3.36,-68.60824584960938,48.26710510253906,1.9536685943603516,17.852985382080078,-27.445634841918945,128.56814575195312,-9.300000190734863,34.80000305175781,7.350000381469727
3.379,-73.664794921875,41.83149337768555,4.865017890930176,-35.03981399536133,-28.24502182006836,73.54364013671875,-12.0,34.35000228881836,7.350000381469727
3.383,-80.8282470703125,31.756690979003906,14.518439292907715,-53.69218826293945,-16.78713607788086,70.74578857421875,-12.0,34.35000228881836,7.350000381469727
3.39,-87.11063385009766,28.960264205932617,12.60307788848877,-68.34762573242188,-23.98162269592285,51.560489654541016,-12.450000762939453,34.5,6.750000476837158
3.4,-88.25984954833984,25.857378005981445,18.004396438598633,-109.78253936767578,-16.25421142578125,23.182235717773438,-11.25,33.150001525878906,6.600000381469727
3.41,-79.83226013183594,19.19192123413086,20.64759635925293,-157.74578857421875,7.194486618041992,17.986217498779297,-11.25,33.150001525878906,6.600000381469727
3.429,-63.66661071777344,26.12552833557129,14.211980819702148,-233.82081604003906,35.306278228759766,-0.9326186776161194,-12.90000057220459,33.45000076293945,8.25
3.433,-50.450618743896484,40.33750915527344,-0.07661445438861847,-244.74578857421875,80.47166442871094,-55.82388687133789,-10.950000762939453,35.70000076293945,7.800000190734863
3.44,-42.061336517333984,63.74322509765625,-2.2218191623687744,-207.70750427246094,94.9938735961914,-73.67687225341797,-13.500000953674316,34.80000305175781,9.90000057220459
3.45,-38.03907775878906,74.16278839111328,0.38307225704193115,-138.42726135253906,102.45481872558594,-104.5865249633789,-12.90000057220459,34.5,11.550000190734863
3.46,-28.960264205932617,76.38461303710938,17.659631729125977,-59.55436325073242,95.66002655029297,-166.53904724121094,-12.90000057220459,34.5,11.550000190734863
3.47,-12.181697845458984,89.90705871582031,26.738445281982422,-17.453292846679688,94.0612564086914,-214.90199279785156,-12.90000057220459,34.5,11.550000190734863
3.48,7.354987621307373,114.46199798583984,27.77273941040039,13.189892768859863,92.86217498779297,-244.612548828125,-10.950000762939453,36.150001525878906,13.350000381469727
3.497,29.381643295288086,137.25479125976562,24.210166931152344,26.912710189819336,109.64930725097656,-296.9724426269531,-8.550000190734863,35.85000228881836,12.750000953674316
3.501,61.444793701171875,173.4168243408203,15.705963134765625,0.9326186776161194,134.83001708984375,-328.5482177734375,-8.550000190734863,35.85000228881836,12.750000953674316
3.51,68.26348114013672,182.4573211669922,11.760318756103516,-41.168453216552734,165.60643005371094,-334.6768798828125,-7.200000286102295,37.650001525878906,14.100000381469727
3.52,99.98186492919922,187.437255859375,15.897499084472656,-53.558956146240234,174.53292846679688,-410.6186828613281,-7.200000286102295,37.650001525878906,14.100000381469727
3.53,118.02456665039062,200.69155883789062,10.342951774597168,-53.026031494140625,191.8529815673828,-450.4548034667969,-5.550000190734863,37.80000305175781,13.500000953674316
3.549,117.98625946044922,211.07281494140625,26.393678665161133,-63.28483963012695,215.56814575195312,-500.2832946777344,-5.550000190734863,40.5,14.700000762939453
3.553,116.37735748291016,207.05056762695312,23.52063751220703,-41.168453216552734,223.16232299804688,-531.9923095703125,0.30000001192092896,40.20000076293945,17.55000114440918
3.56,108.79252624511719,200.0020294189453,10.496180534362793,-41.035221099853516,233.68759155273438,-555.3078002929688,0.30000001192092896,40.20000076293945,17.55000114440918
3.57,111.09095764160156,197.43545532226562,8.044517517089844,-11.724349021911621,241.9479217529297,-572.0949096679688,0.30000001192092896,40.20000076293945,17.55000114440918
3.58,114.07892608642578,195.2902374267578,5.2480902671813965,34.64012145996094,228.4915771484375,-597.4088745117188,5.25,40.5,18.0
3.59,113.58092498779297,184.21945190429688,2.5282769203186035,95.26033782958984,203.97702026367188,-598.7412109375,7.200000286102295,41.55000305175781,17.400001525878906
3.61,106.14933013916016,167.3259735107422,-2.1068975925445557,107.11791229248047,198.24807739257812,-621.7901611328125,9.450000762939453,43.5,17.700000762939453
3.614,94.96361541748047,146.6017608642578,-7.891288757324219,109.51607513427734,189.45481872558594,-616.5941772460938,16.5,41.70000076293945,16.5
3.62,79.52580261230469,122.16175079345703,-8.08282470703125,83.26952362060547,194.6508331298828,-606.8682861328125,16.5,41.70000076293945,16.5
3.63,74.50755310058594,112.01033020019531,-8.96389102935791,29.577335357666016,212.5038299560547,-595.9432983398438,16.5,41.70000076293945,16.5
3.64,70.94498443603516,103.19966888427734,-10.994174003601074,-0.2664624750614166,231.82235717773438,-569.69677734375,21.450000762939453,41.10000228881836,15.90000057220459
3.65,69.71915435791016,96.45759582519531,-11.03248119354248,0.7993874549865723,234.8866729736328,-533.3246459960938,24.30000114440918,40.95000076293945,15.750000953674316
3.669,68.7997817993164,90.63490295410156,-12.22000503540039,15.055130004882812,223.4287872314453,-510.9418029785156,29.700000762939453,37.95000076293945,15.600000381469727
3.673,62.70893096923828,80.7899398803711,-10.994174003601074,54.75803756713867,196.78253173828125,-462.8453063964844,29.700000762939453,37.95000076293945,15.600000381469727
3.68,56.2733154296875,64.54767608642578,-15.054739952087402,79.80551147460938,191.8529815673828,-450.32159423828125,29.700000762939453,37.95000076293945,15.600000381469727
3.69,51.29337692260742,52.4042854309082,-12.90953540802002,133.76416015625,156.679931640625,-413.5497741699219,33.45000076293945,35.70000076293945,14.700000762939453
3.8,44.28315353393555,-49.18648147583008,9.883264541625977,81.8039779663086,50.36140823364258,2.2649309635162354,42.0,28.200000762939453,3.3000001907348633
3.81,43.785160064697266,-41.37180709838867,9.615114212036133,90.99693298339844,38.90352249145508,24.64777946472168,41.25,28.200000762939453,2.5500001907348633
3.82,42.980709075927734,-37.42616271972656,7.1251444816589355,68.21439361572266,36.238895416259766,75.5421142578125,41.70000076293945,26.850000381469727,2.700000047683716
3.83,46.23682403564453,-41.21857833862305,1.6855180263519287,30.24349021911621,13.323123931884766,113.91270446777344,41.70000076293945,26.850000381469727,2.700000047683716
3.85,47.80741882324219,-32.52283477783203,-1.1109095811843872,-0.39969372749328613,3.3307809829711914,153.48239135742188,41.70000076293945,26.850000381469727,2.700000047683716
3.853,53.476890563964844,-9.806650161743164,-4.32871675491333,-18.91883659362793,-26.513015747070312,213.8361358642578,41.55000305175781,28.950000762939453,3.3000001907348633
3.86,64.0496826171875,13.062764167785645,-13.445837020874023,-20.517610549926758,-51.82695007324219,227.42572021484375,40.650001525878906,29.55000114440918,3.450000047683716
3.87,69.45100402832031,26.508602142333984,-22.218191146850586,-9.992342948913574,-61.28636932373047,304.83306884765625,40.5,29.700000762939453,3.6000001430511475
3.88,75.12047576904297,42.559329986572266,-21.14558982849121,-9.592649459838867,-66.882080078125,346.6676940917969,39.900001525878906,31.80000114440918,4.5
3.89,80.33025360107422,53.74504089355469,-10.304644584655762,-25.04747200012207,-90.73047637939453,390.6340026855469,39.900001525878906,31.80000114440918,4.5
3.91,84.62066650390625,66.80780792236328,-12.105083465576172,-59.4211311340332,-117.9096450805664,429.27105712890625,36.45000076293945,33.75,4.5
3.914,85.31019592285156,89.8304443359375,-32.56114196777344,-91.52986145019531,-93.39509582519531,499.7503662109375,34.20000076293945,34.20000076293945,4.5
3.92,86.1912612915039,128.21429443359375,-45.12591552734375,-92.3292465209961,-83.93567657470703,528.2618408203125,32.55000305175781,34.35000228881836,4.650000095367432
3.93,86.57433319091797,139.55322265625,-37.617698669433594,-56.49004364013672,-93.66156005859375,530.9264526367188,30.150001525878906,37.20000076293945,4.200000286102295
3.94,87.3404769897461,151.65830993652344,-30.91393280029297,-21.316997528076172,-109.78253936767578,567.1654052734375,30.150001525878906,37.20000076293945,4.200000286102295
3.95,84.65897369384766,163.3803253173828,-29.611486434936523,-22.782541275024414,-111.5145492553711,572.49462890625,27.750001907348633,38.55000305175781,5.400000095367432
3.97,82.20730590820312,166.3682861328125,-34.05512619018555,-4.929555892944336,-115.77794647216797,581.0214233398438,24.750001907348633,39.30000305175781,5.400000095367432
3.973,77.763671875,166.75135803222656,-33.7486686706543,-12.656967163085938,-133.23123168945312,589.4149780273438,20.700000762939453,39.60000228881836,6.0
3.98,83.54806518554688,168.8199462890625,-38.34553527832031,-41.035221099853516,-126.03675079345703,589.6814575195312,18.75,40.95000076293945,4.650000095367432
3.99,90.78813171386719,175.83016967773438,-43.70854568481445,-50.4946403503418,-115.91117858886719,572.7611083984375,17.25,39.0,5.100000381469727
4.0,95.7297592163086,186.32635498046875,-33.32728576660156,11.058192253112793,-137.22817993164062,609.9326171875,17.25,39.0,5.100000381469727
4.01,92.0522689819336,188.08848571777344,-25.550920486450195,38.50382614135742,-156.81317138671875,588.34912109375,13.200000762939453,40.650001525878906,5.25
4.03,83.1266860961914,179.5842742919922,-24.171859741210938,24.381317138671875,-156.41346740722656,521.6002807617188,9.90000057220459,39.900001525878906,4.950000286102295
4.033,68.91470336914062,168.8199462890625,-21.643583297729492,55.4241943359375,-153.882080078125,488.8254089355469,7.950000286102295,41.55000305175781,3.450000047683716
4.04,44.74283981323242,158.70684814453125,-19.574993133544922,53.159263610839844,-156.01377868652344,490.8238830566406,7.050000190734863,39.75,4.350000381469727
4.05,38.65199279785156,140.2427520751953,-15.552734375,-1.7320060729980469,-134.83001708984375,470.7059631347656,7.050000190734863,39.75,4.350000381469727
4.06,32.40791320800781,121.43390655517578,-11.070788383483887,-48.362937927246094,-126.7029037475586,448.18988037109375,2.4000000953674316,39.150001525878906,2.700000047683716
4.07,25.167848587036133,114.88337707519531,-12.986149787902832,-92.06278228759766,-124.57120513916016,445.1255798339844,0.0,37.5,2.1000001430511475
4.09,14.786589622497559,110.0566635131836,-17.8128604888916,-111.91423797607422,-111.38131713867188,424.4747314453125,-1.9500000476837158,37.95000076293945,3.0
4.093,6.435614109039307,105.76625061035156,-12.871228218078613,-80.33843994140625,-120.4410400390625,389.16845703125,-2.4000000953674316,38.400001525878906,2.25
4.1,-1.9536685943603516,108.06468963623047,-10.228029251098633,-39.30321502685547,-118.8422622680664,377.9770202636719,-4.650000095367432,38.400001525878906,3.450000047683716
4.11,-7.508216381072998,103.96581268310547,-8.734047889709473,54.22511291503906,-127.5022964477539,360.3905029296875,-4.650000095367432,38.400001525878906,3.450000047683716
4.12,-15.054739952087402,90.13690185546875,-6.090848922729492,92.19601440429688,-116.57733154296875,308.83001708984375,-7.200000286102295,37.650001525878906,2.700000047683716
4.13,-25.474306106567383,71.59620666503906,-7.738059997558594,102.72128295898438,-112.18070220947266,296.8392028808594,-7.950000286102295,35.70000076293945,2.25
4.15,-30.875625610351562,50.48892593383789,-5.5545477867126465,83.13629150390625,-108.58345794677734,254.73812866210938,-8.700000762939453,34.20000076293945,1.6500000953674316
4.153,-36.736629486083984,36.04710006713867,-7.2783732414245605,-11.457886695861816,-79.0061264038086,215.16844177246094,-9.75,33.900001525878906,2.1000001430511475
4.16,-46.006980895996094,28.117504119873047,-12.334927558898926,-52.3598747253418,-64.88361358642578,184.79173278808594,-9.75,33.900001525878906,2.1000001430511475
4.17,-51.063533782958984,26.815059661865234,-11.185709953308105,-122.3062744140625,-38.90352249145508,159.21133422851562,-12.450000762939453,34.5,1.2000000476837158
4.18,-57.307613372802734,26.96828842163086,-5.746084213256836,-143.4900360107422,-38.63705825805664,153.34915161132812,-11.40000057220459,34.5,0.45000001788139343
4.19,-58.03544998168945,32.52283477783203,-2.3750481605529785,-172.6676788330078,-7.460949420928955,106.31852722167969,-12.15000057220459,34.5,1.6500000953674316
4.21,-117.871337890625,53.783348083496094,-0.49799394607543945,-137.3614044189453,-36.372127532958984,88.59877014160156,-12.90000057220459,31.80000114440918,1.6500000953674316
4.213,-57.65237808227539,41.14196014404297,-8.504204750061035,-140.82542419433594,-15.854516983032227,66.21592712402344,-12.90000057220459,31.80000114440918,1.6500000953674316
4.22,-54.894256591796875,34.62973403930664,-1.9153614044189453,-145.88819885253906,-13.58958625793457,44.49923324584961,-13.65000057220459,31.500001907348633,1.9500000476837158
4.23,-50.60384750366211,38.8818359375,-1.3407529592514038,-160.54364013671875,0.1332312375307083,10.392036437988281,-14.250000953674316,33.150001525878906,2.1000001430511475
4.24,-38.230613708496094,43.24885940551758,-5.784391403198242,-162.80857849121094,-6.5283308029174805,-9.459418296813965,-13.950000762939453,32.55000305175781,1.9500000476837158
4.25,-33.212364196777344,51.21676254272461,-7.240066051483154,-167.47166442871094,0.5329249501228333,-39.70290756225586,-13.500000953674316,32.85000228881836,2.1000001430511475
4.27,-26.700138092041016,58.80159378051758,-9.308655738830566,-155.08116149902344,9.192955017089844,-95.39356231689453,-13.050000190734863,33.60000228881836,3.9000000953674316
4.274,-18.579004287719727,67.34410858154297,-5.324704647064209,-113.77947998046875,0.2664624750614166,-148.95252990722656,-14.550000190734863,34.80000305175781,4.350000381469727
4.28,-4.520252704620361,87.49370574951172,5.822698593139648,-69.81317138671875,-21.716691970825195,-164.80703735351562,-14.550000190734863,34.80000305175781,4.350000381469727
4.29,8.619126319885254,103.16136169433594,8.772355079650879,-5.329249382019043,-21.983154296875,-202.11178588867188,-12.450000762939453,33.45000076293945,4.5
4.3,32.25468444824219,125.49447631835938,11.683704376220703,30.509952545166016,-8.926492691040039,-230.88973999023438,-11.40000057220459,35.70000076293945,6.750000476837158
4.31,56.120086669921875,144.64808654785156,0.9193734526634216,54.75803756713867,8.793261528015137,-271.1255798339844,-11.700000762939453,35.25,4.5
4.33,78.03182220458984,160.08590698242188,-4.903325080871582,40.635528564453125,28.644716262817383,-292.7090148925781,-11.700000762939453,35.25,4.5
4.333,88.6046142578125,154.18658447265625,-0.6512228846549988,-37.03828430175781,99.3905029296875,-356.52679443359375,-7.950000286102295,38.400001525878906,4.5
4.34,94.27408599853516,161.7331085205078,-8.312667846679688,-60.88667678833008,123.37212371826172,-383.039794921875,-7.950000286102295,38.400001525878906,4.5
4.35,89.02599334716797,168.47518920898438,-3.1028854846954346,-79.9387435913086,156.41346740722656,-387.7029113769531,-6.750000476837158,38.25,3.9000000953674316
4.36,80.59840393066406,167.17274475097656,-5.439626216888428,-99.52373504638672,191.8529815673828,-413.1500549316406,-6.300000190734863,37.80000305175781,5.100000381469727
4.37,77.1507568359375,168.85826110839844,-3.44765043258667,-94.46094512939453,223.82847595214844,-447.9234313964844,-3.1500000953674316,39.150001525878906,6.0
4.39,84.62066650390625,176.4813995361328,-5.056553840637207,-64.084228515625,238.35067749023438,-459.2480773925781,-3.1500000953674316,39.150001525878906,6.0
4.394,97.68342590332031,184.67913818359375,-12.90953540802002,-11.324655532836914,257.4027404785156,-491.7565002441406,2.5500001907348633,42.900001525878906,6.150000095367432
4.4,115.64952087402344,197.9717559814453,-16.127342224121094,43.16691970825195,248.60948181152344,-511.4747314453125,2.5500001907348633,42.900001525878906,6.150000095367432
4.41,120.01654052734375,195.36685180664062,-10.266336441040039,101.2557373046875,222.09646606445312,-500.4165344238281,4.800000190734863,42.150001525878906,6.900000095367432
4.42,120.43791961669922,183.18516540527344,-8.35097599029541,149.48544311523438,193.7182159423828,-515.7380981445312,5.550000190734863,40.95000076293945,6.900000095367432
4.43,109.86512756347656,162.88232421875,-6.818686485290527,157.87901306152344,182.39356994628906,-532.9249267578125,5.550000190734863,40.95000076293945,6.900000095367432
4.45,96.993896484375,141.96658325195312,-5.861005783081055,128.7013702392578,186.65696716308594,-538.5206909179688,10.050000190734863,42.45000076293945,5.850000381469727
4.454,83.89282989501953,122.04682922363281,-9.615114212036133,61.28636932373047,215.56814575195312,-540.7855834960938,15.450000762939453,42.30000305175781,3.450000047683716
4.46,69.22116088867188,102.66336822509766,-17.1999454498291,32.24195861816406,216.76722717285156,-533.0581665039062,15.450000762939453,42.30000305175781,3.450000047683716
4.47,68.83808898925781,98.06649780273438,-16.47210693359375,-7.460949420928955,226.49310302734375,-524.264892578125,18.30000114440918,40.95000076293945,3.6000001430511475
4.48,71.36636352539062,90.51998138427734,-14.824896812438965,-6.5283308029174805,218.36599731445312,-504.9463806152344,18.30000114440918,40.95000076293945,3.6000001430511475
4.49,69.64253997802734,82.59038543701172,-14.748282432556152,13.323123931884766,189.45481872558594,-485.7610778808594,18.30000114440918,40.95000076293945,3.6000001430511475
4.51,62.785545349121094,71.02159881591797,-15.054739952087402,25.580398559570312,179.32923889160156,-483.76263427734375,26.700000762939453,40.35000228881836,2.700000047683716
4.514,55.315635681152344,56.15839385986328,-13.943830490112305,57.689125061035156,146.82083129882812,-449.38897705078125,26.400001525878906,39.60000228881836,1.9500000476837158
4.52,47.34773254394531,41.5633430480957,-12.02846908569336,69.01377868652344,140.1592559814453,-439.79632568359375,31.650001525878906,37.650001525878906,1.9500000476837158
4.53,44.0150032043457,35.12772750854492,-9.883264541625977,95.12710571289062,123.37212371826172,-420.477783203125,31.650001525878906,37.650001525878906,1.9500000476837158
4.54,40.52904510498047,27.619510650634766,-7.814674377441406,113.51301574707031,105.5191421508789,-404.6232604980469,33.30000305175781,35.55000305175781,1.350000023841858
4.55,39.72459411621094,17.42978858947754,-5.937620162963867,130.30015563964844,92.99540710449219,-391.83306884765625,34.650001525878906,34.95000076293945,0.15000000596046448
4.57,38.613685607910156,9.921571731567383,-3.141192674636841,143.75650024414062,58.4885139465332,-353.1960144042969,35.55000305175781,31.950000762939453,-0.6000000238418579
4.574,40.33750915527344,-0.4596867263317108,-3.064578056335449,137.09494018554688,39.30321502685547,-297.10565185546875,36.30000305175781,32.85000228881836,-1.8000000715255737
4.58,41.71657180786133,-15.705963134765625,-1.6855180263519287,108.050537109375,46.09800720214844,-316.0245056152344,36.30000305175781,32.85000228881836,-1.8000000715255737
4.59,40.873809814453125,-22.677879333496094,-0.4596867263317108,85.13475799560547,34.64012145996094,-267.66156005859375,38.70000076293945,28.80000114440918,-1.6500000953674316
4.6,39.60967254638672,-29.917943954467773,1.2641384601593018,52.89280319213867,41.568145751953125,-235.9525146484375,40.20000076293945,29.55000114440918,-1.2000000476837158
4.61,40.95042419433594,-36.66001510620117,5.363011837005615,12.923430442810059,35.306278228759766,-220.36447143554688,40.05000305175781,27.450000762939453,-1.8000000715255737
4.63,40.18428039550781,-39.11167907714844,7.354987621307373,3.86370587348938,25.18070411682129,-191.8529815673828,41.25,28.500001907348633,-3.6000001430511475
4.633,39.533058166503906,-40.60565948486328,4.63517427444458,-38.23736572265625,37.70444107055664,-161.47625732421875,41.55000305175781,27.750001907348633,-2.8500001430511475
4.64,40.64396667480469,-30.722396850585938,-1.9919757843017578,-44.63246536254883,27.978559494018555,-154.54823303222656,41.55000305175781,27.750001907348633,-2.8500001430511475
4.65,43.09563064575195,-23.712173461914062,-3.9456443786621094,-41.701377868652344,29.177640914916992,-109.38284301757812,42.75,26.250001907348633,-2.5500001907348633
4.66,44.35976791381836,-16.47210693359375,-7.354987621307373,-33.70750427246094,11.058192253112793,-73.67687225341797,42.0,26.55000114440918,-3.3000001907348633
4.67,47.232810974121094,-12.947842597961426,-8.197746276855469,-29.577335357666016,-1.0658499002456665,-42.633995056152344,44.70000076293945,25.650001525878906,-1.9500000476837158
4.69,46.926353454589844,-6.856993675231934,-6.358999729156494,-32.5084228515625,-3.197549819946289,10.258805274963379,42.30000305175781,25.05000114440918,-1.8000000715255737
4.693,49.722782135009766,1.4939818382263184,-8.236053466796875,-10.791729927062988,-40.502296447753906,90.33078002929688,42.30000305175781,25.05000114440918,-1.8000000715255737
4.7,59.452816009521484,16.81687355041504,-11.185709953308105,-5.8621745109558105,-48.362937927246094,133.36447143554688,43.20000076293945,26.400001525878906,-1.9500000476837158
4.71,65.54366302490234,23.903709411621094,-11.530475616455078,-21.45022964477539,-68.21439361572266,190.65390014648438,40.95000076293945,26.850000381469727,-1.2000000476837158
4.72,71.55789947509766,37.387855529785156,-18.808849334716797,-38.10413360595703,-75.67534637451172,260.6003112792969,43.05000305175781,27.000001907348633,-1.8000000715255737
4.73,71.94097137451172,52.4042854309082,-22.333112716674805,-64.88361358642578,-85.80091857910156,332.0122375488281,42.0,28.200000762939453,-1.350000023841858
4.75,74.7374038696289,67.84210205078125,-24.401702880859375,-103.25421142578125,-73.27718353271484,409.15313720703125,42.0,28.200000762939453,-1.350000023841858
4.753,76.30799865722656,79.06611633300781,-28.309040069580078,-182.12710571289062,-50.76110076904297,461.1133117675781,42.0,28.200000762939453,-1.350000023841858
4.76,79.25765228271484,94.542236328125,-28.692113876342773,-198.11485290527344,-59.68759536743164,485.0949401855469,38.70000076293945,31.05000114440918,-1.2000000476837158
4.77,80.29194641113281,105.15333557128906,-29.190107345581055,-211.0382843017578,-58.754974365234375,521.3338623046875,37.5,32.400001525878906,0.0
4.78,86.03803253173828,126.49046325683594,-27.044902801513672,-210.1056671142578,-65.949462890625,536.2557373046875,34.05000305175781,35.10000228881836,-0.30000001192092896
4.79,94.35070037841797,147.36790466308594,-27.77273941040039,-179.86216735839844,-89.5313949584961,563.0352172851562,32.25,35.10000228881836,2.1000001430511475
4.81,102.01214599609375,166.40660095214844,-32.86759948730469,-111.38131713867188,-117.50994873046875,562.1026000976562,32.25,35.10000228881836,2.1000001430511475
4.813,102.73998260498047,181.0399627685547,-31.60346221923828,6.128636837005615,-171.60183715820312,585.8177490234375,29.700000762939453,38.85000228881836,0.45000001788139343
4.82,94.04424285888672,183.1468505859375,-28.692113876342773,59.82082748413086,-180.5283203125,585.55126953125,27.150001525878906,38.400001525878906,1.2000000476837158
4.83,88.25984954833984,176.40478515625,-29.03687858581543,142.02450561523438,-219.29861450195312,589.6814575195312,24.900001525878906,38.85000228881836,1.2000000476837158
4.84,80.7899398803711,162.11618041992188,-25.857378005981445,154.14854431152344,-226.7595672607422,606.2021484375,22.950000762939453,39.60000228881836,0.9000000357627869
4.85,77.1890640258789,146.7166748046875,-22.7161865234375,123.2388916015625,-211.1715087890625,625.5206298828125,22.950000762939453,39.60000228881836,0.9000000357627869
4.87,69.02962493896484,134.7265167236328,-20.494365692138672,68.08116149902344,-196.24961853027344,645.905029296875,18.0,41.25,-0.30000001192092896
4.874,56.847923278808594,123.1577377319336,-14.824896812438965,-17.852985382080078,-176.13169860839844,649.3690795898438,16.650001525878906,39.900001525878906,0.15000000596046448
4.88,44.05331039428711,110.7078857421875,-9.615114212036133,-68.74732208251953,-159.74424743652344,653.4992065429688,13.500000953674316,40.5,-0.30000001192092896
4.89,39.4947509765625,108.9074478149414,-9.653421401977539,-113.24655151367188,-143.2235870361328,645.6385498046875,11.25,39.0,-0.30000001192092896
4.9,32.063148498535156,113.58092498779297,-13.637372970581055,-114.04593658447266,-160.01071166992188,642.8406982421875,7.650000095367432,40.35000228881836,0.15000000596046448
4.91,27.58120346069336,123.73234558105469,-9.653421401977539,-65.016845703125,-172.53445434570312,622.3231201171875,7.650000095367432,40.35000228881836,0.15000000596046448
4.93,23.903709411621094,132.1216278076172,-4.213795185089111,-10.658498764038086,-181.8606414794922,579.95556640625,3.450000047683716,39.150001525878906,0.45000001788139343
4.933,17.353174209594727,131.89178466796875,-1.1109095811843872,58.355281829833984,-188.65542602539062,565.433349609375,0.9000000357627869,39.150001525878906,0.15000000596046448
4.94,8.619126319885254,118.94393920898438,-1.5705963373184204,57.422664642333984,-172.2679901123047,541.3185424804688,0.45000001788139343,36.45000076293945,-0.45000001788139343
4.95,1.723825216293335,107.33685302734375,0.19153612852096558,14.788667678833008,-142.5574188232422,500.1500549316406,-1.2000000476837158,36.900001525878906,-0.15000000596046448
4.96,-4.9799394607543945,92.16719055175781,2.9879636764526367,-44.89892578125,-106.71822357177734,437.7978515625,-1.2000000476837158,36.900001525878906,-0.15000000596046448
4.97,-12.7946138381958,85.08035278320312,1.2258312702178955,-102.32159423828125,-87.26646423339844,391.4333801269531,-5.550000190734863,36.60000228881836,-1.8000000715255737
4.99,-23.82709503173828,85.04204559326172,-2.7964274883270264,-136.9617156982422,-53.82542037963867,322.9525146484375,-4.950000286102295,32.25,-1.2000000476837158
4.994,-37.656005859375,89.10260772705078,-3.4093432426452637,-118.8422622680664,-32.64165496826172,234.75343322753906,-7.800000190734863,33.900001525878906,0.30000001192092896
5.0,-51.7913703918457,94.27408599853516,2.9879636764526367,-87.53292083740234,-37.97090148925781,171.60183715820312,-9.75,32.85000228881836,-1.0500000715255737
5.01,-58.03544998168945,94.65715789794922,4.290409564971924,-17.852985382080078,-52.493106842041016,141.22511291503906,-8.550000190734863,33.900001525878906,-0.6000000238418579
5.02,-63.092002868652344,92.51195526123047,3.4093432426452637,29.31087303161621,-41.168453216552734,64.21745300292969,-8.550000190734863,33.900001525878906,-0.6000000238418579
5.03,-64.31783294677734,82.0540771484375,4.060565948486328,63.28483963012695,-51.82695007324219,42.633995056152344,-10.65000057220459,32.55000305175781,0.15000000596046448
5.05,-63.36015319824219,70.37037658691406,4.367023944854736,73.41041564941406,-51.693721771240234,-7.460949420928955,-9.75,32.85000228881836,-0.6000000238418579
5.054,-70.44699096679688,64.31783294677734,15.284584045410156,18.652372360229492,-32.64165496826172,-50.62786865234375,-11.550000190734863,32.85000228881836,-1.350000023841858
5.06,-47.57757568359375,51.867984771728516,2.604891538619995,-31.842266082763672,-9.059723854064941,-88.73200225830078,-11.550000190734863,32.85000228881836,-1.350000023841858
5.07,-38.76691436767578,53.974884033203125,2.9879636764526367,-82.33690643310547,7.72741174697876,-119.64165496826172,-11.550000190734863,32.85000228881836,-1.350000023841858
5.08,-28.309040069580078,63.168617248535156,2.6815059185028076,-128.96783447265625,24.914241790771484,-157.87901306152344,-10.050000190734863,31.950000762939453,-0.6000000238418579
5.09,-19.536685943603516,75.38862609863281,0.3447650372982025,-159.3445587158203,57.02296829223633,-222.22970581054688,-8.700000762939453,32.25,-0.45000001788139343
5.109,-5.1331682205200195,93.50794219970703,3.9456443786621094,-138.56048583984375,64.61714935302734,-248.34303283691406,-10.200000762939453,33.0,-0.9000000357627869
5.113,12.411541938781738,113.77246856689453,1.4939818382263184,-78.20673370361328,63.551300048828125,-308.69677734375,-7.800000190734863,31.200000762939453,-0.30000001192092896
5.12,40.22258758544922,143.652099609375,2.4133553504943848,-27.578866958618164,73.0107192993164,-337.34149169921875,-7.800000190734863,31.200000762939453,-0.30000001192092896
5.13,55.27732849121094,158.3237762451172,3.8307228088378906,43.43338394165039,75.5421142578125,-376.9111633300781,-6.150000095367432,32.25,1.2000000476837158
5.14,92.20549774169922,155.25918579101562,-0.6512228846549988,73.27718353271484,83.66921997070312,-384.9050598144531,-5.25,34.35000228881836,-0.30000001192092896
5.15,85.19527435302734,171.7696075439453,5.937620162963867,77.4073486328125,95.12710571289062,-478.6998291015625,-3.9000000953674316,35.70000076293945,0.15000000596046448
5.171,101.20769500732422,171.6163787841797,5.018246650695801,79.0061264038086,116.17764282226562,-506.41192626953125,-2.4000000953674316,34.95000076293945,1.2000000476837158
5.175,100.4798583984375,176.21324157714844,2.4899697303771973,57.822357177734375,134.96324157714844,-526.5298461914062,-0.75,35.55000305175781,0.0
5.18,99.98186492919922,167.74734497070312,-1.6089035272598267,37.4379768371582,146.9540557861328,-545.0490112304688,-0.75,35.55000305175781,0.0
5.19,100.17340087890625,168.7433319091797,-3.3710360527038574,6.661561965942383,162.1424102783203,-561.5696411132812,4.050000190734863,36.60000228881836,1.0500000715255737
5.2,103.42951202392578,167.86227416992188,-8.465897560119629,-5.062787055969238,173.46707153320312,-581.5543823242188,6.150000095367432,34.5,-0.15000000596046448
5.21,108.67760467529297,167.3259735107422,-9.346963882446289,-8.127105712890625,175.59877014160156,-592.2128295898438,7.500000476837158,36.30000305175781,2.1000001430511475
5.229,114.57691955566406,167.55581665039062,-8.35097599029541,9.459418296813965,174.39968872070312,-599.140869140625,8.550000190734863,35.55000305175781,1.8000000715255737
5.233,113.46600341796875,162.30772399902344,-11.683704376220703,40.635528564453125,159.8774871826172,-609.0,13.050000190734863,35.55000305175781,0.6000000238418579
5.24,103.08474731445312,148.6320343017578,-10.113107681274414,56.62327575683594,156.5467071533203,-605.0030517578125,13.050000190734863,35.55000305175781,0.6000000238418579
5.25,93.9293212890625,135.56927490234375,-8.159439086914062,75.14241790771484,139.89280700683594,-601.1393432617188,13.65000057220459,36.900001525878906,1.2000000476837158
5.26,83.0500717163086,119.36531829833984,-9.423578262329102,70.74578857421875,139.09341430664062,-598.208251953125,17.700000762939453,36.150001525878906,0.9000000357627869
5.27,74.96724700927734,106.26425170898438,-7.163451671600342,60.75344467163086,141.22511291503906,-586.48388671875,21.150001525878906,35.55000305175781,0.6000000238418579
5.29,69.75746154785156,94.31239318847656,-11.875240325927734,61.41960144042969,129.36753845214844,-554.9080810546875,21.150001525878906,35.25,0.45000001788139343
5.294,66.73119354248047,83.77790832519531,-11.683704376220703,67.68146514892578,117.50994873046875,-519.8682861328125,25.650001525878906,33.75,2.25
5.3,62.555702209472656,67.65056610107422,-9.346963882446289,56.756507873535156,122.70597076416016,-499.88360595703125,25.650001525878906,33.75,2.25
5.31,60.29557418823242,57.23099899291992,-7.891288757324219,46.231239318847656,113.64624786376953,-472.30474853515625,27.750001907348633,32.400001525878906,0.30000001192092896
5.32,51.63814163208008,46.198516845703125,-9.959878921508789,27.578866958618164,107.25114440917969,-436.73199462890625,28.950000762939453,31.80000114440918,0.45000001788139343
5.33,42.71255874633789,35.54910659790039,-9.998186111450195,0.0,120.70750427246094,-403.29095458984375,28.950000762939453,31.80000114440918,0.45000001788139343
5.35,35.54910659790039,28.53888511657715,-9.998186111450195,-5.329249382019043,117.11026000976562,-381.8407287597656,31.950000762939453,31.05000114440918,1.6500000953674316
5.353,33.48051834106445,23.82709503173828,-6.742072105407715,20.91730499267578,94.0612564086914,-328.01531982421875,32.70000076293945,30.600000381469727,2.25
5.36,37.88584899902344,20.187908172607422,-6.971915245056152,47.0306282043457,76.4747314453125,-308.56353759765625,32.70000076293945,29.55000114440918,1.6500000953674316
5.37,43.74685287475586,18.004396438598633,-3.754108190536499,79.67227935791016,60.22052001953125,-269.52679443359375,34.80000305175781,27.750001907348633,1.350000023841858
5.38,46.0452880859375,10.036493301391602,-1.5705963373184204,117.37671661376953,38.90352249145508,-238.084228515625,34.80000305175781,27.750001907348633,1.350000023841858
5.39,45.08760452270508,-2.719813108444214,-1.8770540952682495,145.35528564453125,13.456355094909668,-214.90199279785156,34.80000305175781,27.750001907348633,1.350000023841858
5.41,42.48271560668945,-18.88546371459961,-0.6129156351089478,132.29861450195312,13.323123931884766,-203.04440307617188,38.400001525878906,25.650001525878906,0.45000001788139343
5.414,41.946414947509766,-32.9442138671875,0.5363011956214905,99.25727081298828,5.462480545043945,-193.18528747558594,36.75,27.450000762939453,-0.6000000238418579
5.42,42.40610122680664,-43.3637809753418,-3.1028854846954346,76.87442779541016,-4.396630764007568,-174.26646423339844,37.650001525878906,25.650001525878906,-0.15000000596046448
5.43,44.66622543334961,-42.90409469604492,-2.6815059185028076,35.705970764160156,2.398162364959717,-142.95712280273438,37.80000305175781,24.30000114440918,0.30000001192092896
5.44,47.117889404296875,-39.30321502685547,-3.6391866207122803,-9.059723854064941,15.45482349395752,-89.39816284179688,37.80000305175781,24.30000114440918,0.30000001192092896
5.45,48.152183532714844,-34.3615837097168,-8.504204750061035,-26.379785537719727,14.92189884185791,-51.027565002441406,37.95000076293945,24.450000762939453,-0.45000001788139343
5.47,50.450618743896484,-30.4925537109375,-6.588842868804932,-40.36906433105469,19.185298919677734,-4.929555892944336,38.25,26.250001907348633,-1.0500000715255737
5.474,51.561527252197266,-26.240449905395508,-4.367023944854736,-66.61561584472656,9.992342948913574,43.16691970825195,38.55000305175781,26.55000114440918,-0.6000000238418579
5.48,57.57576370239258,-16.433799743652344,-5.822698593139648,-81.53751373291016,5.8621745109558105,66.61561584472656,37.650001525878906,27.600000381469727,0.45000001788139343
5.49,62.01940155029297,-7.738059997558594,-7.967903137207031,-63.81776428222656,-22.116384506225586,116.44409942626953,37.650001525878906,27.600000381469727,0.45000001788139343
5.5,65.19889831542969,7.4316020011901855,-9.730035781860352,-39.43644714355469,-33.17457962036133,168.5375213623047,38.55000305175781,27.750001907348633,0.0
5.51,70.52360534667969,22.639572143554688,-10.457873344421387,7.860642910003662,-53.69218826293945,225.42726135253906,37.95000076293945,27.150001525878906,0.9000000357627869
5.53,76.88260650634766,37.043087005615234,-9.576807022094727,32.64165496826172,-90.86370086669922,260.6003112792969,36.0,27.450000762939453,-0.30000001192092896
5.533,82.70530700683594,50.757076263427734,-18.004396438598633,28.24502182006836,-98.4578857421875,346.4012145996094,36.900001525878906,29.100000381469727,0.45000001788139343
5.54,84.314208984375,64.58598327636719,-28.040889739990234,-9.459418296813965,-83.93567657470703,363.4548034667969,35.25,30.450000762939453,0.30000001192092896
5.55,84.2759017944336,72.24742889404297,-30.837318420410156,-63.551300048828125,-60.48698043823242,405.15618896484375,35.25,30.450000762939453,0.30000001192092896
5.56,86.1146469116211,83.93113708496094,-32.982521057128906,-105.11944580078125,-51.29402542114258,439.3966064453125,34.20000076293945,31.500001907348633,1.2000000476837158
5.57,89.7921371459961,97.91326904296875,-32.676063537597656,-149.08575439453125,-31.709033966064453,459.1148376464844,30.750001907348633,32.400001525878906,-0.6000000238418579
5.589,90.48167419433594,117.41165161132812,-31.028854370117188,-177.33078002929688,-25.846860885620117,491.09033203125,31.500001907348633,33.150001525878906,1.0500000715255737
5.593,91.89904022216797,135.1479034423828,-30.760704040527344,-138.6937255859375,-47.0306282043457,524.5313720703125,28.950000762939453,33.75,0.45000001788139343
5.606,92.93333435058594,151.7732391357422,-36.54509353637695,-56.356815338134766,-82.86982727050781,519.2021484375,28.950000762939453,33.75,0.45000001788139343
5.61,95.30838012695312,168.16873168945312,-31.60346221923828,-18.385910034179688,-106.05206298828125,529.7274169921875,24.450000762939453,35.70000076293945,0.9000000357627869
5.62,95.38499450683594,171.38653564453125,-30.224401473999023,53.82542037963867,-143.4900360107422,544.7825317382812,22.05000114440918,36.60000228881836,1.0500000715255737
5.63,89.33245086669922,173.91481018066406,-32.44622039794922,102.8545150756836,-169.20367431640625,585.9509887695312,19.80000114440918,36.60000228881836,1.0500000715255737
5.64,77.68705749511719,157.55763244628906,-31.565155029296875,95.66002655029297,-167.0719757080078,599.5405883789062,19.05000114440918,34.80000305175781,-0.6000000238418579
5.65,67.95702362060547,143.00088500976562,-27.811046600341797,60.48698043823242,-150.151611328125,612.9969482421875,17.25,35.10000228881836,0.0
5.67,63.51338195800781,137.75279235839844,-25.857378005981445,14.92189884185791,-141.22511291503906,631.1163940429688,17.25,35.10000228881836,0.0
5.674,60.48711013793945,135.64588928222656,-19.07699966430664,-51.4272575378418,-122.17304229736328,641.1087036132812,11.700000762939453,35.25,-1.6500000953674316
5.68,59.49112319946289,134.22853088378906,-15.629348754882812,-71.81163787841797,-118.57579803466797,646.43798828125,11.700000762939453,35.70000076293945,-0.45000001788139343
5.69,57.1160774230957,134.5732879638672,-9.615114212036133,-98.85757446289062,-124.57120513916016,626.9862060546875,7.500000476837158,36.30000305175781,-2.1000001430511475
5.7,54.35795593261719,134.61160278320312,-2.873042106628418,-93.92802429199219,-135.22970581054688,612.73046875,4.5,34.80000305175781,0.0
5.71,47.34773254394531,134.80313110351562,-3.064578056335449,-74.20980072021484,-134.69677734375,585.151611328125,4.5,34.80000305175781,0.0
5.727,36.123714447021484,133.80714416503906,-6.167463779449463,-52.226646423339844,-138.02755737304688,565.03369140625,-1.5,33.150001525878906,0.0
5.73,17.583017349243164,126.9118423461914,-9.002198219299316,-79.9387435913086,-114.84532928466797,559.0382690429688,-1.5,33.150001525878906,0.0
5.74,14.748282432556152,123.54080963134766,-8.772355079650879,-90.59724426269531,-104.98621368408203,545.848388671875,-2.25,33.900001525878906,-0.6000000238418579
5.75,10.41956615447998,117.60318756103516,-8.274360656738281,-128.96783447265625,-78.73966217041016,510.8085632324219,-4.650000095367432,33.0,-0.45000001788139343
5.76,7.201758861541748,114.50030517578125,-8.197746276855469,-128.83460998535156,-79.13935852050781,465.6431884765625,-4.650000095367432,33.0,-0.45000001788139343
5.77,-0.3447650372982025,109.5203628540039,-4.8267107009887695,-126.16998291015625,-68.61408996582031,422.47625732421875,-7.500000476837158,32.400001525878906,-0.6000000238418579
5.79,-12.066776275634766,103.08474731445312,-2.145204782485962,-111.24808502197266,-51.560489654541016,350.5313720703125,-10.5,29.700000762939453,0.6000000238418579
5.794,-35.85556411743164,96.18944549560547,-5.056553840637207,-47.0306282043457,-48.62940216064453,247.94332885742188,-10.5,29.700000762939453,0.6000000238418579
5.8,-40.64396667480469,96.68743896484375,-5.477933406829834,-0.6661561727523804,-61.81929397583008,233.82081604003906,-12.15000057220459,29.850000381469727,2.700000047683716
5.81,-50.18246841430664,96.4192886352539,-3.7158010005950928,84.4686050415039,-71.01225280761719,169.8698272705078,-11.550000190734863,28.500001907348633,1.8000000715255737
5.82,-62.63231658935547,88.5663070678711,-3.9839515686035156,140.1592559814453,-59.68759536743164,94.32771301269531,-11.550000190734863,28.500001907348633,1.8000000715255737
5.83,-72.66880798339844,72.51557922363281,-0.1149216815829277,167.73812866210938,-62.085758209228516,83.40275573730469,-13.050000190734863,27.450000762939453,0.0
5.846,-73.97125244140625,59.452816009521484,3.8307228088378906,103.12097930908203,-24.248085021972656,-5.196018218994141,-13.200000762939453,28.350000381469727,-1.6500000953674316
5.851,-117.48826599121094,53.40027618408203,6.818686485290527,75.5421142578125,-8.660030364990234,23.182235717773438,-13.200000762939453,28.350000381469727,-1.6500000953674316
5.86,-59.950809478759766,41.98472213745117,6.703764915466309,0.2664624750614166,1.3323123455047607,-19.584991455078125,-13.200000762939453,27.150001525878906,-1.2000000476837158
5.87,-54.4345703125,40.758888244628906,-0.6129156351089478,-58.355281829833984,11.457886695861816,-45.831546783447266,-13.200000762939453,27.150001525878906,-1.2000000476837158
5.88,-50.450618743896484,44.512996673583984,0.727837324142456,-114.57886505126953,27.17917251586914,-69.81317138671875,-12.90000057220459,27.150001525878906,-0.45000001788139343
5.89,-43.478702545166016,51.21676254272461,-0.727837324142456,-153.34915161132812,37.97090148925781,-114.04593658447266,-13.65000057220459,28.350000381469727,-2.700000047683716
5.903,-32.9442138671875,64.47106170654297,-1.072602391242981,-158.0122528076172,33.17457962036133,-145.48851013183594,-14.250000953674316,28.500001907348633,0.0
5.91,-8.925583839416504,84.69728088378906,-2.873042106628418,-124.03828430175781,27.978559494018555,-170.8024444580078,-14.250000953674316,28.500001907348633,0.0
5.92,4.750096321105957,102.08876037597656,-6.588842868804932,-73.81010437011719,38.10413360595703,-193.58499145507812,-11.550000190734863,29.250001907348633,-0.6000000238418579
5.93,25.435998916625977,120.82099151611328,-2.75812029838562,-16.920366287231445,27.045940399169922,-221.29708862304688,-11.550000190734863,29.250001907348633,-0.6000000238418579
5.94,49.99093246459961,131.81517028808594,6.627150535583496,47.830013275146484,14.92189884185791,-252.20672607421875,-11.550000190734863,30.150001525878906,1.0500000715255737
5.95,69.83407592773438,143.4605712890625,2.9496564865112305,43.43338394165039,32.5084228515625,-301.23583984375,-10.800000190734863,30.450000762939453,1.8000000715255737
5.966,101.93553161621094,144.64808654785156,-5.784391403198242,6.794793128967285,72.0781021118164,-437.3981628417969,-9.75,31.950000762939453,0.6000000238418579
5.971,105.19164276123047,173.64666748046875,-15.591041564941406,8.660030364990234,87.9326171875,-435.0,-9.75,31.950000762939453,0.6000000238418579
5.98,101.89722442626953,181.46133422851562,-12.258312225341797,7.860642910003662,117.24349212646484,-483.76263427734375,-9.75,31.950000762939453,0.6000000238418579
5.99,104.08073425292969,190.6550750732422,-7.4316020011901855,17.453292846679688,132.16539001464844,-523.865234375,-5.700000286102295,32.25,-1.2000000476837158
6.0,106.9920883178711,193.52810668945312,-11.262324333190918,33.30780792236328,150.95098876953125,-559.5712280273438,-5.25,32.400001525878906,0.30000001192092896
6.019,111.51233673095703,194.6773223876953,-14.135366439819336,51.693721771240234,148.28636169433594,-565.96630859375,-3.750000238418579,33.900001525878906,1.350000023841858
6.023,120.43791961669922,192.53211975097656,-17.353174209594727,92.86217498779297,160.6768798828125,-591.2802124023438,-2.4000000953674316,34.95000076293945,0.9000000357627869
6.03,132.2748565673828,188.01187133789062,-17.966089248657227,141.75804138183594,143.62327575683594,-594.0780639648438,-2.4000000953674316,34.95000076293945,0.9000000357627869
6.04,135.3394317626953,180.1588897705078,-17.966089248657227,170.53598022460938,121.64012145996094,-589.5482177734375,-2.4000000953674316,34.95000076293945,0.9000000357627869
6.05,129.55503845214844,161.0435791015625,-22.026655197143555,156.41346740722656,120.97396087646484,-574.35986328125,4.650000095367432,38.400001525878906,0.45000001788139343
6.06,114.46199798583984,136.52696228027344,-18.923770904541016,116.44409942626953,135.22970581054688,-589.1485595703125,6.450000286102295,37.95000076293945,-0.15000000596046448
6.07,98.41127014160156,113.69584655761719,-19.153614044189453,62.21898651123047,149.08575439453125,-599.5405883789062,7.050000190734863,35.85000228881836,-1.0500000715255737
6.086,83.43314361572266,101.55245971679688,-17.583017349243164,9.459418296813965,167.73812866210938,-589.4149780273438,10.65000057220459,37.95000076293945,-0.45000001788139343
6.09,69.4126968383789,98.02819061279297,-20.30282974243164,-0.1332312375307083,178.26339721679688,-596.343017578125,10.65000057220459,37.95000076293945,-0.45000001788139343
6.1,66.04165649414062,97.45358276367188,-20.532672882080078,19.98468589782715,168.1378173828125,-563.8345947265625,13.950000762939453,36.45000076293945,-0.15000000596046448
6.11,65.96504211425781,94.08255004882812,-18.502389907836914,57.15620040893555,152.949462890625,-553.9754638671875,18.75,76.20000457763672,-0.9000000357627869
6.12,67.19087982177734,88.22154235839844,-14.480132102966309,105.65237426757812,125.37059783935547,-537.0551147460938,21.900001525878906,37.20000076293945,-2.700000047683716
6.139,67.26749420166016,77.1890640258789,-15.935806274414062,147.22052001953125,101.12251281738281,-509.8759460449219,21.900001525878906,37.20000076293945,-2.700000047683716
6.143,59.146358489990234,63.55168914794922,-16.35718536376953,187.58958435058594,63.950992584228516,-476.3016662597656,24.900001525878906,34.95000076293945,-3.0
6.15,50.37400436401367,42.7508659362793,-12.7946138381958,195.71669006347656,42.76722717285156,-463.37823486328125,26.250001907348633,33.900001525878906,-3.3000001907348633
6.16,48.4969482421875,32.599449157714844,-10.036493301391602,184.6584930419922,40.9019889831543,-453.2526550292969,29.55000114440918,33.150001525878906,-5.100000381469727
6.17,47.57757568359375,17.353174209594727,-9.155426979064941,165.07350158691406,18.91883659362793,-421.27716064453125,30.150001525878906,32.55000305175781,-4.200000286102295
6.18,48.30541229248047,5.899312973022461,-5.286397457122803,152.949462890625,-1.5987749099731445,-375.71209716796875,31.200000762939453,32.25,-5.700000286102295
6.19,51.44660568237305,-4.9799394607543945,-3.3710360527038574,117.24349212646484,-17.32006072998047,-344.13629150390625,31.200000762939453,32.25,-5.700000286102295
6.204,53.859962463378906,-15.24627685546875,-0.1149216815829277,60.08728790283203,-18.119447708129883,-334.8100891113281,34.5,30.150001525878906,-7.350000381469727
6.21,49.9526252746582,-26.278757095336914,4.558559894561768,49.02909469604492,-33.97396469116211,-285.64776611328125,35.55000305175781,29.700000762939453,-6.600000381469727
6.22,48.38202667236328,-30.99054718017578,7.316680431365967,22.51607894897461,-40.23583221435547,-274.3231201171875,36.30000305175781,28.950000762939453,-7.950000286102295
6.23,43.67023849487305,-33.288978576660156,8.121131896972656,8.926492691040039,-45.43185043334961,-262.4655456542969,37.650001525878906,28.350000381469727,-7.050000190734863
6.24,42.1379508972168,-34.32327651977539,7.086836814880371,11.324655532836914,-51.4272575378418,-229.5574188232422,37.650001525878906,28.350000381469727,-7.050000190734863
6.259,39.762901306152344,-33.48051834106445,5.477933406829834,40.102603912353516,-65.28330993652344,-189.32159423828125,40.20000076293945,27.150001525878906,-8.550000190734863
6.262,42.71255874633789,-33.94020462036133,5.975927352905273,55.29096221923828,-66.882080078125,-142.02450561523438,39.45000076293945,26.400001525878906,-6.750000476837158
6.27,48.956634521484375,-36.430171966552734,3.7158010005950928,61.15313720703125,-68.21439361572266,-114.57886505126953,40.5,26.250001907348633,-6.150000095367432
6.28,50.79538345336914,-39.41813659667969,3.5625722408294678,57.822357177734375,-66.08269500732422,-50.76110076904297,42.30000305175781,24.30000114440918,-7.950000286102295
6.29,50.25908279418945,-45.164222717285156,1.9536685943603516,41.568145751953125,-58.888206481933594,-8.526799201965332,42.30000305175781,24.30000114440918,-7.950000286102295
6.3,47.80741882324219,-42.865787506103516,-3.869029998779297,-8.926492691040039,-39.9693717956543,27.31240463256836,42.30000305175781,24.30000114440918,-7.950000286102295
6.32,44.55130386352539,-32.790985107421875,-7.354987621307373,-47.830013275146484,-21.050535202026367,101.2557373046875,42.30000305175781,26.250001907348633,-6.600000381469727
6.323,45.892059326171875,-20.30282974243164,-11.990161895751953,-71.01225280761719,-11.058192253112793,205.44256591796875,40.650001525878906,26.100000381469727,-7.800000190734863
6.33,53.01720428466797,-3.1028854846954346,-18.847156524658203,-98.72434997558594,8.39356803894043,253.53904724121094,40.05000305175781,28.200000762939453,-7.950000286102295
6.34,58.533443450927734,5.631162166595459,-20.187908172607422,-121.10719299316406,19.98468589782715,336.9418029785156,40.20000076293945,29.55000114440918,-6.300000190734863
6.35,66.38642120361328,19.843143463134766,-15.820884704589844,-128.03521728515625,13.189892768859863,415.68145751953125,40.20000076293945,29.55000114440918,-6.300000190734863
6.36,81.21131896972656,34.85957717895508,-8.619126319885254,-137.22817993164062,-7.72741174697876,455.5176086425781,38.400001525878906,29.850000381469727,-5.700000286102295
6.379,92.7417984008789,51.21676254272461,-23.02264404296875,-162.40887451171875,10.392036437988281,489.4915771484375,36.900001525878906,33.45000076293945,-6.300000190734863
6.383,99.59879302978516,76.34630584716797,-33.288978576660156,-173.33384704589844,18.652372360229492,539.4533081054688,35.55000305175781,33.60000228881836,-5.400000095367432
6.39,102.3569107055664,108.02638244628906,-42.7508659362793,-162.94180297851562,22.649311065673828,578.3568115234375,33.45000076293945,35.70000076293945,-5.25
6.4,105.80455780029297,129.09535217285156,-45.394065856933594,-173.86676025390625,20.784072875976562,589.9479370117188,33.45000076293945,35.70000076293945,-5.25
6.41,114.50030517578125,155.94871520996094,-47.80741882324219,-137.22817993164062,17.986217498779297,616.9938354492188,29.700000762939453,37.650001525878906,-2.700000047683716
6.42,122.08513641357422,172.61236572265625,-43.51700973510742,-88.06584930419922,-3.9969370365142822,670.5527954101562,27.000001907348633,39.0,-3.6000001430511475
6.44,125.0730972290039,180.082275390625,-42.7891731262207,-45.03215789794922,-35.57273864746094,670.286376953125,24.0,39.75,-2.5500001907348633
6.444,121.28067779541016,175.178955078125,-38.80522155761719,-28.378253936767578,-49.82848358154297,651.9004516601562,21.75,40.95000076293945,-2.8500001430511475
6.45,110.7078857421875,161.69480895996094,-41.333499908447266,-23.448698043823242,-53.69218826293945,651.2343139648438,18.450000762939453,40.650001525878906,-3.750000238418579
6.46,108.10299682617188,159.626220703125,-40.41412353515625,3.0643184185028076,-73.41041564941406,651.6339721679688,18.450000762939453,40.650001525878906,-3.750000238418579
6.47,103.16136169433594,160.00929260253906,-36.54509353637695,37.97090148925781,-88.06584930419922,656.9632568359375,14.40000057220459,41.85000228881836,-4.200000286102295
6.48,92.58856964111328,155.91041564941406,-32.25468444824219,77.14088439941406,-108.3169937133789,677.21435546875,10.950000762939453,41.55000305175781,-4.200000286102295
6.499,82.20730590820312,142.1581268310547,-31.373619079589844,90.99693298339844,-127.5022964477539,688.6722412109375,9.300000190734863,42.150001525878906,-3.6000001430511475
6.504,70.44699096679688,126.2606201171875,-27.083209991455078,83.66921997070312,-140.02603149414062,695.8667602539062,5.700000286102295,41.55000305175781,-5.25
6.51,62.51739501953125,112.20186614990234,-16.855180740356445,62.8851432800293,-134.43031311035156,677.21435546875,5.700000286102295,41.55000305175781,-5.25
6.52,59.79758071899414,109.17559814453125,-12.411541938781738,15.321592330932617,-136.82847595214844,694.4011840820312,-0.75,40.5,-6.150000095367432
6.53,49.68447494506836,104.08073425292969,-14.480132102966309,-37.03828430175781,-117.64318084716797,666.6890869140625,-1.5,39.0,-7.350000381469727
6.54,39.647979736328125,102.54844665527344,-20.30282974243164,-130.03369140625,-85.93415069580078,649.635498046875,-4.800000190734863,37.80000305175781,-6.600000381469727
6.56,33.71036148071289,105.26825714111328,-28.73042106628418,-172.6676788330078,-69.01377868652344,632.3154296875,-6.450000286102295,37.650001525878906,-4.950000286102295
6.563,30.454246520996094,110.28650665283203,-27.542896270751953,-191.18682861328125,-58.888206481933594,588.34912109375,-6.900000095367432,36.45000076293945,-4.950000286102295
6.57,28.61549949645996,120.322998046875,-22.639572143554688,-162.40887451171875,-66.21592712402344,566.7656860351562,-6.900000095367432,36.45000076293945,-4.950000286102295
6.58,26.700138092041016,128.13768005371094,-16.548721313476562,-69.14701080322266,-83.93567657470703,509.20977783203125,-13.950000762939453,34.95000076293945,-3.0
6.59,18.77054214477539,128.7122802734375,-11.185709953308105,30.776416778564453,-109.51607513427734,448.45635986328125,-15.90000057220459,33.0,-3.750000238418579
6.6,4.903325080871582,119.32701110839844,-9.346963882446289,97.5252685546875,-104.85298156738281,376.37823486328125,-16.200000762939453,31.500001907348633,-5.700000286102295
6.62,-7.393294811248779,104.27227020263672,-6.320692539215088,113.91270446777344,-86.3338394165039,303.3675231933594,-16.5,31.200000762939453,-6.150000095367432
6.624,-18.579004287719727,91.93734741210938,-4.060565948486328,93.12863159179688,-69.67993927001953,267.7947998046875,-16.5,31.200000762939453,-6.150000095367432
6.63,-36.008792877197266,79.71733856201172,-4.941632270812988,69.81317138671875,-65.41653442382812,228.22511291503906,-19.05000114440918,30.150001525878906,-5.850000381469727
6.64,-43.67023849487305,76.15476989746094,-4.596867084503174,22.116384506225586,-51.693721771240234,166.67227172851562,-19.200000762939453,29.55000114440918,-6.0
6.65,-51.21676254272461,74.08617401123047,-2.3750481605529785,-22.249616622924805,-34.24042892456055,152.81622314453125,-21.150001525878906,29.55000114440918,-6.750000476837158
6.66,-55.77532196044922,67.53564453125,-1.4939818382263184,-63.018375396728516,-36.10566711425781,112.84685516357422,-20.700000762939453,27.900001525878906,-7.500000476837158
6.68,-54.74102783203125,61.82786560058594,-1.5705963373184204,-106.85145568847656,-22.51607894897461,81.40428924560547,-20.700000762939453,27.900001525878906,-7.500000476837158
6.683,-54.396263122558594,57.84391403198242,-4.367023944854736,-157.0796356201172,-2.6646246910095215,34.24042892456055,-20.700000762939453,27.900001525878906,-7.500000476837158
6.69,-47.117889404296875,60.21895980834961,-4.9799394607543945,-169.33689880371094,1.4655436277389526,-17.32006072998047,-21.75,26.55000114440918,-6.900000095367432
6.7,-39.647979736328125,66.15657806396484,-4.520252704620361,-133.76416015625,1.5987749099731445,-73.67687225341797,-22.200000762939453,26.850000381469727,-7.500000476837158
6.71,-26.470293045043945,85.38681030273438,-10.457873344421387,-60.88667678833008,-10.392036437988281,-130.1669158935547,-22.650001525878906,28.80000114440918,-4.200000286102295
6.72,-23.903709411621094,93.04825592041016,-10.879252433776855,15.45482349395752,-20.91730499267578,-185.4578857421875,-19.950000762939453,29.55000114440918,-6.0
6.74,-14.135366439819336,99.02418518066406,-15.169661521911621,86.0673828125,-26.912710189819336,-217.69984436035156,-19.950000762939453,29.55000114440918,-6.0
6.744,-5.363011837005615,101.6673812866211,-18.808849334716797,123.9050521850586,-6.128636837005615,-280.5849914550781,-19.650001525878906,32.25,-6.300000190734863
6.75,11.03248119354248,104.65534210205078,-10.84094524383545,124.70443725585938,-7.194486618041992,-297.5053405761719,-19.650001525878906,32.25,-6.300000190734863
6.76,23.75048065185547,106.64732360839844,-4.941632270812988,124.43797302246094,6.261868000030518,-332.9448547363281,-19.5,32.400001525878906,-6.900000095367432
6.77,46.696510314941406,113.61923217773438,-3.600879430770874,80.60489654541016,8.39356803894043,-348.3996887207031,-17.400001525878906,31.80000114440918,-9.300000190734863
6.78,77.57213592529297,129.59335327148438,-11.070788383483887,11.058192253112793,49.16232681274414,-341.6048889160156,-17.400001525878906,31.80000114440918,-9.300000190734863
6.8,122.6214370727539,136.64187622070312,-22.7161865234375,-28.24502182006836,67.01531219482422,-435.2664489746094,-14.550000190734863,34.80000305175781,-7.950000286102295
6.804,133.002685546875,159.24314880371094,-33.212364196777344,-33.17457962036133,94.72740936279297,-495.88665771484375,-10.5,37.80000305175781,-7.650000095367432
6.81,125.6093978881836,166.67474365234375,-27.696125030517578,-21.316997528076172,95.52679443359375,-519.2021484375,-10.5,37.80000305175781,-7.650000095367432
6.82,122.31497955322266,165.6404571533203,-24.631547927856445,5.995405673980713,103.65390014648438,-580.488525390625,-10.200000762939453,37.95000076293945,-6.750000476837158
6.83,125.11140441894531,169.54779052734375,-26.2021427154541,55.82388687133789,91.52986145019531,-626.8529663085938,-7.800000190734863,40.20000076293945,-5.850000381469727
6.84,132.15992736816406,174.6426544189453,-28.768728256225586,90.19754791259766,82.33690643310547,-622.1898803710938,-7.800000190734863,40.20000076293945,-5.850000381469727
6.86,137.98263549804688,174.6426544189453,-38.920143127441406,121.3736572265625,85.4012222290039,-638.0443725585938,-1.8000000715255737,40.95000076293945,-5.400000095367432
6.863,142.42626953125,168.1304168701172,-42.7891731262207,154.814697265625,52.493106842041016,-626.5864868164062,3.0,42.150001525878906,-6.150000095367432
6.87,145.5674591064453,155.75718688964844,-40.95042419433594,156.41346740722656,36.771820068359375,-631.915771484375,3.0,42.150001525878906,-6.150000095367432
6.88,144.72470092773438,145.33761596679688,-39.4947509765625,134.83001708984375,35.839202880859375,-631.3828125,7.050000190734863,43.20000076293945,-5.850000381469727
6.89,134.49667358398438,131.31716918945312,-38.95845031738281,94.9938735961914,37.83767318725586,-610.0658569335938,7.050000190734863,43.20000076293945,-5.850000381469727
6.9,117.2967300415039,110.01835632324219,-33.40390396118164,44.09954071044922,47.696781158447266,-597.6753540039062,11.40000057220459,43.5,-6.750000476837158
6.92,100.4415512084961,92.89502716064453,-28.270732879638672,-34.10719680786133,70.74578857421875,-594.8775024414062,15.000000953674316,40.20000076293945,-6.600000381469727
6.924,87.03401947021484,82.32222747802734,-29.266721725463867,-102.05513000488281,112.98008728027344,-588.6156005859375,18.900001525878906,41.10000228881836,-6.300000190734863
6.93,77.07414245605469,80.67501831054688,-34.284969329833984,-104.98621368408203,127.23583221435547,-552.2434692382812,22.80000114440918,40.95000076293945,-6.900000095367432
6.94,76.23138427734375,78.87458038330078,-32.292991638183594,-69.67993927001953,116.84379577636719,-533.19140625,22.80000114440918,40.95000076293945,-6.900000095367432
6.95,79.21934509277344,75.31201171875,-26.048913955688477,-12.523736000061035,87.9326171875,-516.404296875,24.150001525878906,39.150001525878906,-6.0
6.96,75.54185485839844,66.30980682373047,-22.869415283203125,48.8958625793457,76.07503509521484,-497.2189636230469,28.650001525878906,38.85000228881836,-5.25
6.98,69.22116088867188,51.82967758178711,-20.992361068725586,114.97856140136719,46.897396087646484,-465.9096374511719,30.000001907348633,38.25,-5.400000095367432
6.984,59.950809478759766,38.115692138671875,-19.80483627319336,170.8024444580078,29.444103240966797,-447.3905029296875,31.650001525878906,37.95000076293945,-4.5
6.99,50.68046188354492,19.68991470336914,-15.514427185058594,184.5252685546875,20.91730499267578,-443.3935546875,31.650001525878906,37.95000076293945,-4.5
7.0,46.46666717529297,10.41956615447998,-15.016432762145996,187.85604858398438,14.255742073059082,-390.10107421875,35.400001525878906,34.20000076293945,-7.500000476837158
7.01,44.74283981323242,-1.3407529592514038,-14.939818382263184,174.66615295410156,6.661561965942383,-366.9188232421875,35.70000076293945,34.20000076293945,-6.750000476837158
7.02,46.77312469482422,-11.453861236572266,-10.496180534362793,127.76875305175781,3.7304747104644775,-327.6156005859375,37.80000305175781,32.400001525878906,-5.850000381469727
7.04,46.84973907470703,-17.774553298950195,-6.052541732788086,66.48238372802734,9.592649459838867,-279.5191345214844,36.900001525878906,30.30000114440918,-7.050000190734863
7.043,47.80741882324219,-21.222204208374023,-2.3750481605529785,-6.794793128967285,10.392036437988281,-220.09800720214844,36.900001525878906,30.30000114440918,-7.050000190734863
7.05,49.87601089477539,-26.700138092041016,2.6431987285614014,-34.773353576660156,-7.06125545501709,-208.90658569335938,36.900001525878906,30.30000114440918,-7.050000190734863
7.06,50.18246841430664,-32.178070068359375,2.9879636764526367,-87.9326171875,0.0,-185.5911102294922,41.55000305175781,30.900001525878906,-7.650000095367432
7.07,50.5272331237793,-35.89387130737305,3.179499864578247,-103.92036437988281,-1.1990811824798584,-185.5911102294922,41.70000076293945,29.55000114440918,-7.500000476837158
7.08,50.83369064331055,-34.24666213989258,3.332728862762451,-85.53445434570312,-24.11485481262207,-173.73353576660156,42.0,28.200000762939453,-5.100000381469727
7.1,50.06754684448242,-26.355371475219727,1.3024457693099976,-37.304744720458984,-38.77029037475586,-167.47166442871094,43.650001525878906,27.150001525878906,-4.5
7.104,50.335697174072266,-17.73624610900879,-3.44765043258667,62.75191116333008,-68.34762573242188,-134.83001708984375,43.650001525878906,27.150001525878906,-4.5
7.11,50.25908279418945,-14.173673629760742,-9.998186111450195,98.59111785888672,-85.4012222290039,-100.72281646728516,43.95000076293945,27.900001525878906,-4.950000286102295
7.12,46.46666717529297,-18.847156524658203,-10.879252433776855,114.17916870117188,-87.39968872070312,-63.28483963012695,44.25,27.450000762939453,-6.600000381469727
7.13,40.83550262451172,-23.980323791503906,-13.828908920288086,85.93415069580078,-75.67534637451172,-20.784072875976562,44.25,27.000001907348633,-5.100000381469727
7.14,41.5250358581543,-20.341136932373047,-11.760318756103516,49.56201934814453,-63.418067932128906,29.044410705566406,45.900001525878906,26.850000381469727,-4.200000286102295
7.16,43.63193130493164,-12.871228218078613,-13.062764167785645,5.995405673980713,-47.696781158447266,106.18529510498047,45.900001525878906,26.850000381469727,-4.200000286102295
7.163,47.002967834472656,-6.780379295349121,-13.10107135772705,-70.87902069091797,-25.580398559570312,216.6339874267578,43.80000305175781,28.200000762939453,-4.650000095367432
7.17,54.93256378173828,0.6129156351089478,-7.661445617675781,-136.0290985107422,0.39969372749328613,245.545166015625,43.80000305175781,27.450000762939453,-3.6000001430511475
7.18,64.0496826171875,5.018246650695801,-7.163451671600342,-229.5574188232422,-5.462480545043945,299.7702941894531,41.70000076293945,29.100000381469727,-4.200000286102295
7.19,77.763671875,24.24847412109375,-19.881450653076172,-312.1607971191406,4.396630764007568,342.1378173828125,41.70000076293945,28.80000114440918,-2.700000047683716
7.2,87.91508483886719,51.369991302490234,-32.331298828125,-361.45635986328125,22.782541275024414,376.1117858886719,41.25,30.450000762939453,-2.8500001430511475
7.22,96.18944549560547,81.01978302001953,-36.04710006713867,-376.1117858886719,34.50688934326172,405.95556640625,41.25,30.450000762939453,-2.8500001430511475
7.224,102.16537475585938,105.26825714111328,-35.702335357666016,-326.81622314453125,27.978559494018555,433.66766357421875,39.0,32.85000228881836,0.30000001192092896
7.23,101.16938781738281,136.5652618408203,-35.54910659790039,-266.8621826171875,11.058192253112793,443.3935546875,36.900001525878906,33.0,1.6500000953674316
7.24,97.91326904296875,149.35987854003906,-33.097442626953125,-159.21133422851562,-12.523736000061035,445.5252685546875,36.900001525878906,34.20000076293945,1.9500000476837158
7.25,90.86474609375,161.69480895996094,-35.74064254760742,-24.11485481262207,-50.4946403503418,445.6584777832031,32.25,37.05000305175781,2.8500001430511475
7.26,82.13069152832031,165.2190704345703,-36.08540725708008,88.19908142089844,-78.87289428710938,448.7228088378906,32.25,37.05000305175781,2.8500001430511475
