time,accel_x,accel_y,accel_z,gyro_x,gyro_y,gyro_z,mag_x,mag_y,mag_z
0.0,9.489934921264648,2.2683956623077393,5.107479572296143,0.260992169380188,-1.0823004245758057,-0.4063781201839447,-59.14937210083008,-21.19263458251953,-59.61707305908203
0.01,9.476773262023926,2.4155545234680176,4.995017051696777,0.3101668059825897,-1.2121094465255737,-0.4934263825416565,-59.17860412597656,-21.689563751220703,-59.266300201416016
0.03,9.631111145019531,2.234896183013916,5.112265586853027,0.3885102868080139,-1.3544409275054932,-0.5474879741668701,-58.871673583984375,-21.864952087402344,-59.310142517089844
0.033,9.637092590332031,2.128415822982788,4.9423747062683105,0.39217546582221985,-1.364978313446045,-0.554818332195282,-58.871673583984375,-21.908798217773438,-58.57936096191406
0.04,9.739984512329102,2.179861307144165,4.537988185882568,0.40515637397766113,-1.4306464195251465,-0.5791002511978149,-58.28704833984375,-21.981876373291016,-58.02397155761719
0.05,9.602396965026855,2.306680917739868,4.4135613441467285,0.4072943925857544,-1.5884023904800415,-0.6059783101081848,-58.52090072631836,-21.996492385864258,-57.322418212890625
0.06,9.486345291137695,2.3844475746154785,4.339384078979492,0.4021020233631134,-1.736231803894043,-0.6357579827308655,-58.243202209472656,-21.631101608276367,-56.737796783447266
0.07,9.406185150146484,2.6273193359375,4.2616167068481445,0.41661009192466736,-1.8443548679351807,-0.6310237646102905,-58.22858810424805,-22.054954528808594,-55.51008605957031
0.09,9.146564483642578,2.7457637786865234,4.333401679992676,0.45295655727386475,-1.9372063875198364,-0.616362988948822,-58.155513763427734,-22.361881256103516,-54.48699188232422
0.094,8.94676399230957,2.991028070449829,3.996013641357422,0.48411068320274353,-1.9738582372665405,-0.6180429458618164,-57.760887145996094,-23.092662811279297,-54.033905029296875
0.1,9.017352104187012,2.9599215984344482,3.751945734024048,0.48640143871307373,-2.0053179264068604,-0.6198754906654358,-57.42472839355469,-22.902660369873047,-52.8208122253418
0.11,9.19322395324707,2.878565549850464,3.266202688217163,0.4761694371700287,-2.121687650680542,-0.6142250299453735,-57.497806549072266,-22.94650650024414,-51.75387191772461
0.12,9.328418731689453,2.801995277404785,2.8582265377044678,0.4615086615085602,-2.2464568614959717,-0.6062837243080139,-56.59164047241211,-22.74188804626465,-50.570011138916016
0.13,9.241080284118652,2.849851608276367,2.651247262954712,0.45204025506973267,-2.384359836578369,-0.6122397184371948,-57.14703369140625,-23.326513290405273,-50.160770416259766
0.15,9.125028610229492,2.8689942359924316,2.4191436767578125,0.4285219609737396,-2.4885122776031494,-0.6343835592269897,-56.197017669677734,-23.66267204284668,-47.26688003540039
0.153,9.046065330505371,2.884547472000122,2.1403796672821045,0.3784310221672058,-2.6751315593719482,-0.6931793689727783,-55.96316909790039,-24.013446807861328,-47.544578552246094
0.16,9.238687515258789,2.8390841484069824,1.9968103170394897,0.34376442432403564,-2.747061014175415,-0.7134906053543091,-56.32855987548828,-23.56036376953125,-46.097633361816406
0.17,9.509077072143555,2.888136863708496,1.7491532564163208,0.3026837408542633,-2.8817567825317383,-0.7147123217582703,-56.05086135864258,-23.764982223510742,-45.790706634521484
0.18,9.523433685302734,3.0029923915863037,1.4883357286453247,0.25076019763946533,-3.060129404067993,-0.7269296646118164,-55.53931427001953,-23.750364303588867,-44.10990905761719
0.19,9.486345291137695,3.198007583618164,1.038485050201416,0.2018909603357315,-3.246596097946167,-0.7513642311096191,-54.72084426879883,-24.276527404785156,-42.6629638671875
0.209,8.901299476623535,3.5700912475585938,0.4749752879142761,0.09957103431224823,-3.6752705574035645,-0.7713701128959656,-53.34697341918945,-24.437299728393555,-41.332942962646484
0.213,8.811569213867188,3.600001335144043,0.3696911036968231,0.08078692108392715,-3.751628875732422,-0.7681630253791809,-53.2008171081543,-24.2911434173584,-40.41215896606445
0.22,8.431110382080078,3.717249870300293,0.1746760457754135,0.05253440886735916,-3.829972267150879,-0.7493789196014404,-52.74773406982422,-24.32037353515625,-39.43291473388672
0.23,7.915457248687744,3.8321051597595215,-0.3672982454299927,0.051312681287527084,-3.7555992603302,-0.7244861125946045,-52.090030670166016,-24.49576187133789,-38.29289627075195
0.24,7.777869701385498,3.8213376998901367,-0.6831508874893188,0.1088867262005806,-3.659540891647339,-0.7218900322914124,-51.169246673583984,-24.641918182373047,-36.43671417236328
0.25,7.750351905822754,3.623929738998413,-0.6556333899497986,0.1514945775270462,-3.5488216876983643,-0.7105889916419983,-51.1400146484375,-24.992692947387695,-35.88132095336914
0.269,7.734798908233643,3.531806230545044,-0.8087739944458008,0.21181751787662506,-3.2699615955352783,-0.6844744682312012,-49.473838806152344,-25.50423812866211,-34.2443733215332
0.273,7.7491559982299805,3.5030922889709473,-1.179661512374878,0.23258693516254425,-3.191159963607788,-0.6780603528022766,-49.15229415893555,-25.43115997314453,-32.85588836669922
0.28,7.763513088226318,3.480360507965088,-1.3734800815582275,0.26145032048225403,-3.0754010677337646,-0.660803496837616,-48.01227569580078,-25.285005569458008,-33.29435729980469
0.29,7.610372066497803,3.5258240699768066,-1.6295121908187866,0.2921462953090668,-2.928182601928711,-0.6495024561882019,-47.79304122924805,-25.460391998291016,-31.949722290039062
0.3,7.3675007820129395,3.55932354927063,-1.8735800981521606,0.30741792917251587,-2.7789788246154785,-0.6517932415008545,-46.81379699707031,-25.197309494018555,-30.970474243164062
0.31,7.133004188537598,3.7363924980163574,-2.2396819591522217,0.3292563557624817,-2.58457088470459,-0.6417139768600464,-46.27302169799805,-25.88424301147461,-30.44431495666504
0.329,6.360122203826904,4.006781578063965,-2.8666014671325684,0.3969096839427948,-2.051743745803833,-0.5441282391548157,-44.4022216796875,-24.94884490966797,-28.71967315673828
0.333,6.215356349945068,4.153940200805664,-3.177668571472168,0.4092797338962555,-1.9110918045043945,-0.5190827250480652,-44.12452697753906,-25.34346580505371,-28.354280471801758
0.34,6.198606967926025,4.030709743499756,-3.538984537124634,0.43157631158828735,-1.684918999671936,-0.5057964324951172,-43.189125061035156,-25.694242477416992,-28.646595001220703
0.35,6.610172271728516,4.159922122955322,-3.7950165271759033,0.4576907753944397,-1.443474531173706,-0.4918992221355438,-43.01374053955078,-25.387313842773438,-27.652734756469727
0.36,6.704688549041748,4.118047714233398,-3.9565322399139404,0.44364088773727417,-1.2388347387313843,-0.43188172578811646,-42.3414192199707,-24.714996337890625,-27.214263916015625
0.37,6.803991317749023,4.076173305511475,-4.171885967254639,0.4502076804637909,-0.9799805283546448,-0.37491855025291443,-42.6629638671875,-25.40192985534668,-26.907337188720703
0.389,7.167700290679932,3.985246181488037,-4.214956760406494,0.4444044530391693,-0.8240572214126587,-0.3442225456237793,-41.683719635009766,-25.197309494018555,-26.32271385192871
0.393,7.422535419464111,3.840480089187622,-4.201796531677246,0.42042800784111023,-0.693026602268219,-0.28878653049468994,-41.449867248535156,-24.992692947387695,-26.571178436279297
0.4,7.572086811065674,3.7627134323120117,-4.226921081542969,0.3839287757873535,-0.6397286653518677,-0.2750420570373535,-41.2014045715332,-24.94884490966797,-26.4104061126709
0.41,7.862814903259277,3.676571846008301,-4.206582069396973,0.3113885521888733,-0.6470589637756348,-0.27611106634140015,-41.522945404052734,-25.445777893066406,-25.67962646484375
0.42,7.921439170837402,3.8009984493255615,-4.225724697113037,0.2093740552663803,-0.7018841505050659,-0.2739730477333069,-40.967552185058594,-24.583454132080078,-26.39579200744629
0.43,7.799405097961426,3.9637105464935303,-4.393222332000732,0.1440114825963974,-0.7121161818504333,-0.2542726695537567,-40.64601135253906,-25.387313842773438,-25.76732063293457
0.449,7.189235687255859,4.003191947937012,-4.554737567901611,-0.01863138936460018,-0.6604980230331421,-0.21441368758678436,-39.91522979736328,-25.25577163696289,-25.24115753173828
0.453,7.1401824951171875,3.9948172569274902,-4.639682769775391,-0.03833179175853729,-0.6452264189720154,-0.21960605680942535,-40.19292449951172,-25.29962158203125,-25.635778427124023
0.46,7.087540626525879,4.035495281219482,-4.691128730773926,-0.09224064648151398,-0.6023131012916565,-0.23518311977386475,-39.73984146118164,-25.43115997314453,-25.738086700439453
0.47,7.058826446533203,4.180261135101318,-4.852643966674805,-0.17119498550891876,-0.5280929803848267,-0.24174991250038147,-40.07600402832031,-25.796550750732422,-25.694242477416992
0.48,7.141378879547119,4.140779495239258,-5.08953332901001,-0.24617868661880493,-0.43860122561454773,-0.20952677726745605,-39.330604553222656,-25.577316284179688,-24.890382766723633
0.49,7.1880388259887695,4.23649263381958,-5.2522454261779785,-0.3292563557624817,-0.4024074673652649,-0.1869247555732727,-39.25752639770508,-25.942707061767578,-25.182693481445312
0.509,6.7692952156066895,4.469792366027832,-5.085944175720215,-0.38499781489372253,-0.25014930963516235,-0.14782939851284027,-38.68751907348633,-26.015785217285156,-24.992692947387695
0.513,6.70588493347168,4.509274005889893,-5.050052165985107,-0.3920227587223053,-0.21823160350322723,-0.1408044397830963,-38.73136520385742,-26.001171112060547,-25.31423568725586
0.52,6.625725269317627,4.604987144470215,-4.967499732971191,-0.413555771112442,-0.11820242553949356,-0.12660181522369385,-38.1467399597168,-25.986553192138672,-25.533470153808594
0.53,6.605386734008789,4.557130336761475,-4.817948341369629,-0.4317289888858795,0.05971207842230797,-0.11881328374147415,-38.54136276245117,-26.42502212524414,-25.31423568725586
0.54,6.914061069488525,4.481756687164307,-4.7401814460754395,-0.44745880365371704,0.19807305932044983,-0.10965030640363693,-38.38058853149414,-26.556564331054688,-25.986553192138672
0.55,7.122236251831055,4.55354118347168,-4.628915309906006,-0.4470006227493286,0.28725937008857727,-0.0933096632361412,-39.155216217041016,-26.220401763916016,-26.088863372802734
0.569,7.209574222564697,4.71744966506958,-4.358526229858398,-0.4338670074939728,0.3878994286060333,-0.06948591768741608,-39.023677825927734,-26.61502456665039,-26.805028915405273
0.573,7.251449108123779,4.7018961906433105,-4.342973232269287,-0.42821651697158813,0.40133848786354065,-0.06322455406188965,-38.760597229003906,-26.49810028076172,-26.673486709594727
0.58,7.299305438995361,4.652843475341797,-4.238884925842285,-0.41981711983680725,0.4156937897205353,-0.06352998316287994,-38.92136764526367,-26.731950759887695,-26.556564331054688
0.59,7.403393268585205,4.612165451049805,-4.070191383361816,-0.4179845154285431,0.408974289894104,-0.06841690838336945,-38.789825439453125,-26.512714385986328,-26.60040855407715
0.6,7.501498699188232,4.583451747894287,-4.034298896789551,-0.41370847821235657,0.39278632402420044,-0.06933320313692093,-39.1259880065918,-27.126571655273438,-26.61502456665039
0.61,7.685746192932129,4.510470390319824,-3.8835508823394775,-0.4060726761817932,0.34437528252601624,-0.07269296050071716,-39.28675842285156,-27.41888427734375,-27.828121185302734
0.629,7.434499740600586,4.649254322052002,-3.803391456604004,-0.37491855025291443,0.2255619913339615,-0.06673702597618103,-39.5059928894043,-27.141185760498047,-27.63811683654785
0.632,7.4045891761779785,4.652843475341797,-3.8189449310302734,-0.3747658133506775,0.22143864631652832,-0.06444628536701202,-39.82753372192383,-27.52119255065918,-26.98041534423828
0.64,7.304090976715088,4.676771640777588,-3.8632121086120605,-0.35552358627319336,0.2298380434513092,-0.051770828664302826,-39.31599044799805,-27.08272361755371,-27.41888427734375
0.65,7.272984027862549,4.706681728363037,-3.8703906536102295,-0.3321579694747925,0.24526238441467285,-0.025503622367978096,-39.900611877441406,-27.594270706176758,-27.667348861694336
0.66,7.2502522468566895,4.723431587219238,-3.805784225463867,-0.31810805201530457,0.2698497176170349,0.015271631069481373,-39.564453125,-27.798887252807617,-27.886581420898438
0.67,7.100700855255127,4.744967460632324,-3.7112677097320557,-0.31184670329093933,0.27091872692108154,0.06185010448098183,-39.53522491455078,-27.60888671875,-27.988893508911133
0.689,6.69870662689209,4.823930263519287,-3.7603206634521484,-0.3032945990562439,0.36789360642433167,0.13209959864616394,-40.07600402832031,-26.921951293945312,-28.515052795410156
0.693,6.690331935882568,4.821537494659424,-3.7387852668762207,-0.3003929853439331,0.394618958234787,0.152105450630188,-40.1636962890625,-27.433500289916992,-28.441978454589844
0.7,6.62213659286499,4.840680122375488,-3.6909286975860596,-0.30024024844169617,0.43218716979026794,0.17989981174468994,-39.944461822509766,-27.798887252807617,-29.28968048095703
0.71,6.51326322555542,4.887340068817139,-3.7076785564422607,-0.29626965522766113,0.5044220089912415,0.22220222651958466,-40.42677688598633,-27.4481143951416,-29.070446014404297
0.72,6.423532009124756,4.883750915527344,-3.7112677097320557,-0.2860376536846161,0.587041437625885,0.27061331272125244,-40.2221565246582,-27.009645462036133,-29.567378997802734
0.73,6.161518096923828,4.898108005523682,-3.676571846008301,-0.2704605758190155,0.7440338730812073,0.35262197256088257,-40.894474029541016,-27.71119499206543,-29.304296493530273
0.749,5.6793646812438965,4.840680122375488,-3.538984537124634,-0.22571469843387604,1.1468994617462158,0.507476270198822,-41.522945404052734,-27.360422134399414,-30.47354507446289
0.753,5.638686656951904,4.789234161376953,-3.458824872970581,-0.21090121567249298,1.2947288751602173,0.5546656250953674,-41.91756820678711,-28.16427993774414,-30.83893585205078
0.76,5.764309883117676,4.6779680252075195,-3.3068807125091553,-0.18784105777740479,1.5297592878341675,0.6197227835655212,-41.93218231201172,-27.4481143951416,-31.05817222595215
0.77,6.178267955780029,4.4374895095825195,-3.029313325881958,-0.16340644657611847,1.8251125812530518,0.695164680480957,-42.79450607299805,-27.930429458618164,-30.91201400756836
0.78,6.547958850860596,4.218545913696289,-2.592623233795166,-0.16600261628627777,2.099085807800293,0.7504479885101318,-43.422977447509766,-27.111955642700195,-31.525867462158203
0.79,7.004988193511963,4.247260093688965,-2.2707886695861816,-0.18341228365898132,2.280207395553589,0.7710646390914917,-43.686058044433594,-27.258113861083984,-32.89973831176758
0.803,7.295715808868408,4.409972190856934,-1.9860427379608154,-0.17363843321800232,2.501492977142334,0.8003861904144287,-44.32914352416992,-26.49810028076172,-32.89973831176758
0.81,7.417749881744385,4.463810443878174,-1.6857434511184692,-0.1595885455608368,2.621375560760498,0.8184067010879517,-45.24992752075195,-27.24349594116211,-33.586673736572266
0.82,7.609175682067871,4.4542388916015625,-1.3830513954162598,-0.15271630883216858,2.7768406867980957,0.8329147696495056,-46.53609848022461,-27.08272361755371,-34.30283737182617
0.83,8.01954460144043,4.3046875,-1.1258230209350586,-0.14523321390151978,2.951242685317993,0.8197811841964722,-47.734580993652344,-27.389652252197266,-35.720550537109375
0.84,8.725427627563477,4.104887008666992,-0.9140582084655762,-0.13836097717285156,3.032335042953491,0.8093964457511902,-47.63227081298828,-26.819643020629883,-36.100555419921875
0.85,9.265008926391602,3.867997646331787,-0.6711867451667786,-0.12278390675783157,3.0584495067596436,0.7929030656814575,-48.669979095458984,-27.009645462036133,-37.021339416503906
0.869,10.100104331970215,3.655036449432373,-0.2069791555404663,-0.12461650371551514,2.858849287033081,0.6785185933113098,-50.46770095825195,-26.30809783935547,-37.95673751831055
0.873,10.194620132446289,3.6119656562805176,-0.11605189740657806,-0.12797626852989197,2.81960129737854,0.663705050945282,-50.51154327392578,-26.278865814208984,-38.04443359375
0.88,10.348958015441895,3.583251953125,0.02392822690308094,-0.13607022166252136,2.682309150695801,0.6307183504104614,-50.21923065185547,-25.942707061767578,-39.5059928894043
0.89,10.439885139465332,3.583251953125,0.24047866463661194,-0.14813482761383057,2.422844409942627,0.5616905689239502,-51.213096618652344,-25.825780868530273,-40.42677688598633
0.9,10.63848876953125,3.5581271648406982,0.5120640397071838,-0.17104226350784302,2.1922426223754883,0.5065600275993347,-51.900028228759766,-25.913476943969727,-40.74831771850586
0.919,10.567900657653809,3.7052857875823975,0.6089733242988586,-0.18600846827030182,1.9214766025543213,0.4534147381782532,-52.499271392822266,-26.220401763916016,-42.09295654296875
0.923,10.305886268615723,3.865604877471924,0.592223584651947,-0.18936823308467865,1.6685783863067627,0.39706239104270935,-52.338497161865234,-25.7088565826416,-42.20988082885742
0.93,10.077371597290039,3.9900314807891846,0.48454657196998596,-0.17898350954055786,1.5282320976257324,0.375529408454895,-52.937740325927734,-25.78193473815918,-42.502193450927734
0.94,9.772287368774414,4.234099388122559,0.5706881880760193,-0.144622340798378,1.3614658117294312,0.3153591752052307,-52.63081359863281,-25.7088565826416,-43.393741607666016
0.95,9.9469633102417,4.012763500213623,0.8374878764152527,-0.1261436641216278,1.215621829032898,0.2701551616191864,-53.317745208740234,-25.76732063293457,-43.83221435546875
0.96,10.430314064025879,3.5018956661224365,0.9966105818748474,-0.14324790239334106,0.954018771648407,0.2460259646177292,-53.0985107421875,-25.197309494018555,-45.27915573120117
0.97,9.732806205749512,3.889533042907715,0.8434699773788452,-0.2002110779285431,0.751669704914093,0.21181751787662506,-53.36158752441406,-25.67962646484375,-45.26454162597656
0.989,9.183652877807617,4.106083393096924,1.3268201351165771,-0.1036943718791008,0.6884450912475586,0.20051652193069458,-53.97544479370117,-25.84039878845215,-45.30839157104492
0.992,9.20279598236084,4.122833251953125,1.3387842178344727,-0.09666942805051804,0.6914994120597839,0.1996002048254013,-54.033905029296875,-25.665008544921875,-45.235313415527344
1.0,9.527023315429688,3.9768712520599365,1.4273186922073364,-0.07590001076459885,0.6656904220581055,0.17043140530586243,-53.46390151977539,-25.270387649536133,-45.86378479003906
1.01,9.840482711791992,3.8045878410339355,1.4560325145721436,-0.08170322328805923,0.5653557777404785,0.14569135010242462,-54.79391860961914,-25.285005569458008,-45.746856689453125
1.02,9.882357597351074,3.792623519897461,1.384247899055481,-0.10674870014190674,0.4254676401615143,0.14996741712093353,-54.019290924072266,-25.34346580505371,-45.4399299621582
1.039,9.805787086486816,3.783052444458008,1.3627125024795532,-0.12751811742782593,0.2814561426639557,0.13607022166252136,-54.18006134033203,-25.285005569458008,-45.65916442871094
1.043,9.796216011047363,3.6502509117126465,1.4021941423416138,-0.18631389737129211,-0.018020525574684143,0.10812314599752426,-54.10698699951172,-24.539608001708984,-46.38994216918945
1.05,9.677770614624023,3.5461630821228027,1.3076776266098022,-0.2538144886493683,-0.1388191282749176,0.10491610318422318,-54.676998138427734,-25.285005569458008,-46.33148193359375
1.06,9.507880210876465,3.456432342529297,1.1389836072921753,-0.3153591752052307,-0.2802344262599945,0.1062905564904213,-54.75007247924805,-24.84653663635254,-46.170711517333984
1.07,9.316454887390137,3.4851462841033936,0.8877371549606323,-0.36972618103027344,-0.38759398460388184,0.11698068678379059,-54.72084426879883,-25.080385208129883,-46.185325622558594
1.08,8.994619369506836,3.8177483081817627,0.6496513485908508,-0.3969096839427948,-0.45585817098617554,0.14508049190044403,-54.019290924072266,-24.84653663635254,-46.22917175292969
1.09,8.665606498718262,3.9601213932037354,0.6161518096923828,-0.37888914346694946,-0.46593746542930603,0.17669276893138885,-54.867000579833984,-25.182693481445312,-47.00379943847656
1.103,8.4562349319458,3.895514965057373,0.8338987231254578,-0.350789338350296,-0.43249258399009705,0.21899518370628357,-54.267757415771484,-25.270387649536133,-46.38994216918945
1.11,8.13679313659668,3.8979079723358154,1.1294121742248535,-0.3145955801010132,-0.38667771220207214,0.23289236426353455,-54.53084182739258,-24.802688598632812,-46.43379211425781
1.12,8.067400932312012,3.7316067218780518,1.3830513954162598,-0.28756481409072876,-0.23594669997692108,0.2503020465373993,-54.18006134033203,-24.583454132080078,-46.550716400146484
1.13,8.029115676879883,3.69930362701416,1.2526426315307617,-0.25473082065582275,-0.10461067408323288,0.293826162815094,-54.9400749206543,-24.96346092224121,-46.63841247558594
1.14,7.849654674530029,3.8081772327423096,1.0767701864242554,-0.2076941728591919,0.10430524498224258,0.3358231484889984,-54.85238265991211,-24.56884002685547,-46.15609359741211
1.15,8.183452606201172,3.7220354080200195,1.0516455173492432,-0.17440202832221985,0.26939156651496887,0.35964691638946533,-55.52470016479492,-24.39345359802246,-47.07687759399414
1.163,8.840283393859863,3.3236305713653564,1.1186444759368896,-0.16814064979553223,0.39324450492858887,0.39248090982437134,-54.954689025878906,-24.261911392211914,-47.44226837158203
1.17,9.06879711151123,3.211167812347412,1.0600204467773438,-0.18051066994667053,0.40225476026535034,0.41263946890830994,-55.11546325683594,-24.86115074157715,-47.39842224121094
1.18,8.95992374420166,3.342773199081421,0.906879723072052,-0.19349156320095062,0.34773504734039307,0.4251622259616852,-55.11546325683594,-24.042678833007812,-47.661502838134766
1.19,8.871389389038086,3.387040376663208,0.8841480016708374,-0.21059578657150269,0.2868012487888336,0.4056145250797272,-56.13855743408203,-24.174217224121094,-47.71996307373047
1.2,9.030512809753418,3.2267210483551025,0.8470591902732849,-0.2399173229932785,0.21914789080619812,0.3952298164367676,-55.817012786865234,-23.984214782714844,-47.19380569458008
1.22,9.146564483642578,3.078366279602051,0.8590232729911804,-0.270766019821167,0.14065171778202057,0.40286561846733093,-55.787784576416016,-24.21806526184082,-48.24612808227539
1.223,9.10827922821045,3.0269205570220947,0.9212366938591003,-0.32528576254844666,0.047800205647945404,0.4245513379573822,-55.802398681640625,-24.276527404785156,-47.9391975402832
1.23,9.232706069946289,2.8450660705566406,1.031306505203247,-0.35033121705055237,0.0004581489192787558,0.4495968222618103,-56.27009963989258,-24.13037109375,-48.845367431640625
1.24,8.995816230773926,2.744567632675171,1.1509475708007812,-0.3830125033855438,-0.0731511116027832,0.4963279962539673,-56.927799224853516,-23.268049240112305,-47.924583435058594
1.25,8.622536659240723,2.8378875255584717,1.2418749332427979,-0.3949243724346161,-0.09315694868564606,0.5441282391548157,-56.620872497558594,-23.516515731811523,-49.07921600341797
1.26,8.47896671295166,2.847459077835083,1.2035897970199585,-0.385303258895874,-0.0074830991216003895,0.5648975968360901,-56.78164291381836,-23.253435134887695,-48.74305725097656
1.279,8.577072143554688,2.6763720512390137,1.2035897970199585,-0.38026362657546997,0.030695976689457893,0.597426176071167,-57.322418212890625,-23.22420310974121,-49.44460678100586
1.283,8.342576026916504,2.819941520690918,1.153340458869934,-0.39736783504486084,0.07483098655939102,0.6322454810142517,-57.337032318115234,-23.063430786132812,-49.6784553527832
1.29,8.396413803100586,2.830709218978882,1.155733346939087,-0.3880521357059479,0.07437284290790558,0.6360633969306946,-57.760887145996094,-22.624963760375977,-49.54691696166992
1.3,8.438288688659668,2.5746772289276123,1.2131609916687012,-0.4001167118549347,0.058490343391895294,0.6904304623603821,-57.35165023803711,-22.157264709472656,-49.853843688964844
1.31,8.562715530395508,2.149951219558716,1.195214867591858,-0.4502076804637909,0.009926560334861279,0.797179102897644,-57.89242935180664,-22.610347747802734,-49.41537857055664
1.32,8.157132148742676,2.4191436767578125,1.2658032178878784,-0.4996877610683441,-0.07681629806756973,0.8533787131309509,-58.46243667602539,-22.054954528808594,-49.6784553527832
1.34,8.574679374694824,1.6426726579666138,1.3052847385406494,-0.5508477091789246,0.01114829070866108,0.8455901741981506,-58.6962890625,-22.025724411010742,-50.2776985168457
1.343,9.275776863098145,1.1653046607971191,0.7645068168640137,-0.6366742849349976,-0.09865473955869675,0.9579893946647644,-59.13475799560547,-21.26571273803711,-50.21923065185547
1.35,9.151350021362305,1.2059825658798218,0.7668996453285217,-0.6808093190193176,-0.2151772677898407,0.9660834074020386,-59.71937942504883,-21.674949645996094,-50.555397033691406
1.36,8.882157325744629,1.3519446849822998,0.5958127975463867,-0.7712173461914062,-0.4108068645000458,0.9798278212547302,-59.38322067260742,-20.724933624267578,-50.67231750488281
1.37,8.358129501342773,1.5182459354400635,0.7310072779655457,-0.8242099285125732,-0.5879577994346619,0.9900597929954529,-60.3770866394043,-20.37415885925293,-50.555397033691406
1.38,7.7802629470825195,1.3758729696273804,0.6640082597732544,-0.861930787563324,-0.6429356932640076,1.0726792812347412,-59.880149841308594,-19.0733699798584,-49.766151428222656
1.39,7.624728679656982,0.9882357120513916,0.7345964908599854,-0.8752171993255615,-0.5448917746543884,1.157131552696228,-60.50862121582031,-19.380298614501953,-50.70154571533203
1.403,8.400003433227539,-0.27278175950050354,1.00259268283844,-0.9126327037811279,-0.379652738571167,1.2961033582687378,-61.10786056518555,-19.044137954711914,-50.29231262207031
1.41,8.519644737243652,-0.45942193269729614,0.9559326767921448,-0.9297369122505188,-0.32849279046058655,1.3687962293624878,-61.736331939697266,-18.868751525878906,-50.40924072265625
1.42,8.583054542541504,-0.29790639877319336,0.9427720904350281,-0.9355401396751404,-0.2929098606109619,1.4185817241668701,-61.736331939697266,-17.933351516723633,-51.25694274902344
1.43,8.39282512664795,-0.1543370485305786,0.8327022790908813,-0.9104946255683899,-0.21532998979091644,1.4831808805465698,-62.554805755615234,-17.61180877685547,-51.85618591308594
1.44,8.35453987121582,-0.2907279431819916,0.7776673436164856,-0.8791877627372742,-0.0354301817715168,1.5679383277893066,-62.89096450805664,-16.515640258789062,-51.593101501464844
1.46,8.898907661437988,-0.6484549045562744,0.6604190468788147,-0.8568911552429199,0.08643742650747299,1.6907222270965576,-63.41712951660156,-15.960245132446289,-52.85004425048828
1.463,8.987441062927246,-0.7334001660346985,0.47138604521751404,-0.8613199591636658,0.10048733651638031,1.8212946653366089,-64.2940673828125,-14.980999946594238,-52.733116149902344
1.47,8.988637924194336,-0.9152546525001526,0.397208571434021,-0.8668177723884583,0.0959058403968811,1.8781051635742188,-64.7179183959961,-14.381760597229004,-51.7392578125
1.48,9.321240425109863,-1.3148560523986816,0.468993216753006,-0.896291971206665,0.03894266113638878,1.933541178703308,-65.21485137939453,-13.534053802490234,-53.142356872558594
1.49,9.564111709594727,-1.7264214754104614,0.5084748268127441,-0.9240863919258118,-0.0036651913542300463,2.01814603805542,-65.88716125488281,-12.964046478271484,-52.67465591430664
1.5,9.8931245803833,-2.3162522315979004,0.9272187352180481,-0.9321803450584412,-0.04963279888033867,2.099696397781372,-66.34024810791016,-11.838644027709961,-52.36772918701172
1.52,10.183852195739746,-2.825923442840576,0.9619146585464478,-0.9384416937828064,-0.12461650371551514,2.1349740028381348,-66.66179656982422,-11.064016342163086,-52.57234573364258
1.523,10.189834594726562,-2.5160529613494873,0.5934200286865234,-0.9207265973091125,-0.2252565622329712,2.137875556945801,-67.10026550292969,-9.295527458190918,-52.77696990966797
1.53,10.25802993774414,-2.3545374870300293,0.49531427025794983,-0.9004153609275818,-0.29245173931121826,2.135584831237793,-67.52411651611328,-9.26629638671875,-53.244667053222656
1.54,10.346565246582031,-2.3330020904541016,0.21774685382843018,-0.8810203671455383,-0.3709478974342346,2.160477638244629,-67.78719329833984,-8.140894889831543,-53.2008171081543
1.55,10.427921295166016,-2.2887346744537354,0.009571290574967861,-0.8465065360069275,-0.4625777006149292,2.2035436630249023,-68.06489562988281,-6.913183689117432,-52.63081359863281
1.56,10.340582847595215,-2.3569302558898926,0.1052841916680336,-0.8515461683273315,-0.6000223755836487,2.272571563720703,-68.7518310546875,-5.656240940093994,-52.20695877075195
1.58,10.045068740844727,-2.7050859928131104,0.2584248483181,-0.8523097634315491,-0.6487388610839844,2.358703374862671,-69.02952575683594,-4.662379264831543,-53.05466079711914
1.584,9.300901412963867,-2.7218358516693115,0.1782652735710144,-0.8727736473083496,-0.6272058486938477,2.442391872406006,-69.30722045898438,-3.5223617553710938,-51.373870849609375
1.59,9.323633193969727,-2.7553350925445557,0.1459621787071228,-0.8633052706718445,-0.5917757153511047,2.4497222900390625,-69.76030731201172,-2.3092663288116455,-51.25694274902344
1.6,9.523433685302734,-2.746960163116455,0.12801600992679596,-0.85368412733078,-0.5306891798973083,2.487443208694458,-70.2280044555664,-1.1107863187789917,-51.11078643798828
1.61,9.471988677978516,-2.6392831802368164,0.15194423496723175,-0.8298604488372803,-0.4671592116355896,2.525927782058716,-70.30107879638672,0.14615610241889954,-50.29231262207031
1.62,9.29491901397705,-2.4155545234680176,0.17228323221206665,-0.819322943687439,-0.42241328954696655,2.5468499660491943,-70.63723754882812,1.1400175094604492,-50.555397033691406
1.64,9.183652877807617,-2.1415762901306152,0.13519448041915894,-0.8124507665634155,-0.3675881624221802,2.55448579788208,-70.94416809082031,2.791581392288208,-50.83308792114258
1.644,8.97787094116211,-1.86520516872406,0.20817556977272034,-0.7426593899726868,-0.2612975835800171,2.568077325820923,-71.0318603515625,3.9900612831115723,-50.68693161010742
1.65,9.116654396057129,-1.8161523342132568,0.24167509377002716,-0.7192938327789307,-0.2255619913339615,2.568077325820923,-71.09032440185547,5.305466175079346,-50.39461898803711
1.66,9.428916931152344,-1.9968103170394897,0.47018963098526,-0.6633996367454529,-0.11056660860776901,2.5647175312042236,-70.9880142211914,6.167787551879883,-50.73078155517578
1.67,10.229315757751465,-2.480160713195801,0.41156551241874695,-0.6186537742614746,-0.06658431142568588,2.5505149364471436,-71.66033172607422,7.220110893249512,-50.43846893310547
1.68,10.336993217468262,-2.2959132194519043,0.5982056260108948,-0.5849034786224365,-0.13148874044418335,2.510045289993286,-71.45571899414062,8.52090072631836,-49.38614273071289
1.7,9.650253295898438,-1.6977075338363647,0.6329016089439392,-0.5316054821014404,-0.1696678102016449,2.4382686614990234,-71.48494720458984,9.485530853271484,-49.86845779418945
1.704,9.126225471496582,-1.1892328262329102,0.5216353535652161,-0.45204025506973267,-0.1485929638147354,2.3014347553253174,-71.11955261230469,11.137094497680664,-49.44460678100586
1.71,9.011369705200195,-0.9822536706924438,0.3924228847026825,-0.4060726761817932,-0.15653420984745026,2.2464568614959717,-71.33879089355469,11.648640632629395,-48.88921356201172
1.72,8.647661209106445,-0.5216353535652161,0.24287149310112,-0.33460143208503723,-0.17363843321800232,2.1766655445098877,-70.94416809082031,13.080970764160156,-49.020755767822266
1.73,8.717052459716797,-0.8135596513748169,0.5144568085670471,-0.2929098606109619,-0.12278390675783157,2.085799217224121,-70.91493225097656,14.060215950012207,-49.166908264160156
1.74,8.894121170043945,-1.046859860420227,0.4450649917125702,-0.24358251690864563,-0.04566217586398125,1.977981686592102,-71.06109619140625,14.571762084960938,-48.90382766723633
1.76,9.018548011779785,-1.0061818361282349,0.7668996453285217,-0.18891006708145142,-0.025045473128557205,1.8173240423202515,-70.84185791015625,15.624086380004883,-48.30459213256836
1.764,9.09152889251709,-0.48574298620224,1.3208380937576294,-0.13011428713798523,-0.0022907445672899485,1.5456416606903076,-70.06723022460938,16.413330078125,-48.669979095458984
1.77,9.523433685302734,-0.20099709928035736,1.5361920595169067,-0.13545936346054077,0.005192354787141085,1.409724235534668,-70.14030456542969,17.59719467163086,-48.1584358215332
1.78,10.182656288146973,-0.1543370485305786,1.820937991142273,-0.11041389405727386,0.052228979766368866,1.2701416015625,-70.28646850585938,17.52411651611328,-48.99152374267578
1.79,10.950752258300781,-0.29431718587875366,1.9489539861679077,-0.06154467165470123,0.10720684379339218,1.1468994617462158,-70.52031707763672,18.459514617919922,-48.406898498535156
1.8,11.563315391540527,-0.4977070689201355,2.258824348449707,-0.0006108652451075613,0.15012012422084808,1.0254899263381958,-69.84799194335938,18.795673370361328,-48.87459945678711
1.82,12.423534393310547,-0.6257230639457703,2.403590202331543,0.10231993347406387,0.3211624026298523,0.8287914395332336,-70.11107635498047,19.570301055908203,-49.10844802856445
1.823,14.46341609954834,-1.550549030303955,2.575873613357544,0.2226603776216507,0.39416077733039856,0.5821545720100403,-69.59953308105469,19.409530639648438,-49.10844802856445
1.83,15.004194259643555,-1.9860427379608154,3.0759735107421875,0.2623666226863861,0.3514002561569214,0.4144720435142517,-69.74568939208984,19.657995223999023,-49.51768493652344
1.84,15.741183280944824,-2.386840581893921,3.88594388961792,0.28649580478668213,0.2701551616191864,0.11514809727668762,-69.97953796386719,20.038002014160156,-49.73691940307617
1.85,15.946966171264648,-2.667997121810913,4.3046875,0.32650747895240784,0.21624629199504852,-0.15241087973117828,-69.77491760253906,20.169540405273438,-50.350772857666016
1.86,16.16710662841797,-2.891726016998291,4.34536600112915,0.4205807149410248,0.30772337317466736,-0.5580253601074219,-69.78953552246094,20.30108070373535,-50.42385482788086
1.88,16.827524185180664,-2.7110679149627686,4.121636867523193,0.5597052574157715,0.3888157308101654,-0.8796459436416626,-69.6287612915039,19.950305938720703,-49.98538589477539
1.883,18.083757400512695,-2.39401912689209,3.9397823810577393,0.7322747111320496,0.4450153112411499,-1.1669052839279175,-70.38877868652344,18.89798355102539,-50.40924072265625
1.89,18.70349884033203,-2.5220348834991455,3.7950165271759033,0.84574294090271,0.3937026560306549,-1.3055716753005981,-70.44723510742188,19.08798599243164,-50.365386962890625
1.9,19.284954071044922,-3.046063184738159,4.070191383361816,0.9699012637138367,0.279928982257843,-1.5097534656524658,-70.43262481689453,18.035661697387695,-50.979244232177734
1.91,19.386648178100586,-3.4875388145446777,4.012763500213623,1.081842303276062,0.10461067408323288,-1.708590030670166,-70.78339385986328,17.275650024414062,-51.344635009765625
1.92,18.890138626098633,-3.806980848312378,3.623929738998413,1.2692252397537231,-0.04566217586398125,-2.1227567195892334,-70.62261962890625,16.442562103271484,-51.4177131652832
1.94,18.30270004272461,-3.836890935897827,3.5916268825531006,1.3588696718215942,-0.23289236426353455,-2.3846652507781982,-70.87109375,14.674072265625,-51.75387191772461
1.944,17.34078598022461,-3.805784225463867,3.339184045791626,1.5221234560012817,-0.23579397797584534,-2.6141977310180664,-71.64572143554688,13.709442138671875,-51.476173400878906
1.95,17.3934268951416,-4.153940200805664,3.483949661254883,1.6186401844024658,-0.2710714340209961,-2.7762298583984375,-71.14878845214844,13.285589218139648,-51.84156799316406
1.96,17.138591766357422,-4.398007869720459,3.335594892501831,1.7092009782791138,-0.3781256079673767,-2.9436068534851074,-71.25109100341797,11.677871704101562,-51.81233215332031
1.97,16.42194175720215,-4.409972190856934,3.1764719486236572,1.8107572793960571,-0.46563202142715454,-3.1508429050445557,-71.54341125488281,10.698626518249512,-52.8792724609375
1.98,16.524831771850586,-4.604987144470215,2.849851608276367,1.8683313131332397,-0.5400048494338989,-3.311347723007202,-71.2949447631836,8.79859733581543,-51.43233108520508
2.0,16.498512268066406,-4.820341110229492,2.6021945476531982,1.887420892715454,-0.7000515460968018,-3.3987014293670654,-71.0757064819336,7.190880298614502,-51.695411682128906
2.004,15.853646278381348,-5.154139518737793,2.4095723628997803,1.8443548679351807,-1.020603060722351,-3.4432947635650635,-71.19263458251953,4.998538494110107,-51.44694519042969
2.01,15.494722366333008,-5.221138954162598,2.328216314315796,1.8162550926208496,-1.102917194366455,-3.427717685699463,-71.33879089355469,3.9023678302764893,-51.783103942871094
2.02,14.270793914794922,-5.344368934631348,2.344965934753418,1.7270687818527222,-1.288467526435852,-3.349679470062256,-69.92107391357422,2.1777257919311523,-51.213096618652344
2.03,12.5204439163208,-5.411368370056152,2.3473589420318604,1.649794340133667,-1.3544409275054932,-3.277444839477539,-70.3156967163086,1.0230926275253296,-50.979244232177734
2.04,11.416156768798828,-5.381457805633545,2.0997018814086914,1.560913324356079,-1.341460108757019,-3.16550350189209,-69.65798950195312,-0.5261619687080383,-49.82461166381836
2.06,10.353742599487305,-5.426921844482422,1.8149559497833252,1.4593570232391357,-1.3439035415649414,-3.012481689453125,-68.32797241210938,-3.2300498485565186,-48.27535629272461
2.063,8.670392990112305,-5.594419002532959,1.451246976852417,1.2565498352050781,-1.3348932266235352,-2.7307205200195312,-68.35720825195312,-3.624671220779419,-47.5591926574707
2.07,7.743173599243164,-5.72722053527832,0.9320043921470642,1.1472049951553345,-1.3125966787338257,-2.590526819229126,-68.4887466430664,-4.662379264831543,-47.909969329833984
2.08,6.3146586418151855,-5.575276851654053,0.003589233849197626,0.9865473508834839,-1.2516628503799438,-2.403754711151123,-67.8164291381836,-5.24700403213501,-48.1584358215332
2.09,5.044069766998291,-5.30129861831665,-0.2679961323738098,0.831234872341156,-1.250899314880371,-2.2098050117492676,-67.36334228515625,-6.007015228271484,-47.13534164428711
2.1,3.3583264350891113,-5.063212871551514,-0.43549370765686035,0.6739370822906494,-1.204931616783142,-2.007150411605835,-66.42794799804688,-6.635486125946045,-46.24378967285156
2.119,1.6031910181045532,-4.768895149230957,-0.6771687865257263,0.5361869931221008,-1.1082621812820435,-1.8139643669128418,-65.56562042236328,-8.170125961303711,-46.15609359741211
2.123,-0.2967100143432617,-4.5391845703125,-0.656829833984375,0.3594941794872284,-0.8819366693496704,-1.5236506462097168,-65.3902359008789,-8.213972091674805,-45.62993240356445
2.13,-1.293320655822754,-4.794020175933838,-0.42711883783340454,0.26801711320877075,-0.7965682744979858,-1.3790282011032104,-65.36100769042969,-8.637825012207031,-45.235313415527344
2.14,-1.836491346359253,-5.267798900604248,-0.3960121273994446,0.1010981947183609,-0.8132143616676331,-1.2038626670837402,-64.68869018554688,-9.427068710327148,-44.70914840698242
2.15,-2.3916261196136475,-5.429314136505127,-0.6089733242988586,-0.09407324343919754,-0.9967793822288513,-1.0708467960357666,-64.92253875732422,-9.485530853271484,-44.76761245727539
2.16,-3.156132936477661,-5.294119834899902,-0.8099704384803772,-0.25503623485565186,-1.2021827697753906,-0.959669291973114,-64.20637512207031,-10.157849311828613,-44.85530471801758
2.18,-3.686143398284912,-5.361118793487549,-1.1892328262329102,-0.39217546582221985,-1.3168727159500122,-0.7473936080932617,-63.680206298828125,-10.713241577148438,-43.58374786376953
2.184,-3.88594388961792,-5.254638671875,-1.6271193027496338,-0.4124867618083954,-1.3300063610076904,-0.34574970602989197,-63.81174850463867,-10.96170711517334,-44.46068572998047
2.19,-4.082155227661133,-5.091926097869873,-1.452443242073059,-0.3888157308101654,-1.3006848096847534,-0.039706241339445114,-63.54867172241211,-11.268634796142578,-43.422977447509766
2.2,-4.036691665649414,-5.31685209274292,-0.5132604241371155,-0.3640756905078888,-1.114981770515442,0.37491855025291443,-63.82636260986328,-10.347851753234863,-44.22683334350586
2.21,-3.8285160064697266,-6.041877269744873,-0.008374879136681557,-0.3773620128631592,-0.8874344229698181,0.7617489695549011,-63.75328826904297,-10.567085266113281,-42.896812438964844
2.22,-3.212364435195923,-6.748956203460693,-0.3230310380458832,-0.44287729263305664,-0.5390886068344116,1.1117746829986572,-63.56328582763672,-9.748611450195312,-42.37065124511719
2.239,-1.7216358184814453,-6.829115867614746,-1.015753149986267,-0.37950003147125244,0.5618432760238647,1.7501288652420044,-64.64484405517578,-9.120140075683594,-43.67144012451172
2.243,3.187239646911621,-8.46461009979248,-1.6187443733215332,-0.3900374472141266,0.8211556077003479,1.906663179397583,-64.98100280761719,-8.769365310668945,-44.10990905761719
2.25,6.272784233093262,-9.588040351867676,-1.794616937637329,-0.4297436773777008,1.0832167863845825,2.1430678367614746,-66.01870727539062,-7.9947381019592285,-44.65068435668945
2.26,9.65384292602539,-11.272586822509766,-0.8949156999588013,-0.5595525503158569,1.0965031385421753,2.4278838634490967,-66.06256103515625,-6.8985676765441895,-44.84069061279297
2.27,11.644671440124512,-12.234501838684082,-0.38285163044929504,-0.8196284174919128,0.8570439219474792,2.5813636779785156,-66.69102478027344,-5.860859394073486,-45.8199348449707
2.28,13.0432767868042,-12.312268257141113,-0.5647060871124268,-1.1175779104232788,0.5082398653030396,2.577240228652954,-67.20257568359375,-4.852382659912109,-46.44840621948242
2.3,15.251851081848145,-11.94497013092041,-0.5168496966362,-1.2695306539535522,0.2968805134296417,2.481792688369751,-68.91259765625,-3.0546624660491943,-46.521484375
2.304,17.257036209106445,-10.979466438293457,-0.3613162338733673,-1.3854422569274902,0.12919799983501434,2.5699100494384766,-68.8687515258789,-2.5431160926818848,-46.916107177734375
2.31,17.921043395996094,-9.895517349243164,-0.5479563474655151,-1.3932307958602905,0.012522736564278603,2.6145031452178955,-69.4679946899414,-2.4408068656921387,-47.04764938354492
2.32,17.948562622070312,-8.920442581176758,-0.47138604521751404,-1.3981177806854248,-0.16890422999858856,2.6565003395080566,-69.02952575683594,-0.745396077632904,-45.84916687011719
2.33,18.283557891845703,-8.179863929748535,-1.5194423198699951,-1.3929253816604614,-0.299476683139801,2.660776138305664,-69.97953796386719,0.1900029182434082,-45.995323181152344
2.34,18.79203224182129,-8.206185340881348,-2.170289993286133,-1.362687587738037,-0.32391127943992615,2.677727699279785,-69.71646118164062,1.3154048919677734,-46.316864013671875
2.36,19.205989837646484,-8.520841598510742,-2.1296122074127197,-1.4110987186431885,-0.41431936621665955,2.6836836338043213,-70.2280044555664,3.683133363723755,-45.35223388671875
2.363,19.209579467773438,-8.216952323913574,-2.3150558471679688,-1.531133770942688,-0.5800164937973022,2.691777467727661,-70.19877624511719,4.06313943862915,-45.03069305419922
2.37,18.699907302856445,-7.551748275756836,-2.3952155113220215,-1.6125315427780151,-0.6753115057945251,2.718961238861084,-70.46185302734375,4.969306945800781,-44.89915466308594
2.38,17.93899154663086,-6.795616149902344,-2.4011974334716797,-1.6684256792068481,-0.6125450730323792,2.764012575149536,-70.44723510742188,6.357789993286133,-44.051448822021484
2.39,17.85883140563965,-6.441478729248047,-2.135594129562378,-1.6603316068649292,-0.47800207138061523,2.8286116123199463,-70.62261962890625,7.307804584503174,-44.22683334350586
2.4,17.687744140625,-5.772684574127197,-1.9884356260299683,-1.6352862119674683,-0.35292738676071167,2.931694984436035,-70.6080093383789,8.330897331237793,-43.02835464477539
2.419,17.386249542236328,-4.683949947357178,-1.502692461013794,-1.4790574312210083,-0.14156801998615265,3.0338621139526367,-70.46185302734375,10.859397888183594,-42.9406623840332
2.423,17.24387550354004,-3.379861831665039,-1.0839486122131348,-1.4355332851409912,-0.11392636597156525,3.01538348197937,-70.43262481689453,11.254019737243652,-41.97603225708008
2.43,17.29891014099121,-2.6392831802368164,-0.7357929348945618,-1.3755158185958862,-0.13209959864616394,2.950784683227539,-70.30107879638672,12.116340637207031,-42.823734283447266
2.44,17.46999740600586,-1.4344971179962158,0.17587246000766754,-1.318858027458191,-0.2675589621067047,2.830138683319092,-70.11107635498047,13.811750411987305,-42.633731842041016
2.45,17.087146759033203,-0.2392822504043579,0.8446664214134216,-1.2516628503799438,-0.483957976102829,2.7096455097198486,-70.02338409423828,14.893306732177734,-42.239112854003906
2.46,16.11326789855957,0.9690931439399719,1.2095718383789062,-1.1632400751113892,-0.684779942035675,2.559372663497925,-69.5556869506836,15.887167930603027,-42.3414192199707
2.481,14.627324104309082,2.3234305381774902,0.8434699773788452,-1.052215337753296,-0.8510879278182983,2.406045436859131,-69.40953063964844,18.035661697387695,-41.946800231933594
2.485,11.743972778320312,4.035495281219482,0.867398202419281,-0.8759807348251343,-0.8784242272377014,2.1539108753204346,-69.74568939208984,18.70798110961914,-40.80678176879883
2.49,10.549954414367676,4.645665168762207,0.9631110429763794,-0.7779368162155151,-0.8113817572593689,1.988824486732483,-69.23414611816406,19.27798843383789,-40.41215896606445
2.5,9.23031234741211,5.173282623291016,0.9559326767921448,-0.6719517707824707,-0.6356052756309509,1.7609716653823853,-68.78105926513672,19.62876319885254,-40.689857482910156
2.51,8.137989044189453,5.699703216552734,0.8949156999588013,-0.5623013973236084,-0.4531092941761017,1.542587399482727,-68.41566467285156,20.213388442993164,-39.8421516418457
2.52,6.972684860229492,6.149554252624512,1.1042876243591309,-0.43417245149612427,-0.2252565622329712,1.33168625831604,-68.72259521484375,21.00263023376465,-39.98830795288086
2.539,5.753541946411133,6.794419765472412,0.9343971610069275,-0.1843285858631134,0.26053401827812195,0.8481863737106323,-68.13796997070312,21.631101608276367,-39.929847717285156
2.543,4.232903003692627,8.158329010009766,0.7094718813896179,-0.07925976812839508,0.37079522013664246,0.7498371005058289,-68.34259033203125,22.084184646606445,-40.149078369140625
2.55,3.207578659057617,8.38444995880127,0.592223584651947,0.006108652334660292,0.5540547966957092,0.55069500207901,-68.06489562988281,22.434959411621094,-40.47062301635742
2.56,2.967099905014038,8.295915603637695,0.9200402498245239,0.058184914290905,0.7648032903671265,0.25305092334747314,-68.18181610107422,22.610347747802734,-40.73370361328125
2.57,3.4576287269592285,8.037490844726562,1.0145567655563354,0.09208793193101883,0.8454374670982361,-0.009621127508580685,-68.2695083618164,23.472667694091797,-41.3037109375
2.58,3.765106201171875,7.658228397369385,0.7860422134399414,0.09972374886274338,0.859029233455658,-0.20784689486026764,-68.18181610107422,22.508039474487305,-42.253726959228516
2.6,4.29750919342041,7.4979095458984375,0.5228317379951477,0.16539175808429718,0.8200865387916565,-0.4153883457183838,-68.44490051269531,22.639577865600586,-43.466819763183594
2.604,4.91126823425293,5.97727108001709,1.1569297313690186,0.28939738869667053,0.8465065360069275,-0.6293439269065857,-69.02952575683594,22.405729293823242,-43.978370666503906
2.61,5.065605640411377,5.525027275085449,0.7250252366065979,0.2877175211906433,0.7502952218055725,-0.7334964275360107,-69.2926025390625,22.624963760375977,-44.59222412109375
2.62,4.863411903381348,5.552545070648193,0.6257230639457703,0.3982841372489929,0.7011205554008484,-0.9691376686096191,-68.81028747558594,21.938030242919922,-45.35223388671875
2.63,5.140979290008545,5.071587562561035,-0.04307080805301666,0.5826126933097839,0.9257662296295166,-1.2260066270828247,-69.68722534179688,21.601871490478516,-45.162235260009766
2.64,7.357929229736328,4.113262176513672,0.22492532432079315,0.8480336666107178,1.2748757600784302,-1.5499178171157837,-69.48260498046875,21.309558868408203,-45.498390197753906
2.66,11.434102058410645,2.4191436767578125,0.8123632073402405,1.0236574411392212,1.3368786573410034,-1.7737998962402344,-69.891845703125,19.964923858642578,-47.8807373046875
2.663,16.23410415649414,-0.07178467512130737,1.2251251935958862,1.112691044807434,1.1635456085205078,-2.0066921710968018,-69.87722778320312,19.55568504333496,-47.69073486328125
2.67,18.97269058227539,-2.043470621109009,1.3471590280532837,1.1187996864318848,1.0065531730651855,-2.072054862976074,-70.30107879638672,19.36568260192871,-48.406898498535156
2.68,22.063020706176758,-4.5475592613220215,1.4404791593551636,1.1137601137161255,0.6798930168151855,-2.1351265907287598,-70.08184814453125,18.09412384033203,-48.479976654052734
2.69,23.31446647644043,-6.546762466430664,1.4021941423416138,1.1133018732070923,0.2845104932785034,-2.241722822189331,-70.41800689697266,17.465654373168945,-49.239986419677734
2.7,22.829919815063477,-10.278369903564453,0.8243273496627808,1.2403618097305298,0.20143280923366547,-2.4643828868865967,-70.3156967163086,16.15024757385254,-49.88307571411133
2.72,25.396223068237305,-10.338190078735352,1.439282774925232,1.415374755859375,0.1420261561870575,-3.7365097999572754,-71.25109100341797,13.197896003723145,-50.774627685546875
2.723,27.497119903564453,-11.169695854187012,1.7036895751953125,1.4301881790161133,0.04612032324075699,-3.835470199584961,-71.14878845214844,12.408652305603027,-50.61385726928711
2.73,26.895326614379883,-10.814361572265625,1.0301101207733154,1.3854422569274902,-0.3721696436405182,-3.925420045852661,-71.47032928466797,11.663256645202637,-51.169246673583984
2.74,23.25823402404785,-10.322635650634766,0.49172505736351013,1.3771957159042358,-0.6829473376274109,-3.961308240890503,-71.77725982666016,9.295527458190918,-50.760013580322266
2.75,21.177675247192383,-10.284351348876953,0.04546362906694412,1.3993394374847412,-0.808174729347229,-4.111123085021973,-72.24495697021484,7.921660900115967,-50.89155578613281
2.76,20.049461364746094,-9.842875480651855,0.04905286058783531,1.4312572479248047,-0.8904888033866882,-4.127158164978027,-71.66033172607422,5.817012310028076,-50.964630126953125
2.78,18.356538772583008,-9.292526245117188,-0.29431718587875366,1.4819591045379639,-0.8280278444290161,-4.101349353790283,-71.66033172607422,1.943876028060913,-51.213096618652344
2.783,16.37049674987793,-7.877171516418457,-1.1222338676452637,1.6313155889511108,-0.622624397277832,-4.034001350402832,-71.19263458251953,1.1546331644058228,-50.84770202636719
2.79,15.304492950439453,-7.050451278686523,-1.168893814086914,1.7457001209259033,-0.4812090992927551,-4.0017781257629395,-71.17801666259766,-0.5115463137626648,-50.0
2.8,14.10568904876709,-6.22373104095459,-1.490728497505188,1.8729127645492554,-0.28649580478668213,-3.961308240890503,-70.15492248535156,-2.4700381755828857,-50.29231262207031
2.81,14.36889934539795,-6.391229152679443,-1.1389836072921753,1.9908097982406616,-0.12828169763088226,-3.8759398460388184,-70.2718505859375,-4.399298667907715,-50.365386962890625
2.82,14.662019729614258,-6.942774772644043,-1.0193424224853516,2.0002782344818115,-0.16829337179660797,-3.6954290866851807,-70.37416076660156,-6.182402610778809,-50.365386962890625
2.84,13.591232299804688,-6.723831653594971,-0.8087739944458008,1.797623634338379,-0.5874996781349182,-3.2820262908935547,-68.41566467285156,-9.207834243774414,-49.44460678100586
2.843,11.119446754455566,-5.497509956359863,-0.9104689955711365,1.737606167793274,-0.6777549982070923,-3.1925344467163086,-68.16720581054688,-9.573224067687988,-49.020755767822266
2.85,9.919445991516113,-4.930410861968994,-0.94037926197052,1.6643023490905762,-0.7814493775367737,-3.05967116355896,-68.28413391113281,-10.786319732666016,-48.39228439331055
2.86,8.556733131408691,-4.616950988769531,-0.6783652305603027,1.5711452960968018,-0.8972083330154419,-2.872593641281128,-66.85179901123047,-11.867875099182129,-47.95381546020508
2.87,7.271787643432617,-4.590630054473877,-0.4259223937988281,1.4590517282485962,-0.9902125597000122,-2.671618938446045,-66.194091796875,-13.110200881958008,-47.51534652709961
2.88,5.988038063049316,-4.506881237030029,-0.468993216753006,1.3464996814727783,-1.0684032440185547,-2.468353748321533,-65.12715911865234,-14.220989227294922,-46.740718841552734
2.899,4.524827480316162,-4.170689582824707,-0.6747759580612183,1.1045970916748047,-1.1305588483810425,-2.041206121444702,-64.68869018554688,-15.52177619934082,-45.68839645385742
2.903,2.26959228515625,-4.028316974639893,-0.5407779216766357,1.0387763977050781,-1.1056660413742065,-1.9475911855697632,-64.20637512207031,-15.79947280883789,-44.89915466308594
2.91,1.2646067142486572,-4.061816215515137,-0.436690092086792,0.935387372970581,-1.051146388053894,-1.8064812421798706,-63.81174850463867,-16.194095611572266,-44.548377990722656
2.92,-0.005982056725770235,-3.9290146827697754,-0.2763710021972656,0.8290968537330627,-0.9097310304641724,-1.6340645551681519,-62.730194091796875,-16.749486923217773,-43.876060485839844
2.93,-1.1461620330810547,-3.9278182983398438,0.010767702013254166,0.7325801253318787,-0.7606799602508545,-1.4827226400375366,-62.67173385620117,-17.407190322875977,-43.3206672668457
2.94,-1.8939191102981567,-4.027120590209961,0.38285163044929504,0.6256787180900574,-0.6056728959083557,-1.361160397529602,-62.39403533935547,-17.81642723083496,-42.502193450927734
2.959,-2.693121910095215,-4.685146808624268,0.49531427025794983,0.3459024429321289,-0.5022839307785034,-1.150259256362915,-61.82402801513672,-18.956445693969727,-42.58988571166992
2.963,-2.623729705810547,-4.767699241638184,0.45583271980285645,0.2678644061088562,-0.4957171380519867,-1.0853548049926758,-61.48787307739258,-19.234142303466797,-41.55217742919922
2.97,-2.5471596717834473,-4.705485820770264,0.2907279431819916,0.16691893339157104,-0.5177083015441895,-0.9767735004425049,-61.50248718261719,-19.27798843383789,-41.712947845458984
2.98,-2.4598214626312256,-4.5236310958862305,-0.2189432680606842,0.049785517156124115,-0.5357288122177124,-0.7861835360527039,-61.12247848510742,-19.43876075744629,-41.756797790527344
2.99,-2.293520450592041,-4.295116424560547,-0.08853442966938019,-0.04444044828414917,-0.5633704662322998,-0.5546656250953674,-61.239402770996094,-20.169540405273438,-41.449867248535156
3.0,-2.4646072387695312,-4.153940200805664,-0.1495514065027237,-0.13469578325748444,-0.5508477091789246,-0.24923300743103027,-60.64016342163086,-20.169540405273438,-41.53756332397461
3.019,-2.20737886428833,-4.442275047302246,0.3433700203895569,-0.21288654208183289,-0.4512766897678375,0.2716823220252991,-61.10786056518555,-20.125694274902344,-41.873722076416016
3.023,-2.1750757694244385,-4.403989791870117,0.5419743061065674,-0.23105978965759277,-0.45204025506973267,0.3381139039993286,-61.06401824951172,-20.534931182861328,-41.727561950683594
3.03,-2.1882362365722656,-4.346562385559082,0.8279166221618652,-0.284052312374115,-0.4470006227493286,0.5196936130523682,-61.13709259033203,-20.18415641784668,-41.712947845458984
3.04,-1.6618152856826782,-4.247260093688965,0.4019941985607147,-0.4349360466003418,-0.37659841775894165,0.817337691783905,-61.54633331298828,-20.09646224975586,-41.91756820678711
3.05,-0.8159525394439697,-3.4468607902526855,-1.4955140352249146,-0.5933029055595398,-0.0835358202457428,1.2325732707977295,-62.1748046875,-19.599531173706055,-42.38526916503906
3.06,2.7146570682525635,-3.548555612564087,-2.5974087715148926,-0.650418758392334,0.14187344908714294,1.4173600673675537,-62.569419860839844,-19.204912185668945,-43.01374053955078
3.079,8.404788970947266,-5.326422691345215,-3.985246181488037,-0.7476990222930908,0.3474296033382416,2.1148154735565186,-63.81174850463867,-18.137971878051758,-42.79450607299805
3.083,9.674181938171387,-5.924628257751465,-4.088137149810791,-0.7504479885101318,0.35552358627319336,2.2311851978302,-64.52791595458984,-17.87489128112793,-43.379127502441406
3.09,11.12183952331543,-6.795616149902344,-4.0725836753845215,-0.7583891749382019,0.39309176802635193,2.584723472595215,-65.12715911865234,-17.61180877685547,-43.61297607421875
3.1,12.272787094116211,-7.829315185546875,-3.8189449310302734,-0.7615962028503418,0.4660901725292206,3.143512487411499,-66.06256103515625,-16.2525577545166,-44.6799201965332
3.11,12.39721393585205,-8.879764556884766,-3.7184462547302246,-0.7583891749382019,0.5807800889015198,3.4611623287200928,-66.88102722167969,-14.337912559509277,-45.39608383178711
3.12,13.271790504455566,-9.866804122924805,-3.902693510055542,-0.7295258641242981,0.87735515832901,3.63693904876709,-68.06489562988281,-13.358667373657227,-45.4399299621582
3.139,18.241682052612305,-10.937591552734375,-5.179264545440674,-0.6963863968849182,1.2224940061569214,3.877161741256714,-70.34493255615234,-9.82168960571289,-47.456886291503906
3.143,18.844675064086914,-10.908878326416016,-5.240281105041504,-0.7044803500175476,1.1829404830932617,3.911675453186035,-70.94416809082031,-9.54399299621582,-47.237648010253906
3.15,20.46341896057129,-10.761719703674316,-5.496313571929932,-0.7901541590690613,0.9182831645011902,4.046065807342529,-71.3680191040039,-7.965507507324219,-47.41303634643555
3.16,22.542781829833984,-10.823932647705078,-5.565705299377441,-0.9129380583763123,0.5542075037956238,4.162130355834961,-71.76264190673828,-6.138556003570557,-47.909969329833984
3.17,23.27379035949707,-11.210373878479004,-5.021337985992432,-1.0917688608169556,-0.0884227380156517,4.201225757598877,-73.09266662597656,-3.3908214569091797,-47.58842468261719
3.18,22.16351890563965,-11.211569786071777,-5.132604598999023,-1.2719742059707642,-0.7063129544258118,4.250400066375732,-73.76497650146484,-1.6807950735092163,-47.14995574951172
3.2,18.5958194732666,-9.967302322387695,-4.871786594390869,-1.3643674850463867,-0.8665122985839844,4.389066696166992,-75.25577545166016,2.689272165298462,-46.95995330810547
3.204,17.777475357055664,-9.549755096435547,-4.6887359619140625,-1.3512338399887085,-0.7370089292526245,4.428162097930908,-75.1534652709961,4.004676818847656,-46.302249908447266
3.21,16.884952545166016,-9.121438980102539,-4.3788652420043945,-1.3200798034667969,-0.4283692538738251,4.463897705078125,-75.51885223388672,5.52470064163208,-46.302249908447266
3.22,16.41954803466797,-8.151150703430176,-3.7220354080200195,-1.251968264579773,0.016035212203860283,4.499328136444092,-74.90499877929688,7.234726905822754,-45.68839645385742
3.23,15.924234390258789,-7.521838188171387,-2.8390841484069824,-1.2003501653671265,0.4899139106273651,4.565148830413818,-75.73809051513672,9.763227462768555,-45.615318298339844
3.24,15.87757396697998,-6.922435760498047,-2.1882362365722656,-1.1455250978469849,0.973566472530365,4.583322048187256,-75.27039337158203,12.043262481689453,-45.001461029052734
3.259,16.16231918334961,-4.71744966506958,-0.6424728631973267,-1.059393048286438,1.4211779832839966,4.5126142501831055,-75.76731872558594,16.471790313720703,-46.550716400146484
3.263,16.074981689453125,-4.00199556350708,-0.4414757788181305,-1.0387763977050781,1.472796082496643,4.469395637512207,-75.35807800292969,18.06489372253418,-46.53609848022461
3.27,16.015161514282227,-2.940778970718384,-0.2189432680606842,-0.9981537461280823,1.4891366958618164,4.363104820251465,-75.62116241455078,19.27798843383789,-47.354576110839844
3.28,15.972090721130371,-1.86520516872406,0.26440688967704773,-0.9582948088645935,1.378722906112671,4.149454593658447,-74.68576049804688,21.441099166870117,-47.71996307373047
3.29,15.932609558105469,-0.8554341197013855,0.6305087208747864,-0.9749408960342407,1.1062768697738647,3.8788416385650635,-74.71499633789062,23.370359420776367,-47.98304748535156
3.309,15.314064025878906,0.6281159520149231,0.4378865361213684,-0.9731083512306213,0.7354817390441895,3.5854732990264893,-73.83805847167969,24.86115074157715,-48.45074462890625
3.313,13.727622985839844,2.9036900997161865,0.2392822504043579,-0.8663595914840698,0.20173825323581696,3.126102924346924,-73.58959197998047,27.331188201904297,-47.924583435058594
3.32,11.862418174743652,4.778466701507568,0.10767702013254166,-0.7530441284179688,0.0009162978385575116,2.8634307384490967,-73.23882293701172,27.842735290527344,-47.9391975402832
3.33,9.952945709228516,6.307480335235596,0.22731813788414001,-0.584139883518219,-0.19058994948863983,2.4660630226135254,-72.96112060546875,28.851213455200195,-47.734580993652344
3.34,8.161917686462402,7.470392227172852,0.28115665912628174,-0.4415028393268585,-0.3017674386501312,2.038304567337036,-72.18649291992188,30.195850372314453,-47.57380676269531
3.35,6.561119556427002,8.548358917236328,0.3278166949748993,-0.35781431198120117,-0.3246748745441437,1.6291775703430176,-72.11341857910156,30.590471267700195,-46.82841491699219
3.36,5.491527557373047,9.269794464111328,0.760917603969574,-0.30512717366218567,-0.20830504596233368,1.1725558042526245,-71.68956756591797,31.10201644897461,-47.25226593017578
3.379,4.0905303955078125,10.512866020202637,1.432104229927063,-0.24434609711170197,0.23029619455337524,0.665232241153717,-71.66033172607422,32.56357955932617,-46.81379699707031
3.383,3.751945734024048,10.800004959106445,1.8340984582901,-0.2301434725522995,0.32559117674827576,0.5433646440505981,-71.35340881347656,32.432037353515625,-46.346099853515625
3.39,3.10109806060791,10.78564739227295,2.1894326210021973,-0.19379699230194092,0.4584543704986572,0.38576140999794006,-71.98188018798828,32.73896408081055,-47.39842224121094
3.4,2.1164515018463135,10.572686195373535,2.6835503578186035,-0.13057243824005127,0.7689266204833984,0.21609358489513397,-71.52879333496094,32.87050247192383,-46.974571228027344
3.41,2.255235195159912,9.404989242553711,2.2851455211639404,0.035735614597797394,1.225395679473877,0.09560041129589081,-71.83572387695312,32.987430572509766,-47.851505279541016
3.429,4.249652862548828,7.091129779815674,0.6352943778038025,0.23854286968708038,1.8081610202789307,-0.025961771607398987,-72.24495697021484,33.440513610839844,-48.90382766723633
3.433,8.140382766723633,5.797809600830078,0.17706885933876038,0.536797821521759,1.96133553981781,-0.30604347586631775,-72.04033660888672,33.440513610839844,-49.88307571411133
3.44,9.732806205749512,5.364708423614502,0.1172483041882515,0.669355571269989,1.7464637756347656,-0.4824308156967163,-72.4349594116211,32.987430572509766,-50.5992431640625
3.45,10.555936813354492,4.325026512145996,1.8592231273651123,0.8187121152877808,1.2832752466201782,-0.7535022497177124,-72.90266418457031,32.84127426147461,-51.94387435913086
3.46,11.598011016845703,2.3461625576019287,3.1932218074798584,0.8063421249389648,0.5780312418937683,-1.296714186668396,-72.71266174316406,32.9289665222168,-52.937740325927734
3.47,14.632110595703125,-0.5371886491775513,3.8907296657562256,0.7538076639175415,0.11178833991289139,-1.6586518287658691,-73.28266143798828,32.242034912109375,-53.741600036621094
3.48,16.979469299316406,-2.9288148880004883,3.3332018852233887,0.789237916469574,-0.13179416954517365,-1.901318073272705,-74.04267883300781,31.365097045898438,-54.443145751953125
3.497,21.292531967163086,-6.86979341506958,2.768495798110962,0.9193521738052368,-0.19318613409996033,-2.359619617462158,-75.06576538085938,30.00584602355957,-54.50160598754883
3.501,21.818952560424805,-7.3292155265808105,2.472982168197632,1.0178542137145996,-0.09468411654233932,-2.4587326049804688,-75.46039581298828,28.748903274536133,-53.77082824707031
3.51,21.993629455566406,-11.660223960876465,2.0865414142608643,1.3151929378509521,0.18341228365898132,-2.718961238861084,-75.95732116699219,28.354280471801758,-54.72084426879883
3.52,26.037498474121094,-12.54437255859375,2.77447772026062,1.446223497390747,0.44028112292289734,-3.171764850616455,-76.07424926757812,26.191171646118164,-54.662376403808594
3.53,26.4717960357666,-14.379667282104492,3.6299118995666504,1.6030629873275757,0.4237877428531647,-3.4831535816192627,-77.11195373535156,24.539608001708984,-55.51008605957031
3.549,26.502901077270508,-14.298311233520508,3.7088749408721924,1.6859880685806274,0.4812090992927551,-3.8403570652008057,-77.28733825683594,22.975738525390625,-56.12394332885742
3.553,25.570899963378906,-13.344771385192871,2.2743778228759766,1.817476749420166,0.3147483170032501,-4.209167003631592,-77.97428131103516,19.307220458984375,-57.366268157958984
3.56,24.972694396972656,-13.329217910766602,1.832902193069458,1.9307923316955566,0.3205515146255493,-4.390288352966309,-77.84273529052734,17.918737411499023,-56.810874938964844
3.57,25.226333618164062,-13.95254898071289,1.306481122970581,1.9726365804672241,0.12095130980014801,-4.572479248046875,-78.2519760131836,15.404851913452148,-57.86320114135742
3.58,24.285953521728516,-14.465808868408203,0.7992027401924133,1.8781051635742188,-0.2655736804008484,-4.711145401000977,-78.14966583251953,12.569424629211426,-57.86320114135742
3.59,22.125232696533203,-13.767104148864746,0.3684946596622467,1.7560847997665405,-0.7113525867462158,-4.794986724853516,-78.52967071533203,9.719380378723145,-58.11166000366211
3.61,19.475183486938477,-12.54915714263916,-0.26440688967704773,1.6398676633834839,-0.9068294763565063,-4.846451759338379,-77.87196350097656,6.957030296325684,-56.84010314941406
3.614,15.531811714172363,-10.122836112976074,-0.5264209508895874,1.5897767543792725,-0.930347740650177,-4.888296127319336,-77.81350708007812,3.3031277656555176,-55.992401123046875
3.62,14.36889934539795,-9.500701904296875,-0.5730810165405273,1.6368134021759033,-0.7376197576522827,-4.867221355438232,-76.848876953125,1.783104419708252,-56.56240463256836
3.63,12.725030899047852,-8.684749603271484,-0.9092725515365601,1.7568484544754028,-0.3361286222934723,-4.7781877517700195,-76.71733856201172,-1.344636082649231,-55.96316909790039
3.64,12.346964836120605,-8.800801277160645,-0.9607182741165161,1.8614590167999268,-0.07452555745840073,-4.598745822906494,-75.8257827758789,-3.843905448913574,-55.83163070678711
3.65,11.656635284423828,-8.71944522857666,-1.0456634759902954,1.8820757865905762,-0.01863138936460018,-4.379140377044678,-74.94884490966797,-6.562408924102783,-55.01315689086914
3.669,10.855039596557617,-8.324629783630371,-1.0947163105010986,1.8529069423675537,-0.07696902006864548,-4.131587028503418,-73.4142074584961,-8.652440071105957,-53.90237045288086
3.673,9.273384094238281,-7.630711555480957,-1.4560325145721436,1.6835445165634155,-0.3975205719470978,-3.7475054264068604,-72.49342346191406,-11.064016342163086,-54.457759857177734
3.68,7.617550373077393,-6.891329288482666,-1.4093725681304932,1.5674800872802734,-0.6307183504104614,-3.5666892528533936,-70.90032196044922,-12.189417839050293,-53.478515625
3.69,5.684150218963623,-6.317051887512207,-0.8446664214134216,1.3545937538146973,-1.004873275756836,-3.355940818786621,-70.28646850585938,-13.460975646972656,-52.58695983886719
3.8,-4.847858428955078,-5.708078384399414,1.428515076637268,0.4977024495601654,-0.6003278493881226,-0.13316862285137177,-62.320960998535156,-20.973400115966797,-42.41449737548828
3.81,-4.604987144470215,-5.704488754272461,1.246660590171814,0.32940909266471863,-0.7802276015281677,0.11026117950677872,-62.350189208984375,-21.499561309814453,-42.41449737548828
3.82,-5.389832496643066,-5.730810165405273,0.7226324677467346,0.21914789080619812,-0.6391177773475647,0.6157521605491638,-61.955570220947266,-20.8126277923584,-42.53142547607422
3.83,-4.794020175933838,-6.110072612762451,-0.05742774158716202,0.1748601794242859,-0.29306259751319885,0.8914051055908203,-62.759429931640625,-21.221864700317383,-43.02835464477539
3.85,-2.0889341831207275,-6.805187702178955,-0.28594231605529785,0.07941248267889023,-0.03420845419168472,1.1646145582199097,-62.788658142089844,-20.768781661987305,-42.6045036315918
3.853,1.112662434577942,-8.093722343444824,-1.0827522277832031,-0.161268413066864,0.11560624837875366,1.601230502128601,-63.85559844970703,-19.35106658935547,-43.55451583862305
3.86,2.6500511169433594,-8.70389175415039,-2.124826431274414,-0.34177911281585693,0.13209959864616394,1.858099341392517,-64.90792083740234,-19.234142303466797,-43.189125061035156
3.87,4.935196399688721,-9.33440113067627,-2.5495524406433105,-0.48869219422340393,0.1560760736465454,2.336864948272705,-65.3171615600586,-18.62028694152832,-43.802982330322266
3.88,6.794419765472412,-10.100104331970215,-1.1509475708007812,-0.5871942043304443,0.0024434609804302454,2.752711534500122,-66.34024810791016,-16.807950973510742,-43.27682113647461
3.89,7.707281589508057,-10.8490571975708,-0.9595218300819397,-0.7446447610855103,0.0936150997877121,3.067917823791504,-67.46565246582031,-15.887167930603027,-43.89067459106445
3.91,10.077371597290039,-10.890932083129883,-3.012563705444336,-0.9231700897216797,0.4460843503475189,3.327993631362915,-67.68489074707031,-14.776381492614746,-43.53989791870117
3.914,14.578271865844727,-10.454241752624512,-5.036891460418701,-0.7893905639648438,0.7287622690200806,3.8476874828338623,-69.71646118164062,-12.774043083190918,-44.24144744873047
3.92,16.973485946655273,-10.74138069152832,-4.642076015472412,-0.697149932384491,0.7124215364456177,4.145789623260498,-70.25723266601562,-11.341712951660156,-45.46916198730469
3.93,18.97269058227539,-11.088339805603027,-3.6011979579925537,-0.7425066828727722,0.5300782918930054,4.400062084197998,-71.28032684326172,-9.456298828125,-45.176849365234375
3.94,20.590238571166992,-10.803593635559082,-3.260220766067505,-0.850782573223114,0.26083946228027344,4.517500877380371,-72.7272720336914,-7.278573513031006,-45.132999420166016
3.95,21.05683708190918,-10.423134803771973,-3.4468607902526855,-0.9564622640609741,0.1699732542037964,4.59492826461792,-73.50189971923828,-5.305466175079346,-45.45454788208008
3.97,21.259033203125,-9.824929237365723,-3.836890935897827,-1.007927656173706,0.078343465924263,4.576907634735107,-73.9111328125,-2.76235032081604,-45.67377853393555
3.973,20.67757797241211,-10.205388069152832,-4.029513359069824,-1.0673342943191528,0.0936150997877121,4.6668572425842285,-75.00730895996094,0.2923122048377991,-44.84069061279297
3.98,21.30210304260254,-10.675577163696289,-4.481756687164307,-1.0351110696792603,0.3126102685928345,4.6943464279174805,-75.63578033447266,1.7246419191360474,-44.89915466308594
3.99,23.667407989501953,-12.059825897216797,-3.967299699783325,-1.013272762298584,0.36132678389549255,4.689306735992432,-76.19117736816406,3.712364673614502,-45.04530715942383
4.0,24.41037940979004,-11.824132919311523,-2.7876384258270264,-1.140485405921936,-0.015118913725018501,4.761083602905273,-76.68810272216797,6.8401055335998535,-44.69453430175781
4.01,23.066808700561523,-10.74018383026123,-2.4909281730651855,-1.238376498222351,-0.2678644061088562,4.77421760559082,-76.99503326416016,9.193218231201172,-45.01607894897461
4.03,21.82134437561035,-9.170492172241211,-2.242074728012085,-1.27961003780365,-0.25763240456581116,4.43533992767334,-76.80502319335938,11.429407119750977,-45.001461029052734
4.033,20.493328094482422,-5.812166213989258,-2.0338993072509766,-1.2918273210525513,-0.48197266459465027,3.9315285682678223,-77.21426391601562,14.206372261047363,-44.066062927246094
4.04,18.041881561279297,-4.750949382781982,-1.502692461013794,-1.2457069158554077,-0.43905937671661377,3.941913366317749,-76.2057876586914,15.477930068969727,-43.71529006958008
4.05,15.227923393249512,-4.013959884643555,-1.0145567655563354,-1.1659890413284302,-0.13897183537483215,3.8289034366607666,-76.23502349853516,17.53873062133789,-43.6422119140625
4.06,13.996816635131836,-3.3786656856536865,-0.9499505758285522,-1.094059705734253,0.25503623485565186,3.6633589267730713,-75.54808044433594,19.482608795166016,-43.72990417480469
4.07,13.572089195251465,-2.1750757694244385,-1.506281852722168,-1.0387763977050781,0.6383541822433472,3.5941781997680664,-75.62116241455078,20.403390884399414,-43.10143280029297
4.09,13.420145034790039,-0.9643074870109558,-1.4775679111480713,-0.9263771176338196,0.9094256162643433,3.472463607788086,-75.4457778930664,22.566499710083008,-43.40835952758789
4.093,14.23011589050293,0.13160523772239685,-1.0061818361282349,-0.9686795473098755,0.7400632500648499,3.176957368850708,-74.72960662841797,24.56884002685547,-43.6422119140625
4.1,14.367703437805176,0.8039883971214294,-0.7776673436164856,-0.9947940707206726,0.3730859160423279,3.0196595191955566,-74.64192199707031,25.738086700439453,-43.04296875
4.11,12.881759643554688,1.7407783269882202,-0.47617167234420776,-1.015868902206421,-0.242513507604599,2.8495335578918457,-73.92575073242188,27.214263916015625,-42.3414192199707
4.12,10.305886268615723,2.964707136154175,-0.7166503667831421,-0.9801332950592041,-0.6968445181846619,2.6642887592315674,-72.74188995361328,28.763521194458008,-42.063724517822266
4.13,7.47637414932251,3.847658634185791,-0.3672982454299927,-0.9213374853134155,-0.8816311955451965,2.3721425533294678,-72.4349594116211,30.035078048706055,-42.03449249267578
4.15,4.573880195617676,4.8358941078186035,-0.5886343717575073,-0.8521569967269897,-0.7255551815032959,2.0916025638580322,-71.411865234375,30.853551864624023,-40.587547302246094
4.153,2.964707136154175,5.871986389160156,-1.0061818361282349,-0.684779942035675,-0.14996741712093353,1.7809776067733765,-71.22186279296875,31.55510139465332,-40.64601135253906
4.16,2.740978240966797,6.498905658721924,-1.1545369625091553,-0.5615379214286804,0.2776382565498352,1.636049747467041,-71.06109619140625,32.1689567565918,-40.894474029541016
4.17,2.963510751724243,7.283751964569092,-0.672383189201355,-0.4231768846511841,0.7857254147529602,1.4746286869049072,-70.8272476196289,33.11897277832031,-40.38292694091797
4.18,3.61435866355896,7.3399834632873535,-0.18903298676013947,-0.3126102685928345,1.1717921495437622,1.190729022026062,-70.68109130859375,33.2651252746582,-40.324466705322266
4.19,4.164707660675049,3.7160534858703613,0.1986042857170105,-0.21639901399612427,1.225701093673706,0.9611964225769043,-70.41800689697266,33.77667236328125,-40.324466705322266
4.21,4.962713718414307,7.360321998596191,1.109073281288147,-0.23380866646766663,1.1391109228134155,0.8242099285125732,-70.19877624511719,33.9666748046875,-41.522945404052734
4.213,4.401597023010254,7.325625896453857,0.4666004180908203,-0.14309518039226532,1.0839803218841553,0.6001750826835632,-70.4910888671875,34.25898742675781,-42.049110412597656
4.22,4.766502380371094,6.369693756103516,0.1663011610507965,-0.10873401165008545,1.1525499820709229,0.4216497242450714,-69.96492004394531,33.87898254394531,-42.063724517822266
4.23,5.3587260246276855,5.216352939605713,-0.14476576447486877,-0.052839841693639755,1.2258538007736206,0.16920965909957886,-70.5349349975586,34.37591552734375,-42.6629638671875
4.24,6.406782150268555,4.510470390319824,-0.592223584651947,-0.015118913725018501,1.2962559461593628,-0.059406641870737076,-70.66647338867188,34.03975296020508,-42.98450469970703
4.25,7.412964344024658,3.4480574131011963,-0.7262216210365295,0.020005837082862854,1.3634512424468994,-0.30375272035598755,-70.78339385986328,33.922828674316406,-43.072200775146484
4.27,8.770891189575195,2.530409812927246,-0.48813581466674805,0.018936822190880775,1.290147304534912,-0.5943718552589417,-71.01725006103516,33.93744659423828,-44.15375518798828
4.274,10.924431800842285,1.1784651279449463,0.4091726541519165,-0.04001167416572571,0.897513747215271,-1.0567967891693115,-71.86495208740234,33.65974807739258,-44.636070251464844
4.28,12.841082572937012,-0.27038896083831787,1.2370892763137817,-0.07773260027170181,0.7115052938461304,-1.2221887111663818,-72.04033660888672,33.22127914428711,-45.22069549560547
4.29,15.824931144714355,-2.685943365097046,1.7922240495681763,-0.1134682148694992,0.08674286305904388,-1.5683965682983398,-72.11341857910156,32.5051155090332,-44.59222412109375
4.3,18.247665405273438,-6.3900322914123535,0.8327022790908813,-0.06841690838336945,-0.23487769067287445,-1.8319847583770752,-72.74188995361328,31.71587371826172,-44.79684066772461
4.31,20.212173461914062,-7.75753116607666,0.0203389935195446,0.04718933627009392,-0.4824308156967163,-2.0755672454833984,-72.58111572265625,30.45893096923828,-44.6799201965332
4.33,18.52284049987793,-11.312068939208984,-0.12203395366668701,0.26313018798828125,-0.46242499351501465,-2.189035654067993,-73.9549789428711,28.412744522094727,-44.32914352416992
4.333,20.033906936645508,-11.248659133911133,-0.3649054169654846,0.7305948138237,0.22189679741859436,-2.739272356033325,-74.10113525390625,27.667348861694336,-44.31452941894531
4.34,20.749361038208008,-11.10628604888916,-0.044267214834690094,0.9514226317405701,0.42119157314300537,-2.934138536453247,-74.5542221069336,26.99502944946289,-44.606842041015625
4.35,20.88574981689453,-9.66939640045166,0.04785645380616188,1.2279918193817139,0.6180429458618164,-3.0618093013763428,-75.4457778930664,25.31423568725586,-44.7822265625
4.36,21.177675247192383,-9.128618240356445,0.1459621787071228,1.5074626207351685,0.7796167731285095,-3.283553123474121,-76.00116729736328,24.101139068603516,-45.45454788208008
4.37,22.30110740661621,-9.726823806762695,0.09690931439399719,1.7247780561447144,0.7296785116195679,-3.50300669670105,-76.80502319335938,22.128032684326172,-46.19994354248047
4.39,23.279769897460938,-11.272586822509766,-0.5204389095306396,1.8865046501159668,0.603076696395874,-3.663053512573242,-76.74656677246094,20.213388442993164,-46.33148193359375
4.394,25.44647216796875,-14.054243087768555,-1.3244272470474243,2.0285308361053467,0.16768251359462738,-3.8684568405151367,-77.93043518066406,17.553346633911133,-46.945335388183594
4.4,25.683361053466797,-14.93958854675293,-0.9810572266578674,1.9784396886825562,-0.23411409556865692,-3.902207136154175,-78.28120422363281,16.13563346862793,-45.68839645385742
4.41,24.16152572631836,-15.181262016296387,-0.5144568085670471,1.8141170740127563,-0.7573201656341553,-3.9460365772247314,-78.47120666503906,13.607131958007812,-46.62379455566406
4.42,21.572490692138672,-14.270793914794922,-0.41515469551086426,1.6494888067245483,-1.1308642625808716,-4.0494256019592285,-78.17889404296875,11.444022178649902,-45.87839889526367
4.43,18.843477249145508,-12.574281692504883,-0.2392822504043579,1.5563318729400635,-1.2721267938613892,-4.175111293792725,-78.13504791259766,8.418591499328613,-45.0599250793457
4.45,15.976876258850098,-10.96750259399414,-0.34695929288864136,1.542587399482727,-1.1359038352966309,-4.279569149017334,-77.87196350097656,5.8900909423828125,-43.817596435546875
4.454,12.789636611938477,-8.681159973144531,-1.4404791593551636,1.6699528694152832,-0.6485861539840698,-4.3091959953308105,-77.55042266845703,2.703887701034546,-43.7006721496582
4.46,11.925827980041504,-8.38564682006836,-1.576870083808899,1.7672330141067505,-0.3448334336280823,-4.283539772033691,-77.08272552490234,1.5492546558380127,-43.21835708618164
4.47,11.47238826751709,-8.884550094604492,-1.4943177700042725,1.8125898838043213,-0.03420845419168472,-4.2000041007995605,-76.55656433105469,-0.2192341536283493,-43.71529006958008
4.48,10.925627708435059,-9.026923179626465,-1.530210018157959,1.7496707439422607,0.007024950347840786,-4.068973064422607,-75.78193664550781,-2.3238818645477295,-43.34989929199219
4.49,9.7064847946167,-8.420342445373535,-1.5122638940811157,1.5844316482543945,-0.11392636597156525,-3.8791468143463135,-74.40806579589844,-5.013154029846191,-43.56913375854492
4.51,7.792226791381836,-7.241877555847168,-1.432104229927063,1.4521794319152832,-0.25182920694351196,-3.748727321624756,-73.51651763916016,-8.111662864685059,-41.82987594604492
4.514,5.952146053314209,-6.373282432556152,-1.2658032178878784,1.2851077318191528,-0.42928555607795715,-3.6080753803253174,-73.35574340820312,-9.26629638671875,-41.6252555847168
4.52,5.140979290008545,-5.92941427230835,-1.1425727605819702,1.1928671598434448,-0.5361869931221008,-3.5330917835235596,-72.39111328125,-10.49400806427002,-41.99064636230469
4.53,4.230510234832764,-5.6027936935424805,-0.6903292536735535,1.060920238494873,-0.7225008606910706,-3.419776201248169,-71.2949447631836,-11.619409561157227,-40.70447540283203
4.54,3.135793924331665,-5.30967378616333,-0.5000999569892883,0.8713992834091187,-0.9549350738525391,-3.235905885696411,-69.96492004394531,-13.621747970581055,-40.543701171875
4.55,1.6187443733215332,-5.130211353302002,-0.2907279431819916,0.7357872128486633,-1.092837929725647,-3.067765235900879,-69.21952056884766,-14.922536849975586,-39.973690032958984
4.57,0.2955136001110077,-5.333600997924805,-0.30987051129341125,0.5821545720100403,-1.1551461219787598,-2.858696460723877,-67.58258056640625,-15.653318405151367,-39.900611877441406
4.574,-1.5098711252212524,-5.416153907775879,0.0023928226437419653,0.4164573848247528,-1.0952813625335693,-2.5285239219665527,-66.42794799804688,-17.363344192504883,-38.35136032104492
4.58,-2.657229423522949,-5.254638671875,0.03349951654672623,0.3882048726081848,-1.0196868181228638,-2.4277312755584717,-65.6971664428711,-18.313358306884766,-38.5267448425293
4.59,-3.7124643325805664,-5.111069202423096,0.24167509377002716,0.35842517018318176,-0.7428121566772461,-2.1956024169921875,-64.7909927368164,-18.72259521484375,-37.62057876586914
4.6,-4.626522541046143,-5.175675392150879,0.7633103728294373,0.3300199508666992,-0.5151121020317078,-1.99615478515625,-64.04560089111328,-19.394912719726562,-37.13826370239258
4.61,-5.076373100280762,-5.254638671875,1.0408778190612793,0.29367345571517944,-0.3013092875480652,-1.8041903972625732,-62.934814453125,-20.02338409423828,-37.035953521728516
4.63,-5.320440769195557,-5.130211353302002,0.8697909712791443,0.2571742534637451,-0.08903361111879349,-1.6210836172103882,-61.911720275878906,-20.91493797302246,-37.51826858520508
4.633,-4.412364959716797,-5.050052165985107,0.13998012244701385,0.2561052441596985,0.23747386038303375,-1.3770430088043213,-61.736331939697266,-21.28032684326172,-37.474422454833984
4.64,-3.3068807125091553,-5.322834014892578,-0.22851455211639404,0.2548835277557373,0.2996293902397156,-1.1898127794265747,-61.034786224365234,-21.8503360748291,-37.050567626953125
4.65,-2.2169501781463623,-5.615954875946045,-0.6173481941223145,0.2119702398777008,0.31551188230514526,-0.8943067193031311,-60.27477264404297,-22.624963760375977,-37.664424896240234
4.66,-1.5182459354400635,-5.972485065460205,-0.8482555747032166,0.1472185254096985,0.28878653049468994,-0.6044511198997498,-60.68401336669922,-22.639577865600586,-38.13212585449219
4.67,-0.8769694566726685,-6.142375469207764,-0.6759723424911499,0.05054909735918045,0.23808471858501434,-0.3217732608318329,-60.800933837890625,-23.078046798706055,-37.48904037475586
4.69,-0.01196411345154047,-6.321837425231934,-0.8267201781272888,-0.07910704612731934,0.20097467303276062,0.003054326167330146,-60.50862121582031,-23.50189971923828,-37.591346740722656
4.693,2.111665964126587,-7.447660446166992,-1.0217353105545044,-0.28099802136421204,0.12431107461452484,0.6072000861167908,-61.414791107177734,-23.28266716003418,-38.68751907348633
4.7,2.6979076862335205,-7.99681282043457,-1.137787103652954,-0.38606685400009155,0.057879481464624405,0.9515753388404846,-61.32709884643555,-23.048816680908203,-38.263668060302734
4.71,4.018745422363281,-9.013762474060059,-1.9142580032348633,-0.5517640113830566,0.080634206533432,1.4317153692245483,-61.531715393066406,-22.47880744934082,-38.029815673828125
4.72,5.974877834320068,-9.139386177062988,-2.355733871459961,-0.6432411074638367,0.26160305738449097,1.940566062927246,-62.1748046875,-22.1718807220459,-38.32212829589844
4.73,7.637889862060547,-9.397810935974121,-2.662015199661255,-0.6464481353759766,0.47739118337631226,2.4746150970458984,-63.387901306152344,-21.29494285583496,-38.36597442626953
4.75,8.828319549560547,-9.519845008850098,-2.884547472000122,-0.6227771043777466,0.7525859475135803,2.992628812789917,-64.96638488769531,-19.16106414794922,-39.345218658447266
4.753,11.038090705871582,-9.79860782623291,-2.99222469329834,-0.488539457321167,1.3823879957199097,3.6051738262176514,-65.6971664428711,-18.72259521484375,-39.35983657836914
4.76,12.731012344360352,-10.122836112976074,-3.040081262588501,-0.46471571922302246,1.6053539514541626,3.832568407058716,-66.96871948242188,-16.98333740234375,-40.572933197021484
4.77,15.165709495544434,-10.713863372802734,-2.9551358222961426,-0.4899139106273651,1.715767741203308,4.073096752166748,-68.69336700439453,-15.507162094116211,-41.449867248535156
4.78,17.948562622070312,-11.748759269714355,-2.922832727432251,-0.5826126933097839,1.7267632484436035,4.260632514953613,-69.23414611816406,-13.928675651550293,-41.49371337890625
4.79,20.839092254638672,-12.885350227355957,-3.332005262374878,-0.7357872128486633,1.5367841720581055,4.407545566558838,-71.06109619140625,-11.765565872192383,-41.888336181640625
4.81,23.050060272216797,-13.215559959411621,-3.6059837341308594,-0.9699012637138367,0.9582948088645935,4.529871463775635,-73.1072769165039,-8.082432746887207,-41.99064636230469
4.813,24.253650665283203,-12.307482719421387,-3.1417760848999023,-1.3026700019836426,0.11743884533643723,4.621195316314697,-73.38497924804688,-7.293189525604248,-42.282955169677734
4.82,23.528623580932617,-11.453245162963867,-3.098705291748047,-1.5068517923355103,-0.4072943925857544,4.645477771759033,-73.32650756835938,-5.963168621063232,-41.91756820678711
4.83,21.6861515045166,-10.419546127319336,-2.8773691654205322,-1.706910252571106,-1.026253581047058,4.692055702209473,-74.14498901367188,-3.624671220779419,-41.99064636230469
4.84,19.020545959472656,-9.696913719177246,-2.472982168197632,-1.8124371767044067,-1.268614411354065,4.818352222442627,-74.18883514404297,-1.9731072187423706,-40.73370361328125
4.85,17.0141658782959,-8.787640571594238,-2.1104695796966553,-1.783726453781128,-1.0381654500961304,4.977787971496582,-74.94884490966797,0.1900029182434082,-39.91522979736328
4.87,15.092728614807129,-7.060022830963135,-1.3902299404144287,-1.6618587970733643,-0.6611089110374451,5.003597259521484,-75.27039337158203,2.893890619277954,-39.52061080932617
4.874,13.417752265930176,-5.693721294403076,-0.6675975322723389,-1.4637858867645264,0.1039998009800911,5.003597259521484,-75.70885467529297,6.752411365509033,-39.87138366699219
4.88,13.11984634399414,-4.944767951965332,-0.6915256977081299,-1.3939945697784424,0.37430769205093384,5.003597259521484,-75.40193176269531,7.819350719451904,-39.79830551147461
4.89,13.710872650146484,-4.1730828285217285,-1.1413763761520386,-1.2724322080612183,0.8258897662162781,5.003597259521484,-75.7527084350586,10.596317291259766,-40.09061813354492
4.9,15.372688293457031,-3.645465135574341,-1.1497513055801392,-1.2565498352050781,0.9587529897689819,5.003597259521484,-75.34346771240234,12.993276596069336,-39.66676330566406
4.91,17.38983726501465,-3.3128626346588135,-0.1698903888463974,-1.3645201921463013,0.6243042945861816,4.945870399475098,-75.21192169189453,15.112540245056152,-39.75445556640625
4.93,17.619548797607422,-2.4466609954833984,0.11844471842050552,-1.4928019046783447,0.11239920556545258,4.7923903465271,-74.37883758544922,19.687227249145508,-39.330604553222656
4.933,16.00439453125,-1.0492527484893799,0.25244277715682983,-1.5499178171157837,-0.4124867618083954,4.5877509117126465,-74.32037353515625,20.666471481323242,-38.96521759033203
4.94,14.23729419708252,-0.0406779870390892,0.37447673082351685,-1.4676038026809692,-0.5053382515907288,4.452596664428711,-73.29727935791016,21.689563751220703,-39.91522979736328
4.95,11.827722549438477,0.8075776100158691,0.8398807048797607,-1.2738066911697388,-0.2926044464111328,4.162130355834961,-72.47880554199219,23.925752639770508,-38.04443359375
4.96,10.512866020202637,1.7180465459823608,0.714257538318634,-0.9749408960342407,0.2554943859577179,3.5947890281677246,-72.7272720336914,25.12423324584961,-38.08827590942383
4.97,10.218547821044922,3.269791841506958,0.2141576111316681,-0.7018841505050659,0.7467827200889587,3.121521472930908,-71.83572387695312,27.214263916015625,-38.00058364868164
4.99,10.968698501586914,4.753342151641846,-0.11844471842050552,-0.4668537676334381,1.1218539476394653,2.627484083175659,-71.98188018798828,27.915815353393555,-39.05290985107422
4.994,12.709476470947266,6.250052452087402,0.5754737854003906,-0.2869539260864258,1.0254899263381958,1.8532124757766724,-71.66033172607422,29.698917388916016,-38.54136276245117
5.0,12.844671249389648,6.88534688949585,0.7010970711708069,-0.2868012487888336,0.8362745046615601,1.6229162216186523,-70.65185546875,29.625839233398438,-39.16983413696289
5.01,12.679567337036133,7.8376898765563965,0.6221339106559753,-0.3309362530708313,0.2382374405860901,1.0990992784500122,-70.09646606445312,30.108156204223633,-40.07600402832031
5.02,11.316854476928711,8.151150703430176,0.7884350419044495,-0.3793473243713379,-0.19914206862449646,0.7188356518745422,-70.02338409423828,30.590471267700195,-40.23677444458008
5.03,9.633503913879395,8.11406135559082,0.7465606331825256,-0.40026944875717163,-0.5090034604072571,0.39568793773651123,-70.06723022460938,30.73662757873535,-39.52061080932617
5.05,8.159524917602539,7.70249605178833,0.818345308303833,-0.4164573848247528,-0.5992587804794312,0.07299839705228806,-69.5556869506836,30.824321746826172,-39.1259880065918
5.054,5.888736248016357,6.667600154876709,0.778863787651062,-0.24098633229732513,-0.21899518370628357,-0.3442225456237793,-69.32183837890625,30.9266300201416,-38.36597442626953
5.06,5.955735206604004,5.888736248016357,0.7262216210365295,-0.11743884533643723,0.17272214591503143,-0.5798638463020325,-69.32183837890625,30.35662078857422,-37.971351623535156
5.07,7.322037220001221,4.096512317657471,0.6400800943374634,0.05360342189669609,0.6502660512924194,-0.8752171993255615,-69.4679946899414,29.508914947509766,-38.71674728393555
5.08,8.86660385131836,3.0544381141662598,0.5359922647476196,0.19624045491218567,0.9870055317878723,-1.187522053718567,-69.70184326171875,29.055830001831055,-39.52061080932617
5.09,11.35394287109375,1.5074782371520996,0.8051848411560059,0.35552358627319336,1.1733193397521973,-1.5457943677902222,-70.21338653564453,28.354280471801758,-38.33674621582031
5.109,13.774283409118652,-0.6903292536735535,0.7501499056816101,0.5167919993400574,0.8904888033866882,-2.236072063446045,-71.09032440185547,26.89272117614746,-40.967552185058594
5.113,17.69611930847168,-3.7902309894561768,0.665204644203186,0.5505422949790955,0.6878342628479004,-2.415055751800537,-70.6957015991211,26.95118522644043,-40.587547302246094
5.12,20.573490142822266,-6.183053970336914,0.9008976817131042,0.5728389024734497,0.3127630054950714,-2.6250405311584473,-70.57878112792969,25.7088565826416,-40.48523712158203
5.13,22.222143173217773,-6.623332977294922,1.306481122970581,0.5713117122650146,-0.2773328125476837,-2.71880841255188,-71.631103515625,24.49576187133789,-40.42677688598633
5.14,21.638294219970703,-9.960124015808105,1.6713865995407104,0.6618725061416626,-0.5931501388549805,-3.1529808044433594,-71.33879089355469,23.238819122314453,-40.61677932739258
5.15,21.561725616455078,-11.891131401062012,1.179661512374878,0.8019133806228638,-0.6598871946334839,-3.599065065383911,-71.3680191040039,21.748027801513672,-40.35369873046875
5.171,22.128822326660156,-12.30389404296875,1.1306086778640747,0.9277516007423401,-0.7009678483009338,-3.977496385574341,-71.92341613769531,18.269512176513672,-39.929847717285156
5.175,21.06162452697754,-12.166306495666504,0.5395814776420593,1.0998629331588745,-0.4944954216480255,-4.23207426071167,-72.12803649902344,17.933351516723633,-40.25138854980469
5.18,20.88216209411621,-12.171091079711914,0.31824538111686707,1.1646145582199097,-0.39645153284072876,-4.322635173797607,-71.631103515625,16.661794662475586,-40.19292449951172
5.19,20.896520614624023,-12.531211853027344,-0.34217363595962524,1.3003793954849243,-0.1797470897436142,-4.467868328094482,-71.70417785644531,14.805611610412598,-40.1636962890625
5.2,21.048463821411133,-13.221541404724121,-0.6245266795158386,1.4158328771591187,-0.023060161620378494,-4.581947326660156,-72.20111083984375,13.21251106262207,-39.98830795288086
5.21,21.245872497558594,-14.061421394348145,-0.50129634141922,1.469741702079773,0.055436018854379654,-4.715269088745117,-72.14264678955078,11.47325325012207,-40.558319091796875
5.229,20.897716522216797,-14.209776878356934,-0.916451096534729,1.3921618461608887,-0.23380866646766663,-4.787503242492676,-71.42648315429688,7.205495357513428,-41.55217742919922
5.233,19.5457706451416,-13.223934173583984,-0.7262216210365295,1.348179578781128,-0.34834590554237366,-4.793306827545166,-71.82110595703125,6.620871067047119,-41.36217498779297
5.24,18.00598907470703,-12.192626953125,-0.7118647694587708,1.2852604389190674,-0.502436637878418,-4.785976409912109,-71.76264190673828,5.422390937805176,-41.40602111816406
5.25,15.712470054626465,-10.791630744934082,-0.698704183101654,1.2131783962249756,-0.6088799238204956,-4.800637245178223,-71.23648071289062,3.580824375152588,-41.23063278198242
5.26,13.96570873260498,-9.761519432067871,-0.5970092415809631,1.183704137802124,-0.6443100571632385,-4.793612003326416,-71.00263214111328,1.3300204277038574,-41.128326416015625
5.27,12.337392807006836,-8.998208999633789,-0.9571290016174316,1.1505646705627441,-0.5803219676017761,-4.695415496826172,-70.34493255615234,-0.6869336366653442,-40.762935638427734
5.29,10.911271095275879,-8.492127418518066,-1.1282157897949219,1.1119275093078613,-0.5230533480644226,-4.52895450592041,-69.1756820678711,-4.355451583862305,-41.069862365722656
5.294,9.212367057800293,-8.141578674316406,-0.8961120247840881,1.0409142971038818,-0.5345070958137512,-4.243527889251709,-68.70797729492188,-5.1008477210998535,-40.98217010498047
5.3,7.856832981109619,-7.776673316955566,-0.7226324677467346,0.9842565655708313,-0.5438227653503418,-4.054465293884277,-67.80181884765625,-5.817012310028076,-40.83601379394531
5.31,6.095715522766113,-6.872186183929443,-0.8805586695671082,0.9237809181213379,-0.47448956966400146,-3.81378436088562,-67.36334228515625,-7.585501670837402,-41.01139831542969
5.32,4.737788677215576,-5.821736812591553,-0.9355936050415039,0.922711968421936,-0.2551889419555664,-3.501173973083496,-66.55948638916016,-9.134756088256836,-40.63139724731445
5.33,3.5030922889709473,-4.542773723602295,-0.9882357120513916,0.9622654914855957,-0.09254607558250427,-3.247054100036621,-65.8140869140625,-9.8655366897583,-41.49371337890625
5.35,3.1334011554718018,-4.377668857574463,-0.556331217288971,0.9621127247810364,-0.003512475173920393,-3.0141615867614746,-64.2940673828125,-12.028646469116211,-40.23677444458008
5.353,3.0209386348724365,-4.78684139251709,-0.7657032608985901,0.8286387324333191,-0.16814064979553223,-2.635730743408203,-64.61560821533203,-12.467114448547363,-40.90909194946289
5.36,2.915654182434082,-5.411368370056152,-0.44267216324806213,0.7544185519218445,-0.29336804151535034,-2.4992024898529053,-63.50482177734375,-12.978660583496094,-40.71908950805664
5.37,2.275574207305908,-6.0909295082092285,0.02273181453347206,0.5207626223564148,-0.688292384147644,-2.161088466644287,-63.18327713012695,-14.016368865966797,-40.2660026550293
5.38,0.3601197898387909,-5.972485065460205,-0.05742774158716202,0.35323283076286316,-0.9857837557792664,-1.9341520071029663,-62.774044036865234,-15.171003341674805,-40.61677932739258
5.39,-1.7216358184814453,-5.6446685791015625,0.12323036044836044,0.22357667982578278,-1.147510290145874,-1.753183126449585,-61.75094985961914,-15.580240249633789,-39.87138366699219
5.41,-3.7148568630218506,-5.430510520935059,0.2883351147174835,0.05207626149058342,-1.0172432661056519,-1.580461025238037,-60.990936279296875,-16.442562103271484,-39.345218658447266
5.414,-5.648257732391357,-5.3455657958984375,0.008374879136681557,0.040164388716220856,-0.8788823485374451,-1.534035325050354,-60.596317291259766,-16.588716506958008,-39.389068603515625
5.42,-5.709274768829346,-5.423332214355469,-0.06819543987512589,0.05360342189669609,-0.6507241725921631,-1.4233160018920898,-60.23093032836914,-17.26103401184082,-39.43291473388672
5.43,-5.276174068450928,-5.8372907638549805,-0.2620140612125397,0.06230825185775757,-0.3669773042201996,-1.154077172279358,-59.865535736083984,-17.59719467163086,-39.27214050292969
5.44,-4.789234161376953,-5.9569315910339355,-0.7525426745414734,0.10919215530157089,-0.05803219974040985,-0.8136724829673767,-59.58784103393555,-17.772581100463867,-39.1844482421875
5.45,-3.996013641357422,-6.254837989807129,-0.7357929348945618,0.17119498550891876,0.20173825323581696,-0.4847215414047241,-59.35398864746094,-17.670272827148438,-39.52061080932617
5.47,-3.4337005615234375,-6.550351619720459,-0.4175475239753723,0.1765400469303131,0.32039880752563477,-0.16920965909957886,-59.63168716430664,-17.53873062133789,-39.1844482421875
5.474,-2.5842483043670654,-7.264609336853027,-0.5024927258491516,0.10461067408323288,0.4902193546295166,0.2984076738357544,-59.96784591674805,-17.451038360595703,-39.593685150146484
5.48,-1.2227323055267334,-7.739584445953369,-0.7118647694587708,0.03940080478787422,0.628885805606842,0.5207626223564148,-60.3770866394043,-17.80181312561035,-38.833675384521484
5.49,0.9738787412643433,-8.383254051208496,-0.9320043921470642,-0.09682214260101318,0.5661193132400513,0.8616254329681396,-60.96170425415039,-16.866413116455078,-40.134464263916016
5.5,2.937189817428589,-8.886942863464355,-1.1425727605819702,-0.2532036304473877,0.33536502718925476,1.2450960874557495,-61.2978630065918,-16.720256805419922,-39.8421516418457
5.51,4.668396949768066,-9.725627899169922,-0.9619146585464478,-0.41034871339797974,0.03375030308961868,1.6504051685333252,-61.88248825073242,-15.770242691040039,-40.80678176879883
5.53,5.988038063049316,-10.612168312072754,-1.4775679111480713,-0.7762569785118103,-0.2727513313293457,2.4164299964904785,-63.080970764160156,-14.717918395996094,-40.23677444458008
5.533,7.625925540924072,-10.455437660217285,-2.9694929122924805,-0.7787004113197327,-0.23686298727989197,2.608088970184326,-63.54867172241211,-14.410990715026855,-39.72522735595703
5.54,8.360522270202637,-10.400403022766113,-3.2410783767700195,-0.7310529351234436,-0.062460970133543015,2.8799242973327637,-64.01637268066406,-14.060215950012207,-40.47062301635742
5.55,9.605986595153809,-10.53200912475586,-3.5808589458465576,-0.6110179424285889,0.3315471112728119,3.1810805797576904,-66.06256103515625,-13.16866397857666,-40.017539978027344
5.56,11.33958625793457,-10.916056632995605,-3.658625841140747,-0.4619668424129486,0.7680103182792664,3.4188599586486816,-65.9164047241211,-11.824028015136719,-40.134464263916016
5.57,13.524232864379883,-11.218749046325684,-3.3810582160949707,-0.3436116874217987,1.1853840351104736,3.7001636028289795,-67.2171859741211,-10.537854194641113,-41.11370849609375
5.589,16.61216926574707,-11.485548973083496,-3.3499515056610107,-0.30894508957862854,1.3584116697311401,3.9124391078948975,-68.45951843261719,-7.45396089553833,-41.01139831542969
5.593,19.33639907836914,-11.899506568908691,-3.847658634185791,-0.4057672321796417,1.1815661191940308,4.122729301452637,-68.59104919433594,-6.8985676765441895,-41.01139831542969
5.606,21.667007446289062,-12.342178344726562,-3.6598219871520996,-0.7489207983016968,0.44196099042892456,4.2282562255859375,-69.2926025390625,-4.267758369445801,-41.05524826049805
5.61,22.303499221801758,-12.41874885559082,-3.506681442260742,-0.8295549750328064,0.2906191349029541,4.241237163543701,-69.78953552246094,-3.536977529525757,-40.777549743652344
5.62,22.70549201965332,-11.825328826904297,-3.4995031356811523,-1.1296424865722656,-0.29077184200286865,4.347222328186035,-70.6957015991211,-1.1984800100326538,-40.98217010498047
5.63,21.05324935913086,-10.286745071411133,-3.483949661254883,-1.341460108757019,-0.8032878041267395,4.642728805541992,-70.43262481689453,0.891552209854126,-39.53522491455078
5.64,18.023937225341797,-8.568697929382324,-3.0101706981658936,-1.3642147779464722,-0.845132052898407,4.832707405090332,-71.25109100341797,3.3615901470184326,-39.155216217041016
5.65,16.85504150390625,-7.835297584533691,-2.7290141582489014,-1.288162112236023,-0.5986478924751282,4.932126045227051,-71.411865234375,5.714703559875488,-38.570594787597656
5.67,16.481761932373047,-7.491927146911621,-2.1367905139923096,-1.0682505369186401,0.1699732542037964,5.003597259521484,-71.0757064819336,9.646302223205566,-39.213680267333984
5.674,16.503297805786133,-7.381857395172119,-1.6582260131835938,-1.045495867729187,0.33857205510139465,5.003597259521484,-71.2072525024414,10.68401050567627,-38.30751037597656
5.68,16.60260009765625,-7.277770042419434,-1.0707881450653076,-1.0320568084716797,0.5532912015914917,5.003597259521484,-71.2072525024414,12.350189208984375,-38.49751663208008
5.69,17.024932861328125,-6.947559833526611,-0.041874393820762634,-1.059698462486267,0.7449501156806946,5.003597259521484,-70.97340393066406,14.747150421142578,-38.45366668701172
5.7,17.283357620239258,-6.1842498779296875,0.18424732983112335,-1.1365147829055786,0.736245334148407,4.944343566894531,-70.54954528808594,16.851797103881836,-38.789825439453125
5.71,17.162519454956055,-4.889732837677002,-0.20578275620937347,-1.1873693466186523,0.6185010671615601,4.805066108703613,-70.72493743896484,18.70798110961914,-38.90675354003906
5.727,16.025930404663086,-2.1930220127105713,-0.6795615553855896,-1.0968085527420044,0.46242499351501465,4.605618476867676,-70.03800201416016,22.215726852416992,-39.05290985107422
5.73,15.763915061950684,-1.9082759618759155,-0.7226324677467346,-1.032667636871338,0.5316054821014404,4.545600891113281,-69.97953796386719,23.078046798706055,-38.99444580078125
5.74,14.580663681030273,-1.124626636505127,-0.40677982568740845,-0.8946121335029602,0.7133378982543945,4.36127233505249,-69.05875396728516,24.21806526184082,-38.45366668701172
5.75,14.264811515808105,-0.8901299834251404,-0.5527420043945312,-0.7528914213180542,0.958142101764679,4.095545768737793,-68.72259521484375,26.23501968383789,-39.447532653808594
5.76,14.129617691040039,-0.064606212079525,-0.314656138420105,-0.6536257863044739,1.059393048286438,3.7922513484954834,-68.4887466430664,27.228879928588867,-39.783687591552734
5.77,13.597214698791504,1.179661512374878,0.15074782073497772,-0.5729916095733643,1.0428996086120605,3.4350478649139404,-67.86027526855469,29.143524169921875,-39.35983657836914
5.79,12.988241195678711,4.112065315246582,-0.35413771867752075,-0.45173484086990356,0.5928446650505066,2.3681716918945312,-66.88102722167969,31.71587371826172,-39.929847717285156
5.794,13.146166801452637,4.83469820022583,-0.3888336718082428,-0.4524984359741211,0.48579058051109314,2.2348504066467285,-66.64717864990234,31.81818199157715,-39.8421516418457
5.8,13.337593078613281,6.01675271987915,-0.3361915946006775,-0.4729623794555664,0.05757404863834381,1.8529069423675537,-65.52177429199219,32.1251106262207,-39.43291473388672
5.81,12.44746208190918,7.753941535949707,-0.22971096634864807,-0.4967861771583557,-0.5508477091789246,1.430493712425232,-65.77024841308594,32.76819610595703,-39.72522735595703
5.82,10.50927734375,9.016155242919922,0.12681959569454193,-0.5032002329826355,-1.05404794216156,1.066417932510376,-65.41946411132812,33.14820098876953,-38.8629035949707
5.83,8.350950241088867,9.637092590332031,0.4737788736820221,-0.4427245557308197,-1.3203850984573364,0.6049093008041382,-64.99561309814453,33.630516052246094,-39.09675598144531
5.846,5.55613374710083,9.604789733886719,0.9044869542121887,-0.24846942722797394,-1.035416603088379,0.156686931848526,-64.98100280761719,33.39666748046875,-37.91289138793945
5.851,5.1696929931640625,9.66939640045166,0.9702895283699036,-0.17608189582824707,-0.831845760345459,0.08827002346515656,-64.90792083740234,33.83513641357422,-37.284420013427734
5.86,4.406383037567139,8.031509399414062,0.6185446381568909,0.002138028386980295,-0.17547103762626648,-0.12079859524965286,-64.80561828613281,33.87898254394531,-37.26980209350586
5.87,4.931607246398926,6.900899887084961,0.30628129839897156,0.11835514008998871,0.35781431198120117,-0.3260492980480194,-64.77638244628906,33.45513153076172,-37.31365203857422
5.88,5.656632423400879,6.3014984130859375,0.28594231605529785,0.19043724238872528,0.8843801021575928,-0.5749768614768982,-64.76176452636719,33.791290283203125,-37.854427337646484
5.89,7.6390862464904785,4.502095699310303,0.1172483041882515,0.260992169380188,1.1549934148788452,-0.7811439037322998,-65.36100769042969,33.791290283203125,-38.11751174926758
5.903,10.487741470336914,1.5493526458740234,-0.08015955239534378,0.26343563199043274,1.2716686725616455,-1.0535898208618164,-65.66793060302734,33.162818908691406,-38.92136764526367
5.91,12.760923385620117,0.02512463741004467,-0.4905286133289337,0.25274547934532166,1.0864238739013672,-1.2586878538131714,-65.96024322509766,33.031280517578125,-39.28675842285156
5.92,15.533007621765137,-2.2097716331481934,-0.30987051129341125,0.2577851414680481,0.7118107080459595,-1.4880677461624146,-66.39871215820312,32.57819366455078,-38.97983169555664
5.93,16.990236282348633,-5.459225177764893,0.8446664214134216,0.20097467303276062,0.11255192011594772,-1.7727309465408325,-66.54487609863281,32.09587860107422,-39.43291473388672
5.94,18.080167770385742,-7.905885696411133,0.9008976817131042,0.1696678102016449,-0.3016147017478943,-2.0864102840423584,-66.92487335205078,31.218942642211914,-40.06138610839844
5.95,17.65065574645996,-12.137593269348145,-0.13519448041915894,0.2658790946006775,-0.4239404797554016,-2.429258346557617,-67.46565246582031,30.751243591308594,-40.47062301635742
5.966,21.171695709228516,-12.422338485717773,-1.1222338676452637,0.5427537560462952,-0.18035796284675598,-3.3241758346557617,-68.18181610107422,28.573516845703125,-40.17831039428711
5.971,22.159931182861328,-12.312268257141113,-1.0325030088424683,0.6633996367454529,-0.1007927656173706,-3.512017011642456,-69.21952056884766,28.003507614135742,-40.17831039428711
5.98,23.876779556274414,-12.355340003967285,-0.4223332107067108,0.8626943826675415,-0.04902193322777748,-3.8626534938812256,-69.64337921142578,26.775794982910156,-40.309852600097656
5.99,24.435504913330078,-12.823136329650879,-0.5659025311470032,1.0448850393295288,-0.15622878074645996,-4.162741184234619,-70.30107879638672,25.7088565826416,-40.11984634399414
6.0,24.664018630981445,-13.518251419067383,-1.0001999139785767,1.1898127794265747,-0.2845104932785034,-4.4147233963012695,-71.38263702392578,23.38497543334961,-40.71908950805664
6.019,24.61616325378418,-14.532807350158691,-1.3938192129135132,1.2942707538604736,-0.4164573848247528,-4.556596755981445,-72.39111328125,21.64571762084961,-41.2452507019043
6.023,24.589841842651367,-16.317853927612305,-1.7359927892684937,1.3066407442092896,-0.7602217793464661,-4.707174777984619,-72.9465103149414,19.687227249145508,-41.47909927368164
6.03,23.813371658325195,-17.063217163085938,-1.5996018648147583,1.2205086946487427,-1.0714576244354248,-4.736496448516846,-72.75650787353516,17.24641990661621,-41.727561950683594
6.04,21.3128719329834,-16.804792404174805,-1.9692928791046143,1.0682505369186401,-1.363603949546814,-4.707633018493652,-72.82958221435547,15.068693161010742,-40.79216766357422
6.05,17.46401596069336,-14.669198989868164,-1.8939191102981567,1.055269718170166,-1.3016010522842407,-4.648684501647949,-73.19497680664062,12.949429512023926,-39.16983413696289
6.06,14.574682235717773,-12.532408714294434,-1.8616158962249756,1.0827585458755493,-1.0633636713027954,-4.664872169494629,-73.20958709716797,11.020169258117676,-39.1259880065918
6.07,12.582656860351562,-10.794022560119629,-1.710868239402771,1.178053617477417,-0.667828381061554,-4.7306928634643555,-72.88804626464844,8.593978881835938,-38.789825439453125
6.086,12.296714782714844,-8.650053024291992,-2.0195422172546387,1.3939945697784424,-0.08445211499929428,-4.764749050140381,-73.1072769165039,5.787781238555908,-38.833675384521484
6.09,12.32662582397461,-8.435895919799805,-2.093719720840454,1.4278974533081055,-0.033597588539123535,-4.731151580810547,-72.65419006347656,4.238526821136475,-39.330604553222656
6.1,12.41396427154541,-8.220541954040527,-2.011167287826538,1.4364495277404785,-0.13469578325748444,-4.620890140533447,-72.63957977294922,2.0608010292053223,-38.43905258178711
6.11,11.965310096740723,-8.709874153137207,-1.6139588356018066,1.347263216972351,-0.38499781489372253,-4.469700813293457,-72.06956481933594,0.26308098435401917,-38.789825439453125
6.12,10.901700019836426,-8.971887588500977,-1.6235301494598389,1.1499537229537964,-0.7620543241500854,-4.3001861572265625,-71.70417785644531,-2.1777257919311523,-38.205204010009766
6.139,9.176474571228027,-8.26121997833252,-1.7922240495681763,0.9208793640136719,-1.1472049951553345,-4.1247148513793945,-71.28032684326172,-4.3262200355529785,-38.07366180419922
6.143,6.1088762283325195,-6.808776378631592,-1.4249258041381836,0.607810914516449,-1.504866600036621,-3.8643336296081543,-69.95030975341797,-6.284712314605713,-37.15288162231445
6.15,4.627718925476074,-6.430710792541504,-1.1066803932189941,0.48884493112564087,-1.5729780197143555,-3.74918532371521,-69.77491760253906,-7.600116729736328,-37.079803466796875
6.16,2.644068956375122,-6.267998695373535,-0.8422735333442688,0.35521814227104187,-1.5735888481140137,-3.576157569885254,-68.8687515258789,-9.383220672607422,-35.57439422607422
6.17,0.9678966999053955,-6.410371780395508,-0.5838487148284912,0.21380282938480377,-1.4726433753967285,-3.3770158290863037,-67.933349609375,-10.245542526245117,-35.3843879699707
6.18,-0.4307080805301666,-6.680760383605957,-0.3732803165912628,0.09162978827953339,-1.3043500185012817,-3.1691689491271973,-66.70564270019531,-11.970184326171875,-34.02513885498047
6.19,-1.7718851566314697,-6.863811492919922,0.06939185410737991,-0.026419920846819878,-0.9932668805122375,-2.906038761138916,-65.55101013183594,-13.563285827636719,-33.30897521972656
6.204,-3.2925240993499756,-6.537191390991211,0.7740780711174011,-0.11789698898792267,-0.6383541822433472,-2.647031784057617,-64.46945190429688,-14.849458694458008,-32.446651458740234
6.21,-3.9421751499176025,-6.296712398529053,0.9702895283699036,-0.1739438772201538,-0.4518875777721405,-2.4978280067443848,-63.81174850463867,-16.311019897460938,-33.2066650390625
6.22,-4.298705577850342,-5.9330034255981445,1.1198409795761108,-0.256868839263916,-0.23273965716362,-2.319760799407959,-63.0371208190918,-16.851797103881836,-33.13358688354492
6.23,-4.216153621673584,-5.4687957763671875,1.0408778190612793,-0.331852525472641,-0.15134187042713165,-2.1195497512817383,-62.65711975097656,-18.62028694152832,-33.01666259765625
6.24,-3.9529428482055664,-5.133800983428955,0.8853443264961243,-0.4034765064716339,-0.15454889833927155,-1.8208365440368652,-61.75094985961914,-19.117216110229492,-32.72434997558594
6.259,-3.8177483081817627,-5.437689304351807,0.8590232729911804,-0.45784348249435425,-0.3061962127685547,-1.5427402257919312,-61.69248962402344,-20.140310287475586,-32.78281021118164
6.262,-4.214956760406494,-6.041877269744873,0.680757999420166,-0.5248859524726868,-0.4619668424129486,-1.1464413404464722,-60.771705627441406,-20.958784103393555,-32.75358200073242
6.27,-4.645665168762207,-6.273980617523193,0.5623133182525635,-0.5352706909179688,-0.5412266254425049,-0.8955284357070923,-60.45016098022461,-21.57263946533203,-32.490501403808594
6.28,-5.4245285987854,-6.388835906982422,0.5072783827781677,-0.5001459121704102,-0.5667302012443542,-0.570853590965271,-60.52324295043945,-21.76264190673828,-32.34434509277344
6.29,-5.875576019287109,-5.982056140899658,0.0729810893535614,-0.46105054020881653,-0.40622538328170776,-0.1537853181362152,-60.26015853881836,-21.981876373291016,-32.59280776977539
6.3,-5.114657878875732,-5.469992160797119,-0.6340979933738708,-0.33857205510139465,-0.021380282938480377,0.27320948243141174,-60.30400466918945,-21.894182205200195,-32.38819122314453
6.32,-3.2279176712036133,-5.515455722808838,-1.0911270380020142,-0.23976460099220276,0.2866485118865967,0.7735080718994141,-60.786319732666016,-22.230342864990234,-33.922828674316406
6.323,-1.1772687435150146,-6.401997089385986,-1.8903299570083618,-0.13347405195236206,0.5482515692710876,1.4376713037490845,-61.400177001953125,-21.20724868774414,-33.235897064208984
6.33,0.008374879136681557,-6.894917964935303,-2.1786649227142334,-0.055436018854379654,0.7024950385093689,1.896583914756775,-62.65711975097656,-20.8126277923584,-33.22127914428711
6.34,1.6043875217437744,-7.905885696411133,-1.8903299570083618,0.05910121276974678,0.9167559742927551,2.520430088043213,-63.34404754638672,-19.964923858642578,-33.162818908691406
6.35,3.5772697925567627,-9.628718376159668,-0.8422735333442688,0.07590001076459885,1.0317513942718506,3.1870365142822266,-65.3171615600586,-19.17568016052246,-34.43437576293945
6.36,6.011966705322266,-11.627921104431152,-2.0745770931243896,-0.04718933627009392,1.1129964590072632,3.5999815464019775,-66.04793548583984,-17.42180633544922,-34.229759216308594
6.379,8.774479866027832,-12.268001556396484,-3.410968542098999,-0.04138611629605293,1.239292860031128,3.8898370265960693,-67.40718841552734,-15.901782989501953,-34.84361267089844
6.383,12.825528144836426,-12.693923950195312,-4.527220249176025,0.05910121276974678,1.3426817655563354,4.18778657913208,-69.43875885009766,-14.235603332519531,-35.6474723815918
6.39,15.101103782653809,-12.966705322265625,-4.89691162109375,0.11957687139511108,1.3437508344650269,4.391510486602783,-70.30107879638672,-12.437883377075195,-36.275943756103516
6.4,18.22612953186035,-13.962119102478027,-5.285745143890381,0.1615738421678543,1.3739886283874512,4.736954689025879,-72.0549545288086,-10.128617286682129,-36.07132339477539
6.41,21.93500518798828,-15.375081062316895,-5.056034088134766,0.10247264802455902,1.1574369668960571,4.988478183746338,-73.4142074584961,-7.439345359802246,-36.495174407958984
6.42,22.972291946411133,-15.9230375289917,-4.829912185668945,-0.04917465150356293,0.8014551401138306,5.003597259521484,-74.14498901367188,-5.1446943283081055,-36.88979721069336
6.44,22.669601440429688,-15.64427375793457,-4.47697114944458,-0.23716843128204346,0.5025893449783325,5.003597259521484,-75.50423431396484,-2.616194009780884,-37.48904037475586
6.444,20.577077865600586,-13.988441467285156,-4.679164409637451,-0.47311511635780334,0.2353358417749405,5.003597259521484,-76.2057876586914,0.7600116729736328,-37.24057388305664
6.45,20.443078994750977,-13.625927925109863,-4.66241455078125,-0.5090034604072571,0.17318028211593628,5.003597259521484,-76.36656188964844,2.893890619277954,-37.15288162231445
6.46,20.539989471435547,-13.201202392578125,-4.157529354095459,-0.6172793507575989,0.05513058975338936,5.003597259521484,-76.92195129394531,5.904706001281738,-36.88979721069336
6.47,20.415563583374023,-12.108878135681152,-3.6263227462768555,-0.7567093372344971,-0.2701551616191864,5.003597259521484,-77.09733581542969,7.950891494750977,-36.90441131591797
6.48,18.68914031982422,-10.61934757232666,-3.414557933807373,-0.9100365042686462,-0.5577199459075928,5.003597259521484,-76.65886688232422,10.4063138961792,-36.59748840332031
6.499,16.627723693847656,-9.192028045654297,-3.201596736907959,-1.0196868181228638,-0.7154759168624878,5.003597259521484,-76.77579498291016,13.49020767211914,-35.82286071777344
6.504,14.493326187133789,-8.041080474853516,-1.7958134412765503,-1.142012596130371,-0.6841690540313721,5.003597259521484,-75.92809295654297,16.486408233642578,-34.112831115722656
6.51,13.60080337524414,-7.46082067489624,-1.2634103298187256,-1.1604912281036377,-0.5881105065345764,5.003597259521484,-75.4896240234375,18.415668487548828,-33.84975051879883
6.52,12.582656860351562,-6.348158359527588,-1.310070276260376,-1.1218539476394653,-0.2620611786842346,5.003597259521484,-75.50423431396484,21.353404998779297,-33.250511169433594
6.53,12.228520393371582,-5.08953332901001,-1.852044701576233,-1.0042624473571777,0.2177734524011612,5.003597259521484,-74.26190948486328,23.77959632873535,-33.601287841796875
6.54,12.340982437133789,-4.137190341949463,-2.827119827270508,-0.8350527882575989,0.7938193678855896,5.003597259521484,-74.04267883300781,25.796550750732422,-34.112831115722656
6.56,13.293325424194336,-3.8799617290496826,-3.0664021968841553,-0.6580545902252197,1.3704761266708374,5.003597259521484,-73.61882019042969,28.105815887451172,-34.21514129638672
6.563,15.286547660827637,-3.713660717010498,-2.416750907897949,-0.5765040516853333,1.5250251293182373,4.879133224487305,-72.2741928100586,31.4674072265625,-34.785152435302734
6.57,16.61216926574707,-3.5844480991363525,-1.9298113584518433,-0.5942191481590271,1.3632985353469849,4.607756614685059,-72.02571868896484,32.85588836669922,-34.56591796875
6.58,17.746368408203125,-2.7086751461029053,-1.2562319040298462,-0.7046330571174622,0.7776314616203308,4.198629379272461,-70.81262969970703,34.63899612426758,-34.741302490234375
6.59,16.93520164489746,-1.0827522277832031,-0.9308079481124878,-0.831845760345459,-0.03084869496524334,3.735746145248413,-70.4910888671875,36.524410247802734,-35.545162200927734
6.6,14.751750946044922,0.656829833984375,-0.50129634141922,-0.8628471493721008,-0.764345109462738,3.112663745880127,-69.92107391357422,37.19672393798828,-34.33206558227539
6.62,12.113663673400879,2.1164515018463135,-0.2512463629245758,-0.7872526049613953,-0.9659306406974792,2.6288585662841797,-68.44490051269531,38.67290496826172,-33.352821350097656
6.624,10.079764366149902,4.529613018035889,-0.3960121273994446,-0.6041457653045654,-0.8112290501594543,2.102750778198242,-67.30487823486328,39.49137496948242,-33.235897064208984
6.63,9.4660062789917,5.490331649780273,-0.2069791555404663,-0.5221370458602905,-0.612850546836853,1.8194620609283447,-67.27565002441406,39.783687591552734,-31.905874252319336
6.64,9.06879711151123,6.5934224128723145,-0.02273181453347206,-0.43050727248191833,-0.31352660059928894,1.5028811693191528,-66.1502456665039,40.41215896606445,-32.066646575927734
6.65,8.335397720336914,7.203592300415039,0.0323031060397625,-0.3500257730484009,0.02275473065674305,1.2597568035125732,-66.20870971679688,41.23063278198242,-32.19818878173828
6.66,7.562515735626221,7.223931312561035,0.02991028130054474,-0.2588541507720947,0.47342056035995483,0.9366090893745422,-66.10639953613281,41.17217254638672,-32.53434753417969
6.68,6.961917400360107,7.11146879196167,-0.12323036044836044,-0.17928895354270935,0.8225300312042236,0.6733261942863464,-65.56562042236328,41.85910415649414,-32.38819122314453
6.683,7.843672752380371,7.670192718505859,-0.1411765217781067,-0.10567968338727951,1.2243266105651855,0.2538144886493683,-65.68254852294922,41.946800231933594,-33.440513610839844
6.69,8.02791976928711,6.092126369476318,-0.3840480148792267,-0.021074850112199783,1.322981357574463,0.004123340360820293,-66.17948150634766,41.91756820678711,-33.14820098876953
6.7,10.905288696289062,3.981656551361084,-0.6903292536735535,-0.005650503095239401,1.0555751323699951,-0.5711589455604553,-66.92487335205078,41.683719635009766,-34.02513885498047
6.71,12.522836685180664,2.95393967628479,-0.9260223507881165,-0.07635815441608429,0.508698046207428,-0.9702066779136658,-67.27565002441406,41.55217742919922,-33.67436599731445
6.72,13.414163589477539,1.9477574825286865,-1.444068431854248,-0.1595885455608368,-0.09758572280406952,-1.3917036056518555,-67.87489318847656,40.63139724731445,-34.08360290527344
6.74,13.41176986694336,1.1940184831619263,-2.1511476039886475,-0.16096298396587372,-0.656069278717041,-1.7386752367019653,-68.78105926513672,40.207542419433594,-33.64513397216797
6.744,13.477572441101074,-0.47018963098526,-0.7728817462921143,-0.08246680349111557,-1.0305296182632446,-2.1432206630706787,-70.0087661743164,39.09675598144531,-32.373573303222656
6.75,13.555339813232422,-2.087737560272217,-0.6747759580612183,-0.07024950534105301,-1.0412198305130005,-2.2646303176879883,-70.19877624511719,38.70213317871094,-32.70973205566406
6.76,13.994422912597656,-4.509274005889893,-0.015553345903754234,0.04444044828414917,-1.0545060634613037,-2.5970935821533203,-70.91493225097656,37.4451904296875,-32.28588104248047
6.77,15.195619583129883,-8.903693199157715,-0.5790630578994751,0.11942415684461594,-0.7718282341957092,-2.831054925918579,-71.83572387695312,36.21747970581055,-31.365097045898438
6.78,15.805789947509766,-14.45384407043457,-2.1882362365722656,0.2750420570373535,-0.2871066629886627,-2.937498092651367,-72.8149642944336,34.916690826416016,-31.949722290039062
6.8,18.97029685974121,-16.38485336303711,-3.177668571472168,0.4518875777721405,0.15256358683109283,-3.4012978076934814,-73.51651763916016,33.13358688354492,-32.812042236328125
6.804,21.068801879882812,-15.664613723754883,-2.968296527862549,0.7350236177444458,0.20051652193069458,-3.8148534297943115,-74.8465347290039,30.678165435791016,-32.53434753417969
6.81,21.18246078491211,-15.27936840057373,-2.720639228820801,0.7980954647064209,0.19028452038764954,-4.069736957550049,-75.50423431396484,29.611223220825195,-33.10435485839844
6.82,22.016359329223633,-15.329617500305176,-2.720639228820801,0.826195240020752,-0.03436116874217987,-4.485583305358887,-76.36656188964844,27.696578979492188,-32.51972961425781
6.83,22.38365936279297,-16.32862091064453,-2.9312076568603516,0.8022187352180481,-0.41370847821235657,-4.793154239654541,-77.62350463867188,25.34346580505371,-33.791290283203125
