time,accel_x,accel_y,accel_z,gyro_x,gyro_y,gyro_z,mag_x,mag_y,mag_z
0.0,3.7914273738861084,-8.830711364746094,2.2061824798583984,0.021838432177901268,-0.0018325956771150231,-0.02672535367310047,-54.048526763916016,46.4191780090332,-41.91756820678711
0.01,3.7603206634521484,-8.889335632324219,2.200200319290161,0.020158551633358,-0.003359758760780096,-0.02122756652534008,-53.68313217163086,46.22917175292969,-41.639869689941406
0.029,3.823730707168579,-8.86660385131836,2.203789472579956,0.01237002108246088,0.005192354787141085,-0.01710422709584236,-53.68313217163086,45.62993240356445,-41.81526184082031
0.032,3.8691940307617188,-8.868996620178223,2.2121644020080566,0.010842857882380486,0.00809396430850029,-0.016340645030140877,-54.32621765136719,46.05378341674805,-41.66910171508789
0.04,3.867997646331787,-8.818747520446777,2.2193429470062256,0.0013744467869400978,0.0177150908857584,-0.014049900695681572,-53.69774627685547,46.112247467041016,-41.756797790527344
0.05,3.8799617290496826,-8.769694328308105,2.1786649227142334,-0.011301006190478802,0.022907447069883347,-0.018478674814105034,-53.30312728881836,46.316864013671875,-41.2452507019043
0.06,3.9457645416259766,-8.714659690856934,2.121237277984619,-0.01191187184303999,0.026572639122605324,-0.022907447069883347,-53.78544235229492,46.1414794921875,-41.85910415649414
0.07,3.9900314807891846,-8.708678245544434,2.1511476039886475,-0.012064589187502861,0.030695976689457893,-0.026419920846819878,-53.843902587890625,45.8199348449707,-40.879859924316406
0.089,4.019941806793213,-8.70508861541748,2.1846470832824707,-0.013286319561302662,0.03252857178449631,-0.029626963660120964,-53.624671936035156,46.185325622558594,-41.80064392089844
0.093,4.035495281219482,-8.639286041259766,2.1535403728485107,-0.013591751456260681,0.02626720443367958,-0.03405573591589928,-53.97544479370117,45.922245025634766,-40.952938079833984
0.1,3.9912281036376953,-8.57946491241455,2.1403796672821045,-0.014049900695681572,0.02076941914856434,-0.03390302136540413,-53.5369758605957,46.22917175292969,-41.21601867675781
0.11,3.9361932277679443,-8.555537223815918,2.091326951980591,-0.0088575454428792,0.0032070425804704428,-0.03039054572582245,-53.27389907836914,45.732242584228516,-42.136802673339844
0.12,3.9361932277679443,-8.682356834411621,2.1200408935546875,0.001527163083665073,-0.016493361443281174,-0.025503622367978096,-53.639286041259766,46.375328063964844,-41.23063278198242
0.13,3.895514965057373,-8.774479866027832,2.1619153022766113,0.012980885803699493,-0.03191770985722542,-0.01817324012517929,-53.434669494628906,46.05378341674805,-41.56679153442383
0.149,3.8727831840515137,-8.855835914611816,2.225324869155884,0.01237002108246088,-0.014660765416920185,-0.018936822190880775,-53.4200553894043,46.33148193359375,-41.61064147949219
0.153,3.8009984493255615,-8.86660385131836,2.287538528442383,0.008399397134780884,-0.0025961773935705423,-0.022907447069883347,-53.4200553894043,46.477638244628906,-42.0052604675293
0.16,3.786641836166382,-8.845067977905273,2.2504496574401855,0.0007635815418325365,0.016035212203860283,-0.027030786499381065,-53.69774627685547,46.170711517333984,-42.10757064819336
0.17,3.775874137878418,-8.797212600708008,2.2061824798583984,-0.003054326167330146,0.02825251594185829,-0.028099801391363144,-53.639286041259766,46.097633361816406,-42.063724517822266
0.18,3.844069242477417,-8.804390907287598,2.1367905139923096,-0.0019853119738399982,0.022602012380957603,-0.026114489883184433,-53.127742767333984,46.19994354248047,-42.09295654296875
0.19,3.85483717918396,-8.794819831848145,2.108076810836792,0.01114829070866108,0.010690141469240189,-0.01725694164633751,-52.952354431152344,45.556854248046875,-41.97603225708008
0.209,3.8871400356292725,-8.740981101989746,2.1236300468444824,0.02535090781748295,-0.026419920846819878,-0.00015271631127689034,-53.08388900756836,45.89301300048828,-41.39140701293945
0.213,3.895514965057373,-8.700303077697754,2.1128623485565186,0.02535090781748295,-0.03375030308961868,0.0003054326225537807,-53.17158508300781,45.96609115600586,-41.36217498779297
0.22,3.912264823913574,-8.715856552124023,2.115255117416382,0.025503622367978096,-0.03756821155548096,-0.0004581489192787558,-53.478515625,46.40456008911133,-42.16603469848633
0.23,3.94815731048584,-8.775676727294922,2.0889341831207275,0.025045473128557205,-0.04199698567390442,-0.0009162978385575116,-53.244667053222656,46.477638244628906,-41.56679153442383
0.24,3.964907169342041,-8.790033340454102,2.0781664848327637,0.024434609338641167,-0.03894266113638878,-0.0027488935738801956,-53.28851318359375,46.43379211425781,-40.894474029541016
0.25,3.9768712520599365,-8.790033340454102,2.062613010406494,0.027641652151942253,-0.028405234217643738,-0.00855211354792118,-53.05466079711914,45.90762710571289,-41.40602111816406
0.269,3.9361932277679443,-8.767301559448242,2.0781664848327637,0.012675453908741474,-0.00015271631127689034,-0.02382374368607998,-52.83543014526367,46.15609359741211,-41.28909683227539
0.272,3.9361932277679443,-8.721837997436523,2.084148406982422,0.005192354787141085,0.006108652334660292,-0.027030786499381065,-53.46390151977539,45.51300811767578,-41.80064392089844
0.28,3.9146575927734375,-8.681159973144531,2.0721843242645264,-0.005803219974040985,0.015577062964439392,-0.031001411378383636,-53.5369758605957,46.05378341674805,-42.01987838745117
0.29,3.906282901763916,-8.665606498718262,2.062613010406494,-0.022907447069883347,0.020463986322283745,-0.03787364438176155,-53.01081466674805,46.126861572265625,-41.3037109375
0.3,3.906282901763916,-8.664410591125488,2.0578272342681885,-0.03145955875515938,0.01863138936460018,-0.04046982154250145,-53.215431213378906,46.33148193359375,-41.78602600097656
0.31,3.9661033153533936,-8.718249320983887,2.0817556381225586,-0.03176499158143997,0.0073303827084600925,-0.03481931984424591,-53.71236038208008,46.27302169799805,-41.39140701293945
0.329,4.015156269073486,-8.773283958435059,2.1236300468444824,-0.019547687843441963,-0.03481931984424591,-0.022602012380957603,-53.36158752441406,46.21455764770508,-41.6252555847168
0.333,3.9936206340789795,-8.800801277160645,2.128415822982788,-0.016340645030140877,-0.03848451003432274,-0.020922133699059486,-53.37620544433594,46.185325622558594,-41.97603225708008
0.34,3.9517464637756348,-8.776873588562012,2.1475582122802734,-0.009468411095440388,-0.04642575979232788,-0.01878410577774048,-53.449283599853516,46.40456008911133,-41.84449005126953
0.35,3.9110684394836426,-8.763712882995605,2.1511476039886475,0.0009162978385575116,-0.04352414980530739,-0.01817324012517929,-53.27389907836914,46.02455520629883,-41.46448516845703
0.36,3.816551923751831,-8.699106216430664,2.1846470832824707,0.0036651913542300463,-0.025503622367978096,-0.021074850112199783,-53.23004913330078,46.302249908447266,-41.34756088256836
0.37,3.8428730964660645,-8.678768157958984,2.197807550430298,-0.0009162978385575116,-0.009926560334861279,-0.02672535367310047,-52.79158401489258,45.790706634521484,-41.2452507019043
0.389,3.8560335636138916,-8.69791030883789,2.20737886428833,0.0019853119738399982,0.02825251594185829,-0.03176499158143997,-53.04004669189453,45.84916687011719,-41.186790466308594
0.393,3.827319860458374,-8.676374435424805,2.1894326210021973,0.003359758760780096,0.031001411378383636,-0.031001411378383636,-53.01081466674805,46.22917175292969,-40.689857482910156
0.4,3.7902309894561768,-8.645268440246582,2.17627215385437,0.004886921960860491,0.0377209298312664,-0.030543262138962746,-53.4200553894043,46.24378967285156,-40.309852600097656
0.41,3.7639100551605225,-8.657232284545898,2.1678972244262695,0.010079275816679,0.040622539818286896,-0.026572639122605324,-53.1569709777832,45.995323181152344,-41.318328857421875
0.42,3.8021950721740723,-8.723034858703613,2.1607186794281006,0.020616700872778893,0.032070424407720566,-0.019089538604021072,-53.06927490234375,46.63841247558594,-41.91756820678711
0.43,3.8763725757598877,-8.865407943725586,2.194218397140503,0.033139437437057495,0.020005837082862854,-0.010537425056099892,-52.77696990966797,46.27302169799805,-41.59602355957031
0.449,3.913461446762085,-8.848657608032227,2.1858434677124023,0.05574145168066025,0.02687807008624077,0.003054326167330146,-52.76234817504883,46.550716400146484,-42.0052604675293
0.452,3.9218363761901855,-8.791230201721191,2.179861307144165,0.056810468435287476,0.03130684420466423,0.0050396379083395,-53.40544128417969,46.49225616455078,-41.99064636230469
0.46,3.9385857582092285,-8.669196128845215,2.17627215385437,0.058948494493961334,0.043676864355802536,0.0036651913542300463,-53.17158508300781,46.477638244628906,-42.29757308959961
0.47,3.974478244781494,-8.572286605834961,2.155933141708374,0.052839841693639755,0.05696318298578262,0.0025961773935705423,-52.908504486083984,46.360713958740234,-41.91756820678711
0.48,4.01037073135376,-8.60219669342041,2.149951219558716,0.04260785132646561,0.05314527824521065,-0.0027488935738801956,-52.99620056152344,46.71148681640625,-41.727561950683594
0.49,4.060619831085205,-8.677571296691895,2.137986898422241,0.03527746722102165,0.04199698567390442,-0.01572977937757969,-53.30312728881836,46.097633361816406,-41.698333740234375
0.503,4.132404327392578,-8.770891189575195,2.1068801879882812,0.03634648025035858,0.044287726283073425,-0.01970040239393711,-53.40544128417969,46.24378967285156,-41.142940521240234
0.51,4.144368648529053,-8.748159408569336,2.108076810836792,0.04001167416572571,0.04795292019844055,-0.019394971430301666,-53.49312973022461,46.22917175292969,-41.522945404052734
0.52,4.163511276245117,-8.695516586303711,2.0985054969787598,0.04612032324075699,0.03191770985722542,-0.016798794269561768,-53.55158996582031,46.15609359741211,-40.952938079833984
0.53,4.096512317657471,-8.651249885559082,2.084148406982422,0.0455094613134861,0.0044287727214396,-0.012980885803699493,-53.06927490234375,46.08301544189453,-41.186790466308594
0.54,3.9732820987701416,-8.635696411132812,2.0673987865448,0.04734205827116966,-0.015271631069481373,-0.01710422709584236,-53.653900146484375,46.43379211425781,-42.268341064453125
0.55,3.9314074516296387,-8.707481384277344,2.1188442707061768,0.0481056347489357,-0.017867807298898697,-0.024434609338641167,-53.4200553894043,46.521484375,-42.19526290893555
0.566,3.988835334777832,-8.779266357421875,2.2229323387145996,0.0377209298312664,0.0044287727214396,-0.03145955875515938,-52.733116149902344,46.4191780090332,-42.516807556152344
0.57,3.9936206340789795,-8.757730484008789,2.231307029724121,0.03252857178449631,0.01542434748262167,-0.029474247246980667,-52.64542770385742,46.521484375,-42.76527404785156
0.58,3.998406410217285,-8.702695846557617,2.170289993286133,0.03145955875515938,0.02626720443367958,-0.030085112899541855,-53.06927490234375,46.477638244628906,-42.91142654418945
0.59,3.9732820987701416,-8.688338279724121,2.190629005432129,0.03084869496524334,0.02367102913558483,-0.025045473128557205,-52.85004425048828,46.302249908447266,-42.136802673339844
0.6,3.9493536949157715,-8.706284523010254,2.1678972244262695,0.03191770985722542,0.008246680721640587,-0.019853120669722557,-53.40544128417969,46.44840621948242,-41.47909927368164
0.618,3.9326038360595703,-8.766105651855469,2.1583259105682373,0.038026362657547,-0.007788531482219696,-0.014813481830060482,-53.215431213378906,46.15609359741211,-41.727561950683594
0.622,3.896711587905884,-8.798408508300781,2.203789472579956,0.04444044828414917,-0.028099801391363144,-0.003359758760780096,-53.814674377441406,46.550716400146484,-42.809120178222656
0.63,3.841676712036133,-8.828319549560547,2.2803597450256348,0.04459316283464432,-0.03481931984424591,0.0032070425804704428,-53.23004913330078,46.097633361816406,-41.47909927368164
0.64,3.816551923751831,-8.842676162719727,2.2803597450256348,0.04153883829712868,-0.04001167416572571,0.0088575454428792,-53.56621170043945,46.57994842529297,-42.58988571166992
0.65,3.7220354080200195,-8.818747520446777,2.252842426300049,0.04214970022439957,-0.027030786499381065,0.012064589187502861,-53.36158752441406,46.097633361816406,-43.01374053955078
0.66,3.6526436805725098,-8.761320114135742,2.26959228515625,0.041233401745557785,-0.0007635815418325365,0.008399397134780884,-53.50774383544922,46.43379211425781,-42.91142654418945
0.67,3.658625841140747,-8.724230766296387,2.328216314315796,0.020005837082862854,0.03436116874217987,0.004123340360820293,-53.46390151977539,45.84916687011719,-42.72142791748047
0.682,3.7316067218780518,-8.762516021728516,2.337787628173828,-0.004123340360820293,0.06322455406188965,-0.004734205547720194,-53.97544479370117,46.44840621948242,-41.43525314331055
0.69,3.806980848312378,-8.788837432861328,2.3509480953216553,-0.012828170321881771,0.07742717117071152,-0.0050396379083395,-53.34697341918945,46.112247467041016,-41.712947845458984
0.7,3.889533042907715,-8.779266357421875,2.3533408641815186,-0.01237002108246088,0.08857545256614685,-0.0064140851609408855,-53.50774383544922,46.56533432006836,-42.39988327026367
0.71,3.9553356170654297,-8.7505521774292,2.3509480953216553,-0.00809396430850029,0.08811730891466141,-0.006719517521560192,-52.937740325927734,45.86378479003906,-42.18064880371094
0.72,3.9912281036376953,-8.676374435424805,2.3234305381774902,-0.0007635815418325365,0.07391469925642014,-0.005803219974040985,-53.36158752441406,46.360713958740234,-42.41449737548828
0.739,4.006781578063965,-8.615358352661133,2.3270199298858643,0.004123340360820293,0.059406641870737076,-0.004886921960860491,-53.2008171081543,45.761470794677734,-43.11604690551758
0.743,4.033102512359619,-8.551947593688965,2.334198474884033,0.009773843921720982,0.049785517156124115,-0.007941247895359993,-53.7562141418457,46.346099853515625,-43.30604934692383
0.75,4.051048755645752,-8.622536659240723,2.3473589420318604,0.01817324012517929,0.04444044828414917,-0.0088575454428792,-53.17158508300781,46.50687026977539,-42.98450469970703
0.76,4.028316974639893,-8.675178527832031,2.352144718170166,0.031154125928878784,0.03405573591589928,-0.006261368282139301,-53.741600036621094,46.375328063964844,-42.823734283447266
0.77,4.0079779624938965,-8.739784240722656,2.3712871074676514,0.04138611629605293,0.026114489883184433,-0.0027488935738801956,-53.27389907836914,46.477638244628906,-42.79450607299805
0.78,3.9421751499176025,-8.754141807556152,2.407179594039917,0.04245513305068016,0.023518310859799385,0.00015271631127689034,-53.434669494628906,46.40456008911133,-42.312191009521484
0.798,3.8488550186157227,-8.729016304016113,2.3641088008880615,0.041691552847623825,0.033139437437057495,0.001679879380390048,-53.332359313964844,45.995323181152344,-43.072200775146484
0.803,3.867997646331787,-8.706284523010254,2.3509480953216553,0.03985895588994026,0.04612032324075699,0.0018325956771150231,-53.69774627685547,46.550716400146484,-42.429115295410156
0.81,3.8835508823394775,-8.673981666564941,2.3473589420318604,0.03940080478787422,0.04703662171959877,0.005345070734620094,-53.06927490234375,45.65916442871094,-42.049110412597656
0.82,3.933800458908081,-8.670392990112305,2.337787628173828,0.03695734962821007,0.04444044828414917,0.003817907767370343,-53.36158752441406,46.06840133666992,-42.6629638671875
0.83,3.944568157196045,-8.63330364227295,2.3258235454559326,0.03649919852614403,0.05161811038851738,-0.002138028386980295,-53.77082824707031,45.746856689453125,-43.84682846069336
0.84,4.0079779624938965,-8.622536659240723,2.3497517108917236,0.03451388329267502,0.05604688450694084,-0.0064140851609408855,-53.25928497314453,46.112247467041016,-42.999122619628906
0.859,4.039084434509277,-8.639286041259766,2.3186450004577637,0.03344487026333809,0.05665775015950203,-0.013439035043120384,-53.46390151977539,45.96609115600586,-42.95527648925781
0.863,4.113262176513672,-8.694320678710938,2.310270071029663,0.040164388716220856,0.05253440886735916,-0.018325956538319588,-53.5369758605957,46.65302658081055,-42.85296630859375
0.87,4.122833251953125,-8.706284523010254,2.289931058883667,0.04581489413976669,0.04993823170661926,-0.020463986322283745,-53.127742767333984,45.96609115600586,-43.17451095581055
0.88,4.0905303955078125,-8.700303077697754,2.258824348449707,0.052839841693639755,0.040164388716220856,-0.016951510682702065,-53.18620300292969,46.40456008911133,-42.92604446411133
0.89,4.036691665649414,-8.687142372131348,2.2301106452941895,0.05253440886735916,0.02977968007326126,-0.016798794269561768,-53.0985107421875,46.22917175292969,-43.27682113647461
0.9,3.999603033065796,-8.723034858703613,2.225324869155884,0.04703662171959877,0.013591751456260681,-0.014660765416920185,-53.332359313964844,46.63841247558594,-42.96989059448242
0.92,3.9972100257873535,-8.756534576416016,2.231307029724121,0.040317103266716,0.0036651913542300463,-0.013439035043120384,-53.113128662109375,46.62379455566406,-43.072200775146484
0.923,3.9696924686431885,-8.688338279724121,2.2336997985839844,0.0328340083360672,0.007788531482219696,-0.010079275816679,-53.68313217163086,46.24378967285156,-42.6629638671875
0.93,3.9397823810577393,-8.673981666564941,2.2468602657318115,0.024129178375005722,0.010690141469240189,-0.01160643994808197,-53.5369758605957,46.44840621948242,-42.95527648925781
0.94,3.9349966049194336,-8.663214683532715,2.287538528442383,0.008246680721640587,0.011759155429899693,-0.015118913725018501,-53.5369758605957,46.682254791259766,-42.692195892333984
0.95,3.967299699783325,-8.6967134475708,2.2815563678741455,-0.0003054326225537807,0.015577062964439392,-0.016340645030140877,-53.522361755371094,46.08301544189453,-42.47296142578125
0.96,4.027120590209961,-8.715856552124023,2.27677059173584,0.0004581489192787558,0.013439035043120384,-0.015882495790719986,-53.814674377441406,46.59456253051758,-42.96989059448242
0.979,4.0247273445129395,-8.715856552124023,2.3270199298858643,0.0012217304902151227,0.0024434609804302454,-0.01572977937757969,-53.317745208740234,46.24378967285156,-41.84449005126953
0.983,3.9912281036376953,-8.725427627563477,2.355733871459961,0.003054326167330146,-0.019089538604021072,-0.010690141469240189,-53.55158996582031,46.726104736328125,-42.58988571166992
0.99,3.9003007411956787,-8.730213165283203,2.348555326461792,0.004886921960860491,-0.021074850112199783,-0.009162978269159794,-53.36158752441406,46.360713958740234,-43.057586669921875
1.174,4.022334575653076,-8.646464347839355,2.321038007736206,0.043676864355802536,-0.012064589187502861,0.0013744467869400978,-53.77082824707031,46.25840377807617,-42.443729400634766
1.184,3.967299699783325,-8.62492847442627,2.3126630783081055,0.042302414774894714,-0.024434609338641167,-0.005192354787141085,-53.434669494628906,46.44840621948242,-42.706809997558594
1.194,3.895514965057373,-8.6907320022583,2.2683956623077393,0.04260785132646561,-0.026419920846819878,-0.006872233934700489,-53.522361755371094,46.40456008911133,-42.239112854003906
1.204,3.8333017826080322,-8.764909744262695,2.2719850540161133,0.044745877385139465,-0.021532999351620674,-0.003359758760780096,-53.68313217163086,46.15609359741211,-43.496055603027344
1.224,3.8285160064697266,-8.8438720703125,2.3461625576019287,0.027030786499381065,-0.003817907767370343,-0.001527163083665073,-53.55158996582031,46.46302032470703,-42.53142547607422
1.228,3.8524441719055176,-8.855835914611816,2.3772692680358887,0.022449297830462456,-0.0003054326225537807,-0.0024434609804302454,-53.46390151977539,46.4191780090332,-42.79450607299805
1.234,3.9242289066314697,-8.816354751586914,2.3784656524658203,0.0088575454428792,0.019089538604021072,-0.0029016099870204926,-54.077754974365234,46.521484375,-42.516807556152344
1.244,3.961317777633667,-8.688338279724121,2.337787628173828,-0.007024950347840786,0.04260785132646561,-0.007024950347840786,-53.59543991088867,46.19994354248047,-42.692195892333984
1.254,4.034298896789551,-8.541180610656738,2.287538528442383,-0.014355332590639591,0.043218713253736496,-0.014202617108821869,-53.93159866333008,46.1414794921875,-42.838348388671875
1.264,4.104887008666992,-8.525627136230469,2.3030917644500732,-0.014508049935102463,0.0177150908857584,-0.01542434748262167,-53.66851806640625,46.24378967285156,-42.54603958129883
1.277,4.120440483093262,-8.6033935546875,2.2947168350219727,0.0036651913542300463,-0.016493361443281174,-0.006261368282139301,-54.048526763916016,46.21455764770508,-42.999122619628906
1.284,4.070191383361816,-8.687142372131348,2.334198474884033,0.021074850112199783,-0.0328340083360672,-0.0019853119738399982,-53.66851806640625,45.805320739746094,-43.56913375854492
1.294,4.034298896789551,-8.766105651855469,2.403590202331543,0.035735614597797394,-0.04245513305068016,-0.0010690141934901476,-53.58082580566406,46.170711517333984,-43.52528381347656
1.304,3.94815731048584,-8.775676727294922,2.444268226623535,0.03741549327969551,-0.03375030308961868,-0.0044287727214396,-53.88775634765625,46.346099853515625,-43.7445182800293
1.314,3.816551923751831,-8.74337387084961,2.392822504043579,0.02977968007326126,-0.01114829070866108,-0.01038470957428217,-53.478515625,45.87839889526367,-43.10143280029297
1.324,3.7399816513061523,-8.689535140991211,2.3700907230377197,0.019394971430301666,0.009162978269159794,-0.017867807298898697,-54.004676818847656,46.44840621948242,-43.14527893066406
1.34,3.7746775150299072,-8.669196128845215,2.386840581893921,0.006719517521560192,0.017867807298898697,-0.017867807298898697,-54.238529205322266,46.06840133666992,-42.999122619628906
1.344,3.7782669067382812,-8.689535140991211,2.3569302558898926,0.0024434609804302454,0.01618792861700058,-0.016493361443281174,-53.40544128417969,45.68839645385742,-42.692195892333984
1.354,3.8117663860321045,-8.673981666564941,2.362912178039551,0.005497787147760391,0.010842857882380486,-0.009926560334861279,-53.5369758605957,45.84916687011719,-42.6629638671875
1.364,3.864408493041992,-8.71107006072998,2.400001049041748,0.008399397134780884,0.01114829070866108,-0.007024950347840786,-53.39081954956055,46.38994216918945,-43.58374786376953
1.374,3.9242289066314697,-8.684749603271484,2.407179594039917,0.01114829070866108,0.01572977937757969,-0.008704829961061478,-53.7562141418457,45.87839889526367,-42.882198333740234
1.393,3.957728624343872,-8.640481948852539,2.3916261196136475,0.01863138936460018,0.0138971833512187,-0.00931569468230009,-53.93159866333008,46.46302032470703,-43.11604690551758
1.397,3.926621675491333,-8.614161491394043,2.3772692680358887,0.03145955875515938,-0.00427605677396059,-0.006261368282139301,-54.267757415771484,45.922245025634766,-43.58374786376953
1.404,3.902693510055542,-8.634500503540039,2.39401912689209,0.03833179175853729,-0.015271631069481373,-0.00427605677396059,-53.77082824707031,45.22069549560547,-43.53989791870117
1.414,3.858426570892334,-8.683552742004395,2.4263219833374023,0.03955352306365967,-0.020005837082862854,-0.0010690141934901476,-53.88775634765625,46.50687026977539,-42.268341064453125
1.424,3.851248025894165,-8.715856552124023,2.4646072387695312,0.03634648025035858,-0.015577062964439392,0.0003054326225537807,-53.814674377441406,46.02455520629883,-43.802982330322266
1.434,3.8572299480438232,-8.656035423278809,2.480160713195801,0.029932396486401558,-0.009162978269159794,-0.001679879380390048,-53.50774383544922,45.98070526123047,-42.502193450927734
1.453,3.809373378753662,-8.591429710388184,2.47896409034729,0.02275473065674305,-0.0064140851609408855,-0.005192354787141085,-53.317745208740234,45.77608871459961,-42.502193450927734
1.457,3.7914273738861084,-8.616554260253906,2.4083759784698486,0.02428189292550087,-0.004734205547720194,-0.0004581489192787558,-53.814674377441406,46.15609359741211,-43.04296875
1.464,3.7663025856018066,-8.71226692199707,2.4047865867614746,0.035735614597797394,-0.0024434609804302454,0.005955935921519995,-54.10698699951172,45.746856689453125,-42.838348388671875
1.474,3.7698919773101807,-8.902496337890625,2.4047865867614746,0.0455094613134861,-0.006872233934700489,0.01618792861700058,-53.653900146484375,46.1414794921875,-42.867584228515625
1.484,3.8356947898864746,-8.993423461914062,2.482553482055664,0.04871650040149689,0.00015271631127689034,0.01664607785642147,-53.36158752441406,46.1414794921875,-43.90529251098633
1.494,3.789034366607666,-8.886942863464355,2.520838737487793,0.03878994286060333,0.022602012380957603,0.01664607785642147,-53.2008171081543,46.112247467041016,-42.6629638671875
1.513,3.7746775150299072,-8.670392990112305,2.4646072387695312,0.016493361443281174,0.055283304303884506,0.009010262787342072,-53.55158996582031,46.126861572265625,-42.633731842041016
1.517,3.909872055053711,-8.50887680053711,2.3533408641815186,-0.007177666295319796,0.06811147183179855,0.00015271631127689034,-53.59543991088867,46.360713958740234,-43.072200775146484
1.524,4.013959884643555,-8.548358917236328,2.3258235454559326,-0.0032070425804704428,0.05971207842230797,0.0013744467869400978,-53.25928497314453,46.21455764770508,-42.53142547607422
1.534,4.147957801818848,-8.609375,2.3365912437438965,0.01924225501716137,0.03985895588994026,0.004581489134579897,-53.39081954956055,46.375328063964844,-42.429115295410156
1.544,4.207778453826904,-8.61894702911377,2.3712871074676514,0.039248090237379074,0.018325956538319588,0.007788531482219696,-53.2008171081543,46.03916931152344,-43.59836196899414
1.554,4.265206336975098,-8.638089179992676,2.4083759784698486,0.049785517156124115,0.0010690141934901476,0.005345070734620094,-53.23004913330078,45.761470794677734,-42.692195892333984
1.574,4.2209391593933105,-8.672784805297852,2.3988046646118164,0.06230825185775757,-0.012675453908741474,-0.003359758760780096,-53.522361755371094,45.96609115600586,-42.882198333740234
1.578,4.035495281219482,-8.590232849121094,2.3186450004577637,0.08246680349111557,-0.025503622367978096,-0.007788531482219696,-53.18620300292969,46.03916931152344,-43.84682846069336
1.584,3.9242289066314697,-8.50289535522461,2.324627161026001,0.08491026610136032,-0.03329215571284294,-0.0073303827084600925,-53.113128662109375,45.86378479003906,-43.21835708618164
1.594,3.754338502883911,-8.467001914978027,2.2947168350219727,0.08124507963657379,-0.05360342189669609,-0.004886921960860491,-52.67465591430664,46.06840133666992,-42.6629638671875
1.604,3.6299118995666504,-8.47059154510498,2.2791635990142822,0.0780380368232727,-0.06536258012056351,0.001527163083665073,-53.317745208740234,46.185325622558594,-43.29143524169922
1.614,3.6287152767181396,-8.526823043823242,2.2504496574401855,0.08292495459318161,-0.0705549344420433,0.0074830991216003895,-53.46390151977539,46.097633361816406,-42.96989059448242
1.634,3.6681969165802,-8.61775016784668,2.249253273010254,0.09392052888870239,-0.07651086896657944,0.010537425056099892,-52.718502044677734,45.57147216796875,-42.01987838745117
1.637,3.8632121086120605,-8.781658172607422,2.23848557472229,0.10461067408323288,-0.09712757170200348,0.005497787147760391,-53.36158752441406,45.58608627319336,-42.253726959228516
1.644,3.9361932277679443,-8.85224723815918,2.197807550430298,0.11407908797264099,-0.10583239793777466,0.0009162978385575116,-53.23004913330078,46.346099853515625,-42.72142791748047
1.654,3.9840495586395264,-8.800801277160645,2.135594129562378,0.1310305893421173,-0.10430524498224258,-0.007024950347840786,-53.624671936035156,45.93686294555664,-43.51066970825195
1.664,3.964907169342041,-8.639286041259766,2.053041696548462,0.1472185254096985,-0.0936150997877121,-0.018325956538319588,-53.5369758605957,46.316864013671875,-42.502193450927734
1.674,3.9732820987701416,-8.36411190032959,1.9345970153808594,0.1498146951198578,-0.09468411654233932,-0.02825251594185829,-53.2008171081543,46.185325622558594,-42.896812438964844
1.693,3.9361932277679443,-8.166703224182129,1.8077774047851562,0.1621847152709961,-0.11820242553949356,-0.04581489413976669,-53.05466079711914,46.316864013671875,-43.65682601928711
1.697,3.937389612197876,-8.155935287475586,1.7180465459823608,0.16401731967926025,-0.12278390675783157,-0.04871650040149689,-53.46390151977539,46.185325622558594,-42.85296630859375
1.704,3.964907169342041,-8.37846851348877,1.7647066116333008,0.1670716404914856,-0.13469578325748444,-0.0633772686123848,-53.522361755371094,46.112247467041016,-42.85296630859375
1.714,3.972085475921631,-8.854640007019043,1.813759446144104,0.16035212576389313,-0.1414152979850769,-0.07971791177988052,-53.449283599853516,46.477638244628906,-42.809120178222656
1.724,3.8045878410339355,-9.229116439819336,1.9214365482330322,0.14737124741077423,-0.1342376321554184,-0.08017606288194656,-53.1569709777832,46.02455520629883,-43.20374298095703
1.734,3.483949661254883,-9.486345291137695,2.018345832824707,0.11667525768280029,-0.12553280591964722,-0.07360926270484924,-53.59543991088867,45.995323181152344,-42.77988815307617
1.753,3.184846878051758,-9.56770133972168,2.1296122074127197,0.00015271631127689034,-0.0933096632361412,-0.0757472887635231,-53.18620300292969,46.15609359741211,-43.23297119140625
1.757,2.967099905014038,-9.541379928588867,2.2229323387145996,-0.01817324012517929,-0.0835358202457428,-0.07666358351707458,-53.5369758605957,46.49225616455078,-42.56065368652344
1.764,2.9623141288757324,-9.390631675720215,2.266003131866455,-0.06368270516395569,-0.04245513305068016,-0.08307767659425735,-53.46390151977539,46.112247467041016,-43.3645133972168
1.774,3.2578277587890625,-9.20040225982666,2.304288148880005,-0.12950342893600464,0.04001167416572571,-0.09147706627845764,-53.08388900756836,45.87839889526367,-42.15141677856445
1.784,3.507877826690674,-8.98385238647461,2.2983059883117676,-0.16752979159355164,0.09117163717746735,-0.09804386645555496,-53.7562141418457,46.170711517333984,-42.85296630859375
1.794,3.6646077632904053,-8.794819831848145,2.221735715866089,-0.1892155110836029,0.13225232064723969,-0.09575312584638596,-53.449283599853516,46.22917175292969,-42.6629638671875
1.814,3.565305471420288,-8.517251968383789,2.128415822982788,-0.17180584371089935,0.16600261628627777,-0.08384125679731369,-53.90237045288086,46.22917175292969,-42.838348388671875
1.817,3.530609607696533,-8.498109817504883,2.155933141708374,-0.16233743727207184,0.1641700267791748,-0.08552113175392151,-54.16544723510742,46.170711517333984,-42.809120178222656
1.824,3.506681442260742,-8.534001350402832,2.194218397140503,-0.146913081407547,0.16065755486488342,-0.08246680349111557,-53.8585205078125,46.170711517333984,-42.35603332519531
1.834,3.404986619949341,-8.797212600708008,2.2959132194519043,-0.12858712673187256,0.16982053220272064,-0.0780380368232727,-53.69774627685547,46.27302169799805,-42.96989059448242
1.844,3.427718162536621,-8.8438720703125,2.3234305381774902,-0.11728612333536148,0.2041817009449005,-0.06368270516395569,-54.019290924072266,46.05378341674805,-42.078338623046875
1.854,3.506681442260742,-8.644071578979492,2.306680917739868,-0.10522153228521347,0.2506074607372284,-0.02626720443367958,-53.69774627685547,46.112247467041016,-42.619117736816406
1.874,3.829712390899658,-8.2695951461792,2.3222343921661377,-0.0858265683054924,0.2451096773147583,0.0633772686123848,-53.4200553894043,46.06840133666992,-42.282955169677734
1.878,3.9637105464935303,-8.2695951461792,2.328216314315796,-0.08277223259210587,0.2321287989616394,0.0835358202457428,-53.449283599853516,46.62379455566406,-42.19526290893555
1.884,4.302295207977295,-8.266005516052246,2.335394859313965,-0.07116580009460449,0.21273382008075714,0.10934487730264664,-53.741600036621094,45.922245025634766,-42.85296630859375
1.894,4.5822553634643555,-8.207381248474121,2.368894338607788,-0.050854530185461044,0.1915062516927719,0.14156801998615265,-53.2008171081543,46.22917175292969,-42.98450469970703
1.904,4.82751989364624,-8.207381248474121,2.4095723628997803,-0.03130684420466423,0.18219056725502014,0.17409659922122955,-53.36158752441406,46.112247467041016,-43.057586669921875
1.914,5.045266151428223,-8.068597793579102,2.366501569747925,-0.01313360221683979,0.15821409225463867,0.20204368233680725,-53.25928497314453,46.375328063964844,-42.09295654296875
1.926,5.307280540466309,-7.960920810699463,2.2959132194519043,0.020922133699059486,0.1007927656173706,0.23426681756973267,-52.96696853637695,46.170711517333984,-42.54603958129883
1.934,5.436492443084717,-7.913064479827881,2.2301106452941895,0.06841690838336945,0.037110064178705215,0.2538144886493683,-53.1569709777832,45.65916442871094,-42.57527160644531
1.944,5.42572546005249,-7.922635555267334,2.172683000564575,0.13607022166252136,-0.022143863141536713,0.2635883390903473,-53.522361755371094,46.27302169799805,-43.29143524169922
1.954,5.4173502922058105,-7.993224143981934,2.2169501781463623,0.20815233886241913,-0.05772676318883896,0.251218318939209,-53.127742767333984,45.761470794677734,-43.496055603027344
1.964,5.3036909103393555,-7.928617477416992,2.311466693878174,0.25473082065582275,-0.09728028625249863,0.23335051536560059,-52.908504486083984,46.112247467041016,-42.838348388671875
1.984,5.1050872802734375,-7.929814338684082,2.342573404312134,0.28359419107437134,-0.13087788224220276,0.19822576642036438,-52.513885498046875,46.19994354248047,-43.437591552734375
1.987,4.807180404663086,-8.078168869018555,2.3461625576019287,0.3280346393585205,-0.13561208546161652,0.15103644132614136,-53.4200553894043,46.477638244628906,-43.48143768310547
1.994,4.651647090911865,-8.140382766723633,2.3712871074676514,0.360105037689209,-0.1267545372247696,0.12370020896196365,-53.30312728881836,46.76995086669922,-44.53376388549805
2.004,4.473381996154785,-8.220541954040527,2.3784656524658203,0.39843684434890747,-0.11942415684461594,0.09483683109283447,-52.77696990966797,45.83454895019531,-43.189125061035156
2.014,4.396811485290527,-8.283951759338379,2.348555326461792,0.44028112292289734,-0.12400564551353455,0.07238753139972687,-52.923118591308594,46.25840377807617,-43.21835708618164
2.024,4.177868366241455,-8.233702659606934,2.341376781463623,0.49327367544174194,-0.14233160018920898,0.03695734962821007,-53.08388900756836,46.62379455566406,-43.7445182800293
2.043,4.015156269073486,-8.246862411499023,2.4849462509155273,0.5166392922401428,-0.13820825517177582,0.014355332590639591,-53.08388900756836,46.682254791259766,-44.38760757446289
2.047,3.8488550186157227,-8.315058708190918,2.675175428390503,0.5041165351867676,-0.10170906037092209,-0.0009162978385575116,-52.86465835571289,46.126861572265625,-44.811458587646484
2.054,3.728017568588257,-8.36171817779541,2.764906644821167,0.479834645986557,-0.04749477282166481,-0.010079275816679,-53.28851318359375,46.170711517333984,-45.24992752075195
2.064,3.6335010528564453,-8.435895919799805,2.8354947566986084,0.45463645458221436,0.07284567505121231,-0.029626963660120964,-52.74773406982422,46.98918533325195,-44.85530471801758
2.074,3.59043025970459,-8.441878318786621,2.882154941558838,0.4251622259616852,0.2483167201280594,-0.04841107130050659,-52.76234817504883,46.63841247558594,-45.68839645385742
2.084,3.6562328338623047,-8.374878883361816,2.9491539001464844,0.3871358335018158,0.5056437253952026,-0.055283304303884506,-53.06927490234375,46.69687271118164,-45.790706634521484
2.104,3.9242289066314697,-8.201398849487305,2.853440999984741,0.35964691638946533,0.695164680480957,-0.049785517156124115,-52.77696990966797,46.4191780090332,-45.366851806640625
2.107,4.314259052276611,-8.050651550292969,2.6775684356689453,0.35735616087913513,0.8677340149879456,-0.025503622367978096,-53.05466079711914,46.27302169799805,-45.86378479003906
2.114,4.627718925476074,-7.964509963989258,2.528017044067383,0.36819902062416077,0.9283624291419983,-0.0003054326225537807,-53.142356872558594,46.21455764770508,-46.185325622558594
2.124,5.0356950759887695,-7.795815944671631,2.3605194091796875,0.3929390609264374,0.9543241858482361,0.0481056347489357,-53.37620544433594,46.71148681640625,-46.360713958740234
2.134,5.44726037979126,-7.621140003204346,2.169093608856201,0.4297436773777008,0.9117163419723511,0.13057243824005127,-53.34697341918945,46.375328063964844,-46.15609359741211
2.144,5.891129493713379,-7.365107536315918,1.9453648328781128,0.4715879559516907,0.8292495608329773,0.19624045491218567,-53.01081466674805,46.05378341674805,-47.39842224121094
2.164,6.214160442352295,-7.217949390411377,1.7383856773376465,0.526413083076477,0.7215845584869385,0.25824329257011414,-52.61619567871094,46.550716400146484,-47.61765670776367
2.168,6.669992923736572,-7.066004753112793,1.1856435537338257,0.6501132845878601,0.546571671962738,0.3426953852176666,-53.2008171081543,46.59456253051758,-48.77228546142578
2.174,6.73818826675415,-7.083950996398926,0.867398202419281,0.7098253965377808,0.48579058051109314,0.36804628372192383,-52.543113708496094,46.740718841552734,-48.87459945678711
2.184,6.7178497314453125,-7.280162334442139,0.4402793347835541,0.8642215728759766,0.22907446324825287,0.35384368896484375,-52.85004425048828,46.126861572265625,-49.56153106689453
2.194,6.363711833953857,-7.761119842529297,0.9080761671066284,0.8797986507415771,-0.13301590085029602,0.27870726585388184,-52.309268951416016,46.49225616455078,-49.7223014831543
2.204,5.6339006423950195,-7.988438129425049,1.7156537771224976,0.7819074988365173,-0.4057672321796417,0.21991148591041565,-52.45542526245117,46.78456497192383,-49.19614028930664
2.224,4.813162326812744,-8.200202941894531,2.3569302558898926,0.6722572445869446,-0.413555771112442,0.18188512325286865,-52.543113708496094,46.755332946777344,-49.166908264160156
2.227,3.9792640209198,-8.556733131408691,2.849851608276367,0.5436700582504272,-0.08491026610136032,0.10537425428628922,-51.885414123535156,46.81379699707031,-49.51768493652344
2.234,3.759124279022217,-8.706284523010254,2.943171739578247,0.48838675022125244,0.12324206531047821,0.0555887334048748,-51.98772430419922,46.60917663574219,-49.6784553527832
2.244,3.451646566390991,-8.890532493591309,3.0101706981658936,0.4066835343837738,0.3549126982688904,-0.009468411095440388,-52.25080108642578,47.03303146362305,-49.766151428222656
2.254,3.3547372817993164,-8.915657043457031,3.001795768737793,0.31352660059928894,0.48655417561531067,-0.0455094613134861,-52.0608024597168,47.237648010253906,-50.789241790771484
2.264,3.212364435195923,-8.955138206481934,2.994617462158203,0.21930061280727386,0.5267185568809509,-0.05161811038851738,-52.543113708496094,46.63841247558594,-50.62847137451172
2.284,3.012563705444336,-9.025726318359375,3.0580272674560547,0.05497787147760391,0.5787947773933411,-0.024129178375005722,-52.36772918701172,46.755332946777344,-51.76848602294922
2.287,2.8689942359924316,-9.312865257263184,3.28773832321167,0.01878410577774048,0.6172793507575989,-0.005345070734620094,-52.338497161865234,46.521484375,-51.169246673583984
2.294,2.9527430534362793,-9.347561836242676,3.3810582160949707,-0.034666601568460464,0.6742424964904785,0.03084869496524334,-52.60157775878906,46.682254791259766,-51.0815544128418
2.304,3.0041887760162354,-9.147760391235352,3.5341989994049072,-0.1088867262005806,0.7266241908073425,0.07681629806756973,-52.44080352783203,47.07687759399414,-51.25694274902344
2.314,3.208775043487549,-9.038887023925781,3.7663025856018066,-0.18997909128665924,0.7680103182792664,0.12095130980014801,-52.14849853515625,46.76995086669922,-52.499271392822266
2.324,3.728017568588257,-9.456435203552246,3.9326038360595703,-0.26939156651496887,0.8119926452636719,0.17211127281188965,-52.17772674560547,46.726104736328125,-52.090030670166016
2.343,4.3896331787109375,-10.04148006439209,4.034298896789551,-0.2863430678844452,0.9147706627845764,0.31123584508895874,-51.914642333984375,47.32534408569336,-52.689273834228516
2.347,5.328815937042236,-10.321439743041992,3.8668015003204346,-0.2565633952617645,0.9275988340377808,0.3523165285587311,-51.63694763183594,46.59456253051758,-52.1192626953125
2.354,5.6685967445373535,-9.993623733520508,3.783052444458008,-0.20616701245307922,0.9045386910438538,0.40393462777137756,-51.87080001831055,46.65302658081055,-53.05466079711914
2.364,6.145964622497559,-9.400203704833984,3.6705896854400635,-0.18051066994667053,0.7845036387443542,0.43829578161239624,-51.476173400878906,47.26688003540039,-52.090030670166016
2.374,6.904489517211914,-8.956335067749023,3.370290756225586,-0.17547103762626648,0.6490443348884583,0.47418415546417236,-50.774627685546875,47.427650451660156,-53.449283599853516
2.384,7.576872825622559,-8.672784805297852,3.047259569168091,-0.12950342893600464,0.5571091175079346,0.5761985778808594,-51.25694274902344,46.916107177734375,-53.215431213378906
2.404,8.729016304016113,-8.858229637145996,2.4981067180633545,0.09544768929481506,0.5656611919403076,0.6841690540313721,-50.67231750488281,46.98918533325195,-53.5369758605957
2.407,8.902496337890625,-9.079565048217773,2.3916261196136475,0.13500121235847473,0.5610796809196472,0.6850853562355042,-50.71616744995117,47.32534408569336,-53.5369758605957
2.414,9.012566566467285,-9.529415130615234,2.39401912689209,0.2528982162475586,0.49816060066223145,0.6476698517799377,-50.67231750488281,47.500728607177734,-53.78544235229492
2.424,9.203991889953613,-10.394421577453613,2.932404041290283,0.3378084599971771,0.2177734524011612,0.5076289772987366,-50.3215446472168,47.32534408569336,-54.48699188232422
2.434,9.20997428894043,-11.088339805603027,3.689732551574707,0.29275718331336975,-0.22678370773792267,0.36529740691185,-50.20461654663086,47.544578552246094,-54.98392105102539
2.444,8.213363647460938,-11.070393562316895,3.8249268531799316,0.1388191282749176,-0.6969972848892212,0.23335051536560059,-50.263084411621094,47.924583435058594,-55.40777587890625
2.463,5.870790004730225,-10.362117767333984,1.7443677186965942,0.1511891484260559,-0.9306531548500061,0.003054326167330146,-49.6784553527832,47.39842224121094,-54.58930206298828
2.467,5.639883041381836,-10.380064964294434,1.1413763761520386,0.16569718718528748,-0.9663887619972229,-0.01817324012517929,-49.80999755859375,47.36919021606445,-54.472373962402344
2.474,5.4245285987854,-10.604989051818848,0.4091726541519165,0.17348572611808777,-1.1664471626281738,-0.05864306166768074,-50.043846130371094,47.427650451660156,-54.80853271484375
2.484,4.865804672241211,-11.12064266204834,-0.47976091504096985,0.08368853479623795,-1.529606580734253,-0.06383541971445084,-50.760013580322266,47.310726165771484,-53.8585205078125
2.494,4.0833516120910645,-11.714062690734863,-0.8853443264961243,-0.17928895354270935,-1.7498234510421753,-0.04642575979232788,-50.10231018066406,47.51534652709961,-53.8585205078125
2.504,3.3547372817993164,-11.875578880310059,0.3170489966869354,-0.5981897711753845,-1.6400203704833984,-0.04932736977934837,-50.160770416259766,47.41303634643555,-53.40544128417969
2.52,2.062613010406494,-10.774880409240723,1.4727823734283447,-1.3113750219345093,-1.215621829032898,-0.29474249482154846,-50.789241790771484,47.99766159057617,-52.41157531738281
2.524,2.1607186794281006,-10.351350784301758,1.4464612007141113,-1.5790866613388062,-0.9428704977035522,-0.3966042399406433,-50.789241790771484,47.99766159057617,-52.42618942260742
2.534,3.046063184738159,-9.425328254699707,0.05144568905234337,-2.082744836807251,-0.6302602291107178,-0.5360342264175415,-50.336158752441406,47.427650451660156,-51.710025787353516
2.544,3.91705060005188,-8.745766639709473,-1.435693621635437,-2.4358251094818115,-0.8582656383514404,-0.6759223937988281,-51.388484954833984,47.5591926574707,-50.51154327392578
2.554,4.164707660675049,-8.35573673248291,-1.3746765851974487,-2.5862505435943604,-1.0502300262451172,-0.7677049040794373,-51.53464126586914,47.2230339050293,-49.225372314453125
2.564,3.972085475921631,-7.928617477416992,0.1902294009923935,-2.713157892227173,-0.9453139305114746,-0.8822421431541443,-51.84156799316406,47.09149169921875,-49.15229415893555
2.577,3.899104356765747,-7.312465667724609,2.8007986545562744,-2.858849287033081,-0.42638394236564636,-1.0879509449005127,-52.42618942260742,46.916107177734375,-46.287635803222656
2.584,4.005584716796875,-7.0169525146484375,3.7316067218780518,-2.855642318725586,-0.2837468981742859,-1.1523971557617188,-52.76234817504883,46.346099853515625,-45.191463470458984
2.594,4.4135613441467285,-7.147360801696777,3.7770702838897705,-2.679865837097168,-0.22617284953594208,-1.2825114727020264,-53.61005783081055,46.15609359741211,-44.86991882324219
2.604,5.460421085357666,-8.01236629486084,2.788834571838379,-2.3519837856292725,-0.5268712639808655,-1.3758212327957153,-54.15083312988281,45.62993240356445,-44.21221923828125
2.614,6.588636875152588,-8.865407943725586,2.328216314315796,-1.8078556060791016,-1.1539243459701538,-1.432478904724121,-54.633148193359375,44.70914840698242,-42.98450469970703
2.633,7.031309127807617,-10.321439743041992,2.4873390197753906,-1.1229230165481567,-1.766011357307434,-1.299310326576233,-55.11546325683594,44.548377990722656,-42.73604202270508
2.637,6.798008441925049,-12.634103775024414,3.7220354080200195,-0.3533855378627777,-2.229810953140259,-0.826195240020752,-55.261619567871094,44.15375518798828,-41.49371337890625
2.644,5.783452033996582,-13.987244606018066,4.954339027404785,0.023976460099220276,-2.436894178390503,-0.3605632185935974,-55.52470016479492,44.022212982177734,-40.82139587402344
2.654,3.7112677097320557,-15.694522857666016,5.766702175140381,0.10415252298116684,-2.487595796585083,-0.08491026610136032,-55.363929748535156,43.78836441040039,-40.9237060546875
2.664,3.3786656856536865,-16.106088638305664,4.669593334197998,-0.2252565622329712,-2.913980007171631,-0.24648413062095642,-55.71470260620117,43.91990661621094,-39.783687591552734
2.674,3.438485860824585,-14.554343223571777,3.455235719680786,-0.9132435321807861,-3.2846224308013916,-0.5227479338645935,-55.32008361816406,43.33528137207031,-38.848289489746094
2.694,3.9637105464935303,-11.808579444885254,1.9334007501602173,-1.4946345090866089,-3.3156237602233887,-0.5691736936569214,-54.8377685546875,43.48143768310547,-37.079803466796875
2.698,2.65842604637146,-9.103493690490723,0.43190446496009827,-1.6459764242172241,-2.8913779258728027,-0.45005494356155396,-55.2762336730957,43.189125061035156,-35.662086486816406
2.704,2.2444677352905273,-8.784051895141602,0.5300102233886719,-1.6030629873275757,-2.4269673824310303,-0.42562034726142883,-54.51622772216797,42.29757308959961,-34.47822189331055
2.714,2.187039852142334,-8.74337387084961,1.155733346939087,-1.6475034952163696,-1.751503348350525,-0.42821651697158813,-54.238529205322266,42.823734283447266,-34.05436706542969
2.724,2.218146562576294,-8.638089179992676,1.672582983970642,-1.7220290899276733,-1.2705997228622437,-0.46181410551071167,-54.647762298583984,42.268341064453125,-32.85588836669922
2.734,1.5122638940811157,-8.475377082824707,2.14516544342041,-1.7354680299758911,-1.0294606685638428,-0.4755585789680481,-54.80853271484375,41.756797790527344,-31.350481033325195
2.753,0.5084748268127441,-8.184649467468262,2.258824348449707,-1.739285945892334,-0.6583600044250488,-0.5306891798973083,-54.969303131103516,41.39140701293945,-31.11663246154785
2.757,-0.39840495586395264,-7.465606689453125,1.8747763633728027,-1.7114917039871216,0.22174407541751862,-0.5558873414993286,-55.02777099609375,41.28909683227539,-30.152002334594727
2.764,-0.5946164131164551,-7.133004188537598,1.7754743099212646,-1.6548339128494263,0.6133086681365967,-0.5497786998748779,-55.363929748535156,40.85062789916992,-30.195850372314453
2.774,-0.5970092415809631,-6.434299945831299,1.483549952507019,-1.5473215579986572,1.0441213846206665,-0.5141957998275757,-55.46623992919922,40.44139099121094,-29.757381439208984
2.784,-0.45583271980285645,-5.718846321105957,0.9810572266578674,-1.3503175973892212,1.2638801336288452,-0.4616613984107971,-56.47471618652344,39.24291229248047,-28.953521728515625
2.794,-0.23569302260875702,-5.296512603759766,0.8075776100158691,-1.0207557678222656,1.1213958263397217,-0.4816672205924988,-56.88395690917969,39.09675598144531,-30.181232452392578
2.814,-0.008374879136681557,-5.060819625854492,1.042074203491211,-0.6282749176025391,0.5981897711753845,-0.5726861357688904,-57.337032318115234,39.213680267333984,-30.45893096923828
2.818,0.9559326767921448,-5.01296329498291,1.042074203491211,-0.30253100395202637,-0.13500121235847473,-0.6270532011985779,-58.19935607910156,38.570594787597656,-30.35662078857422
2.824,1.0767701864242554,-5.335994243621826,1.1569297313690186,-0.194713294506073,-0.4205807149410248,-0.58062744140625,-58.0970458984375,38.7459831237793,-30.152002334594727
2.834,0.92482590675354,-5.364708423614502,1.1306086778640747,-0.1693623811006546,-0.42119157314300537,-0.4502076804637909,-57.950889587402344,38.73136520385742,-30.225080490112305
2.844,1.0528419017791748,-4.984249591827393,1.0085747241973877,-0.18829920887947083,-0.2863430678844452,-0.29825496673583984,-58.08243179321289,38.73136520385742,-30.44431495666504
2.854,1.3124631643295288,-4.618147850036621,1.1928220987319946,-0.12431107461452484,-0.3149010241031647,-0.13026700913906097,-58.0385856628418,38.36597442626953,-30.093538284301758
2.874,1.2981061935424805,-3.9050865173339844,0.8279166221618652,0.012217304669320583,-0.38179075717926025,0.021074850112199783,-57.950889587402344,38.833675384521484,-29.947385787963867
2.878,1.5266207456588745,-3.6011979579925537,0.31824538111686707,0.2883284091949463,-0.2886338233947754,0.17669276893138885,-57.8193473815918,38.950599670410156,-29.114294052124023
2.884,1.9597216844558716,-3.5820553302764893,0.2225324958562851,0.36331209540367126,-0.1716531366109848,0.23167064785957336,-58.140892028808594,38.64366912841797,-29.991230010986328
2.894,2.482553482055664,-3.6777684688568115,-0.11844471842050552,0.48227810859680176,0.1794416606426239,0.3539963960647583,-58.0385856628418,39.27214050292969,-30.385852813720703
2.904,3.0927231311798096,-4.1970109939575195,-0.5946164131164551,0.6481279730796814,0.8335255980491638,0.4508185386657715,-58.053199768066406,39.213680267333984,-30.239694595336914
2.914,4.500899314880371,-5.499902248382568,-1.4093725681304932,0.7719809412956238,1.3874276876449585,0.4634940028190613,-58.18474197387695,39.69599533081055,-31.408945083618164
2.934,6.083751201629639,-6.750152587890625,-2.3856441974639893,0.9179776906967163,1.868942141532898,0.4312708377838135,-57.87781524658203,39.82753372192383,-32.607425689697266
2.937,8.244470596313477,-8.896513938903809,-3.686143398284912,1.1007791757583618,2.2846357822418213,0.38576140999794006,-58.7547492980957,40.93832015991211,-33.39666748046875
2.944,9.519845008850098,-10.846664428710938,-4.756931304931641,1.0922271013259888,2.3806943893432617,0.3568980097770691,-58.78398513793945,41.01139831542969,-34.33206558227539
2.954,11.702098846435547,-14.190633773803711,-5.923432350158691,0.588874101638794,2.4882068634033203,0.1638645976781845,-59.58784103393555,40.777549743652344,-35.61824035644531
2.964,14.766107559204102,-16.14437484741211,-7.457231521606445,-0.17592918872833252,2.1894936561584473,-0.06963863968849182,-59.16398620605469,41.01139831542969,-36.37825393676758
2.974,16.35733413696289,-14.630913734436035,-7.579265117645264,-0.5316054821014404,1.5905402898788452,-0.2353358417749405,-59.80707550048828,41.508331298828125,-37.81058120727539
2.993,15.42772388458252,-10.548758506774902,-5.5345988273620605,-0.018020525574684143,-0.5004513263702393,-0.3530800938606262,-59.982460021972656,41.02601623535156,-36.465946197509766
2.997,14.425130844116211,-9.827322959899902,-4.823930263519287,0.036041051149368286,-0.722959041595459,-0.35155293345451355,-60.56708526611328,40.73370361328125,-36.67056655883789
3.004,12.270394325256348,-9.182456970214844,-3.9972100257873535,0.08200865983963013,-1.243874430656433,-0.3202460706233978,-60.30400466918945,40.71908950805664,-37.18210983276367
3.014,9.22313404083252,-8.294719696044922,-3.634697675704956,0.06459899991750717,-1.436296820640564,-0.3588833212852478,-60.27477264404297,40.71908950805664,-37.021339416503906
3.024,7.8795647621154785,-7.689335346221924,-3.3104701042175293,0.10415252298116684,-1.5599970817565918,-0.4030183255672455,-60.12861633300781,40.61677932739258,-36.275943756103516
3.034,5.897111415863037,-6.845865249633789,-2.148754596710205,0.1290452778339386,-1.7742581367492676,-0.39767327904701233,-60.362464904785156,40.499855041503906,-35.9836311340332
3.053,3.9003007411956787,-8.103293418884277,-0.2141576111316681,-0.07528913766145706,-1.9825631380081177,-0.21945331990718842,-60.362464904785156,40.543701171875,-34.47822189331055
3.057,1.8484554290771484,-12.507284164428711,1.6115659475326538,-0.06322455406188965,-1.965153455734253,-0.10125090926885605,-60.786319732666016,40.67523956298828,-34.27360534667969
3.064,0.6412764191627502,-14.723037719726562,2.6691935062408447,0.1033889427781105,-1.747380018234253,0.1774563491344452,-60.187076568603516,40.61677932739258,-34.49283981323242
3.074,-0.9032905101776123,-15.41815185546875,2.8079774379730225,0.4164573848247528,-1.1820242404937744,0.6513350009918213,-60.26015853881836,41.698333740234375,-34.726688385009766
3.084,-3.2781667709350586,-12.571890830993652,1.5481561422348022,0.5923865437507629,-1.1604912281036377,0.8452848196029663,-59.997074127197266,41.77141189575195,-33.93744659423828
3.094,-4.8562331199646,-8.489734649658203,0.9595218300819397,0.5487096905708313,-1.528690218925476,0.5551237463951111,-59.266300201416016,41.85910415649414,-34.21514129638672
3.114,-3.1585259437561035,-4.252045631408691,0.19621144235134125,0.15424346923828125,-0.19883663952350616,0.05345070734620094,-59.39783477783203,42.03449249267578,-33.820518493652344
3.117,-2.2983059883117676,-4.4721856117248535,0.5946164131164551,0.1371392458677292,0.4827362596988678,0.040317103266716,-59.39783477783203,41.93218231201172,-34.229759216308594
3.124,-0.9284151792526245,-5.590829849243164,1.4931212663650513,0.1417207270860672,1.3451251983642578,0.04306599870324135,-60.31861877441406,42.18064880371094,-33.46974563598633
3.134,0.784845769405365,-7.4632134437561035,2.166700839996338,0.19914206862449646,2.001194477081299,0.09987646341323853,-59.85091781616211,41.9614143371582,-35.13592529296875
3.144,2.190629005432129,-9.035297393798828,2.7074787616729736,0.29565879702568054,2.3248002529144287,0.29657506942749023,-60.610931396484375,42.47296142578125,-35.42823791503906
3.154,3.018545627593994,-10.387242317199707,3.506681442260742,0.3295617997646332,2.383901357650757,0.5539020299911499,-59.997074127197266,42.326805114746094,-35.720550537109375
3.174,3.7160534858703613,-10.800004959106445,4.025923728942871,0.12690724432468414,1.644449234008789,0.8532260060310364,-61.034786224365234,42.619117736816406,-38.395206451416016
3.179,3.796213150024414,-10.138389587402344,3.428914785385132,0.11545352637767792,1.4245377779006958,0.8972083330154419,-61.020172119140625,42.823734283447266,-38.89213943481445
3.184,3.73758864402771,-9.639486312866211,3.06999135017395,0.14584407210350037,1.2386820316314697,0.9358454942703247,-60.46477508544922,42.92604446411133,-39.023677825927734
3.194,3.6562328338623047,-8.863015174865723,2.7038893699645996,0.28725937008857727,0.967915952205658,0.9876163601875305,-60.187076568603516,44.28529739379883,-38.62905502319336
3.204,3.9050865173339844,-8.277969360351562,2.4430718421936035,0.503963828086853,0.8000807762145996,1.006400465965271,-60.46477508544922,44.10990905761719,-39.85676574707031
3.214,4.5714874267578125,-7.835297584533691,2.3712871074676514,0.8906415104866028,0.6050620079040527,1.0459539890289307,-60.391700744628906,44.548377990722656,-40.06138610839844
3.23,6.472585201263428,-7.300501823425293,2.693121910095215,1.5096007585525513,0.17852537333965302,1.2739593982696533,-59.95323181152344,45.32300567626953,-40.47062301635742
3.234,6.650850296020508,-7.381857395172119,2.9216363430023193,1.736689805984497,0.0018325956771150231,1.3979651927947998,-59.71937942504883,45.46916198730469,-41.28909683227539
3.244,6.510870456695557,-7.9621171951293945,3.5437703132629395,2.085188627243042,-0.2515237629413605,1.6157385110855103,-59.470916748046875,46.19994354248047,-42.253726959228516
3.254,6.1196441650390625,-8.3629150390625,3.55932354927063,2.250274658203125,-0.39736783504486084,1.6942347288131714,-58.623207092285156,46.916107177734375,-43.65682601928711
3.264,5.542973518371582,-8.402396202087402,3.2518458366394043,2.3487768173217773,-0.3527746796607971,1.5917620658874512,-58.27243423461914,47.77842712402344,-44.22683334350586
3.284,4.218545913696289,-7.755137920379639,2.641676187515259,2.3881776332855225,-0.07620543986558914,1.3805553913116455,-57.731658935546875,48.5384407043457,-44.358375549316406
3.287,3.6263227462768555,-7.40578556060791,2.5363919734954834,2.370615243911743,0.4951062798500061,1.0319041013717651,-56.693946838378906,49.25460433959961,-46.521484375
3.294,3.218346357345581,-7.36630392074585,2.9072792530059814,2.2899811267852783,0.8642215728759766,0.8538368940353394,-57.05934143066406,49.795379638671875,-46.44840621948242
3.304,2.5256240367889404,-7.670192718505859,4.065405368804932,2.0442605018615723,1.4897475242614746,0.6120869517326355,-56.97164535522461,49.54691696166992,-47.63227081298828
3.314,4.059423446655273,-7.95015287399292,4.6061835289001465,1.4789047241210938,2.216524362564087,0.38026362657546997,-56.927799224853516,49.649227142333984,-49.663841247558594
3.324,6.2536420822143555,-7.753941535949707,2.662015199661255,1.2105822563171387,2.1090121269226074,0.3903428912162781,-56.693946838378906,49.663841247558594,-50.3800048828125
3.343,5.704488754272461,-7.5565338134765625,1.5397813320159912,1.211803913116455,1.783726453781128,0.4173736572265625,-56.942413330078125,49.56153106689453,-52.0169563293457
3.347,4.989035129547119,-7.1401824951171875,0.48454657196998596,1.4023938179016113,1.5132659673690796,0.3517056703567505,-56.372406005859375,49.42999267578125,-53.68313217163086
3.354,4.429114818572998,-7.326822757720947,0.4331009089946747,1.4506522417068481,1.3822352886199951,0.2782491147518158,-56.372406005859375,49.88307571411133,-55.071617126464844
3.364,3.73758864402771,-7.808976650238037,0.17946170270442963,1.05099356174469,1.239598274230957,0.18188512325286865,-56.06547546386719,49.853843688964844,-55.2762336730957
3.374,3.6119656562805176,-8.210970878601074,-0.363709032535553,0.6433938145637512,0.9086620211601257,0.042760565876960754,-56.03624725341797,49.69307327270508,-56.25548553466797
3.384,4.005584716796875,-8.225327491760254,-0.11964112520217896,0.48655417561531067,0.5578727126121521,-0.12293662130832672,-56.416255950927734,49.663841247558594,-56.66471862792969
3.404,4.390829086303711,-8.145167350769043,0.8111668825149536,0.5204571485519409,0.4092797338962555,-0.25641068816185,-56.54779052734375,49.82461166381836,-56.66471862792969
3.407,4.705485820770264,-8.042276382446289,1.7910276651382446,0.6038402915000916,0.4541782736778259,-0.34315353631973267,-57.26395797729492,49.576148986816406,-57.35165023803711
3.414,4.60857629776001,-7.919046401977539,2.2157537937164307,0.6105597615242004,0.4818199574947357,-0.3439171314239502,-57.14703369140625,49.239986419677734,-57.89242935180664
3.424,4.280759334564209,-7.746763229370117,2.6452653408050537,0.565203070640564,0.5685628056526184,-0.3127630054950714,-57.60011672973633,49.093833923339844,-57.70242691040039
3.434,3.9625141620635986,-7.724031448364258,2.8067808151245117,0.493731826543808,0.6963863968849182,-0.27977627515792847,-57.60011672973633,49.2984504699707,-57.80473327636719
3.444,3.8703906536102295,-7.712067127227783,2.644068956375122,0.4381431043148041,0.8423831462860107,-0.2539672255516052,-58.19935607910156,48.78690719604492,-58.57936096191406
3.464,3.6681969165802,-7.734798908233643,2.3222343921661377,0.45005494356155396,0.9691376686096191,-0.24694228172302246,-58.50628662109375,48.90382766723633,-58.90090560913086
3.467,3.2925240993499756,-8.053044319152832,2.2540388107299805,0.5601634383201599,1.1611021757125854,-0.2767219543457031,-57.96550369262695,48.026893615722656,-60.23093032836914
3.583,4.96630334854126,-10.817951202392578,2.867797613143921,-0.04184426739811897,0.26343563199043274,0.41584649682044983,-57.337032318115234,47.8807373046875,-66.95410919189453
3.587,7.423731803894043,-10.791630744934082,0.3565305471420288,-0.07941248267889023,0.23548854887485504,0.4977024495601654,-57.65857696533203,48.23151397705078,-66.54487609863281
3.594,8.145167350769043,-10.582257270812988,-0.02392822690308094,-0.1768454760313034,0.3758348524570465,0.6308711171150208,-57.48318862915039,47.866119384765625,-67.40718841552734
3.604,8.009973526000977,-10.393224716186523,1.5493526458740234,-0.4208861291408539,0.7480044364929199,0.7002043128013611,-56.66471862792969,48.45074462890625,-67.26103210449219
3.614,8.082954406738281,-10.262815475463867,3.5533413887023926,-0.6916521787643433,0.901637077331543,0.5103778839111328,-57.04472732543945,48.31920623779297,-67.2171859741211
3.624,8.58903694152832,-10.189834594726562,4.364508152008057,-0.9880744814872742,0.593913733959198,0.2119702398777008,-56.82548904418945,48.9184455871582,-67.08564758300781
3.643,10.29033374786377,-10.1336030960083,4.18983268737793,-1.0939068794250488,0.16523903608322144,0.2785545587539673,-56.51856231689453,49.18152618408203,-67.392578125
3.647,12.189038276672363,-10.716256141662598,4.253242015838623,-1.0723739862442017,0.005345070734620094,0.3620903789997101,-56.84010314941406,49.00613784790039,-67.02719116210938
3.654,12.65085220336914,-10.789237022399902,3.5186455249786377,-0.9863946437835693,-0.30726519227027893,0.48288896679878235,-56.503944396972656,49.26921844482422,-66.89564514160156
3.664,11.575279235839844,-9.78544807434082,-0.20578275620937347,-0.5546656250953674,-0.29626965522766113,0.5148066878318787,-57.41011428833008,49.53229904174805,-66.42794799804688
3.674,9.903892517089844,-9.297311782836914,-4.317848205566406,0.2710714340209961,-0.204487144947052,-0.08216137439012527,-56.72317886352539,49.605377197265625,-66.42794799804688
3.684,10.25085163116455,-12.52164077758789,-4.29750919342041,-0.24724771082401276,-1.6100881099700928,-0.850782573223114,-57.41011428833008,49.13768005371094,-65.94563293457031
3.703,5.2354960441589355,-10.30469036102295,-0.3888336718082428,-1.8234326839447021,-2.637716054916382,-1.5661057233810425,-59.35398864746094,48.90382766723633,-64.35253143310547
3.707,4.524827480316162,-9.850053787231445,0.25722840428352356,-1.8747453689575195,-2.606867551803589,-1.5908458232879639,-59.57322692871094,48.684593200683594,-63.18327713012695
3.714,3.3954150676727295,-9.743573188781738,0.9332008361816406,-1.9526307582855225,-2.507296323776245,-1.6546812057495117,-60.46477508544922,48.9184455871582,-61.721717834472656
3.724,2.365305185317993,-9.980463027954102,2.1403796672821045,-2.051743745803833,-1.9769126176834106,-1.7597500085830688,-61.239402770996094,48.07073974609375,-60.96170425415039
3.734,2.2157537937164307,-9.68255615234375,3.3678977489471436,-2.1876611709594727,-1.398881435394287,-1.8312212228775024,-62.569419860839844,47.76381301879883,-59.44168472290039
3.744,2.761317014694214,-8.96231746673584,3.8596227169036865,-2.174527406692505,-1.0419833660125732,-1.8991800546646118,-63.270973205566406,47.61765670776367,-58.60859298706055
3.763,3.5748770236968994,-9.594021797180176,3.163311243057251,-1.8748981952667236,-1.259145975112915,-1.8354973793029785,-64.96638488769531,46.56533432006836,-56.09471130371094
3.767,3.748356580734253,-9.942177772521973,2.7840490341186523,-1.8110626935958862,-1.368032693862915,-1.806328535079956,-65.17100524902344,46.4191780090332,-55.29084777832031
3.774,3.8153557777404785,-10.61695384979248,2.4179470539093018,-1.5682438611984253,-1.7385224103927612,-1.708437442779541,-65.8140869140625,45.77608871459961,-54.063140869140625
3.784,4.6779680252075195,-11.345568656921387,2.321038007736206,-0.9818131327629089,-2.5387561321258545,-1.4929546117782593,-66.31101989746094,45.4837760925293,-53.113128662109375
3.794,5.134997367858887,-12.825528144836426,3.0233314037323,-0.3298672139644623,-3.2293388843536377,-1.2089022397994995,-67.17334747314453,44.6799201965332,-51.09617233276367
3.804,5.789434432983398,-16.025930404663086,3.9110684394836426,0.128434419631958,-3.794236660003662,-0.8500189781188965,-68.12335968017578,44.03683090209961,-49.795379638671875
3.819,5.4951171875,-18.00838279724121,3.3547372817993164,-0.10766499489545822,-4.608367443084717,-0.4524984359741211,-68.64952087402344,44.007598876953125,-47.79304122924805
3.824,5.054837703704834,-16.685152053833008,3.1860432624816895,-0.5093088746070862,-4.63921594619751,-0.4738787114620209,-68.40104675292969,43.817596435546875,-45.95147705078125
3.834,4.82632303237915,-13.804193496704102,3.2709884643554688,-1.0154106616973877,-4.6218061447143555,-0.6925684809684753,-68.54721069335938,43.452205657958984,-43.84682846069336
3.844,4.591826438903809,-11.661420822143555,3.920639753341675,-1.3607022762298584,-4.301254749298096,-0.640034019947052,-67.7725830078125,43.11604690551758,-40.61677932739258
3.854,1.746760368347168,-11.027322769165039,4.315455436706543,-1.736689805984497,-3.377321243286133,-0.42928555607795715,-67.80181884765625,42.67757797241211,-38.29289627075195
3.864,0.15912269055843353,-9.997212409973145,3.211167812347412,-2.0503692626953125,-2.233323335647583,-0.422871470451355,-68.05027770996094,42.6045036315918,-37.98596954345703
3.877,-0.47258248925209045,-8.801998138427734,2.7038893699645996,-2.012342929840088,-1.1133018732070923,-0.4495968222618103,-67.48026275634766,42.326805114746094,-35.910552978515625
3.884,-0.6089733242988586,-8.333003997802734,2.726621150970459,-1.9388861656188965,-0.6719517707824707,-0.39477166533470154,-67.49488830566406,41.59602355957031,-34.93130874633789
3.894,-0.8566304445266724,-6.843472957611084,2.5710878372192383,-1.7641788721084595,-0.3182607889175415,-0.38576140999794006,-67.61180877685547,40.93832015991211,-34.05436706542969
3.904,-1.2873386144638062,-6.0023956298828125,2.651247262954712,-1.5862643718719482,-0.021074850112199783,-0.42577308416366577,-67.68489074707031,40.42677688598633,-34.60976028442383
3.914,-1.6115659475326538,-5.157729148864746,2.678764820098877,-1.465618371963501,0.38209620118141174,-0.4476114809513092,-68.1964340209961,40.558319091796875,-33.14820098876953
3.933,-2.0721843242645264,-4.3657050132751465,2.403590202331543,-1.3735305070877075,0.8843801021575928,-0.46990808844566345,-68.00643157958984,40.29523468017578,-32.53434753417969
3.937,-1.7024933099746704,-3.562912940979004,1.9106688499450684,-1.2232576608657837,1.6369661092758179,-0.39736783504486084,-68.47412872314453,39.5059928894043,-32.417423248291016
3.944,-1.277767300605774,-3.13938307762146,1.758724570274353,-1.1062768697738647,1.7960965633392334,-0.3471241593360901,-68.89797973632812,39.60830307006836,-33.10435485839844
3.954,-0.45104703307151794,-2.5902304649353027,1.5457634925842285,-0.9271407127380371,1.6620116233825684,-0.3367394804954529,-69.05875396728516,39.1844482421875,-33.11897277832031
3.964,0.4247260093688965,-1.978864312171936,1.3722838163375854,-0.5900958180427551,0.9127854108810425,-0.3816380500793457,-69.30722045898438,38.99444580078125,-33.732826232910156
3.974,0.348155677318573,-1.956132411956787,1.7096717357635498,-0.15974126756191254,-0.04413501173257828,-0.43799036741256714,-69.48260498046875,38.73136520385742,-33.981292724609375
3.994,0.45104703307151794,-2.482553482055664,2.392822504043579,0.21365012228488922,-0.8089383244514465,-0.3068070709705353,-69.97953796386719,38.62905502319336,-33.45513153076172
3.997,0.3349951505661011,-3.214756965637207,2.5734806060791016,0.4729623794555664,-0.9085093140602112,-0.005497787147760391,-69.90646362304688,38.599822998046875,-33.07512283325195
4.004,0.35533416271209717,-3.3547372817993164,2.502892255783081,0.6386595964431763,-0.8135198354721069,0.18448129296302795,-69.49722290039062,37.89827346801758,-32.75358200073242
4.014,0.33020952343940735,-3.462414264678955,2.1535403728485107,0.8813258409500122,-0.5871942043304443,0.41202861070632935,-69.5556869506836,38.13212585449219,-33.352821350097656
4.024,0.3158525824546814,-3.8261232376098633,1.3351950645446777,1.105513334274292,-0.37369680404663086,0.5813909769058228,-69.36567687988281,38.89213943481445,-33.060508728027344
4.034,0.38644087314605713,-4.143172264099121,0.2835494577884674,1.368032693862915,-0.24236077070236206,0.6159048676490784,-68.83952331542969,39.418296813964844,-32.680503845214844
4.054,0.8506484627723694,-4.695914268493652,-0.3206382095813751,1.4801265001296997,-0.058184914290905,0.5839871764183044,-68.7372055053711,39.783687591552734,-33.922828674316406
4.057,1.499103307723999,-6.80757999420166,-0.8542376756668091,1.3326025009155273,0.5001459121704102,0.48808133602142334,-69.2487564086914,40.93832015991211,-34.46360778808594
4.064,2.0650060176849365,-8.693124771118164,-1.9465612173080444,1.0181596279144287,1.1687380075454712,0.3845396637916565,-69.1318359375,41.128326416015625,-35.282081604003906
4.074,2.6703901290893555,-12.431909561157227,-5.8923258781433105,0.46792274713516235,2.71376895904541,0.20952677726745605,-69.5556869506836,41.069862365722656,-37.050567626953125
4.084,4.25084924697876,-17.895919799804688,-10.680363655090332,-0.0377209298312664,4.988631248474121,-0.18997909128665924,-69.97953796386719,40.47062301635742,-38.67290496826172
4.094,13.137792587280273,-20.049461364746094,-7.856832981109619,-0.5914702415466309,5.003597259521484,-0.8860600590705872,-71.00263214111328,40.74831771850586,-41.49371337890625
4.114,21.406190872192383,-18.649658203125,-4.482953071594238,-1.048092007637024,5.002680778503418,-1.0204503536224365,-72.36187744140625,40.03215408325195,-45.30839157104492
4.117,25.767108917236328,-15.06999683380127,-4.3752760887146,-1.2527319192886353,2.6487114429473877,-0.9053022861480713,-72.93189239501953,40.09061813354492,-45.95147705078125
4.124,25.62114906311035,-12.319446563720703,-4.825126647949219,-1.1604912281036377,1.1841623783111572,-0.7457137107849121,-72.82958221435547,39.54983901977539,-45.995323181152344
4.134,22.82752799987793,-8.233702659606934,-5.676971435546875,-0.887739896774292,0.05619960278272629,-0.21639901399612427,-72.84419250488281,39.155216217041016,-46.27302169799805
4.144,17.611173629760742,-5.544169902801514,-5.86002254486084,-0.35292738676071167,-1.0123564004898071,0.1434006243944168,-72.82958221435547,39.155216217041016,-46.126861572265625
4.154,11.759527206420898,-3.6299118995666504,-3.9038898944854736,0.09040804952383041,-1.7397441864013672,0.07681629806756973,-72.99034881591797,39.25752639770508,-44.59222412109375
4.174,8.231308937072754,-3.5126636028289795,-0.20817556977272034,0.34697145223617554,-2.389857530593872,-0.11438451707363129,-72.55188751220703,39.52061080932617,-43.55451583862305
4.178,5.6685967445373535,-8.118846893310547,4.202992916107178,0.2232712358236313,-3.073568344116211,-0.029932396486401558,-72.5080337524414,39.374454498291016,-42.239112854003906
4.184,4.683949947357178,-10.426724433898926,4.912464618682861,0.13927727937698364,-3.216052770614624,0.23594669997692108,-71.95264434814453,39.19906234741211,-41.28909683227539
4.194,2.531606435775757,-14.179865837097168,5.1936211585998535,0.35506540536880493,-3.3405165672302246,0.8399397134780884,-71.89418029785156,40.04676818847656,-39.63753128051758
4.204,0.4342972934246063,-15.817753791809082,4.627718925476074,0.8842273950576782,-3.0613510608673096,1.3846787214279175,-71.32417297363281,39.769073486328125,-37.854427337646484
4.214,-3.073580503463745,-13.613964080810547,4.5236310958862305,1.2655601501464844,-2.5170700550079346,1.591151237487793,-70.28646850585938,40.93832015991211,-37.035953521728516
4.233,-5.566901683807373,-10.037890434265137,4.158725261688232,1.0097602605819702,-1.1766791343688965,0.6012440919876099,-69.40953063964844,42.01987838745117,-36.43671417236328
4.237,-7.4907307624816895,-7.3878397941589355,3.9326038360595703,0.9143125414848328,-0.7171558141708374,0.22067506611347198,-68.7372055053711,41.97603225708008,-36.275943756103516
4.244,-6.098108291625977,-6.844669342041016,3.451646566390991,0.5100724697113037,-0.13561208546161652,-0.2632829248905182,-69.0879898071289,42.58988571166992,-36.24671173095703
4.254,-3.4325039386749268,-7.009774208068848,2.4598214626312256,0.24617868661880493,0.4363104999065399,-0.5648975968360901,-68.7518310546875,42.39988327026367,-36.07132339477539
4.264,-1.8951154947280884,-7.741977691650391,1.9896320104599,0.20143280923366547,0.9908233880996704,-0.49357911944389343,-69.1318359375,42.0052604675293,-36.465946197509766
4.274,-0.5910272002220154,-8.623732566833496,2.214557409286499,0.3127630054950714,1.394605278968811,-0.20433442294597626,-69.21952056884766,41.93218231201172,-36.80210494995117
4.294,1.0049854516983032,-9.45045280456543,3.0005996227264404,0.5364924073219299,1.328937292098999,0.5766568183898926,-69.23414611816406,42.16603469848633,-38.5267448425293
4.297,1.2478569746017456,-9.632307052612305,3.2159535884857178,0.5413792729377747,1.1675162315368652,0.7530441284179688,-69.83338165283203,42.48757553100586,-39.53522491455078
4.304,1.4141581058502197,-9.818947792053223,3.5330023765563965,0.5077817440032959,0.8878926634788513,0.9848674535751343,-69.42414855957031,42.41449737548828,-38.61444091796875
4.314,1.5469597578048706,-9.747162818908691,3.7387852668762207,0.43218716979026794,0.5419901609420776,1.2292135953903198,-69.71646118164062,42.96989059448242,-39.944461822509766
4.324,1.868794322013855,-9.4660062789917,3.631108045578003,0.4260784983634949,0.23289236426353455,1.3869694471359253,-69.1318359375,43.057586669921875,-39.710609436035156
4.334,2.287538528442383,-9.079565048217773,3.3535408973693848,0.5482515692710876,-0.06414084881544113,1.4767667055130005,-68.34259033203125,44.24144744873047,-40.17831039428711
4.353,2.266003131866455,-8.908477783203125,2.8450660705566406,1.1113165616989136,-0.15745051205158234,1.475697636604309,-67.65565490722656,45.64455032348633,-40.85062789916992
4.357,2.3330020904541016,-9.081957817077637,2.8067808151245117,1.2904528379440308,-0.031612277030944824,1.4256067276000977,-67.67027282714844,46.08301544189453,-40.689857482910156
4.364,2.695514678955078,-9.546165466308594,2.880958318710327,1.5528194904327393,0.2422080636024475,1.3335187435150146,-67.17334747314453,46.59456253051758,-41.2014045715332
4.374,3.5712878704071045,-9.765109062194824,2.956332206726074,1.8350391387939453,0.6010913848876953,1.2176071405410767,-66.26717376708984,47.33995819091797,-43.189125061035156
4.384,3.8763725757598877,-9.339186668395996,2.6488544940948486,2.093435049057007,0.9892961978912354,1.1271990537643433,-65.55101013183594,47.82227325439453,-44.27068328857422
4.394,4.597808361053467,-8.434700012207031,2.5782663822174072,2.3544270992279053,1.4729487895965576,1.1504119634628296,-65.6971664428711,48.69921112060547,-45.001461029052734
4.412,6.110072612762451,-7.2813591957092285,4.29750919342041,2.4252877235412598,1.865124225616455,1.179580807685852,-64.84945678710938,49.18152618408203,-47.44226837158203
4.415,5.880361557006836,-7.223931312561035,4.700699806213379,2.359619617462158,1.8477145433425903,1.1688907146453857,-65.03945922851562,49.576148986816406,-48.17304992675781
4.424,6.01675271987915,-6.786044597625732,5.553741455078125,1.9558377265930176,1.8587101697921753,1.0658071041107178,-64.30867767333984,49.98538589477539,-49.92692184448242
4.434,7.075576305389404,-6.123232841491699,4.42193603515625,1.5196800231933594,1.6655240058898926,1.0137308835983276,-63.92867660522461,50.13154220581055,-50.81847381591797
4.444,7.141378879547119,-5.278566360473633,2.5004994869232178,1.3561207056045532,1.4049900770187378,0.9784533381462097,-63.19789123535156,50.42385482788086,-52.13387680053711
4.454,7.286144256591797,-4.862215518951416,1.5337992906570435,1.4926491975784302,1.2166907787322998,0.9289733171463013,-63.11020278930664,50.81847381591797,-52.952354431152344
4.473,6.424728870391846,-5.595615386962891,1.4069796800613403,1.7438675165176392,1.505935549736023,0.722959041595459,-62.39403533935547,51.169246673583984,-55.43700408935547
4.477,5.948556900024414,-5.627918720245361,1.330409288406372,1.749212622642517,1.5714508295059204,0.6879869699478149,-62.525577545166016,51.3592529296875,-55.802398681640625
4.484,5.4687957763671875,-5.789434432983398,1.2047861814498901,1.7603609561920166,1.6517795324325562,0.5325217843055725,-61.82402801513672,51.09617233276367,-56.810874938964844
4.494,4.315455436706543,-6.252445697784424,1.062413215637207,1.7887660264968872,1.5152511596679688,0.18707747757434845,-61.88248825073242,50.964630126953125,-57.04472732543945
4.504,3.902693510055542,-6.82313346862793,1.3244272470474243,1.7927366495132446,1.3891074657440186,-0.26404649019241333,-61.98480224609375,50.73078155517578,-58.33089828491211
4.523,3.73041033744812,-7.055237293243408,1.8029918670654297,1.6968309879302979,1.4648548364639282,-0.4335615932941437,-61.86787414550781,50.10231018066406,-60.14323425292969
4.527,3.3128626346588135,-7.817351341247559,1.8484554290771484,1.3544409275054932,1.5963436365127563,-0.44165557622909546,-62.20403289794922,49.41537857055664,-61.5755615234375
4.534,3.231506824493408,-8.537590980529785,1.6259229183197021,1.013425350189209,1.547932505607605,-0.3992004096508026,-61.604793548583984,50.02922821044922,-62.130958557128906
4.544,3.2793633937835693,-9.183652877807617,1.2658032178878784,0.5868887901306152,1.3431400060653687,-0.39125916361808777,-61.82402801513672,49.210758209228516,-63.44636154174805
4.554,3.735196113586426,-9.426525115966797,1.1880364418029785,0.34345895051956177,1.1174252033233643,-0.45891252160072327,-61.648643493652344,49.51768493652344,-63.41712951660156
4.564,4.5236310958862305,-9.732806205749512,1.2813564538955688,0.39736783504486084,0.9920451641082764,-0.46074509620666504,-61.604793548583984,48.99152374267578,-64.04560089111328
4.584,4.572683811187744,-10.293922424316406,1.5002998113632202,0.5732970237731934,0.9268352389335632,-0.37751469016075134,-62.101722717285156,48.39228439331055,-63.665592193603516
4.588,4.246063709259033,-11.341979026794434,1.903490424156189,0.8481863737106323,0.9301950335502625,-0.15241087973117828,-61.88248825073242,47.836891174316406,-64.93714904785156
4.594,3.69930362701416,-12.086146354675293,2.163111686706543,0.8970555663108826,0.9509645104408264,-0.0835358202457428,-61.75094985961914,47.5591926574707,-66.01870727539062
4.604,2.5423738956451416,-12.927223205566406,2.6739792823791504,0.8665122985839844,1.0632109642028809,-0.020616700872778893,-61.78017807006836,47.63227081298828,-66.17948150634766
4.614,1.6151552200317383,-13.587642669677734,3.290131092071533,0.613461434841156,1.1076513528823853,-0.08216137439012527,-61.26863479614258,47.544578552246094,-66.86641693115234
4.624,1.6139588356018066,-13.520644187927246,3.641875982284546,0.1434006243944168,1.0502300262451172,-0.12553280591964722,-61.005558013916016,47.00379943847656,-67.27565002441406
4.644,1.8616158962249756,-12.716655731201172,3.6047871112823486,-0.3335324227809906,1.1064296960830688,-0.07101307809352875,-61.034786224365234,47.427650451660156,-67.0125732421875
4.647,3.0580272674560547,-11.252248764038086,3.8763725757598877,-0.7765624523162842,1.4967725276947021,0.1111774668097496,-61.210174560546875,47.00379943847656,-68.21105194091797
4.654,4.415954113006592,-10.429117202758789,3.829712390899658,-0.8920159339904785,1.522581696510315,0.2376265674829483,-61.13709259033203,47.310726165771484,-68.28413391113281
4.664,6.500102519989014,-9.54377269744873,3.489931583404541,-0.9699012637138367,1.2767083644866943,0.40194934606552124,-60.56708526611328,46.916107177734375,-68.00643157958984
4.674,7.893921375274658,-9.312865257263184,2.8283162117004395,-0.9453139305114746,0.9101892113685608,0.4922046661376953,-60.12861633300781,47.44226837158203,-68.25489044189453
4.684,9.256633758544922,-9.079565048217773,1.8460626602172852,-0.7922922372817993,0.7447974681854248,0.5812382698059082,-58.71090316772461,48.07073974609375,-68.1964340209961
4.704,11.093125343322754,-8.877371788024902,0.8446664214134216,-0.5638285875320435,0.9610437750816345,0.7652614116668701,-58.6378288269043,48.74305725097656,-68.60567474365234
4.707,12.516855239868164,-9.426525115966797,2.0925233364105225,-0.48380523920059204,1.0855075120925903,0.9077457189559937,-58.02397155761719,48.479976654052734,-68.07950592041016
4.714,12.64487075805664,-10.03310489654541,3.298506021499634,-0.6317873597145081,0.6146831512451172,0.6586654186248779,-57.65857696533203,48.6407470703125,-68.29874420166016
4.724,13.282557487487793,-11.538189888000488,4.315455436706543,-0.8275696635246277,-0.3254384398460388,0.20311269164085388,-57.68781280517578,48.83074951171875,-67.86027526855469
4.734,13.366307258605957,-11.315657615661621,3.710071325302124,-0.8972083330154419,-1.1281154155731201,-0.1134682148694992,-57.103187561035156,49.51768493652344,-66.48640441894531
4.744,12.56590747833252,-9.933802604675293,0.5539384484291077,-0.7189883589744568,-1.083369493484497,-0.13209959864616394,-58.00935745239258,49.283836364746094,-66.22332763671875
4.764,9.4660062789917,-9.364311218261719,-2.5016961097717285,-0.5022839307785034,-0.9300422668457031,-0.4144720435142517,-58.126277923583984,50.0584602355957,-64.80561828613281
4.767,6.870989799499512,-11.162517547607422,-2.7122642993927,-1.2211195230484009,-2.1568124294281006,-1.504866600036621,-57.8193473815918,49.020755767822266,-63.43174743652344
4.774,5.5453667640686035,-11.084750175476074,-1.624726414680481,-1.6704108715057373,-2.769663095474243,-1.894445776939392,-58.93013381958008,49.473838806152344,-62.87635040283203
4.784,3.607180118560791,-10.99741268157959,-0.5551348328590393,-1.8924604654312134,-3.1561877727508545,-2.132530450820923,-60.08477020263672,48.93306350708008,-60.94709014892578
4.794,2.1714866161346436,-11.212766647338867,0.2560320198535919,-1.8307631015777588,-3.0863964557647705,-2.2287418842315674,-60.4940071105957,48.62613296508789,-58.681671142578125
4.804,1.8281164169311523,-11.123035430908203,2.7086751461029053,-1.6830863952636719,-2.487137794494629,-2.1232149600982666,-61.619407653808594,48.026893615722656,-57.26395797729492
4.823,1.0109676122665405,-10.65404224395752,5.084747791290283,-1.535715103149414,-1.154077172279358,-1.8930712938308716,-62.64250183105469,47.106109619140625,-54.70622634887695
4.827,2.0482561588287354,-10.942378044128418,5.709274768829346,-1.534187912940979,-1.126588225364685,-1.915215253829956,-62.92020034790039,46.63841247558594,-54.72084426879883
4.834,2.964707136154175,-11.627921104431152,5.148157596588135,-1.5503759384155273,-1.2956451177597046,-1.8956674337387085,-63.32943344116211,46.901493072509766,-53.59543991088867
4.844,3.8021950721740723,-12.229716300964355,4.321437358856201,-1.532508134841919,-1.7151567935943604,-1.7576119899749756,-64.06021881103516,45.615318298339844,-53.34697341918945
4.854,3.810570001602173,-12.198609352111816,3.511467218399048,-1.35535728931427,-2.2090413570404053,-1.5758795738220215,-64.5133056640625,45.542240142822266,-51.24232864379883
4.864,3.9050865173339844,-12.836296081542969,3.3164520263671875,-0.7898487448692322,-2.626567840576172,-1.2938125133514404,-65.12715911865234,44.46068572998047,-50.51154327392578
4.884,4.642076015472412,-18.38286018371582,2.3700907230377197,-0.8454374670982361,-3.2181906700134277,-0.9436340928077698,-65.59485626220703,44.12452697753906,-47.25226593017578
4.887,4.875375747680664,-18.075382232666016,2.15234375,-0.9294314384460449,-3.3241758346557617,-0.917061448097229,-65.25869750976562,43.90529251098633,-47.01841354370117
4.894,5.401796817779541,-15.553346633911133,1.8711872100830078,-1.0125091075897217,-3.8679986000061035,-0.898735523223877,-65.21485137939453,44.21221923828125,-45.8199348449707
4.904,6.344569206237793,-12.439087867736816,2.2432711124420166,-0.9928087592124939,-4.418846130371094,-1.0503827333450317,-65.22946166992188,43.61297607421875,-44.182987213134766
4.914,6.666403770446777,-9.985248565673828,3.620340585708618,-0.8135198354721069,-4.9371657371521,-0.9300422668457031,-64.70330047607422,43.67144012451172,-41.53756332397461
4.924,2.987438917160034,-10.320243835449219,5.670989513397217,-1.1212431192398071,-4.014911651611328,-0.8097019195556641,-64.35253143310547,42.95527648925781,-38.775211334228516
4.943,0.7812565565109253,-10.043872833251953,4.3788652420043945,-2.032959461212158,-2.1737639904022217,-0.5320636034011841,-63.840980529785156,43.01374053955078,-35.340545654296875
4.947,0.33020952343940735,-9.55095100402832,3.7423744201660156,-2.0609066486358643,-2.0780107975006104,-0.5227479338645935,-63.43174743652344,42.823734283447266,-34.39052963256836
4.954,-0.2021934986114502,-8.851051330566406,3.1896326541900635,-2.041206121444702,-1.7863225936889648,-0.44806966185569763,-64.32330322265625,42.502193450927734,-33.791290283203125
4.964,-1.0253244638442993,-7.5493550300598145,2.555534601211548,-1.7948747873306274,-1.262047529220581,-0.2532036304473877,-62.744815826416016,41.80064392089844,-32.75358200073242
4.974,-1.7036895751953125,-6.399603843688965,2.7086751461029053,-1.5147931575775146,-0.9841038584709167,-0.2200642079114914,-63.460975646972656,41.91756820678711,-31.65740966796875
4.984,-2.368894338607788,-5.663811206817627,2.882154941558838,-1.3707815408706665,-0.4703662395477295,-0.20051652193069458,-63.06635665893555,41.42063903808594,-30.26892852783203
5.0,-2.5351955890655518,-4.412364959716797,2.9240291118621826,-1.3295481204986572,0.6546947956085205,-0.18829920887947083,-62.80327606201172,41.142940521240234,-30.327388763427734
5.004,-2.27677059173584,-3.9840495586395264,2.819941520690918,-1.3269519805908203,0.9651670455932617,-0.19089537858963013,-63.11020278930664,41.084476470947266,-30.47354507446289
5.014,-2.2671992778778076,-3.428914785385132,2.2133607864379883,-1.2455542087554932,1.4897475242614746,-0.20647244155406952,-63.387901306152344,41.17217254638672,-29.479684829711914
5.024,-1.164108157157898,-3.001795768737793,1.660618782043457,-1.0934487581253052,1.4934128522872925,-0.25931230187416077,-63.19789123535156,40.587547302246094,-30.239694595336914
5.034,-0.6843472719192505,-2.6727828979492188,1.6115659475326538,-0.8465065360069275,1.094212293624878,-0.304210901260376,-63.6363639831543,40.67523956298828,-30.064308166503906
5.044,-0.9308079481124878,-2.7278177738189697,1.8640087842941284,-0.594524621963501,0.6827946305274963,-0.3222314119338989,-64.23560333251953,40.42677688598633,-29.508914947509766
5.063,-1.2897313833236694,-2.9479572772979736,2.3126630783081055,-0.09712757170200348,-0.06032294034957886,-0.2922990024089813,-64.03099060058594,40.85062789916992,-29.830459594726562
5.067,-1.361515998840332,-2.968296527862549,2.341376781463623,0.08552113175392151,-0.24373522400856018,-0.3052798807621002,-64.32330322265625,40.514469146728516,-30.44431495666504
5.074,-1.310070276260376,-2.6775684356689453,2.3473589420318604,0.40393462777137756,-0.42898011207580566,-0.30573806166648865,-64.63021850585938,40.2660026550293,-30.400466918945312
5.084,-1.0492527484893799,-2.0614166259765625,2.30069899559021,0.8602509498596191,-0.4948008358478546,-0.22388210892677307,-64.20637512207031,40.19292449951172,-30.765857696533203
5.094,-0.9176474213600159,-1.4464612007141113,2.2803597450256348,1.2739593982696533,-0.32589662075042725,-0.03848451003432274,-64.5133056640625,40.61677932739258,-30.152002334594727
5.113,-0.8554341197013855,-1.195214867591858,1.9286149740219116,1.6383405923843384,-0.025961771607398987,0.17699819803237915,-64.4109878540039,40.66062545776367,-31.306636810302734
5.117,0.21774685382843018,-2.57228422164917,0.07657032459974289,1.7896825075149536,0.20326539874076843,0.4331034719944,-64.454833984375,41.6252555847168,-31.262788772583008
5.124,0.8937192559242249,-3.28773832321167,-0.7190431356430054,1.785253643989563,0.3396410644054413,0.56810462474823,-63.94329071044922,41.99064636230469,-31.613563537597656
5.134,2.551945447921753,-5.613561630249023,-2.0159530639648438,1.778686761856079,0.6459900140762329,0.8118398785591125,-64.32330322265625,42.67757797241211,-33.49897384643555
5.144,1.6845470666885376,-12.821939468383789,-9.510272979736328,1.168585181236267,1.778228759765625,0.9850201606750488,-64.46945190429688,43.13066482543945,-33.8643684387207
5.154,3.978067398071289,-24.297916412353516,-21.82134437561035,-0.19517144560813904,5.003597259521484,0.6021604537963867,-64.44022369384766,43.13066482543945,-35.296695709228516
5.173,16.961523056030273,-26.135604858398438,-12.142377853393555,-0.6721044778823853,5.003597259521484,0.3646865487098694,-65.56562042236328,43.992984771728516,-38.11751174926758
5.178,24.09572410583496,-23.684158325195312,-0.7118647694587708,-0.5355761051177979,3.2401816844940186,-0.2073887437582016,-66.04793548583984,43.992984771728516,-39.66676330566406
5.184,24.26441764831543,-21.69452667236328,0.503689169883728,-0.4752531349658966,1.5790866613388062,-0.7225008606910706,-66.00408935546875,43.83221435546875,-40.9237060546875
5.194,25.719253540039062,-16.944772720336914,1.561316728591919,-0.6685919761657715,1.0992519855499268,-0.9207265973091125,-67.04180145263672,43.67144012451172,-40.499855041503906
5.204,23.743976593017578,-9.850053787231445,-0.5276173949241638,-1.2695306539535522,1.4256067276000977,-0.42470404505729675,-66.93949127197266,43.56913375854492,-40.71908950805664
5.214,20.415563583374023,-2.63449764251709,-5.808576583862305,-1.4688254594802856,1.0273226499557495,0.04138611629605293,-67.4364242553711,43.33528137207031,-40.149078369140625
5.234,13.466805458068848,-0.8458627462387085,-5.411368370056152,-0.8553640842437744,-0.39477166533470154,0.1342376321554184,-67.15872192382812,43.51066970825195,-40.42677688598633
5.237,8.00518798828125,-6.626922130584717,0.03110669180750847,-0.498924195766449,-1.8991800546646118,-0.3459024429321289,-67.15872192382812,43.53989791870117,-39.52061080932617
5.244,6.845865249633789,-10.66122055053711,2.583051919937134,-0.22663100063800812,-3.0062203407287598,-0.2973386347293854,-67.26103210449219,43.33528137207031,-38.570594787597656
5.254,3.091526985168457,-13.153346061706543,3.9517464637756348,0.3170390725135803,-3.9828412532806396,0.06780604273080826,-66.31101989746094,43.52528381347656,-36.0859375
5.264,-0.2763710021972656,-12.474980354309082,4.231706619262695,0.911410927772522,-3.7274997234344482,0.4792237877845764,-65.78485870361328,44.31452941894531,-34.27360534667969
5.274,-2.8450660705566406,-10.549954414367676,4.015156269073486,1.3341296911239624,-2.6977336406707764,0.625220537185669,-65.3171615600586,44.636070251464844,-33.630516052246094
5.294,-4.82632303237915,-8.822336196899414,4.3202409744262695,1.3863587379455566,-1.829999566078186,0.46043968200683594,-64.54253387451172,45.52762222290039,-32.78281021118164
5.297,-4.64805793762207,-8.142775535583496,4.800002098083496,1.0784825086593628,-0.8231408596038818,0.11041389405727386,-64.90792083740234,46.22917175292969,-32.242034912109375
5.304,-4.089333534240723,-8.00518798828125,4.829912185668945,0.7716754674911499,-0.4196644127368927,-0.02672535367310047,-64.39637756347656,45.4399299621582,-32.75358200073242
5.314,-3.6370902061462402,-7.994420051574707,4.460221290588379,0.3666718602180481,0.01878410577774048,-0.11957687139511108,-64.58638000488281,46.33148193359375,-32.417423248291016
5.324,-2.968296527862549,-8.305486679077148,3.915853977203369,0.023060161620378494,0.5383250117301941,-0.15073098242282867,-64.5133056640625,46.08301544189453,-32.1251106262207
5.334,-1.4584254026412964,-8.575876235961914,3.1621150970458984,-0.03420845419168472,0.7186830043792725,-0.07284567505121231,-64.61560821533203,46.25840377807617,-32.46126937866211
5.354,-1.1856435537338257,-8.980262756347656,3.418147087097168,0.03955352306365967,0.7206682562828064,0.09010262042284012,-64.57176208496094,46.49225616455078,-33.07512283325195
5.357,-0.0933200791478157,-8.837889671325684,3.159722089767456,0.1745547503232956,0.850171685218811,0.4992296099662781,-64.80561828613281,47.01841354370117,-32.95820236206055
5.364,0.6484549045562744,-8.475377082824707,3.0317063331604004,0.2970332205295563,0.7402159571647644,0.6710354089736938,-64.7909927368164,46.477638244628906,-32.53434753417969
5.374,0.6843472719192505,-8.504091262817383,3.865604877471924,0.6117815375328064,0.33246341347694397,1.1169670820236206,-64.5133056640625,47.57380676269531,-33.01666259765625
5.384,0.3206382095813751,-9.028119087219238,4.1730828285217285,0.7454083561897278,0.1189659982919693,1.3631458282470703,-63.76790237426758,47.96842956542969,-33.440513610839844
5.394,-0.7525426745414734,-9.18006420135498,4.374079704284668,0.8263479471206665,0.21242839097976685,1.6059646606445312,-63.373287200927734,48.62613296508789,-33.32358932495117
5.413,-2.0446667671203613,-8.915657043457031,4.439882278442383,0.9873108863830566,1.1937834024429321,1.409724235534668,-62.48173141479492,50.51154327392578,-35.23823165893555
5.417,-1.6450655460357666,-8.053044319152832,3.768695592880249,1.0490082502365112,1.309084177017212,1.332908034324646,-62.62788772583008,50.71616744995117,-35.2674674987793
5.424,-1.5433706045150757,-7.134200572967529,3.2243285179138184,1.3666582107543945,1.6601788997650146,1.1087204217910767,-62.29172897338867,50.964630126953125,-35.99824523925781
5.434,1.2538390159606934,-7.46082067489624,3.506681442260742,1.8639024496078491,1.742340326309204,0.7098253965377808,-62.1748046875,50.964630126953125,-36.845951080322266
5.444,4.18863582611084,-6.64486837387085,3.8081772327423096,2.049147367477417,0.9905179738998413,0.6087271571159363,-62.028648376464844,51.63694763183594,-38.00058364868164
5.454,4.321437358856201,-6.183053970336914,3.9589247703552246,2.157728672027588,0.32788190245628357,0.7127270102500916,-61.911720275878906,52.002342224121094,-38.92136764526367
5.473,5.38624382019043,-5.647061347961426,3.888336658477783,2.0619757175445557,-0.11270463466644287,1.3154982328414917,-61.2540168762207,53.80005645751953,-40.74831771850586
5.477,7.551748275756836,-5.615954875946045,3.322434186935425,2.07663631439209,-0.31184670329093933,1.4689781665802002,-61.239402770996094,53.624671936035156,-41.28909683227539
5.484,7.077969074249268,-5.834897994995117,3.348755121231079,2.1511619091033936,-0.39568793773651123,1.6267341375350952,-60.362464904785156,54.063140869140625,-41.332942962646484
5.494,5.9545392990112305,-6.735795497894287,3.841676712036133,2.252413034439087,0.1437060534954071,1.656819224357605,-59.95323181152344,54.79391860961914,-42.10757064819336
5.504,5.7200422286987305,-7.852047443389893,4.0558342933654785,2.2710442543029785,0.9958630204200745,1.5625932216644287,-58.72551727294922,54.99854278564453,-44.03683090209961
5.514,5.519045352935791,-8.566305160522461,4.264009952545166,2.2065978050231934,1.888489842414856,1.3466523885726929,-58.72551727294922,56.401634216308594,-44.95761489868164
5.534,5.653043270111084,-8.647661209106445,4.460221290588379,1.8153388500213623,3.1415271759033203,0.5653557777404785,-57.90704345703125,57.38088607788086,-48.94767761230469
5.537,5.997609615325928,-8.37966537475586,4.284348964691162,1.6870570182800293,3.360827684402466,0.39416077733039856,-57.61473083496094,57.03010559082031,-48.684593200683594
5.544,6.370890140533447,-7.77188777923584,3.7196426391601562,1.5123496055603027,3.6161694526672363,0.2496911585330963,-57.293190002441406,56.98625946044922,-51.4177131652832
5.554,6.025127410888672,-7.082754611968994,2.5112671852111816,1.3949108123779297,3.8377606868743896,0.16340644657611847,-57.38088607788086,57.42472839355469,-52.58695983886719
5.564,5.648257732391357,-6.9511494636535645,1.6677974462509155,1.435227870941162,4.034306526184082,0.06963863968849182,-57.293190002441406,57.103187561035156,-54.457759857177734
5.574,6.3529438972473145,-7.560122966766357,1.3567304611206055,1.5503759384155273,4.081648826599121,0.026419920846819878,-57.0154914855957,57.64396286010742,-57.14703369140625
5.586,1.4919248819351196,-14.830714225769043,-11.059626579284668,1.1672108173370361,4.9594621658325195,0.0354301817715168,-56.211631774902344,57.2347297668457,-58.76936340332031
5.594,6.853043556213379,-18.2105770111084,-9.962516784667969,-0.2480112910270691,4.448320388793945,-0.06276640295982361,-56.09471130371094,57.22011184692383,-59.95323181152344
5.604,8.207381248474121,-13.256237030029297,-3.5712878704071045,-1.2962559461593628,2.7908904552459717,-0.3422372341156006,-56.48933029174805,57.27857208251953,-59.997074127197266
5.614,8.461020469665527,-8.785247802734375,0.5383850932121277,-1.0027352571487427,1.224173903465271,-0.21578815579414368,-55.90470504760742,57.117801666259766,-59.92399978637695
5.624,7.715656280517578,-8.038687705993652,1.7252249717712402,-0.19028452038764954,0.21700987219810486,0.2448042333126068,-55.83163070678711,57.14703369140625,-59.85091781616211
5.634,6.059823036193848,-9.395418167114258,2.583051919937134,0.6145303845405579,-0.1667662113904953,0.46822819113731384,-55.84624481201172,57.717044830322266,-58.93013381958008
5.65,5.911468029022217,-10.709076881408691,4.151546955108643,0.850782573223114,-0.45463645458221436,0.2015855312347412,-55.84624481201172,58.0970458984375,-59.894771575927734
5.654,6.089733123779297,-10.792826652526855,4.417150497436523,0.7721337080001831,-0.5386304259300232,0.15531249344348907,-55.568546295166016,58.19935607910156,-60.362464904785156
5.664,5.948556900024414,-10.738987922668457,4.462614059448242,0.5239696502685547,-0.6148358583450317,0.12599095702171326,-55.64162826538086,58.40397644042969,-60.14323425292969
5.674,5.402993679046631,-10.621739387512207,4.396811485290527,0.2762638032436371,-0.44516804814338684,0.07024950534105301,-55.817012786865234,58.90090560913086,-59.690147399902344
5.684,5.698506832122803,-10.649256706237793,4.412364959716797,-0.010842857882380486,-0.055436018854379654,-0.05451972037553787,-55.787784576416016,58.72551727294922,-59.64630126953125
5.703,6.835097789764404,-10.783255577087402,3.8691940307617188,-0.19135352969169617,0.20922134816646576,-0.06459899991750717,-55.68547058105469,58.81321334838867,-60.01169204711914
5.707,7.308876991271973,-10.86461067199707,1.200000524520874,-0.20341812074184418,0.2971859276294708,0.09376781433820724,-55.553932189941406,58.0970458984375,-59.675533294677734
5.714,7.054040908813477,-10.834700584411621,-0.3613162338733673,-0.12293662130832672,0.2272418737411499,0.18325957655906677,-55.91931915283203,58.72551727294922,-60.27477264404297
5.724,7.365107536315918,-10.341778755187988,-0.1579262912273407,-0.19425514340400696,0.0988074541091919,0.19624045491218567,-56.021629333496094,59.295528411865234,-58.82782745361328
5.734,8.403593063354492,-10.125227928161621,0.8231310248374939,-0.49724429845809937,-0.06383541971445084,0.08720101416110992,-56.09471130371094,59.44168472290039,-59.19321823120117
5.744,8.744569778442383,-11.198410034179688,1.3483555316925049,-0.8588765263557434,-0.24892757833003998,-0.1820378452539444,-55.67085647583008,59.36860275268555,-58.71090316772461
5.763,10.526025772094727,-13.15932846069336,2.234896183013916,-1.061989188194275,-0.27809640765190125,-0.42821651697158813,-56.22624588012695,59.105525970458984,-57.98012161254883
5.767,10.651649475097656,-12.345767974853516,2.1128623485565186,-1.3322970867156982,-0.3727805018424988,-0.5638285875320435,-56.708560943603516,59.36860275268555,-56.3577880859375
5.774,9.10827922821045,-11.115857124328613,0.7573283314704895,-1.5951218605041504,-0.49877145886421204,-0.6126978397369385,-56.693946838378906,59.310142517089844,-55.68547058105469
5.784,7.432106971740723,-10.201799392700195,-1.0145567655563354,-2.090533494949341,-0.8920159339904785,-0.9382889866828918,-56.98625946044922,59.14937210083008,-54.633148193359375
5.794,6.295516014099121,-9.768697738647461,-1.9130616188049316,-2.5889995098114014,-1.758986473083496,-1.350012183189392,-57.62934875488281,59.16398620605469,-51.94387435913086
5.804,4.983053207397461,-10.194620132446289,-1.8891334533691406,-2.6484060287475586,-2.355496406555176,-1.7172949314117432,-58.71090316772461,58.681671142578125,-49.95615005493164
5.824,4.639682769775391,-10.332207679748535,0.30149564146995544,-2.42360782623291,-2.6708555221557617,-1.8883371353149414,-59.690147399902344,58.170127868652344,-47.544578552246094
5.827,4.286741733551025,-9.270990371704102,3.538984537124634,-2.037693738937378,-2.906038761138916,-1.9495763778686523,-60.23093032836914,57.0154914855957,-45.001461029052734
5.834,3.6885359287261963,-8.723034858703613,4.18863582611084,-1.9350682497024536,-2.847242832183838,-1.9622517824172974,-61.341712951660156,57.08857345581055,-42.01987838745117
5.844,3.0077779293060303,-8.839086532592773,4.034298896789551,-1.6559029817581177,-2.453845739364624,-2.004401445388794,-61.970184326171875,55.597774505615234,-39.85676574707031
5.854,3.324826955795288,-10.149157524108887,4.098905086517334,-1.439351201057434,-2.127185583114624,-1.9926424026489258,-62.715576171875,55.14469909667969,-38.015201568603516
5.864,3.6705896854400635,-11.645867347717285,4.082155227661133,-1.2655601501464844,-1.9927951097488403,-1.891544222831726,-63.44636154174805,53.80005645751953,-37.13826370239258
5.884,3.4468607902526855,-12.988241195678711,4.255634784698486,-1.083369493484497,-1.8477145433425903,-1.7582228183746338,-64.1186752319336,51.914642333984375,-33.9082145690918
5.887,4.47697114944458,-14.319847106933594,4.634897232055664,-0.7689266204833984,-1.7954856157302856,-1.5771013498306274,-63.665592193603516,51.885414123535156,-33.77667236328125
5.894,5.874379634857178,-15.013765335083008,4.703092575073242,-0.4749477207660675,-2.1476492881774902,-1.4677565097808838,-64.60099029541016,51.62232971191406,-33.14820098876953
5.904,7.434499740600586,-17.569299697875977,3.799802303314209,-0.052839841693639755,-2.8994717597961426,-1.1061242818832397,-64.22098541259766,49.97077178955078,-32.65127182006836
5.914,6.428317546844482,-17.002201080322266,0.7226324677467346,-0.10491610318422318,-4.045454978942871,-0.7053965926170349,-63.81174850463867,49.7223014831543,-30.47354507446289
5.924,3.317648410797119,-14.019548416137695,1.7419748306274414,-0.2396118938922882,-5.003139019012451,-0.8226827383041382,-63.12481689453125,49.26921844482422,-27.828121185302734
5.944,4.462614059448242,-12.569497108459473,4.187439441680908,-0.44364088773727417,-5.003597259521484,-0.919963002204895,-61.2540168762207,47.79304122924805,-24.013446807861328
5.947,0.5000999569892883,-11.227123260498047,6.114858150482178,-1.1858421564102173,-4.054465293884277,-0.44165557622909546,-60.45016098022461,47.61765670776367,-22.917274475097656
5.954,-0.5754737854003906,-9.883553504943848,5.528616905212402,-1.5790866613388062,-3.037221908569336,-0.5543602108955383,-59.76322937011719,47.281497955322266,-22.20111083984375
5.964,-0.7238287925720215,-8.909674644470215,4.332205295562744,-1.8173240423202515,-1.9561432600021362,-0.8126034736633301,-59.52937698364258,45.995323181152344,-20.593395233154297
5.974,-0.05144568905234337,-7.440481662750244,3.321237564086914,-1.9381226301193237,-0.7287622690200806,-0.7756461501121521,-58.78398513793945,45.51300811767578,-19.17568016052246
5.984,0.2967100143432617,-6.166304111480713,2.3820548057556152,-1.7568484544754028,-0.05925392732024193,-0.6546947956085205,-59.09090805053711,44.47529983520508,-19.409530639648438
6.004,0.6149553656578064,-5.186442852020264,1.9884356260299683,-1.0358747243881226,0.03940080478787422,-0.4021020233631134,-59.33937454223633,43.247589111328125,-18.50336265563965
6.007,0.5730810165405273,-3.7471601963043213,1.6486546993255615,-0.8077166080474854,-0.11789698898792267,-0.407905250787735,-59.44168472290039,42.54603958129883,-18.211048126220703
6.014,-0.008374879136681557,-3.4372897148132324,1.8544374704360962,-0.5056437253952026,-0.26083946228027344,-0.44974952936172485,-59.19321823120117,42.47296142578125,-17.655654907226562
6.024,-0.22013966739177704,-3.0137598514556885,2.2683956623077393,-0.21349740028381348,-0.3553708493709564,-0.5314527750015259,-59.105525970458984,42.268341064453125,-17.465654373168945
6.034,-0.3026920557022095,-2.688336133956909,2.4047865867614746,-0.0074830991216003895,-0.4050036370754242,-0.6233879327774048,-59.061676025390625,42.078338623046875,-17.304880142211914
6.044,0.49172505736351013,-2.4394824504852295,2.4945175647735596,0.2151772677898407,-0.5867360830307007,-0.6944010853767395,-58.871673583984375,41.77141189575195,-16.70564079284668
6.063,0.5276173949241638,-2.344965934753418,2.57228422164917,0.541532039642334,-0.997848391532898,-0.6204863786697388,-58.06781768798828,41.17217254638672,-17.100261688232422
6.067,0.3696911036968231,-2.324627161026001,2.7804598808288574,0.5685628056526184,-1.0031933784484863,-0.5771149396896362,-58.126277923583984,40.98217010498047,-17.392576217651367
6.074,0.07417750358581543,-2.293520450592041,2.612962245941162,0.5813909769058228,-0.9604328870773315,-0.5064072608947754,-58.140892028808594,41.25986862182617,-17.202571868896484
6.084,-0.503689169883728,-2.475374937057495,1.86520516872406,0.6088799238204956,-0.820850133895874,-0.4184426963329315,-57.98012161254883,41.698333740234375,-16.778718948364258
6.094,-0.9355936050415039,-2.5567307472229004,1.038485050201416,0.7619016766548157,-0.55069500207901,-0.2770273983478546,-57.64396286010742,41.49371337890625,-17.69950294494629
6.104,-1.4763715267181396,-2.8007986545562744,0.46061834692955017,1.042441487312317,-0.1725694239139557,-0.04459316283464432,-57.570884704589844,41.888336181640625,-17.553346633911133
6.123,-1.8424733877182007,-3.8225340843200684,-0.348155677318573,1.4039210081100464,0.22403483092784882,0.2324342280626297,-57.68781280517578,42.37065124511719,-18.035661697387695
6.127,-1.7084753513336182,-4.244867324829102,-0.3960121273994446,1.425148606300354,0.23655755817890167,0.2535090744495392,-57.05934143066406,42.326805114746094,-18.81028938293457
6.134,-1.0827522277832031,-5.106283187866211,-0.5108676552772522,1.4527901411056519,0.23167064785957336,0.3191770911216736,-57.05934143066406,42.9406623840332,-18.81028938293457
6.144,-0.0131605239585042,-7.11146879196167,-1.031306505203247,1.384526014328003,0.1898263692855835,0.4554000496864319,-57.2347297668457,42.79450607299805,-19.380298614501953
6.154,0.8470591902732849,-10.947163581848145,-2.6285154819488525,0.8295549750328064,0.4271475076675415,0.7321219444274902,-56.942413330078125,43.91990661621094,-18.956445693969727
6.164,-0.6161518096923828,-18.924833297729492,-11.243873596191406,-0.10659598559141159,1.7256942987442017,0.9579893946647644,-56.65010070800781,43.90529251098633,-19.64337921142578
6.177,4.60020112991333,-23.186450958251953,-11.93779182434082,-0.6372851133346558,4.9351806640625,0.6757696866989136,-57.70242691040039,44.27068328857422,-21.92341423034668
6.184,12.189038276672363,-22.991436004638672,-5.333600997924805,-0.5242750644683838,5.003597259521484,0.25473082065582275,-57.936275482177734,44.29991149902344,-23.01958465576172
6.194,19.850854873657227,-22.585851669311523,0.2153540402650833,-0.6921103000640869,5.002985954284668,-0.5438227653503418,-59.93861389160156,43.65682601928711,-24.057292938232422
6.204,23.79781723022461,-17.93659782409668,0.18903298676013947,-1.2153164148330688,3.4768919944763184,-1.379333734512329,-61.020172119140625,43.01374053955078,-25.41654396057129
6.214,23.487945556640625,-10.50808048248291,-2.30069899559021,-1.4547755718231201,3.0411925315856934,-1.3756685256958008,-61.76556396484375,42.136802673339844,-26.293479919433594
6.224,22.225732803344727,-5.210371017456055,-4.564309120178223,-1.4929546117782593,2.6977336406707764,-0.8106181621551514,-62.70096206665039,41.55217742919922,-25.957321166992188
6.24,14.920445442199707,0.2919243574142456,-5.3970112800598145,-0.5801692605018616,0.5818491578102112,-0.10674870014190674,-63.665592193603516,40.25138854980469,-27.828121185302734
6.244,12.336196899414062,0.18783655762672424,-2.2911276817321777,-0.46700647473335266,0.1794416606426239,-0.1287398487329483,-63.00789260864258,40.80678176879883,-27.97427749633789
6.254,8.729016304016113,-2.496910333633423,2.337787628173828,-0.2970332205295563,-1.9292651414871216,-0.1111774668097496,-63.12481689453125,40.309852600097656,-27.185035705566406
6.264,5.783452033996582,-7.430910587310791,4.23649263381958,-0.016340645030140877,-3.2931745052337646,0.34834590554237366,-61.80941390991211,40.64601135253906,-26.176557540893555
6.274,4.4997029304504395,-12.113663673400879,5.0943193435668945,0.6064364910125732,-4.000709056854248,0.9847147464752197,-60.64016342163086,41.318328857421875,-25.109615325927734
6.293,3.1166512966156006,-14.879766464233398,5.353940486907959,1.2011137008666992,-4.074929237365723,1.6027576923370361,-59.456298828125,41.42063903808594,-23.633440017700195
6.297,-1.5110673904418945,-14.833106994628906,5.663811206817627,1.5983288288116455,-3.4093916416168213,1.8136589527130127,-57.03010559082031,42.502193450927734,-22.712656021118164
6.304,-3.5090742111206055,-13.094721794128418,5.6961140632629395,1.5293010473251343,-2.9150490760803223,1.3982704877853394,-55.61239242553711,43.452205657958984,-22.65419578552246
6.314,-5.5274200439453125,-10.249655723571777,5.176871299743652,1.2618948221206665,-2.085952043533325,0.6348416805267334,-54.57468795776367,43.91990661621094,-21.92341423034668
6.324,-5.192424774169922,-8.577072143554688,4.557130336761475,0.8735372424125671,-0.9961684346199036,0.0177150908857584,-54.077754974365234,44.256065368652344,-22.712656021118164
6.334,-3.9792640209198,-7.22034215927124,3.8189449310302734,0.5015203952789307,0.16294831037521362,-0.290313720703125,-54.31160354614258,44.28529739379883,-22.347267150878906
6.353,-2.7601208686828613,-6.592226505279541,3.0556344985961914,0.24892757833003998,1.144608736038208,-0.337044894695282,-54.48699188232422,44.53376388549805,-23.078046798706055
6.357,-1.3710873126983643,-7.328019142150879,2.662015199661255,0.1800525188446045,1.9617936611175537,-0.18020524084568024,-54.9400749206543,44.09529113769531,-23.56036376953125
6.364,-0.7322037220001221,-8.076972961425781,2.610569477081299,0.2393064647912979,2.1456642150878906,-0.05161811038851738,-55.32008361816406,44.46068572998047,-24.86115074157715
6.374,-0.2847459018230438,-9.265008926391602,2.662015199661255,0.3500257730484009,2.2824978828430176,0.1508837193250656,-55.64162826538086,44.46068572998047,-26.132709503173828
6.384,0.0849451944231987,-9.980463027954102,2.935993194580078,0.4236350357532501,2.323120355606079,0.3689625859260559,-56.06547546386719,44.621456146240234,-26.278865814208984
6.394,0.24526430666446686,-10.334601402282715,3.407379150390625,0.3962987959384918,2.3069326877593994,0.5192354321479797,-56.3577880859375,45.1037712097168,-27.316574096679688
6.414,0.7716853022575378,-10.25802993774414,3.425325632095337,0.34895676374435425,2.2153027057647705,0.6200282573699951,-56.693946838378906,44.811458587646484,-28.295820236206055
6.417,1.1258230209350586,-9.586843490600586,3.0903303623199463,0.3637702465057373,1.9469802379608154,0.6956228017807007,-57.000877380371094,45.77608871459961,-29.406606674194336
6.424,1.1365907192230225,-9.342775344848633,3.115455150604248,0.4043927788734436,1.799150824546814,0.6867652535438538,-56.12394332885742,45.3814697265625,-29.041215896606445
6.434,1.368694543838501,-8.9850492477417,3.1920251846313477,0.46822819113731384,1.6759088039398193,0.6243042945861816,-56.021629333496094,45.95147705078125,-31.014324188232422
6.444,1.7527425289154053,-8.49452018737793,3.1788647174835205,0.5659666657447815,1.6336063146591187,0.5523748993873596,-56.76702880859375,45.83454895019531,-31.482023239135742
6.454,2.390429735183716,-8.069793701171875,3.31884503364563,0.665232241153717,1.6723963022232056,0.5140430927276611,-57.03010559082031,46.21455764770508,-32.15433883666992
6.474,2.854637384414673,-7.853243350982666,3.755535125732422,0.716697633266449,1.7763960361480713,0.5839871764183044,-56.82548904418945,46.25840377807617,-33.11897277832031
6.478,4.626522541046143,-6.6759748458862305,3.8811581134796143,0.7354817390441895,1.7907514572143555,0.8797986507415771,-56.65010070800781,47.03303146362305,-33.95206069946289
6.484,5.438885688781738,-6.305087566375732,3.943371534347534,0.7215845584869385,1.5233452320098877,1.0276280641555786,-56.503944396972656,46.76995086669922,-34.902076721191406
6.494,6.618546962738037,-5.347958564758301,2.706282138824463,0.8532260060310364,0.8219191431999207,1.3487904071807861,-56.182403564453125,47.237648010253906,-35.311309814453125
6.504,6.855436325073242,-4.6193437576293945,2.032702684402466,1.2128729820251465,-0.08521570265293121,1.6736180782318115,-55.90470504760742,47.9391975402832,-35.03361511230469
6.514,6.482156753540039,-4.6540398597717285,2.0338993072509766,1.8104517459869385,-0.7906123399734497,1.9689713716506958,-54.57468795776367,48.43613052368164,-36.31978988647461
6.535,6.838686943054199,-5.676971435546875,3.548555612564087,2.213775634765625,-0.9799805283546448,2.049758195877075,-52.484657287597656,49.780765533447266,-37.79596710205078
6.539,6.796812534332275,-6.643671989440918,5.127819061279297,2.3403773307800293,-0.6733261942863464,1.9587393999099731,-52.20695877075195,50.30692672729492,-37.7667350769043
6.544,6.005984783172607,-7.037291049957275,5.2283172607421875,2.2901337146759033,-0.3830125033855438,1.8590155839920044,-51.593101501464844,50.62847137451172,-38.658287048339844
6.554,5.816951751708984,-7.6869425773620605,5.017748832702637,2.1224513053894043,0.5146539211273193,1.5581645965576172,-50.760013580322266,51.373870849609375,-39.403682708740234
6.564,5.839683532714844,-8.00399112701416,4.285545349121094,1.9561432600021362,1.711186170578003,1.1505646705627441,-50.17538833618164,51.578487396240234,-40.149078369140625
6.574,6.029912948608398,-7.765905857086182,3.613162040710449,1.875814437866211,2.5337162017822266,0.8301658034324646,-50.365386962890625,52.280033111572266,-41.66910171508789
6.594,6.0466628074646,-7.162914276123047,3.2027928829193115,1.6731598377227783,2.711019992828369,0.3139847218990326,-50.08769607543945,53.08388900756836,-45.04530715942383
6.597,5.812166213989258,-6.6149582862854,2.331805467605591,1.6650660037994385,2.568229913711548,0.2171625941991806,-49.88307571411133,53.28851318359375,-45.498390197753906
6.604,5.501099109649658,-6.695117950439453,1.817348837852478,1.691791296005249,2.4158191680908203,0.13515393435955048,-49.92692184448242,53.332359313964844,-46.287635803222656
6.614,5.2522454261779785,-7.47637414932251,1.2083754539489746,1.898569107055664,2.079385280609131,-0.017562376335263252,-50.07307434082031,53.56621170043945,-48.2607421875
6.624,4.936392784118652,-8.970691680908203,0.468993216753006,2.191784381866455,1.9576704502105713,-0.1033889427781105,-49.795379638671875,53.59543991088867,-49.19614028930664
6.634,-1.483549952507019,-19.039690017700195,-13.674980163574219,2.1621575355529785,2.79119610786438,-0.17898350954055786,-50.02922821044922,53.17158508300781,-50.774627685546875
6.653,2.585444688796997,-21.39661979675293,-9.966106414794922,-0.8399397134780884,0.9007207751274109,-0.37888914346694946,-49.98538589477539,52.952354431152344,-51.11078643798828
6.657,5.412564277648926,-12.44985580444336,0.5216353535652161,-0.9179776906967163,0.5761985778808594,-0.34865131974220276,-49.795379638671875,53.87313461303711,-51.11078643798828
6.664,6.561119556427002,-9.556933403015137,2.6727828979492188,-0.8106181621551514,-0.08827002346515656,-0.06963863968849182,-49.88307571411133,53.0985107421875,-51.213096618652344
6.674,6.382853984832764,-8.232505798339844,2.1511476039886475,-0.2632829248905182,-0.1953241527080536,0.3660609722137451,-49.63460922241211,53.332359313964844,-51.344635009765625
6.684,5.6554365158081055,-8.541180610656738,3.286541700363159,0.40286561846733093,-0.4112650156021118,0.6728680729866028,-49.63460922241211,53.46390151977539,-51.00847625732422
6.694,5.064409255981445,-9.732806205749512,4.840680122375488,0.6458372473716736,-0.7878634333610535,0.6013968586921692,-49.35691452026367,53.5369758605957,-51.54925537109375
6.714,5.790630340576172,-9.69810962677002,5.229514122009277,0.24419337511062622,-0.7615962028503418,0.2646573483943939,-48.31920623779297,53.7562141418457,-51.52002716064453
6.717,6.029912948608398,-9.493523597717285,5.077569484710693,0.11927143484354019,-0.6137667894363403,0.2275473028421402,-48.75767135620117,54.20929718017578,-51.388484954833984
6.724,6.144768238067627,-9.276973724365234,4.823930263519287,-0.036193765699863434,-0.35262197256088257,0.17760907113552094,-48.20227813720703,54.019290924072266,-51.92926025390625
6.734,6.248856067657471,-9.226723670959473,4.238884925842285,-0.14553864300251007,0.03588833287358284,0.0832303911447525,-48.07073974609375,54.51622772216797,-52.23618698120117
6.744,6.534798622131348,-9.355936050415039,3.373879909515381,-0.10277807712554932,0.40622538328170776,-0.0656680166721344,-48.1584358215332,54.033905029296875,-51.94387435913086
6.754,6.514459133148193,-9.066404342651367,1.3507484197616577,0.08521570265293121,0.6774495244026184,-0.17623461782932281,-48.23151397705078,54.764686584472656,-52.63081359863281
6.773,9.485148429870605,-14.325828552246094,-0.09810572117567062,-0.3634648323059082,1.310916781425476,-0.1394299864768982,-48.77228546142578,54.16544723510742,-53.434669494628906
6.777,11.894721984863281,-14.92283821105957,1.6103696823120117,-0.7463245987892151,0.8420777320861816,-0.1941024363040924,-48.421512603759766,54.063140869140625,-53.741600036621094
6.784,13.73958683013916,-14.653645515441895,3.369094133377075,-1.1522445678710938,-0.17180584371089935,-0.26679539680480957,-48.39228439331055,54.077754974365234,-53.61005783081055
6.794,12.533604621887207,-13.40578842163086,2.8773691654205322,-1.4245377779006958,-1.0389289855957031,-0.3332270085811615,-48.5384407043457,54.58930206298828,-52.002342224121094
6.804,9.888339042663574,-12.600604057312012,0.3613162338733673,-1.501812219619751,-0.9599747061729431,-0.4534147381782532,-48.6407470703125,54.58930206298828,-51.213096618652344
6.814,7.025327205657959,-12.142377853393555,-1.7228323221206665,-1.8742872476577759,-0.7672467231750488,-0.7904596328735352,-48.9622917175293,54.09237289428711,-50.49692916870117
6.829,4.718646049499512,-11.053643226623535,-2.2025930881500244,-2.8490755558013916,-1.2883148193359375,-1.4763085842132568,-49.839229583740234,54.077754974365234,-48.78690719604492
6.834,3.875175952911377,-10.52243709564209,-1.5493526458740234,-2.891836166381836,-1.7661640644073486,-1.7209601402282715,-50.48231506347656,54.033905029296875,-47.471500396728516
6.844,3.8333017826080322,-9.763912200927734,0.8961120247840881,-2.610379934310913,-2.0783162117004395,-1.8993327617645264,-50.42385482788086,53.215431213378906,-45.83454895019531
6.854,3.8703906536102295,-8.811569213867188,2.8211376667022705,-2.3160955905914307,-2.066251516342163,-1.93293035030365,-51.7977180480957,52.98158645629883,-44.88453674316406
6.864,3.2614171504974365,-8.390432357788086,3.4743783473968506,-2.001041889190674,-1.8768833875656128,-1.9223928451538086,-52.47003936767578,52.294654846191406,-43.11604690551758
6.883,2.9144580364227295,-8.725427627563477,4.015156269073486,-1.5891659259796143,-1.5329662561416626,-1.8645133972167969,-52.63081359863281,52.338497161865234,-41.698333740234375
6.887,3.5365920066833496,-10.235298156738281,4.692325115203857,-1.2585350275039673,-1.467145562171936,-1.6870570182800293,-53.77082824707031,51.06694030761719,-40.85062789916992
6.894,3.8452658653259277,-11.188838005065918,5.133800983428955,-1.164156436920166,-1.6435329914093018,-1.5917620658874512,-53.94621658325195,50.30692672729492,-40.324466705322266
6.904,3.4337005615234375,-12.496516227722168,5.197210788726807,-1.1258245706558228,-1.8883371353149414,-1.5509867668151855,-54.77930450439453,49.75153350830078,-39.155216217041016
6.914,3.8739798069000244,-13.797015190124512,4.810770034790039,-1.0690141916275024,-1.9462167024612427,-1.486693263053894,-55.393157958984375,49.7223014831543,-38.00058364868164
6.924,4.737788677215576,-16.098909378051758,3.125026226043701,-0.9634872078895569,-2.1151208877563477,-1.3796391487121582,-55.65624237060547,48.62613296508789,-36.96287536621094
6.943,5.745166778564453,-17.93301010131836,2.0003998279571533,-0.9929614663124084,-2.3495402336120605,-1.2596040964126587,-55.93394088745117,48.611515045166016,-36.26132583618164
6.947,5.465207099914551,-14.090136528015137,1.6319050788879395,-0.532369077205658,-3.3145549297332764,-0.9512698650360107,-56.197017669677734,47.8807373046875,-35.16515350341797
6.954,4.9435715675354,-12.257233619689941,2.660818576812744,-0.27152958512306213,-3.9571847915649414,-1.131933331489563,-56.13855743408203,47.98304748535156,-34.185909271240234
6.964,6.697510242462158,-10.6624174118042,4.1623148918151855,-0.13820825517177582,-4.84110689163208,-1.2928962707519531,-55.62701416015625,47.427650451660156,-32.797428131103516
6.974,4.855037212371826,-10.479366302490234,6.454638957977295,-0.4616613984107971,-4.817588806152344,-0.9410378932952881,-55.34931564331055,46.95995330810547,-30.809703826904297
