time,accel_x,accel_y,accel_z,gyro_x,gyro_y,gyro_z,mag_x,mag_y,mag_z
0.0,77.57213592529297,-10.84094524383545,-10.955866813659668,-8.127105712890625,-7.72741174697876,0.9326186776161194,-35.70000076293945,-19.5,-23.700000762939453
0.019,78.29997253417969,-0.7661445140838623,-9.040505409240723,-11.191424369812012,-7.860642910003662,3.3307809829711914,-34.20000076293945,-20.25,-24.0
0.023,79.41088104248047,-1.723825216293335,-11.875240325927734,-11.724349021911621,-11.191424369812012,4.663093090057373,-34.20000076293945,-20.25,-24.0
0.03,77.38059997558594,-0.6512228846549988,-10.649409294128418,-16.520673751831055,4.929555892944336,-4.263399600982666,-33.75,-20.400001525878906,-22.80000114440918
0.04,78.72135162353516,0.3064578175544739,-11.338939666748047,-18.385910034179688,0.39969372749328613,-3.0643184185028076,-34.80000305175781,-20.100000381469727,-23.55000114440918
0.05,77.763671875,-0.8810662031173706,-11.070788383483887,-10.92496109008789,-8.260336875915527,0.39969372749328613,-34.650001525878906,-18.75,-23.700000762939453
0.06,78.22335815429688,-0.7661445140838623,-12.066776275634766,-9.192955017089844,-0.2664624750614166,3.197549819946289,-34.05000305175781,-20.850000381469727,-23.100000381469727
0.07,77.7253646850586,-0.689530074596405,-11.798625946044922,-15.854516983032227,2.797856092453003,-3.597243309020996,-34.05000305175781,-20.850000381469727,-23.100000381469727
0.085,78.10843658447266,-0.4213795065879822,-10.764330863952637,-14.92189884185791,2.6646246910095215,-10.392036437988281,-34.5,-20.100000381469727,-22.05000114440918
0.09,78.3765869140625,0.0,-10.15141487121582,-13.189892768859863,2.131699800491333,-5.062787055969238,-34.5,-20.100000381469727,-22.05000114440918
0.1,79.41088104248047,-1.2258312702178955,-10.5344877243042,-17.453292846679688,-0.2664624750614166,-13.989279747009277,-34.5,-18.900001525878906,-24.600000381469727
0.11,79.21934509277344,-0.6129156351089478,-10.955866813659668,-7.194486618041992,-11.591117858886719,-4.263399600982666,-35.55000305175781,-20.100000381469727,-22.80000114440918
0.12,76.88260650634766,0.1149216815829277,-11.530475616455078,-9.992342948913574,-8.526799201965332,1.8652373552322388,-35.55000305175781,-20.100000381469727,-22.80000114440918
0.139,77.26567840576172,1.8387469053268433,-11.109095573425293,-12.390504837036133,-0.2664624750614166,-4.130168437957764,-34.05000305175781,-20.850000381469727,-24.150001525878906
0.143,77.1890640258789,1.4173674583435059,-11.645397186279297,-5.196018218994141,0.0,-9.326186180114746,-35.25,-18.150001525878906,-23.100000381469727
0.15,77.95520782470703,0.6512228846549988,-11.875240325927734,-0.6661561727523804,-7.460949420928955,1.8652373552322388,-35.25,-18.150001525878906,-23.100000381469727
0.16,78.45320129394531,0.15322890877723694,-10.15141487121582,8.127105712890625,-10.658498764038086,1.7320060729980469,-34.20000076293945,-18.75,-24.0
0.17,77.1507568359375,-0.8427590131759644,-10.113107681274414,1.4655436277389526,5.462480545043945,-6.5283308029174805,-34.20000076293945,-18.75,-24.0
0.18,78.03182220458984,-2.0685901641845703,-10.228029251098633,-3.7304747104644775,-1.0658499002456665,-9.459418296813965,-34.05000305175781,-19.200000762939453,-22.05000114440918
0.19,78.03182220458984,-3.9839515686035156,-10.994174003601074,4.796324729919434,-8.526799201965332,3.597243309020996,-34.5,-19.650001525878906,-23.100000381469727
0.203,78.49150848388672,-4.8267107009887695,-10.342951774597168,-1.5987749099731445,-6.128636837005615,-2.797856092453003,-34.05000305175781,-18.900001525878906,-24.150001525878906
0.21,77.38059997558594,-4.903325080871582,-9.883264541625977,-5.995405673980713,-3.9969370365142822,-3.7304747104644775,-34.05000305175781,-18.900001525878906,-24.150001525878906
0.22,77.53382873535156,-4.520252704620361,-11.262324333190918,-7.460949420928955,-4.263399600982666,0.9326186776161194,-34.05000305175781,-18.900001525878906,-24.150001525878906
0.23,77.1890640258789,-3.754108190536499,-10.457873344421387,-6.261868000030518,-9.592649459838867,-4.130168437957764,-34.95000076293945,-19.05000114440918,-24.450000762939453
0.24,76.95922088623047,-2.4899697303771973,-11.109095573425293,-17.453292846679688,-2.131699800491333,-6.794793128967285,-33.75,-19.200000762939453,-24.150001525878906
0.258,76.72937774658203,-1.6089035272598267,-10.84094524383545,-15.987748146057129,4.796324729919434,-11.990811347961426,-32.55000305175781,-20.400001525878906,-23.55000114440918
0.262,76.65276336669922,-0.8044517636299133,-11.453861236572266,-13.856048583984375,-2.9310872554779053,-7.460949420928955,-32.55000305175781,-20.400001525878906,-23.55000114440918
0.27,77.64875030517578,-0.689530074596405,-10.381258964538574,-14.788667678833008,-6.261868000030518,-8.660030364990234,-32.55000305175781,-20.400001525878906,-23.55000114440918
0.28,78.26166534423828,-0.07661445438861847,-10.41956615447998,-11.857580184936523,-3.0643184185028076,-8.127105712890625,-33.900001525878906,-18.75,-22.950000762939453
0.29,77.1124496459961,-1.37906014919281,-9.998186111450195,-5.995405673980713,-5.329249382019043,-2.2649309635162354,-34.95000076293945,-18.75,-22.950000762939453
0.3,75.54185485839844,-2.0685901641845703,-11.1474027633667,-3.0643184185028076,-11.724349021911621,-5.462480545043945,-34.650001525878906,-19.80000114440918,-24.0
0.319,77.34229278564453,-1.3407529592514038,-11.338939666748047,-10.125574111938477,-0.6661561727523804,-9.059723854064941,-34.650001525878906,-19.80000114440918,-24.0
0.323,76.88260650634766,-1.1875240802764893,-11.1474027633667,-12.124042510986328,-1.5987749099731445,-6.395099639892578,-35.25,-18.900001525878906,-22.80000114440918
0.33,77.41890716552734,-0.9959878921508789,-10.457873344421387,-11.857580184936523,-3.4640121459960938,2.9310872554779053,-34.650001525878906,-19.05000114440918,-22.5
0.34,76.5761489868164,-0.727837324142456,-10.611102104187012,-21.183767318725586,1.9984685182571411,-2.398162364959717,-34.80000305175781,-19.200000762939453,-24.600000381469727
0.35,76.34630584716797,0.07661445438861847,-10.611102104187012,-11.457886695861816,-2.9310872554779053,-7.327718257904053,-34.80000305175781,-19.200000762939453,-24.600000381469727
0.36,77.99351501464844,0.5363011956214905,-10.496180534362793,-7.9938740730285645,-3.4640121459960938,12.25727367401123,-34.05000305175781,-18.900001525878906,-23.850000381469727
0.378,77.91690063476562,1.4939818382263184,-11.91354751586914,-9.992342948913574,-4.529861927032471,8.127105712890625,-33.900001525878906,-19.80000114440918,-24.450000762939453
0.382,78.72135162353516,-0.038307227194309235,-10.687716484069824,-5.728943347930908,6.794793128967285,-2.131699800491333,-33.0,-18.150001525878906,-23.55000114440918
0.39,78.26166534423828,0.038307227194309235,-11.30063247680664,-12.25727367401123,-0.1332312375307083,3.0643184185028076,-33.0,-18.900001525878906,-23.850000381469727
0.4,78.18505096435547,-0.9959878921508789,-11.377246856689453,-9.059723854064941,9.059723854064941,6.128636837005615,-33.0,-18.900001525878906,-23.850000381469727
0.41,78.26166534423828,-1.4939818382263184,-10.802638053894043,-8.660030364990234,5.196018218994141,0.2664624750614166,-34.05000305175781,-19.650001525878906,-24.900001525878906
0.42,76.80599212646484,-2.145204782485962,-11.990161895751953,-8.260336875915527,11.591117858886719,2.2649309635162354,-34.20000076293945,-20.25,-23.700000762939453
0.439,76.80599212646484,-1.5322890281677246,-11.109095573425293,-7.9938740730285645,-0.5329249501228333,11.724349021911621,-33.30000305175781,-18.900001525878906,-22.350000381469727
0.443,78.56812286376953,-2.2601263523101807,-11.60708999633789,-12.124042510986328,2.398162364959717,25.313934326171875,-32.400001525878906,-20.25,-23.25
0.45,76.07815551757812,-3.44765043258667,-13.177685737609863,-17.852985382080078,8.793261528015137,18.78560447692871,-32.400001525878906,-20.25,-23.25
0.46,76.38461303710938,-3.332728862762451,-12.832921028137207,-20.784072875976562,14.92189884185791,21.45022964477539,-32.55000305175781,-20.400001525878906,-23.850000381469727
0.47,77.1124496459961,-4.367023944854736,-13.560758590698242,-20.784072875976562,10.525267601013184,22.249616622924805,-34.80000305175781,-20.100000381469727,-23.55000114440918
0.48,77.34229278564453,-4.596867084503174,-13.637372970581055,-24.381317138671875,15.854516983032227,18.652372360229492,-33.30000305175781,-20.100000381469727,-22.80000114440918
0.498,76.84429931640625,-3.1028854846954346,-14.595053672790527,-30.110260009765625,20.251148223876953,17.32006072998047,-33.30000305175781,-20.850000381469727,-24.600000381469727
0.503,77.7253646850586,-1.6855180263519287,-13.675680160522461,-32.77488327026367,24.248085021972656,28.911178588867188,-33.30000305175781,-20.850000381469727,-24.600000381469727
0.51,78.91288757324219,-0.07661445438861847,-12.871228218078613,-23.581928253173828,18.2526798248291,41.967838287353516,-33.900001525878906,-19.05000114440918,-23.700000762939453
0.52,78.3765869140625,-1.1109095811843872,-12.105083465576172,-29.444103240966797,19.31852912902832,33.30780792236328,-34.650001525878906,-18.75,-23.700000762939453
0.53,78.9511947631836,-2.030282974243164,-12.02846908569336,-33.84073257446289,13.58958625793457,47.9632453918457,-32.70000076293945,-19.5,-23.700000762939453
0.54,78.68304443359375,-2.9879636764526367,-12.832921028137207,-27.045940399169922,7.06125545501709,61.28636932373047,-33.30000305175781,-20.850000381469727,-23.100000381469727
0.559,77.34229278564453,-5.4013190269470215,-14.058752059936523,-37.4379768371582,23.448698043823242,53.026031494140625,-33.30000305175781,-20.850000381469727,-23.100000381469727
0.563,77.61044311523438,-6.3973069190979,-14.709975242614746,-39.30321502685547,21.716691970825195,60.48698043823242,-34.95000076293945,-19.5,-24.450000762939453
0.57,78.03182220458984,-5.2480902671813965,-14.518439292907715,-38.10413360595703,21.050535202026367,61.552833557128906,-35.25,-21.150001525878906,-23.55000114440918
0.58,78.10843658447266,-4.8267107009887695,-14.020444869995117,-36.238895416259766,12.790199279785156,54.62480926513672,-34.05000305175781,-20.100000381469727,-23.100000381469727
0.59,78.72135162353516,-1.2258312702178955,-12.411541938781738,-44.23276901245117,22.116384506225586,53.026031494140625,-34.80000305175781,-19.200000762939453,-23.100000381469727
0.6,78.60643005371094,0.8427590131759644,-11.492168426513672,-35.306278228759766,16.65390396118164,51.4272575378418,-34.80000305175781,-19.200000762939453,-23.100000381469727
0.619,78.3382797241211,2.5665841102600098,-12.143390655517578,-16.65390396118164,11.724349021911621,57.289432525634766,-32.25,-20.400001525878906,-23.850000381469727
0.623,78.87458038330078,3.332728862762451,-12.60307788848877,-3.597243309020996,20.517610549926758,60.88667678833008,-35.25,-19.650001525878906,-23.55000114440918
0.63,77.8019790649414,2.2601263523101807,-12.986149787902832,3.4640121459960938,18.2526798248291,51.960182189941406,-34.5,-22.350000381469727,-22.350000381469727
0.64,77.68705749511719,-0.6129156351089478,-12.526463508605957,14.788667678833008,11.457886695861816,61.68606185913086,-35.25,-21.900001525878906,-23.850000381469727
0.65,76.00154113769531,-3.4093432426452637,-11.91354751586914,15.854516983032227,14.92189884185791,58.754974365234375,-35.25,-21.900001525878906,-23.850000381469727
0.66,74.96724700927734,-7.738059997558594,-12.449849128723145,8.39356803894043,15.588054656982422,47.163856506347656,-33.45000076293945,-21.450000762939453,-23.700000762939453
0.68,76.69107055664062,-10.189722061157227,-11.836933135986328,-1.0658499002456665,18.652372360229492,44.89892578125,-34.5,-21.150001525878906,-23.55000114440918
0.684,75.23539733886719,-10.994174003601074,-10.266336441040039,-1.0658499002456665,8.926492691040039,52.093414306640625,-34.20000076293945,-21.450000762939453,-23.700000762939453
0.69,75.65677642822266,-9.959878921508789,-11.990161895751953,-10.258805274963379,11.191424369812012,40.9019889831543,-33.900001525878906,-22.200000762939453,-23.700000762939453
0.7,75.58016204833984,-8.810662269592285,-11.875240325927734,-16.65390396118164,13.722817420959473,38.10413360595703,-33.900001525878906,-22.200000762939453,-23.700000762939453
0.71,74.85232543945312,-8.006210327148438,-12.832921028137207,-6.5283308029174805,9.859111785888672,41.434913635253906,-33.0,-22.80000114440918,-23.100000381469727
0.72,75.84831237792969,-4.750096321105957,-12.7946138381958,-3.86370587348938,10.92496109008789,33.17457962036133,-34.80000305175781,-21.900001525878906,-22.80000114440918
0.739,75.84831237792969,-5.056553840637207,-13.407529830932617,0.0,14.788667678833008,29.84379768371582,-34.05000305175781,-23.850000381469727,-22.05000114440918
0.743,75.19709014892578,-4.711789131164551,-13.637372970581055,4.130168437957764,11.058192253112793,25.846860885620117,-33.900001525878906,-22.5,-24.450000762939453
0.75,75.61846923828125,-4.213795185089111,-13.637372970581055,16.387441635131836,9.72588062286377,28.378253936767578,-33.900001525878906,-22.5,-24.450000762939453
0.76,74.39263153076172,-4.558559894561768,-13.675680160522461,20.251148223876953,19.98468589782715,21.583459854125977,-34.650001525878906,-22.5,-23.25
0.77,75.61846923828125,-5.094861030578613,-12.449849128723145,25.18070411682129,16.25421142578125,12.656967163085938,-33.45000076293945,-21.75,-22.950000762939453
0.78,75.54185485839844,-4.9799394607543945,-13.292608261108398,38.90352249145508,6.794793128967285,15.45482349395752,-34.650001525878906,-23.25,-23.25
0.8,74.85232543945312,-4.750096321105957,-13.369222640991211,31.575803756713867,14.522205352783203,-11.857580184936523,-33.45000076293945,-24.900001525878906,-22.5
0.804,73.7031021118164,-3.2561142444610596,-11.836933135986328,43.03369140625,17.186830520629883,-4.130168437957764,-33.45000076293945,-24.900001525878906,-22.5
0.81,70.14053344726562,-1.9536685943603516,-10.917559623718262,52.3598747253418,14.655436515808105,0.1332312375307083,-34.95000076293945,-24.900001525878906,-23.700000762939453
0.82,69.87238311767578,-1.6855180263519287,-11.453861236572266,59.15467071533203,15.321592330932617,-7.06125545501709,-33.900001525878906,-24.450000762939453,-22.950000762939453
0.83,68.83808898925781,-1.6089035272598267,-9.691728591918945,61.552833557128906,17.32006072998047,-8.926492691040039,-34.20000076293945,-24.450000762939453,-21.75
0.84,67.30580139160156,0.0,-5.631162166595459,60.88667678833008,18.519142150878906,-5.196018218994141,-34.20000076293945,-24.450000762939453,-19.950000762939453
0.86,66.8844223022461,1.4939818382263184,-3.6391866207122803,75.40888214111328,9.326186180114746,3.86370587348938,-34.20000076293945,-24.450000762939453,-19.950000762939453
0.863,69.18285369873047,2.2218191623687744,-2.75812029838562,83.13629150390625,23.315465927124023,-10.92496109008789,-33.30000305175781,-23.55000114440918,-22.05000114440918
0.87,71.8260498046875,0.15322890877723694,-3.1028854846954346,87.26646423339844,20.117916107177734,-21.983154296875,-34.650001525878906,-24.450000762939453,-22.5
0.88,73.97125244140625,-0.5746083855628967,-1.8770540952682495,101.38896942138672,17.32006072998047,-45.03215789794922,-33.900001525878906,-26.100000381469727,-20.700000762939453
0.89,78.26166534423828,-2.9496564865112305,0.038307227194309235,117.50994873046875,11.324655532836914,-56.22358322143555,-36.150001525878906,-24.450000762939453,-22.200000762939453
0.9,82.28392028808594,-6.01423454284668,-1.1875240802764893,116.71056365966797,-5.062787055969238,-77.27411651611328,-36.150001525878906,-24.450000762939453,-22.200000762939453
0.921,85.65496063232422,-7.240066051483154,-0.8044517636299133,92.86217498779297,-3.597243309020996,-99.65696716308594,-33.900001525878906,-24.150001525878906,-21.75
0.924,89.10260772705078,-8.542511940002441,-3.2561142444610596,70.3460922241211,-6.9280242919921875,-115.91117858886719,-35.400001525878906,-24.900001525878906,-20.700000762939453
0.93,90.71151733398438,-5.822698593139648,-7.393294811248779,56.09035110473633,-12.390504837036133,-109.51607513427734,-35.400001525878906,-24.900001525878906,-20.700000762939453
0.94,89.60060119628906,-4.175487995147705,-7.240066051483154,49.29555892944336,-6.661561965942383,-116.0444107055664,-34.20000076293945,-23.700000762939453,-22.200000762939453
0.95,86.84248352050781,0.1149216815829277,-8.312667846679688,47.430320739746094,-8.39356803894043,-116.57733154296875,-34.20000076293945,-23.700000762939453,-22.200000762939453
0.96,86.49771881103516,4.252102375030518,-9.308655738830566,59.4211311340332,-19.98468589782715,-117.50994873046875,-34.80000305175781,-24.750001907348633,-19.80000114440918
0.979,85.96141815185547,10.496180534362793,-9.155426979064941,69.94640350341797,-17.852985382080078,-128.83460998535156,-34.650001525878906,-24.450000762939453,-21.450000762939453
0.983,83.62467956542969,13.522451400756836,-10.994174003601074,89.39816284179688,-18.91883659362793,-123.2388916015625,-34.20000076293945,-23.25,-19.950000762939453
0.99,82.70530700683594,12.756306648254395,-13.79060173034668,97.5252685546875,-18.652372360229492,-119.64165496826172,-34.20000076293945,-23.25,-19.950000762939453
1.0,83.7012939453125,12.871228218078613,-12.48815631866455,99.65696716308594,-19.584991455078125,-135.89585876464844,-34.20000076293945,-23.25,-19.950000762939453
1.01,84.314208984375,9.423578262329102,-13.828908920288086,106.05206298828125,-22.382848739624023,-125.90351867675781,-34.95000076293945,-22.5,-21.450000762939453
1.02,83.43314361572266,7.316680431365967,-12.871228218078613,105.38591003417969,-25.04747200012207,-125.37059783935547,-34.650001525878906,-22.950000762939453,-21.75
1.039,82.82022857666016,7.010222434997559,-11.224017143249512,113.3797836303711,-41.701377868652344,-123.63858795166016,-35.55000305175781,-21.900001525878906,-19.80000114440918
1.043,80.29194641113281,6.933608055114746,-10.611102104187012,96.59264373779297,-48.09647750854492,-126.30321502685547,-33.75,-21.900001525878906,-21.600000381469727
1.05,77.64875030517578,10.342951774597168,-10.266336441040039,92.86217498779297,-53.82542037963867,-129.2342987060547,-33.75,-21.900001525878906,-21.600000381469727
1.06,76.03984832763672,11.41555404663086,-10.457873344421387,87.9326171875,-55.15773391723633,-129.36753845214844,-36.150001525878906,-22.5,-20.700000762939453
1.07,74.2777099609375,13.599065780639648,-10.304644584655762,94.9938735961914,-61.41960144042969,-132.9647674560547,-33.75,-21.600000381469727,-21.30000114440918
1.08,73.39664459228516,15.820884704589844,-9.730035781860352,88.865234375,-56.09035110473633,-141.22511291503906,-35.400001525878906,-21.0,-21.75
1.099,74.58417510986328,17.42978858947754,-10.84094524383545,91.79632568359375,-57.15620040893555,-143.2235870361328,-34.80000305175781,-20.850000381469727,-21.30000114440918
1.104,74.96724700927734,17.851167678833008,-10.15141487121582,107.25114440917969,-54.091880798339844,-146.1546630859375,-34.5,-19.200000762939453,-20.850000381469727
1.11,75.04386138916016,18.195932388305664,-8.35097599029541,113.91270446777344,-66.61561584472656,-148.8192901611328,-34.5,-19.200000762939453,-20.850000381469727
1.12,75.08216857910156,17.238252639770508,-9.078812599182129,114.44563293457031,-56.49004364013672,-154.28176879882812,-35.400001525878906,-20.55000114440918,-22.5
1.13,75.54185485839844,16.1656494140625,-9.653421401977539,116.17764282226562,-65.15007781982422,-156.5467071533203,-34.5,-20.400001525878906,-22.80000114440918
1.14,76.11646270751953,14.595053672790527,-9.576807022094727,123.10566711425781,-71.81163787841797,-149.61868286132812,-34.80000305175781,-20.400001525878906,-24.900001525878906
1.16,75.69508361816406,13.867216110229492,-8.427590370178223,110.848388671875,-68.74732208251953,-167.87135314941406,-34.80000305175781,-20.400001525878906,-24.900001525878906
1.163,75.2737045288086,14.518439292907715,-9.84495735168457,102.05513000488281,-80.20520782470703,-168.40428161621094,-34.95000076293945,-17.55000114440918,-22.200000762939453
1.17,74.54586791992188,13.254301071166992,-9.691728591918945,103.65390014648438,-77.4073486328125,-166.1393585205078,-34.95000076293945,-17.55000114440918,-22.200000762939453
1.18,75.42693328857422,13.867216110229492,-9.921571731567383,93.66156005859375,-84.4686050415039,-169.4701385498047,-36.150001525878906,-19.05000114440918,-22.950000762939453
1.19,75.15878295898438,15.476119995117188,-10.496180534362793,77.94027709960938,-76.07503509521484,-175.9984588623047,-34.5,-17.400001525878906,-22.80000114440918
1.2,75.54185485839844,17.851167678833008,-13.407529830932617,72.61102294921875,-74.60948944091797,-170.13629150390625,-34.5,-17.400001525878906,-22.80000114440918
1.219,75.42693328857422,20.724210739135742,-15.437812805175781,79.9387435913086,-76.60796356201172,-165.87289428710938,-33.45000076293945,-16.80000114440918,-24.750001907348633
1.222,73.0901870727539,20.609289169311523,-17.966089248657227,80.73812866210938,-65.949462890625,-155.08116149902344,-33.30000305175781,-16.950000762939453,-25.350000381469727
1.23,71.90266418457031,20.800825119018555,-17.50640296936035,81.93721008300781,-53.558956146240234,-167.6049041748047,-34.05000305175781,-15.450000762939453,-25.650001525878906
1.24,71.90266418457031,18.77054214477539,-14.901511192321777,89.13169860839844,-68.08116149902344,-158.0122528076172,-34.05000305175781,-15.450000762939453,-25.650001525878906
1.25,72.20912170410156,18.847156524658203,-14.556746482849121,83.40275573730469,-65.54976654052734,-154.0153045654297,-34.05000305175781,-15.450000762939453,-25.650001525878906
1.26,70.52360534667969,17.697938919067383,-16.203956604003906,71.2787094116211,-55.69065856933594,-156.01377868652344,-32.25,-15.450000762939453,-25.200000762939453
1.279,69.9873046875,20.724210739135742,-17.697938919067383,58.62174606323242,-58.4885139465332,-143.62327575683594,-34.20000076293945,-14.40000057220459,-25.80000114440918
1.283,71.63451385498047,19.536685943603516,-18.195932388305664,45.96477508544922,-47.430320739746094,-142.4241943359375,-33.45000076293945,-15.600000381469727,-26.55000114440918
1.29,72.97526550292969,21.26051139831543,-20.800825119018555,42.633995056152344,-61.9525260925293,-130.03369140625,-33.45000076293945,-15.600000381469727,-26.55000114440918
1.3,74.46924591064453,24.13355255126953,-20.76251792907715,33.17457962036133,-53.82542037963867,-116.57733154296875,-32.25,-13.500000953674316,-26.100000381469727
1.31,73.74140930175781,25.51261329650879,-22.524648666381836,28.111791610717773,-48.22970962524414,-113.77947998046875,-33.75,-13.800000190734863,-26.850000381469727
1.32,72.63050079345703,27.198131561279297,-22.06496238708496,18.519142150878906,-41.434913635253906,-101.78866577148438,-33.75,-11.850000381469727,-27.150001525878906
1.339,72.55388641357422,30.109479904174805,-22.83110809326172,12.790199279785156,-33.70750427246094,-105.78560638427734,-32.70000076293945,-11.40000057220459,-28.05000114440918
1.342,72.32404327392578,31.373619079589844,-22.333112716674805,11.191424369812012,-28.24502182006836,-82.47013854980469,-32.70000076293945,-11.40000057220459,-28.05000114440918
1.35,71.90266418457031,34.09343338012695,-24.286781311035156,16.65390396118164,-30.110260009765625,-73.41041564941406,-31.500001907348633,-12.300000190734863,-27.450000762939453
1.36,71.97927856445312,36.315250396728516,-23.980323791503906,19.45176124572754,-25.313934326171875,-59.02143859863281,-31.05000114440918,-12.300000190734863,-26.400001525878906
1.37,72.78372955322266,36.2386360168457,-23.175872802734375,25.980091094970703,-20.251148223876953,-49.16232681274414,-32.55000305175781,-11.100000381469727,-28.200000762939453
1.38,73.24341583251953,36.66001510620117,-22.946029663085938,44.49923324584961,-26.379785537719727,-33.84073257446289,-32.400001525878906,-10.5,-28.05000114440918
1.401,79.90887451171875,35.89387130737305,-22.2948055267334,46.497703552246094,-23.848390579223633,-29.444103240966797,-32.400001525878906,-10.5,-28.05000114440918
1.405,85.84649658203125,34.13174057006836,-21.98834800720215,36.238895416259766,-25.980091094970703,-17.453292846679688,-31.500001907348633,-13.050000190734863,-28.950000762939453
1.41,88.87276458740234,31.143775939941406,-23.865402221679688,36.10566711425781,-22.915773391723633,-14.255742073059082,-32.25,-12.300000190734863,-27.450000762939453
1.42,85.61665344238281,31.41192626953125,-24.861391067504883,23.182235717773438,-9.992342948913574,8.660030364990234,-32.55000305175781,-12.750000953674316,-27.150001525878906
1.43,80.90486145019531,31.488540649414062,-26.700138092041016,9.992342948913574,6.128636837005615,17.186830520629883,-32.25,-12.750000953674316,-27.900001525878906
1.44,75.54185485839844,32.599449157714844,-26.929981231689453,9.192955017089844,15.055130004882812,46.231239318847656,-32.25,-12.750000953674316,-27.900001525878906
1.459,75.3503189086914,31.60346221923828,-24.861391067504883,25.846860885620117,19.584991455078125,55.29096221923828,-30.900001525878906,-10.950000762939453,-28.80000114440918
1.462,76.99752807617188,29.190107345581055,-20.95405387878418,40.36906433105469,21.45022964477539,57.822357177734375,-32.400001525878906,-12.15000057220459,-28.500001907348633
1.47,81.55608367919922,22.984336853027344,-16.58702850341797,33.84073257446289,19.052066802978516,65.15007781982422,-33.30000305175781,-11.850000381469727,-27.900001525878906
1.48,83.39483642578125,16.395492553710938,-16.127342224121094,25.7136287689209,10.791729927062988,49.02909469604492,-31.650001525878906,-11.700000762939453,-27.750001907348633
1.49,83.7396011352539,9.346963882446289,-15.361198425292969,8.526799201965332,4.396630764007568,55.02450180053711,-31.650001525878906,-11.700000762939453,-27.750001907348633
1.5,81.90084838867188,3.8307228088378906,-15.667655944824219,-11.058192253112793,-1.1990811824798584,38.50382614135742,-31.80000114440918,-14.250000953674316,-27.900001525878906
1.519,79.29595947265625,2.2218191623687744,-17.085023880004883,-40.76875686645508,16.920366287231445,54.091880798339844,-31.500001907348633,-14.250000953674316,-28.650001525878906
1.522,75.00555419921875,8.08282470703125,-17.73624610900879,-75.00918579101562,24.11485481262207,76.4747314453125,-32.55000305175781,-13.800000190734863,-27.900001525878906
1.53,73.664794921875,10.304644584655762,-17.468095779418945,-78.73966217041016,22.649311065673828,86.20060729980469,-33.150001525878906,-13.200000762939453,-28.500001907348633
1.54,72.59219360351562,13.292608261108398,-15.361198425292969,-84.20214080810547,26.779478073120117,100.18988800048828,-33.150001525878906,-13.200000762939453,-28.500001907348633
1.55,67.80379486083984,11.760318756103516,-14.058752059936523,-81.67074584960938,27.978559494018555,104.85298156738281,-33.150001525878906,-11.700000762939453,-28.05000114440918
1.56,65.12228393554688,7.316680431365967,-15.591041564941406,-71.54517364501953,28.511484146118164,110.18223571777344,-33.150001525878906,-14.40000057220459,-27.750001907348633
1.579,62.670623779296875,0.8044517636299133,-17.544710159301758,-58.355281829833984,23.448698043823242,109.51607513427734,-31.500001907348633,-13.050000190734863,-27.150001525878906
1.582,62.51739501953125,-3.754108190536499,-19.919757843017578,-72.0781021118164,53.558956146240234,100.18988800048828,-33.30000305175781,-13.500000953674316,-27.450000762939453
1.59,63.81983947753906,-8.389283180236816,-17.1999454498291,-75.14241790771484,44.49923324584961,105.25267791748047,-33.30000305175781,-13.500000953674316,-27.450000762939453
1.6,68.1102523803711,-11.338939666748047,-16.1656494140625,-95.12710571289062,56.756507873535156,115.77794647216797,-32.70000076293945,-13.65000057220459,-26.55000114440918
1.61,73.24341583251953,-11.568782806396484,-15.054739952087402,-112.18070220947266,55.82388687133789,114.04593658447266,-34.95000076293945,-14.100000381469727,-27.000001907348633
1.62,77.87859344482422,-11.72201156616211,-13.10107135772705,-124.30474090576172,45.96477508544922,112.4471664428711,-33.75,-13.800000190734863,-27.150001525878906
1.639,79.37257385253906,-9.84495735168457,-14.058752059936523,-144.1562042236328,36.63859176635742,117.37671661376953,-33.0,-15.450000762939453,-27.900001525878906
1.642,81.86254119873047,-7.163451671600342,-15.476119995117188,-148.8192901611328,37.304744720458984,117.64318084716797,-33.0,-15.450000762939453,-27.900001525878906
1.65,81.93915557861328,-6.856993675231934,-15.705963134765625,-161.2097930908203,41.035221099853516,114.3124008178711,-33.30000305175781,-13.800000190734863,-27.150001525878906
1.66,81.4794692993164,-4.213795185089111,-16.740259170532227,-169.33689880371094,34.373661041259766,130.1669158935547,-33.0,-12.750000953674316,-25.650001525878906
1.67,81.28793334960938,-3.485957622528076,-17.046716690063477,-182.7932586669922,35.705970764160156,133.36447143554688,-34.650001525878906,-15.90000057220459,-25.80000114440918
1.68,81.441162109375,-2.183511972427368,-16.433799743652344,-195.71669006347656,47.696781158447266,134.69677734375,-32.55000305175781,-14.550000190734863,-26.850000381469727
1.7,80.13871765136719,-1.3024457693099976,-15.24627685546875,-206.6416473388672,50.62786865234375,134.96324157714844,-32.55000305175781,-14.550000190734863,-26.850000381469727
1.705,79.71733856201172,0.9959878921508789,-16.625335693359375,-202.9111785888672,42.36753463745117,150.41806030273438,-34.20000076293945,-15.15000057220459,-25.80000114440918
1.71,79.10442352294922,2.7964274883270264,-15.705963134765625,-213.56967163085938,45.56508255004883,154.0153045654297,-33.75,-14.550000190734863,-25.650001525878906
1.72,76.84429931640625,3.141192674636841,-16.778566360473633,-215.43490600585938,45.96477508544922,161.7427215576172,-35.25,-13.800000190734863,-26.400001525878906
1.73,75.50354766845703,4.405331134796143,-16.66364288330078,-210.1056671142578,43.03369140625,174.79937744140625,-34.20000076293945,-14.40000057220459,-26.55000114440918
1.74,75.12047576904297,5.324704647064209,-16.70195198059082,-202.24502563476562,42.23430252075195,167.73812866210938,-34.20000076293945,-14.40000057220459,-26.55000114440918
1.758,72.55388641357422,7.048529624938965,-17.50640296936035,-186.5237274169922,45.43185043334961,181.06124877929688,-35.25,-14.250000953674316,-27.150001525878906
1.761,69.64253997802734,9.002198219299316,-16.35718536376953,-189.32159423828125,59.55436325073242,169.60336303710938,-35.25,-14.250000953674316,-27.150001525878906
1.77,69.3360824584961,9.385271072387695,-15.093047142028809,-174.9326171875,56.889739990234375,173.6002960205078,-34.650001525878906,-14.850000381469727,-25.80000114440918
1.78,68.60824584960938,7.8529815673828125,-16.012420654296875,-158.27871704101562,50.89433288574219,178.92955017089844,-36.0,-13.800000190734863,-24.900001525878906
1.79,67.19087982177734,7.010222434997559,-14.36521053314209,-154.54823303222656,48.8958625793457,177.5972442626953,-36.0,-13.800000190734863,-24.900001525878906
1.808,68.64655303955078,5.363011837005615,-14.211980819702148,-139.35987854003906,40.9019889831543,171.06890869140625,-35.55000305175781,-15.000000953674316,-24.150001525878906
1.812,70.29376220703125,2.9879636764526367,-15.169661521911621,-149.48544311523438,49.56201934814453,166.40582275390625,-34.650001525878906,-15.90000057220459,-24.750001907348633
1.82,72.17081451416016,-0.4596867263317108,-14.556746482849121,-150.95098876953125,45.16539001464844,163.20826721191406,-33.150001525878906,-15.15000057220459,-24.450000762939453
1.83,71.48128509521484,-1.8770540952682495,-15.131354331970215,-153.21592712402344,36.238895416259766,139.89280700683594,-33.45000076293945,-15.15000057220459,-24.0
1.84,73.35833740234375,-3.2561142444610596,-15.131354331970215,-158.27871704101562,41.035221099853516,148.4196014404297,-33.45000076293945,-15.15000057220459,-24.0
1.85,73.54987335205078,-2.75812029838562,-16.089035034179688,-167.0719757080078,38.10413360595703,150.81776428222656,-34.650001525878906,-15.90000057220459,-23.700000762939453
1.86,73.58818054199219,-4.213795185089111,-16.625335693359375,-181.8606414794922,48.362937927246094,137.22817993164062,-36.0,-16.200000762939453,-24.150001525878906
1.879,76.23138427734375,-1.8387469053268433,-16.012420654296875,-184.92495727539062,56.49004364013672,134.16384887695312,-36.150001525878906,-15.90000057220459,-24.450000762939453
1.883,78.3382797241211,3.9456443786621094,-17.31486701965332,-183.5926513671875,51.82695007324219,141.35833740234375,-36.150001525878906,-15.90000057220459,-24.450000762939453
1.89,77.26567840576172,5.5545477867126465,-16.47210693359375,-175.9984588623047,53.82542037963867,141.35833740234375,-36.150001525878906,-15.90000057220459,-24.450000762939453
1.9,77.68705749511719,6.588842868804932,-16.05072784423828,-169.73660278320312,46.764163970947266,126.16998291015625,-34.80000305175781,-17.400001525878906,-22.350000381469727
1.91,78.10843658447266,9.691728591918945,-16.548721313476562,-148.95252990722656,40.635528564453125,149.3522186279297,-36.75,-16.950000762939453,-24.600000381469727
1.92,76.30799865722656,11.109095573425293,-17.00840950012207,-136.56201171875,34.64012145996094,139.7595672607422,-35.400001525878906,-17.100000381469727,-23.25
1.935,74.81401824951172,12.258312225341797,-17.73624610900879,-111.781005859375,26.379785537719727,147.22052001953125,-35.25,-18.150001525878906,-23.100000381469727
1.94,73.32003021240234,11.568782806396484,-19.038692474365234,-96.8591079711914,26.64624786376953,151.48391723632812,-35.25,-18.150001525878906,-23.100000381469727
1.95,71.63451385498047,9.998186111450195,-21.107282638549805,-80.73812866210938,30.776416778564453,147.4869842529297,-36.0,-17.700000762939453,-20.850000381469727
1.96,72.09420013427734,8.925583839416504,-19.536685943603516,-76.20826721191406,34.24042892456055,142.29095458984375,-36.75,-18.150001525878906,-22.350000381469727
1.97,70.71514129638672,7.316680431365967,-18.387468338012695,-61.552833557128906,33.30780792236328,140.6921844482422,-36.75,-17.700000762939453,-22.350000381469727
1.98,70.94498443603516,4.788403511047363,-18.04270362854004,-37.4379768371582,19.31852912902832,144.1562042236328,-35.55000305175781,-18.450000762939453,-21.30000114440918
1.999,73.12849426269531,4.367023944854736,-13.675680160522461,-29.84379768371582,8.793261528015137,138.6937255859375,-35.400001525878906,-18.30000114440918,-21.75
2.003,74.50755310058594,-0.8810662031173706,-11.30063247680664,-36.10566711425781,8.660030364990234,119.90811157226562,-35.70000076293945,-20.55000114440918,-21.450000762939453
2.01,73.77971649169922,-0.3064578175544739,-12.449849128723145,-39.83613967895508,4.796324729919434,120.30780792236328,-35.70000076293945,-20.55000114440918,-21.450000762939453
2.02,74.3160171508789,-4.022258758544922,-13.445837020874023,-34.24042892456055,1.8652373552322388,112.58039855957031,-35.70000076293945,-21.0,-23.25
2.03,76.34630584716797,-5.5545477867126465,-15.514427185058594,-43.03369140625,7.327718257904053,88.33231353759766,-37.20000076293945,-21.0,-22.950000762939453
2.04,77.87859344482422,-7.048529624938965,-17.12333106994629,-49.29555892944336,15.188361167907715,86.20060729980469,-37.20000076293945,-21.0,-22.950000762939453
2.052,79.94718170166016,-7.1251444816589355,-17.353174209594727,-45.03215789794922,15.721285820007324,77.27411651611328,-36.0,-20.850000381469727,-22.80000114440918
2.06,83.01176452636719,-5.975927352905273,-15.85919189453125,-45.96477508544922,12.25727367401123,75.27565002441406,-36.0,-20.850000381469727,-22.80000114440918
2.07,83.27991485595703,-5.171475887298584,-14.709975242614746,-44.89892578125,21.583459854125977,47.9632453918457,-36.0,-21.900001525878906,-23.55000114440918
2.08,85.46342468261719,-3.2178070545196533,-14.67166805267334,-49.16232681274414,14.522205352783203,36.771820068359375,-36.0,-21.150001525878906,-22.80000114440918
2.09,86.61264038085938,-6.052541732788086,-15.207969665527344,-49.82848358154297,8.260336875915527,31.309341430664062,-36.0,-21.150001525878906,-22.80000114440918
2.109,86.765869140625,-5.4013190269470215,-17.468095779418945,-58.62174606323242,26.379785537719727,13.856048583984375,-37.5,-20.850000381469727,-23.100000381469727
2.113,84.77389526367188,-3.294421434402466,-19.536685943603516,-56.22358322143555,29.444103240966797,9.459418296813965,-36.900001525878906,-21.450000762939453,-22.200000762939453
2.12,82.93515014648438,-3.026270866394043,-22.333112716674805,-44.09954071044922,21.716691970825195,9.192955017089844,-36.900001525878906,-21.450000762939453,-22.200000762939453
2.13,83.6629867553711,-1.3407529592514038,-23.673866271972656,-32.24195861816406,29.577335357666016,-0.6661561727523804,-37.20000076293945,-20.25,-21.75
2.14,85.46342468261719,0.6129156351089478,-22.103269577026367,-25.18070411682129,41.434913635253906,-0.5329249501228333,-37.20000076293945,-20.25,-21.75
2.15,88.79615020751953,3.1028854846954346,-19.613300323486328,-0.1332312375307083,39.43644714355469,-15.45482349395752,-36.900001525878906,-20.25,-23.25
2.168,91.36273956298828,5.324704647064209,-15.935806274414062,36.5053596496582,20.91730499267578,-21.983154296875,-35.70000076293945,-21.75,-21.75
2.172,91.78411865234375,4.865017890930176,-14.211980819702148,60.48698043823242,19.31852912902832,-32.5084228515625,-36.75,-19.650001525878906,-21.600000381469727
2.18,90.40505981445312,0.5746083855628967,-15.24627685546875,73.67687225341797,22.249616622924805,-42.90045928955078,-36.75,-19.650001525878906,-21.600000381469727
2.19,90.59659576416016,-2.5282769203186035,-13.828908920288086,96.19295501708984,7.06125545501709,-40.76875686645508,-36.75,-19.650001525878906,-21.600000381469727
2.2,87.64693450927734,-6.244078159332275,-13.48414421081543,103.92036437988281,10.392036437988281,-46.497703552246094,-36.150001525878906,-21.0,-21.450000762939453
2.21,86.57433319091797,-8.274360656738281,-12.986149787902832,100.72281646728516,13.323123931884766,-63.684532165527344,-37.20000076293945,-21.450000762939453,-22.5
2.23,84.9271240234375,-8.734047889709473,-11.30063247680664,105.11944580078125,12.790199279785156,-69.4134750366211,-37.5,-21.600000381469727,-23.100000381469727
2.233,84.9654312133789,-9.500192642211914,-8.312667846679688,129.76722717285156,0.1332312375307083,-71.81163787841797,-37.5,-21.600000381469727,-23.100000381469727
2.24,84.3525161743164,-6.512228488922119,-4.252102375030518,134.83001708984375,-10.658498764038086,-79.80551147460938,-38.55000305175781,-19.650001525878906,-22.350000381469727
2.25,85.27188873291016,-5.861005783081055,-2.9879636764526367,152.41653442382812,-3.0643184185028076,-86.3338394165039,-37.20000076293945,-21.450000762939453,-21.150001525878906
2.26,83.54806518554688,-4.290409564971924,-2.451662540435791,183.5926513671875,-15.188361167907715,-92.46247863769531,-35.400001525878906,-20.25,-21.450000762939453
2.27,82.39884948730469,-5.439626216888428,-0.5363011956214905,212.37059020996094,-25.04747200012207,-105.65237426757812,-35.400001525878906,-20.25,-21.450000762939453
2.288,80.2536392211914,-6.167463779449463,1.1492167711257935,232.62173461914062,-24.381317138671875,-116.9770278930664,-35.400001525878906,-20.25,-21.450000762939453
2.292,79.75564575195312,-7.010222434997559,2.4899697303771973,259.8009033203125,-37.4379768371582,-116.84379577636719,-37.05000305175781,-20.850000381469727,-20.850000381469727
2.3,79.29595947265625,-11.41555404663086,6.090848922729492,270.0597229003906,-43.96630859375,-120.4410400390625,-36.900001525878906,-20.55000114440918,-22.200000762939453
2.31,78.72135162353516,-13.254301071166992,7.967903137207031,271.9249572753906,-52.3598747253418,-126.83613586425781,-36.45000076293945,-20.55000114440918,-21.450000762939453
2.32,78.989501953125,-15.169661521911621,9.84495735168457,267.7947998046875,-49.29555892944336,-142.69065856933594,-36.45000076293945,-20.55000114440918,-21.450000762939453
2.33,81.36454772949219,-16.548721313476562,10.649409294128418,258.4685974121094,-59.95405578613281,-138.96017456054688,-36.45000076293945,-20.55000114440918,-21.450000762939453
2.349,80.52178955078125,-18.387468338012695,10.381258964538574,249.6753387451172,-68.4808578491211,-145.75497436523438,-36.45000076293945,-19.80000114440918,-21.150001525878906
2.353,80.36856079101562,-18.272546768188477,9.84495735168457,233.1546630859375,-68.4808578491211,-156.14700317382812,-36.900001525878906,-19.80000114440918,-22.5
2.36,82.13069152832031,-18.693927764892578,8.35097599029541,226.09341430664062,-73.54364013671875,-163.74119567871094,-36.150001525878906,-19.80000114440918,-22.200000762939453
2.37,82.5137710571289,-16.242263793945312,7.967903137207031,227.02603149414062,-86.46707153320312,-158.67840576171875,-36.150001525878906,-19.80000114440918,-22.200000762939453
2.38,84.2759017944336,-16.89348793029785,6.818686485290527,215.03521728515625,-91.66309356689453,-170.26951599121094,-34.80000305175781,-21.150001525878906,-23.55000114440918
2.39,86.53602600097656,-17.50640296936035,7.010222434997559,203.57733154296875,-81.27105712890625,-185.0581817626953,-34.650001525878906,-19.80000114440918,-24.750001907348633
2.41,86.91909790039062,-17.238252639770508,5.937620162963867,198.38131713867188,-93.66156005859375,-180.9280242919922,-35.400001525878906,-19.80000114440918,-22.5
2.413,87.57032012939453,-16.66364288330078,6.01423454284668,177.06431579589844,-92.72894287109375,-208.77334594726562,-36.0,-20.400001525878906,-24.150001525878906
2.42,85.96141815185547,-15.207969665527344,4.596867084503174,172.00152587890625,-92.86217498779297,-209.57273864746094,-36.0,-20.400001525878906,-24.150001525878906
2.43,87.14894104003906,-14.020444869995117,3.141192674636841,159.47779846191406,-97.39203643798828,-213.8361358642578,-33.900001525878906,-21.0,-23.25
2.44,85.00373840332031,-13.79060173034668,2.183511972427368,156.679931640625,-101.38896942138672,-201.4456329345703,-33.900001525878906,-17.100000381469727,-24.0
2.45,84.08436584472656,-11.760318756103516,0.2298433631658554,151.2174530029297,-96.72587585449219,-212.77027893066406,-34.95000076293945,-20.25,-25.500001907348633
2.469,80.36856079101562,-10.649409294128418,-1.647210717201233,138.42726135253906,-90.19754791259766,-206.24195861816406,-36.30000305175781,-19.200000762939453,-26.400001525878906
2.473,78.79796600341797,-9.921571731567383,-3.064578056335449,143.88973999023438,-90.4640121459961,-196.1163787841797,-36.30000305175781,-19.200000762939453,-26.400001525878906
2.48,75.61846923828125,-9.002198219299316,-1.2641384601593018,138.8269500732422,-93.92802429199219,-199.98008728027344,-33.75,-18.450000762939453,-26.100000381469727
2.49,75.3503189086914,-7.738059997558594,0.038307227194309235,124.03828430175781,-82.20367431640625,-197.44869995117188,-33.30000305175781,-17.700000762939453,-24.900001525878906
2.5,73.74140930175781,-5.937620162963867,-0.3064578175544739,119.90811157226562,-93.52832794189453,-189.72128295898438,-34.650001525878906,-17.55000114440918,-27.30000114440918
2.51,71.67282104492188,-4.443638324737549,0.38307225704193115,103.65390014648438,-93.12863159179688,-175.59877014160156,-33.150001525878906,-16.80000114440918,-27.30000114440918
2.529,71.8643569946289,-3.2561142444610596,-0.3064578175544739,92.19601440429688,-90.59724426269531,-160.8101043701172,-33.150001525878906,-16.80000114440918,-27.30000114440918
2.533,69.9489974975586,-2.75812029838562,-0.9576807022094727,79.13935852050781,-78.87289428710938,-153.48239135742188,-32.70000076293945,-16.80000114440918,-26.250001907348633
2.54,72.28573608398438,-1.800439715385437,-0.8044517636299133,69.28024291992188,-84.33537292480469,-157.0796356201172,-33.0,-15.750000953674316,-27.900001525878906
2.55,71.55789947509766,0.3447650372982025,-0.8810662031173706,60.62021255493164,-81.00459289550781,-154.14854431152344,-32.400001525878906,-16.80000114440918,-27.750001907348633
2.56,70.94498443603516,-0.49799394607543945,-1.647210717201233,55.82388687133789,-71.94486999511719,-153.48239135742188,-32.70000076293945,-16.350000381469727,-30.600000381469727
2.57,72.05589294433594,-0.3064578175544739,-0.7661445140838623,42.23430252075195,-68.74732208251953,-154.0153045654297,-32.70000076293945,-16.350000381469727,-30.600000381469727
2.589,69.29777526855469,-0.1149216815829277,-0.26815059781074524,40.635528564453125,-76.60796356201172,-143.3568115234375,-32.400001525878906,-15.90000057220459,-28.05000114440918
2.593,67.84210205078125,3.2178070545196533,-1.3407529592514038,16.25421142578125,-67.01531219482422,-143.09034729003906,-31.950000762939453,-14.40000057220459,-29.55000114440918
2.6,66.84611511230469,4.63517427444458,-5.899312973022461,5.462480545043945,-61.15313720703125,-133.36447143554688,-32.70000076293945,-13.65000057220459,-29.250001907348633
2.61,66.30980682373047,5.477933406829834,-6.473921298980713,1.0658499002456665,-48.76263427734375,-126.43644714355469,-32.70000076293945,-14.40000057220459,-29.250001907348633
2.62,65.9267349243164,6.435614109039307,-7.814674377441406,5.595712184906006,-47.696781158447266,-120.30780792236328,-32.70000076293945,-14.40000057220459,-29.250001907348633
2.63,67.76548767089844,8.312667846679688,-7.4316020011901855,8.793261528015137,-49.29555892944336,-126.03675079345703,-30.30000114440918,-14.250000953674316,-30.900001525878906
2.649,67.38241577148438,8.848969459533691,-5.631162166595459,2.6646246910095215,-45.03215789794922,-117.24349212646484,-30.900001525878906,-12.90000057220459,-29.250001907348633
2.653,66.9610366821289,9.461885452270508,-5.822698593139648,5.196018218994141,-53.558956146240234,-112.58039855957031,-31.200000762939453,-12.450000762939453,-29.55000114440918
2.66,65.04566955566406,12.947842597961426,-7.010222434997559,5.728943347930908,-52.75957107543945,-103.52066802978516,-30.450000762939453,-12.90000057220459,-31.05000114440918
2.67,64.0496826171875,13.637372970581055,-9.117119789123535,1.7320060729980469,-43.83307647705078,-90.06431579589844,-30.450000762939453,-12.90000057220459,-31.05000114440918
2.68,64.77751922607422,14.403517723083496,-10.342951774597168,0.1332312375307083,-33.97396469116211,-101.12251281738281,-30.450000762939453,-12.90000057220459,-30.600000381469727
2.69,64.54767608642578,12.449849128723145,-12.411541938781738,5.329249382019043,-42.500762939453125,-91.26339721679688,-28.950000762939453,-12.15000057220459,-31.350000381469727
2.71,66.27149963378906,12.449849128723145,-12.947842597961426,-5.995405673980713,-27.445634841918945,-93.39509582519531,-30.900001525878906,-10.5,-32.10000228881836
2.713,65.04566955566406,11.224017143249512,-13.943830490112305,-14.12251091003418,-31.975496292114258,-75.94180297851562,-29.55000114440918,-12.300000190734863,-30.900001525878906
2.72,65.58197021484375,15.169661521911621,-14.863204002380371,-23.04900360107422,-33.30780792236328,-72.0781021118164,-29.55000114440918,-12.300000190734863,-30.900001525878906
2.73,64.89244079589844,16.05072784423828,-14.67166805267334,-29.31087303161621,-33.30780792236328,-64.88361358642578,-30.900001525878906,-10.5,-30.30000114440918
2.74,63.85814666748047,18.962078094482422,-15.974113464355469,-35.17304611206055,-23.04900360107422,-70.87902069091797,-30.000001907348633,-10.350000381469727,-31.950000762939453
2.75,62.977081298828125,22.2948055267334,-16.47210693359375,-31.709033966064453,-21.050535202026367,-55.02450180053711,-31.05000114440918,-11.100000381469727,-33.0
2.769,61.751251220703125,24.05693817138672,-16.89348793029785,-19.85145378112793,-22.915773391723633,-47.297088623046875,-30.30000114440918,-9.600000381469727,-31.500001907348633
2.773,62.70893096923828,26.508602142333984,-15.935806274414062,-3.597243309020996,-27.31240463256836,-29.044410705566406,-30.30000114440918,-9.600000381469727,-31.500001907348633
2.78,64.39444732666016,25.052927017211914,-15.820884704589844,-12.124042510986328,-17.32006072998047,-33.4410400390625,-31.500001907348633,-9.600000381469727,-32.25
2.79,66.65457153320312,22.946029663085938,-16.548721313476562,4.263399600982666,-24.51454734802246,-31.176109313964844,-30.30000114440918,-11.100000381469727,-31.500001907348633
2.8,68.37840270996094,21.14558982849121,-15.322891235351562,-5.728943347930908,-24.381317138671875,-28.24502182006836,-28.650001525878906,-7.800000190734863,-32.55000305175781
2.81,70.98329162597656,18.77054214477539,-17.31486701965332,-24.248085021972656,-21.050535202026367,-37.97090148925781,-29.55000114440918,-8.40000057220459,-31.200000762939453
2.83,70.83006286621094,20.724210739135742,-16.70195198059082,-27.17917251586914,-17.32006072998047,-35.57273864746094,-29.55000114440918,-8.40000057220459,-31.200000762939453
2.833,68.7231674194336,22.48634147644043,-18.195932388305664,-20.784072875976562,-22.915773391723633,-27.17917251586914,-29.250001907348633,-9.15000057220459,-32.25
2.84,68.1485595703125,24.746469497680664,-18.11931800842285,-15.987748146057129,-17.852985382080078,-20.117916107177734,-29.250001907348633,-9.15000057220459,-32.25
2.85,67.15257263183594,25.167848587036133,-17.42978858947754,-15.45482349395752,-12.25727367401123,-30.37672233581543,-30.000001907348633,-9.600000381469727,-33.0
2.86,66.84611511230469,26.01060676574707,-17.046716690063477,-4.130168437957764,-25.313934326171875,-21.050535202026367,-27.450000762939453,-9.0,-32.55000305175781
2.87,65.8501205444336,26.393678665161133,-17.085023880004883,-3.597243309020996,-24.64777946472168,-16.920366287231445,-27.450000762939453,-9.0,-32.55000305175781
2.889,64.39444732666016,25.51261329650879,-16.548721313476562,-12.124042510986328,-20.650842666625977,-21.716691970825195,-29.55000114440918,-8.850000381469727,-33.45000076293945
2.893,62.09601593017578,23.13756561279297,-18.195932388305664,-6.9280242919921875,-26.64624786376953,-5.995405673980713,-27.30000114440918,-6.900000095367432,-33.45000076293945
2.9,56.77130889892578,20.915746688842773,-17.50640296936035,-9.592649459838867,-32.64165496826172,0.7993874549865723,-27.30000114440918,-6.900000095367432,-33.45000076293945
2.91,55.96685791015625,19.574993133544922,-16.47210693359375,-20.38437843322754,-27.71209716796875,4.796324729919434,-28.650001525878906,-9.75,-32.85000228881836
2.92,54.35795593261719,19.843143463134766,-14.748282432556152,-34.10719680786133,-21.583459854125977,-6.261868000030518,-28.650001525878906,-9.75,-32.85000228881836
2.93,54.702720642089844,22.60126495361328,-14.518439292907715,-29.31087303161621,-38.23736572265625,9.326186180114746,-28.950000762939453,-7.800000190734863,-34.650001525878906
2.949,55.46886444091797,24.516624450683594,-13.675680160522461,-33.70750427246094,-32.90811538696289,1.8652373552322388,-29.250001907348633,-7.650000095367432,-33.45000076293945
2.953,56.34992980957031,27.15982437133789,-15.169661521911621,-35.17304611206055,-34.64012145996094,-1.5987749099731445,-28.650001525878906,-9.75,-33.60000228881836
2.96,57.920528411865234,27.198131561279297,-16.28057098388672,-36.238895416259766,-39.70290756225586,-3.197549819946289,-28.650001525878906,-9.75,-33.60000228881836
2.97,58.15037155151367,28.07919692993164,-15.552734375,-24.51454734802246,-46.897396087646484,9.992342948913574,-28.650001525878906,-9.75,-33.60000228881836
2.98,57.76729965209961,26.738445281982422,-15.744270324707031,-34.24042892456055,-39.16998291015625,-3.3307809829711914,-27.900001525878906,-8.25,-34.35000228881836
2.99,57.42253494262695,26.43198585510254,-15.782577514648438,-34.50688934326172,-40.9019889831543,-11.990811347961426,-27.450000762939453,-7.500000476837158,-35.10000228881836
3.01,61.17664337158203,25.28277015686035,-16.66364288330078,-38.50382614135742,-47.297088623046875,5.462480545043945,-29.700000762939453,-9.450000762939453,-33.900001525878906
3.013,62.59400939941406,26.355371475219727,-18.157625198364258,-57.822357177734375,-43.16691970825195,5.462480545043945,-28.500001907348633,-7.200000286102295,-34.5
3.02,71.1748275756836,26.048913955688477,-20.11129379272461,-80.07197570800781,-34.373661041259766,-17.719755172729492,-28.500001907348633,-7.200000286102295,-34.5
3.03,78.18505096435547,27.77273941040039,-22.218191146850586,-100.45635223388672,-25.18070411682129,-20.650842666625977,-28.950000762939453,-7.050000190734863,-32.85000228881836
3.04,85.34850311279297,31.067161560058594,-24.746469497680664,-118.8422622680664,-27.31240463256836,-6.261868000030518,-27.30000114440918,-5.700000286102295,-34.5
3.05,88.33646392822266,36.08540725708008,-29.879636764526367,-126.5696792602539,-4.663093090057373,0.2664624750614166,-27.450000762939453,-7.050000190734863,-33.30000305175781
3.07,88.41307830810547,41.41011428833008,-37.27293395996094,-135.89585876464844,24.51454734802246,5.8621745109558105,-27.30000114440918,-7.650000095367432,-34.95000076293945
3.073,85.73157501220703,45.700523376464844,-43.172245025634766,-113.11331939697266,72.61102294921875,42.36753463745117,-28.650001525878906,-7.050000190734863,-35.10000228881836
3.08,80.94316864013672,56.2733154296875,-43.09563064575195,-93.39509582519531,82.07044219970703,75.8085708618164,-28.650001525878906,-7.050000190734863,-35.10000228881836
3.09,79.5641098022461,63.20692443847656,-35.702335357666016,-47.430320739746094,91.79632568359375,102.32159423828125,-28.80000114440918,-5.400000095367432,-35.55000305175781
3.1,81.59439086914062,60.7552604675293,-27.46628189086914,35.57273864746094,76.20826721191406,88.33231353759766,-29.400001525878906,-6.750000476837158,-32.85000228881836
3.11,84.9271240234375,44.93437576293945,-18.502389907836914,101.78866577148438,36.10566711425781,104.18682861328125,-29.400001525878906,-6.750000476837158,-32.85000228881836
3.129,89.37075805664062,29.381643295288086,-13.79060173034668,113.91270446777344,6.661561965942383,90.86370086669922,-29.400001525878906,-6.750000476837158,-32.85000228881836
3.133,94.5039291381836,15.514427185058594,-16.012420654296875,70.07962799072266,-5.062787055969238,101.65543365478516,-29.250001907348633,-6.900000095367432,-33.75
3.14,105.3448715209961,2.9879636764526367,-25.014619827270508,28.111791610717773,5.595712184906006,92.99540710449219,-28.650001525878906,-8.25,-32.55000305175781
3.15,105.49810028076172,-0.5363011956214905,-30.032865524291992,-25.846860885620117,7.194486618041992,103.92036437988281,-28.950000762939453,-7.500000476837158,-32.55000305175781
3.16,97.68342590332031,-2.0685901641845703,-39.91613006591797,-73.54364013671875,37.83767318725586,130.96630859375,-28.950000762939453,-7.500000476837158,-32.55000305175781
3.17,83.58637237548828,0.9576807022094727,-48.61186981201172,-92.46247863769531,63.418067932128906,136.9617156982422,-29.250001907348633,-7.650000095367432,-33.0
3.189,74.85232543945312,5.477933406829834,-44.35976791381836,-84.60183715820312,75.94180297851562,149.3522186279297,-29.55000114440918,-7.650000095367432,-33.75
3.193,75.15878295898438,11.41555404663086,-30.99054718017578,-90.99693298339844,82.20367431640625,161.34303283691406,-31.500001907348633,-8.40000057220459,-33.75
3.2,79.94718170166016,18.579004287719727,-17.62132453918457,-94.19448852539062,77.14088439941406,164.14088439941406,-30.450000762939453,-9.450000762939453,-32.55000305175781
3.21,83.0500717163086,16.318878173828125,-15.820884704589844,-89.66461944580078,51.960182189941406,171.60183715820312,-30.450000762939453,-9.450000762939453,-32.55000305175781
3.22,87.30216979980469,10.879252433776855,-15.935806274414062,-102.72128295898438,41.035221099853516,158.4119415283203,-31.950000762939453,-9.75,-33.30000305175781
3.23,90.94136047363281,4.6734819412231445,-17.468095779418945,-118.97549438476562,45.16539001464844,140.42572021484375,-32.55000305175781,-9.600000381469727,-30.900001525878906
3.249,93.58455657958984,2.9496564865112305,-22.409727096557617,-131.7657012939453,38.10413360595703,138.16079711914062,-32.25,-10.800000190734863,-31.500001907348633
3.253,92.78010559082031,5.822698593139648,-25.857378005981445,-139.7595672607422,55.29096221923828,144.55589294433594,-32.400001525878906,-10.200000762939453,-31.80000114440918
3.26,88.25984954833984,9.461885452270508,-30.186094284057617,-137.09494018554688,53.95865249633789,150.41806030273438,-32.400001525878906,-10.200000762939453,-31.80000114440918
3.27,85.46342468261719,11.338939666748047,-31.41192626953125,-137.09494018554688,70.47932434082031,165.4731903076172,-32.55000305175781,-11.100000381469727,-30.900001525878906
3.28,79.98548889160156,12.22000503540039,-30.301015853881836,-137.3614044189453,84.33537292480469,173.33384704589844,-33.900001525878906,-9.450000762939453,-31.350000381469727
3.29,76.23138427734375,12.411541938781738,-28.883649826049805,-125.63705444335938,87.26646423339844,174.9326171875,-32.70000076293945,-10.5,-31.350000381469727
3.309,72.51557922363281,11.262324333190918,-20.992361068725586,-123.2388916015625,88.19908142089844,179.32923889160156,-33.150001525878906,-10.5,-30.30000114440918
3.312,71.213134765625,11.03248119354248,-16.70195198059082,-129.90045166015625,79.2725830078125,197.0489959716797,-33.150001525878906,-10.5,-30.30000114440918
3.32,68.22517395019531,11.530475616455078,-15.131354331970215,-122.70597076416016,61.15313720703125,213.30320739746094,-34.05000305175781,-10.350000381469727,-28.650001525878906
3.33,65.3138198852539,11.798625946044922,-15.667655944824219,-114.97856140136719,64.21745300292969,215.83460998535156,-35.70000076293945,-12.15000057220459,-29.250001907348633
3.34,66.38642120361328,12.258312225341797,-15.24627685546875,-113.11331939697266,68.88054656982422,222.22970581054688,-34.95000076293945,-12.90000057220459,-28.80000114440918
3.35,67.68887329101562,11.72201156616211,-15.093047142028809,-88.99846649169922,63.684532165527344,223.9617156982422,-32.400001525878906,-14.40000057220459,-29.55000114440918
3.369,69.9489974975586,10.304644584655762,-15.093047142028809,-68.21439361572266,60.62021255493164,222.4961700439453,-32.400001525878906,-14.40000057220459,-29.55000114440918
3.373,71.02159881591797,7.929595947265625,-13.369222640991211,-45.298622131347656,55.95711898803711,218.63246154785156,-34.95000076293945,-14.100000381469727,-27.30000114440918
3.38,73.7031021118164,5.1331682205200195,-11.41555404663086,-46.09800720214844,60.88667678833008,208.24041748046875,-33.900001525878906,-14.100000381469727,-27.750001907348633
3.39,74.2777099609375,4.137180328369141,-10.5344877243042,-29.7105655670166,49.82848358154297,211.9709014892578,-34.650001525878906,-15.15000057220459,-27.750001907348633
3.4,70.5619125366211,-0.3447650372982025,-12.29662036895752,-28.111791610717773,49.42878723144531,194.2511444091797,-35.400001525878906,-15.90000057220459,-29.250001907348633
3.41,64.77751922607422,-2.719813108444214,-13.254301071166992,-41.83460998535156,52.493106842041016,186.65696716308594,-35.400001525878906,-15.90000057220459,-29.250001907348633
3.429,60.372188568115234,-6.3973069190979,-12.641385078430176,-55.02450180053711,49.82848358154297,192.11944580078125,-36.150001525878906,-17.850000381469727,-27.30000114440918
3.432,54.702720642089844,-8.542511940002441,-14.09705924987793,-69.94640350341797,53.82542037963867,197.31546020507812,-36.0,-17.700000762939453,-27.150001525878906
3.44,52.55751419067383,-7.967903137207031,-14.480132102966309,-90.33078002929688,66.48238372802734,190.25421142578125,-36.30000305175781,-17.400001525878906,-28.650001525878906
3.45,52.25105667114258,-8.504204750061035,-14.211980819702148,-103.52066802978516,63.28483963012695,191.58651733398438,-34.95000076293945,-19.05000114440918,-26.250001907348633
3.46,55.009178161621094,-7.1251444816589355,-12.334927558898926,-95.52679443359375,49.82848358154297,195.1837615966797,-34.95000076293945,-19.05000114440918,-26.250001907348633
3.47,57.88222122192383,-5.363011837005615,-9.653421401977539,-96.45941925048828,34.64012145996094,196.51608276367188,-36.0,-20.100000381469727,-27.150001525878906
3.489,60.21895980834961,-3.2178070545196533,-9.615114212036133,-96.99234008789062,34.773353576660156,189.0551300048828,-34.80000305175781,-20.850000381469727,-27.450000762939453
3.493,60.33388137817383,-1.072602391242981,-8.312667846679688,-67.14854431152344,13.456355094909668,192.65237426757812,-34.95000076293945,-19.80000114440918,-27.30000114440918
3.5,59.18466567993164,-1.8387469053268433,-8.734047889709473,-57.55589294433594,1.9984685182571411,183.99234008789062,-34.80000305175781,-21.600000381469727,-26.100000381469727
3.51,57.57576370239258,-0.9193734526634216,-9.385271072387695,-66.34915924072266,-0.5329249501228333,160.6768798828125,-34.80000305175781,-21.600000381469727,-26.100000381469727
3.52,54.20472717285156,-1.800439715385437,-10.879252433776855,-60.88667678833008,-9.992342948913574,162.1424102783203,-36.45000076293945,-21.450000762939453,-26.55000114440918
3.53,54.166419982910156,-1.455674648284912,-13.177685737609863,-45.56508255004883,-17.32006072998047,169.20367431640625,-34.95000076293945,-21.75,-27.750001907348633
3.549,54.66441345214844,-3.869029998779297,-15.514427185058594,-34.10719680786133,-16.25421142578125,155.88055419921875,-34.95000076293945,-22.950000762939453,-28.05000114440918
3.553,57.307613372802734,-7.163451671600342,-17.697938919067383,-25.313934326171875,-14.522205352783203,145.88819885253906,-35.55000305175781,-23.55000114440918,-27.450000762939453
3.56,61.90447998046875,-11.760318756103516,-19.000385284423828,-32.5084228515625,-2.9310872554779053,119.64165496826172,-35.55000305175781,-23.55000114440918,-27.450000762939453
3.57,66.5013427734375,-13.292608261108398,-17.92778205871582,-29.977027893066406,-11.724349021911621,108.18376159667969,-34.95000076293945,-23.700000762939453,-27.000001907348633
3.58,73.43495178222656,-16.012420654296875,-16.089035034179688,-56.49004364013672,-4.396630764007568,85.66768646240234,-35.400001525878906,-26.100000381469727,-26.250001907348633
3.59,76.19307708740234,-13.943830490112305,-16.70195198059082,-75.00918579101562,2.6646246910095215,88.33231353759766,-34.5,-24.30000114440918,-26.850000381469727
3.61,76.4995346069336,-9.84495735168457,-16.740259170532227,-85.00152587890625,-5.329249382019043,88.06584930419922,-33.900001525878906,-24.450000762939453,-27.750001907348633
3.613,76.88260650634766,0.15322890877723694,-17.42978858947754,-71.01225280761719,13.189892768859863,112.4471664428711,-33.900001525878906,-24.450000762939453,-27.750001907348633
3.62,75.54185485839844,12.105083465576172,-19.345149993896484,-45.03215789794922,17.719755172729492,114.97856140136719,-34.05000305175781,-25.05000114440918,-27.450000762939453
3.63,74.62248229980469,17.50640296936035,-18.195932388305664,4.263399600982666,20.784072875976562,111.781005859375,-34.95000076293945,-26.850000381469727,-27.750001907348633
3.64,72.74542236328125,12.986149787902832,-16.318878173828125,55.55742645263672,4.663093090057373,106.58499145507812,-35.400001525878906,-24.450000762939453,-27.30000114440918
3.65,75.77169799804688,2.4899697303771973,-11.798625946044922,81.13782501220703,5.595712184906006,77.54058074951172,-33.900001525878906,-26.400001525878906,-26.55000114440918
3.67,80.44517517089844,-10.955866813659668,-7.891288757324219,95.39356231689453,-1.1990811824798584,51.560489654541016,-33.900001525878906,-26.400001525878906,-26.55000114440918
3.673,83.50975799560547,-25.244462966918945,-7.316680431365967,93.2618637084961,-12.390504837036133,24.248085021972656,-33.30000305175781,-26.250001907348633,-27.900001525878906
3.68,87.14894104003906,-35.85556411743164,-6.129156112670898,65.15007781982422,-13.456355094909668,7.460949420928955,-35.400001525878906,-26.400001525878906,-27.750001907348633
3.69,87.80016326904297,-40.64396667480469,-4.8267107009887695,26.779478073120117,-7.194486618041992,-19.718223571777344,-34.95000076293945,-27.600000381469727,-28.500001907348633
3.7,90.74982452392578,-40.49073791503906,-5.20978307723999,-12.523736000061035,-1.0658499002456665,-42.23430252075195,-33.900001525878906,-27.600000381469727,-26.55000114440918
3.71,92.16719055175781,-30.60747528076172,-5.592854976654053,-1.5987749099731445,-1.8652373552322388,-50.36140823364258,-33.900001525878906,-27.600000381469727,-26.55000114440918
3.729,90.48167419433594,-20.149600982666016,-12.258312225341797,19.584991455078125,11.324655532836914,-50.62786865234375,-35.25,-27.450000762939453,-27.450000762939453
3.733,89.1792221069336,-16.778566360473633,-18.11931800842285,63.418067932128906,19.185298919677734,-56.889739990234375,-33.75,-28.200000762939453,-25.650001525878906
3.74,86.49771881103516,-19.421764373779297,-22.48634147644043,77.94027709960938,18.519142150878906,-67.01531219482422,-33.75,-28.200000762939453,-27.900001525878906
3.75,86.7275619506836,-23.175872802734375,-22.792800903320312,95.79325866699219,24.914241790771484,-71.81163787841797,-35.55000305175781,-28.500001907348633,-27.900001525878906
3.76,84.19928741455078,-26.891674041748047,-20.609289169311523,90.19754791259766,24.781009674072266,-78.47319793701172,-35.55000305175781,-28.500001907348633,-27.900001525878906
3.77,82.36053466796875,-29.15180015563965,-16.012420654296875,82.86982727050781,21.583459854125977,-93.52832794189453,-34.650001525878906,-27.150001525878906,-25.80000114440918
3.789,82.32222747802734,-30.14778709411621,-10.074800491333008,75.5421142578125,9.192955017089844,-89.7978515625,-35.25,-27.000001907348633,-26.400001525878906
3.792,83.89282989501953,-27.88766098022461,-6.282385349273682,55.02450180053711,-2.398162364959717,-97.65850067138672,-35.25,-27.750001907348633,-26.100000381469727
3.8,85.00373840332031,-24.325088500976562,-4.405331134796143,37.70444107055664,-4.396630764007568,-115.2450180053711,-35.25,-27.750001907348633,-26.100000381469727
3.81,89.63890838623047,-18.808849334716797,-5.286397457122803,44.63246536254883,-26.246553421020508,-103.25421142578125,-35.25,-27.750001907348633,-26.100000381469727
3.82,92.85671997070312,-14.556746482849121,-5.861005783081055,54.35834503173828,-21.716691970825195,-115.37825012207031,-34.5,-28.200000762939453,-26.400001525878906
3.83,96.3426742553711,-9.500192642211914,-4.022258758544922,68.74732208251953,-25.447166442871094,-130.03369140625,-37.20000076293945,-27.600000381469727,-25.500001907348633
3.849,96.64913177490234,-4.367023944854736,-4.520252704620361,97.92495727539062,-25.980091094970703,-132.29861450195312,-36.900001525878906,-26.400001525878906,-25.80000114440918
3.852,97.14712524414062,-2.1068975925445557,-8.96389102935791,142.5574188232422,-39.569679260253906,-136.29556274414062,-36.150001525878906,-26.400001525878906,-26.250001907348633
3.86,96.49590301513672,-3.8307228088378906,-8.197746276855469,155.08116149902344,-27.445634841918945,-138.6937255859375,-36.150001525878906,-26.400001525878906,-26.250001907348633
3.87,96.07452392578125,-6.856993675231934,-9.232041358947754,178.39662170410156,-29.577335357666016,-149.48544311523438,-35.25,-25.80000114440918,-25.650001525878906
3.88,98.41127014160156,-13.599065780639648,-8.389283180236816,201.4456329345703,-34.773353576660156,-153.48239135742188,-34.80000305175781,-25.500001907348633,-25.650001525878906
3.89,101.36092376708984,-17.42978858947754,-3.6774938106536865,215.96783447265625,-34.773353576660156,-165.60643005371094,-36.150001525878906,-26.850000381469727,-25.80000114440918
3.909,103.27628326416016,-21.6818904876709,1.5705963373184204,185.85757446289062,-53.026031494140625,-194.117919921875,-36.45000076293945,-26.850000381469727,-25.200000762939453
3.912,105.65132904052734,-26.700138092041016,2.5282769203186035,175.46554565429688,-56.49004364013672,-208.3736572265625,-36.45000076293945,-26.400001525878906,-25.80000114440918
3.92,104.54042053222656,-25.244462966918945,2.7964274883270264,169.33689880371094,-68.4808578491211,-204.7764129638672,-36.45000076293945,-26.400001525878906,-25.80000114440918
3.93,102.20368194580078,-25.167848587036133,2.4133553504943848,146.68759155273438,-82.47013854980469,-212.1041259765625,-36.75,-25.80000114440918,-25.650001525878906
3.94,98.25804138183594,-22.90772247314453,-2.3367409706115723,118.70903015136719,-73.54364013671875,-227.5589599609375,-35.400001525878906,-24.150001525878906,-25.500001907348633
3.951,93.23979187011719,-21.835119247436523,-4.941632270812988,96.32618713378906,-70.74578857421875,-231.1562042236328,-36.30000305175781,-25.05000114440918,-24.900001525878906
3.969,89.10260772705078,-19.268535614013672,-7.661445617675781,83.93567657470703,-74.74272155761719,-223.82847595214844,-36.30000305175781,-25.05000114440918,-24.900001525878906
3.972,81.70931243896484,-13.445837020874023,-6.89530086517334,63.018375396728516,-71.54517364501953,-210.63858032226562,-35.70000076293945,-23.700000762939453,-27.750001907348633
3.98,79.5641098022461,-10.72602367401123,-8.619126319885254,50.62786865234375,-61.81929397583008,-202.9111785888672,-35.70000076293945,-23.700000762939453,-27.750001907348633
3.99,76.19307708740234,-5.70777702331543,-7.814674377441406,51.29402542114258,-71.67840576171875,-180.3950958251953,-36.150001525878906,-22.5,-26.250001907348633
4.0,72.01758575439453,-1.2258312702178955,-7.738059997558594,35.972434997558594,-64.084228515625,-182.39356994628906,-35.70000076293945,-21.75,-26.55000114440918
4.01,67.4973373413086,3.44765043258667,-7.814674377441406,40.23583221435547,-62.8851432800293,-179.86216735839844,-35.70000076293945,-21.75,-26.55000114440918
4.029,63.81983947753906,5.439626216888428,-7.010222434997559,50.76110076904297,-59.95405578613281,-173.86676025390625,-36.45000076293945,-21.450000762939453,-27.30000114440918
4.033,60.678646087646484,4.290409564971924,-7.010222434997559,77.54058074951172,-64.61714935302734,-167.73812866210938,-36.900001525878906,-20.25,-27.000001907348633
4.04,61.21495056152344,3.3710360527038574,-3.4093432426452637,72.47779083251953,-69.01377868652344,-181.19448852539062,-35.400001525878906,-19.80000114440918,-27.750001907348633
4.05,60.1423454284668,2.6431987285614014,-3.8307228088378906,69.28024291992188,-68.4808578491211,-183.32618713378906,-35.400001525878906,-19.80000114440918,-27.750001907348633
4.06,59.87419509887695,1.5322890281677246,-2.145204782485962,84.4686050415039,-83.00305938720703,-167.0719757080078,-35.400001525878906,-19.80000114440918,-27.750001907348633
4.07,57.0777702331543,0.9193734526634216,-1.1875240802764893,79.13935852050781,-86.3338394165039,-171.86830139160156,-36.30000305175781,-18.150001525878906,-28.650001525878906
4.089,54.97087097167969,-0.9576807022094727,-1.072602391242981,63.418067932128906,-83.5359878540039,-171.20213317871094,-36.0,-17.700000762939453,-27.900001525878906
4.092,54.089805603027344,0.6512228846549988,-0.8810662031173706,55.69065856933594,-91.13016510009766,-170.66921997070312,-34.5,-18.450000762939453,-27.450000762939453
4.1,54.20472717285156,0.5746083855628967,-3.2561142444610596,51.82695007324219,-89.39816284179688,-172.93414306640625,-34.5,-18.450000762939453,-27.450000762939453
4.11,54.702720642089844,-0.038307227194309235,-0.7661445140838623,32.37519073486328,-88.19908142089844,-190.65390014648438,-35.25,-16.950000762939453,-29.400001525878906
4.12,54.74102783203125,1.1492167711257935,0.038307227194309235,15.721285820007324,-93.92802429199219,-180.79478454589844,-34.5,-16.950000762939453,-29.400001525878906
4.13,54.166419982910156,-1.3024457693099976,-3.179499864578247,4.529861927032471,-97.92495727539062,-175.19908142089844,-33.75,-13.800000190734863,-29.400001525878906
4.149,53.055511474609375,-0.26815059781074524,-2.6431987285614014,-11.058192253112793,-102.45481872558594,-187.05665588378906,-34.650001525878906,-12.90000057220459,-30.30000114440918
4.152,54.472877502441406,1.1109095811843872,-4.788403511047363,-38.90352249145508,-98.4578857421875,-198.9142303466797,-34.650001525878906,-12.90000057220459,-30.30000114440918
4.16,54.587799072265625,1.37906014919281,-6.167463779449463,-58.355281829833984,-96.72587585449219,-196.38284301757812,-33.900001525878906,-14.100000381469727,-29.850000381469727
4.17,54.81764221191406,3.6774938106536865,-6.282385349273682,-69.54670715332031,-105.5191421508789,-190.78712463378906,-33.150001525878906,-11.40000057220459,-31.05000114440918
4.18,53.974884033203125,9.806650161743164,-7.010222434997559,-93.79479217529297,-95.9264907836914,-185.19142150878906,-33.150001525878906,-10.5,-31.05000114440918
4.19,54.20472717285156,14.939818382263184,-10.764330863952637,-100.05665588378906,-85.66768646240234,-176.13169860839844,-33.75,-11.100000381469727,-31.200000762939453
4.209,54.81764221191406,19.306842803955078,-10.381258964538574,-104.32006072998047,-73.27718353271484,-151.48391723632812,-32.55000305175781,-9.15000057220459,-31.500001907348633
4.212,60.7552604675293,28.577192306518555,-12.02846908569336,-106.58499145507812,-72.0781021118164,-159.07809448242188,-32.55000305175781,-9.15000057220459,-31.500001907348633
4.22,61.10002899169922,29.075185775756836,-12.449849128723145,-88.33231353759766,-68.34762573242188,-149.08575439453125,-33.150001525878906,-7.800000190734863,-32.55000305175781
4.23,61.866172790527344,29.803022384643555,-12.60307788848877,-72.21133422851562,-64.88361358642578,-143.88973999023438,-30.750001907348633,-7.200000286102295,-33.45000076293945
4.24,63.436767578125,30.14778709411621,-13.062764167785645,-46.364471435546875,-72.34455871582031,-137.76109313964844,-31.950000762939453,-5.850000381469727,-32.10000228881836
4.25,64.20291137695312,32.063148498535156,-11.60708999633789,-42.23430252075195,-72.34455871582031,-129.76722717285156,-31.950000762939453,-5.850000381469727,-32.10000228881836
4.269,65.16059112548828,30.032865524291992,-13.254301071166992,-35.03981399536133,-64.88361358642578,-114.84532928466797,-29.700000762939453,-4.350000381469727,-32.85000228881836
4.273,72.97526550292969,31.60346221923828,-21.37543296813965,-29.444103240966797,-56.09035110473633,-108.45022583007812,-30.450000762939453,-5.100000381469727,-31.350000381469727
4.28,74.6990966796875,30.875625610351562,-24.78477668762207,-24.51454734802246,-49.16232681274414,-90.19754791259766,-30.150001525878906,-4.350000381469727,-34.35000228881836
4.29,75.65677642822266,32.63775634765625,-26.585216522216797,-25.447166442871094,-23.581928253173828,-94.9938735961914,-30.150001525878906,-4.050000190734863,-31.80000114440918
4.3,77.41890716552734,35.204341888427734,-31.10546875,-26.64624786376953,-12.124042510986328,-66.21592712402344,-30.150001525878906,-4.050000190734863,-31.80000114440918
4.31,79.18103790283203,34.55311965942383,-30.722396850585938,-12.923430442810059,-9.859111785888672,-53.29249572753906,-29.55000114440918,-4.5,-33.45000076293945
4.326,83.62467956542969,37.34954833984375,-31.450233459472656,4.263399600982666,4.263399600982666,-23.04900360107422,-28.950000762939453,-4.350000381469727,-32.85000228881836
4.33,88.83445739746094,42.63594436645508,-30.339323043823242,-0.39969372749328613,13.456355094909668,-19.052066802978516,-28.200000762939453,-4.050000190734863,-34.35000228881836
4.34,88.94937896728516,45.394065856933594,-30.301015853881836,16.78713607788086,17.186830520629883,2.9310872554779053,-29.250001907348633,-3.750000238418579,-33.75
4.35,89.94536590576172,43.55531692504883,-30.339323043823242,32.108726501464844,22.782541275024414,19.85145378112793,-29.250001907348633,-3.750000238418579,-33.75
4.36,91.78411865234375,39.60967254638672,-29.496564865112305,34.10719680786133,29.444103240966797,23.581928253173828,-28.950000762939453,-2.4000000953674316,-34.35000228881836
4.37,92.78010559082031,31.7183837890625,-29.381643295288086,28.511484146118164,31.975496292114258,26.246553421020508,-30.750001907348633,-4.200000286102295,-34.95000076293945
4.389,94.31239318847656,26.776752471923828,-30.224401473999023,25.04747200012207,26.246553421020508,45.16539001464844,-30.750001907348633,-3.750000238418579,-33.75
4.393,89.94536590576172,21.37543296813965,-34.24666213989258,-5.329249382019043,35.57273864746094,62.618682861328125,-30.750001907348633,-3.750000238418579,-33.75
4.4,90.21351623535156,20.456058502197266,-35.35757064819336,-8.660030364990234,42.90045928955078,66.08269500732422,-30.750001907348633,-3.750000238418579,-33.75
4.41,88.68122863769531,21.37543296813965,-32.63775634765625,-0.2664624750614166,39.70290756225586,84.86830139160156,-29.700000762939453,-4.800000190734863,-32.85000228881836
4.42,86.45941162109375,22.218191146850586,-31.52684783935547,7.594180583953857,47.163856506347656,91.26339721679688,-30.450000762939453,-5.850000381469727,-32.55000305175781
4.43,83.93113708496094,20.915746688842773,-30.952239990234375,17.453292846679688,59.55436325073242,99.25727081298828,-30.30000114440918,-6.450000286102295,-34.20000076293945
4.445,83.62467956542969,15.24627685546875,-28.19411849975586,23.182235717773438,58.08882141113281,112.18070220947266,-30.000001907348633,-5.700000286102295,-32.70000076293945
4.45,90.63490295410156,6.282385349273682,-21.835119247436523,11.324655532836914,54.62480926513672,106.98468017578125,-30.000001907348633,-5.700000286102295,-32.70000076293945
4.46,92.7034912109375,3.026270866394043,-21.87342643737793,-10.658498764038086,51.29402542114258,97.39203643798828,-32.25,-6.450000286102295,-32.25
4.47,97.18543243408203,-1.2641384601593018,-22.2948055267334,-56.889739990234375,57.02296829223633,100.3231201171875,-31.05000114440918,-7.650000095367432,-31.950000762939453
4.48,98.75603485107422,-1.5322890281677246,-24.05693817138672,-84.73506927490234,59.02143859863281,108.983154296875,-32.400001525878906,-6.300000190734863,-31.350000381469727
4.49,96.9555892944336,2.5665841102600098,-28.155811309814453,-120.04134368896484,69.94640350341797,121.24042510986328,-32.25,-6.450000286102295,-31.950000762939453
4.503,91.70750427246094,7.163451671600342,-31.450233459472656,-128.83460998535156,85.93415069580078,157.21286010742188,-32.25,-6.450000286102295,-31.950000762939453
4.51,85.61665344238281,13.177685737609863,-30.91393280029297,-145.2220458984375,101.78866577148438,164.94027709960938,-33.30000305175781,-8.40000057220459,-30.900001525878906
4.52,80.90486145019531,15.169661521911621,-30.454246520996094,-149.88514709472656,103.52066802978516,184.5252685546875,-32.55000305175781,-7.200000286102295,-31.500001907348633
4.53,78.18505096435547,14.36521053314209,-28.577192306518555,-155.48085021972656,108.84992218017578,195.31700134277344,-33.150001525878906,-7.500000476837158,-31.05000114440918
4.54,77.53382873535156,13.675680160522461,-23.290794372558594,-181.3277130126953,105.91883087158203,205.04287719726562,-32.400001525878906,-7.500000476837158,-29.850000381469727
4.55,79.5641098022461,12.526463508605957,-18.54069709777832,-191.9862060546875,100.05665588378906,224.62786865234375,-32.400001525878906,-7.500000476837158,-29.850000381469727
4.562,80.7899398803711,11.760318756103516,-17.353174209594727,-199.5803985595703,89.66461944580078,232.0888214111328,-33.30000305175781,-8.40000057220459,-29.700000762939453
4.57,81.4794692993164,10.955866813659668,-16.778566360473633,-200.37977600097656,84.60183715820312,221.03062438964844,-33.30000305175781,-9.600000381469727,-28.650001525878906
4.58,82.13069152832031,13.522451400756836,-17.468095779418945,-194.117919921875,77.27411651611328,218.63246154785156,-35.400001525878906,-8.25,-28.500001907348633
4.59,79.98548889160156,16.778566360473633,-19.038692474365234,-172.2679901123047,57.955589294433594,232.48851013183594,-34.80000305175781,-10.350000381469727,-26.850000381469727
4.6,78.49150848388672,17.1999454498291,-19.460071563720703,-149.61868286132812,53.29249572753906,230.75650024414062,-34.80000305175781,-10.350000381469727,-26.850000381469727
4.619,77.1507568359375,18.923770904541016,-19.153614044189453,-139.09341430664062,54.75803756713867,229.15773010253906,-33.75,-10.350000381469727,-27.450000762939453
4.623,73.81802368164062,17.42978858947754,-18.808849334716797,-111.5145492553711,40.36906433105469,244.87901306152344,-35.55000305175781,-10.050000190734863,-27.150001525878906
4.63,71.05990600585938,16.510414123535156,-18.4257755279541,-101.65543365478516,41.967838287353516,238.75038146972656,-35.25,-11.100000381469727,-26.400001525878906
4.64,68.64655303955078,14.709975242614746,-18.464082717895508,-92.72894287109375,52.75957107543945,240.48239135742188,-36.30000305175781,-12.300000190734863,-26.100000381469727
4.65,65.65858459472656,13.369222640991211,-17.42978858947754,-80.47166442871094,48.09647750854492,241.814697265625,-36.30000305175781,-12.300000190734863,-26.100000381469727
4.66,64.47106170654297,12.526463508605957,-14.824896812438965,-66.08269500732422,35.439510345458984,261.79937744140625,-35.25,-12.300000190734863,-26.100000381469727
4.67,60.7552604675293,11.91354751586914,-14.058752059936523,-58.4885139465332,42.500762939453125,259.6676940917969,-37.650001525878906,-13.65000057220459,-27.000001907348633
4.685,59.98911666870117,7.508216381072998,-14.863204002380371,-50.4946403503418,42.36753463745117,266.72894287109375,-36.45000076293945,-15.15000057220459,-25.500001907348633
4.69,60.946800231933594,5.899312973022461,-13.21599292755127,-45.96477508544922,46.231239318847656,266.8621826171875,-36.45000076293945,-15.15000057220459,-25.500001907348633
4.7,60.52541732788086,5.937620162963867,-13.10107135772705,-30.509952545166016,39.03675079345703,276.32159423828125,-36.45000076293945,-15.15000057220459,-25.500001907348633
4.71,61.5980224609375,3.7158010005950928,-15.361198425292969,-40.23583221435547,56.09035110473633,262.73199462890625,-35.55000305175781,-15.450000762939453,-24.900001525878906
4.72,60.52541732788086,1.3407529592514038,-16.740259170532227,-37.57120895385742,51.960182189941406,252.60643005371094,-34.95000076293945,-19.5,-24.450000762939453
4.739,61.90447998046875,0.9959878921508789,-15.437812805175781,-33.70750427246094,49.56201934814453,248.47625732421875,-36.75,-18.150001525878906,-24.150001525878906
4.743,63.85814666748047,1.7621324062347412,-14.326903343200684,-32.5084228515625,43.30015182495117,254.47166442871094,-34.650001525878906,-19.5,-24.0
4.75,64.0496826171875,1.1109095811843872,-14.786589622497559,-37.70444107055664,46.897396087646484,236.48544311523438,-34.650001525878906,-19.5,-24.0
4.76,63.283538818359375,2.6431987285614014,-14.709975242614746,-30.110260009765625,42.76722717285156,225.42726135253906,-35.55000305175781,-20.100000381469727,-24.900001525878906
4.77,60.60203170776367,2.030282974243164,-14.824896812438965,-30.90964698791504,32.77488327026367,217.69984436035156,-35.55000305175781,-20.100000381469727,-23.55000114440918
4.78,58.61005783081055,1.6855180263519287,-16.81687355041504,-25.18070411682129,39.70290756225586,217.43338012695312,-34.650001525878906,-21.75,-25.500001907348633
4.79,59.79758071899414,2.4133553504943848,-14.939818382263184,-14.255742073059082,34.50688934326172,205.7090301513672,-37.80000305175781,-23.100000381469727,-24.150001525878906
4.803,58.18867874145508,3.5625722408294678,-12.679692268371582,-0.9326186776161194,38.63705825805664,202.11178588867188,-36.30000305175781,-21.900001525878906,-24.900001525878906
4.81,55.392250061035156,4.290409564971924,-11.760318756103516,13.58958625793457,23.04900360107422,200.646240234375,-36.30000305175781,-21.900001525878906,-24.900001525878906
4.82,54.779335021972656,5.861005783081055,-10.41956615447998,13.722817420959473,21.583459854125977,183.5926513671875,-36.30000305175781,-24.750001907348633,-24.600000381469727
4.83,53.055511474609375,6.205770969390869,-8.734047889709473,35.306278228759766,22.51607894897461,168.40428161621094,-37.05000305175781,-25.500001907348633,-23.850000381469727
4.84,52.32767105102539,4.290409564971924,-9.998186111450195,54.89126968383789,12.25727367401123,176.7978515625,-34.80000305175781,-26.55000114440918,-23.55000114440918
4.859,53.09381866455078,2.4899697303771973,-6.89530086517334,64.084228515625,10.525267601013184,161.87594604492188,-34.80000305175781,-26.55000114440918,-23.55000114440918
4.863,53.40027618408203,-1.9919757843017578,-5.5545477867126465,94.59417724609375,-1.8652373552322388,139.09341430664062,-34.80000305175781,-27.750001907348633,-23.55000114440918
4.87,54.396263122558594,-10.994174003601074,-1.4173674583435059,98.72434997558594,-5.595712184906006,114.04593658447266,-34.80000305175781,-27.750001907348633,-23.55000114440918
4.88,54.894256591796875,-16.778566360473633,1.0342950820922852,101.38896942138672,-13.989279747009277,90.4640121459961,-35.400001525878906,-27.150001525878906,-23.700000762939453
4.89,53.974884033203125,-23.52063751220703,1.9153614044189453,72.74425506591797,-9.992342948913574,60.75344467163086,-33.900001525878906,-29.850000381469727,-23.700000762939453
4.9,54.93256378173828,-31.335311889648438,0.9959878921508789,43.83307647705078,-18.2526798248291,46.497703552246094,-33.900001525878906,-29.850000381469727,-23.700000762939453
4.919,54.396263122558594,-32.331298828125,1.6089035272598267,11.724349021911621,-32.37519073486328,35.972434997558594,-34.80000305175781,-29.700000762939453,-22.350000381469727
4.923,57.99714279174805,-23.9420166015625,2.9496564865112305,-19.185298919677734,-31.975496292114258,11.857580184936523,-34.5,-29.250001907348633,-23.100000381469727
4.93,62.09601593017578,-19.153614044189453,0.6129156351089478,-9.192955017089844,-27.578866958618164,8.660030364990234,-34.5,-29.250001907348633,-23.100000381469727
4.94,68.1102523803711,-15.476119995117188,2.873042106628418,34.24042892456055,-39.70290756225586,-0.5329249501228333,-34.05000305175781,-30.150001525878906,-24.900001525878906
4.95,77.22737121582031,-16.66364288330078,4.481945514678955,82.6033706665039,-42.23430252075195,-29.444103240966797,-34.05000305175781,-30.150001525878906,-24.900001525878906
4.96,84.9271240234375,-27.734432220458984,3.2561142444610596,115.64471435546875,-43.16691970825195,-69.67993927001953,-34.5,-28.950000762939453,-24.900001525878906
4.98,93.50794219970703,-44.47468948364258,5.592854976654053,124.17151641845703,-38.50382614135742,-119.5084228515625,-34.20000076293945,-30.30000114440918,-22.950000762939453
4.984,99.36894989013672,-59.83588790893555,5.363011837005615,91.26339721679688,-46.63093185424805,-180.5283203125,-34.20000076293945,-30.30000114440918,-22.950000762939453
4.99,101.01615905761719,-64.66259765625,-1.647210717201233,52.89280319213867,-37.17151641845703,-192.51913452148438,-34.20000076293945,-30.30000114440918,-22.950000762939453
5.0,100.97785186767578,-59.5677375793457,-4.865017890930176,-0.2664624750614166,-23.98162269592285,-209.97242736816406,-33.900001525878906,-28.350000381469727,-22.950000762939453
5.01,100.4415512084961,-47.07958221435547,-10.266336441040039,-29.84379768371582,-13.989279747009277,-195.5834503173828,-34.650001525878906,-28.80000114440918,-23.700000762939453
5.02,100.55647277832031,-30.109479904174805,-11.453861236572266,-45.03215789794922,-5.8621745109558105,-161.7427215576172,-34.5,-27.000001907348633,-22.80000114440918
5.039,100.70970153808594,-15.361198425292969,-11.60708999633789,-28.911178588867188,9.859111785888672,-151.084228515625,-34.5,-27.000001907348633,-22.80000114440918
5.043,102.8932113647461,-6.665457725524902,-11.30063247680664,36.905052185058594,9.459418296813965,-146.0214385986328,-34.5,-27.000001907348633,-22.80000114440918
5.05,107.643310546875,-5.094861030578613,-9.921571731567383,78.60643005371094,-2.2649309635162354,-143.2235870361328,-33.75,-26.55000114440918,-23.55000114440918
5.06,111.39741516113281,-8.312667846679688,-6.320692539215088,145.0888214111328,-15.055130004882812,-165.87289428710938,-34.650001525878906,-24.900001525878906,-23.25
5.07,116.95196533203125,-13.024456977844238,0.9576807022094727,193.98468017578125,-29.977027893066406,-197.0489959716797,-34.95000076293945,-26.100000381469727,-23.700000762939453
5.08,121.28067779541016,-16.66364288330078,9.232041358947754,229.0244903564453,-69.28024291992188,-209.83920288085938,-34.95000076293945,-26.100000381469727,-23.700000762939453
5.099,122.6214370727539,-21.75850486755371,11.683704376220703,227.02603149414062,-85.4012222290039,-231.4226531982422,-35.400001525878906,-25.650001525878906,-21.450000762939453
5.104,121.77867889404297,-25.81907081604004,8.427590370178223,195.5834503173828,-82.6033706665039,-241.41500854492188,-36.150001525878906,-24.900001525878906,-23.25
5.11,118.67578887939453,-31.83330535888672,5.286397457122803,176.13169860839844,-93.2618637084961,-248.60948181152344,-34.80000305175781,-24.30000114440918,-24.150001525878906
5.12,116.76042938232422,-33.672054290771484,2.9496564865112305,143.4900360107422,-104.5865249633789,-254.87135314941406,-34.80000305175781,-23.100000381469727,-23.55000114440918
5.13,113.77246856689453,-33.7486686706543,-1.1109095811843872,92.99540710449219,-91.66309356689453,-233.9540557861328,-34.80000305175781,-23.100000381469727,-23.55000114440918
5.14,110.17158508300781,-31.22039031982422,-5.324704647064209,38.10413360595703,-96.8591079711914,-262.06585693359375,-34.95000076293945,-21.75,-24.450000762939453
5.159,103.96581268310547,-24.554933547973633,-7.2783732414245605,3.197549819946289,-94.86064147949219,-252.3399658203125,-34.20000076293945,-22.5,-24.0
5.163,101.01615905761719,-16.433799743652344,-9.193734169006348,-14.92189884185791,-85.26799011230469,-238.6171417236328,-36.45000076293945,-20.55000114440918,-24.450000762939453
5.17,96.72574615478516,-4.060565948486328,-10.994174003601074,-22.915773391723633,-77.4073486328125,-243.679931640625,-34.80000305175781,-20.850000381469727,-24.900001525878906
5.18,94.46562194824219,4.290409564971924,-11.683704376220703,-10.258805274963379,-72.21133422851562,-218.23277282714844,-34.80000305175781,-20.850000381469727,-24.900001525878906
5.19,88.10662078857422,10.342951774597168,-13.867216110229492,18.519142150878906,-77.80704498291016,-208.3736572265625,-33.900001525878906,-18.75,-25.200000762939453
5.2,83.31822204589844,17.085023880004883,-15.054739952087402,51.4272575378418,-68.21439361572266,-195.31700134277344,-33.900001525878906,-17.100000381469727,-26.250001907348633
5.219,78.49150848388672,17.50640296936035,-15.552734375,73.41041564941406,-57.822357177734375,-176.53138732910156,-34.5,-18.900001525878906,-26.100000381469727
5.223,74.35432434082031,17.851167678833008,-15.284584045410156,116.0444107055664,-61.28636932373047,-165.60643005371094,-34.20000076293945,-17.100000381469727,-24.450000762939453
5.23,70.44699096679688,13.828908920288086,-13.828908920288086,134.83001708984375,-64.48391723632812,-149.61868286132812,-34.20000076293945,-17.100000381469727,-24.450000762939453
5.24,68.99131774902344,11.453861236572266,-11.262324333190918,144.55589294433594,-63.018375396728516,-153.21592712402344,-35.25,-16.200000762939453,-25.650001525878906
5.25,65.35212707519531,7.967903137207031,-9.959878921508789,136.82847595214844,-73.14395141601562,-150.2848358154297,-33.150001525878906,-17.850000381469727,-25.500001907348633
5.26,61.329872131347656,6.205770969390869,-7.393294811248779,145.6217498779297,-83.80245208740234,-145.6217498779297,-34.95000076293945,-16.350000381469727,-27.30000114440918
5.279,59.5677375793457,3.44765043258667,-7.240066051483154,131.7657012939453,-83.13629150390625,-159.07809448242188,-32.400001525878906,-17.100000381469727,-27.30000114440918
5.283,57.53745651245117,1.2258312702178955,-6.052541732788086,116.57733154296875,-96.32618713378906,-153.882080078125,-32.400001525878906,-17.100000381469727,-27.30000114440918
5.29,55.0474853515625,-0.8427590131759644,-4.6734819412231445,107.65084075927734,-103.25421142578125,-152.949462890625,-32.25,-14.250000953674316,-28.200000762939453
5.3,54.81764221191406,-1.5705963373184204,-5.20978307723999,79.53904724121094,-104.45329284667969,-154.9479217529297,-33.0,-13.800000190734863,-28.650001525878906
5.31,52.74905014038086,-4.903325080871582,-5.286397457122803,53.69218826293945,-111.11485290527344,-175.7320098876953,-33.0,-16.200000762939453,-28.950000762939453
5.32,52.09782791137695,-4.137180328369141,-4.443638324737549,31.176109313964844,-113.64624786376953,-173.0673828125,-33.0,-15.750000953674316,-28.200000762939453
5.339,51.52322006225586,-4.788403511047363,-4.788403511047363,4.263399600982666,-124.8376693725586,-171.7350616455078,-33.0,-15.750000953674316,-28.200000762939453
5.343,50.757076263427734,-3.44765043258667,-6.129156112670898,-32.77488327026367,-123.63858795166016,-170.4027557373047,-32.25,-14.550000190734863,-29.700000762939453
5.35,46.926353454589844,0.038307227194309235,-8.312667846679688,-54.4915771484375,-114.71209716796875,-178.5298614501953,-32.55000305175781,-13.050000190734863,-30.900001525878906
5.36,45.73883056640625,1.4939818382263184,-8.772355079650879,-64.48391723632812,-117.50994873046875,-182.39356994628906,-31.05000114440918,-13.800000190734863,-31.950000762939453
5.37,44.0150032043457,5.746084213256836,-8.810662269592285,-72.61102294921875,-112.31393432617188,-176.13169860839844,-31.200000762939453,-11.700000762939453,-30.600000381469727
5.38,42.48271560668945,7.469909191131592,-11.224017143249512,-79.9387435913086,-103.65390014648438,-177.06431579589844,-31.200000762939453,-11.700000762939453,-30.600000381469727
5.4,43.287166595458984,12.756306648254395,-10.72602367401123,-82.6033706665039,-101.52220153808594,-174.79937744140625,-30.000001907348633,-11.850000381469727,-30.900001525878906
5.404,42.7508659362793,16.203956604003906,-10.189722061157227,-84.4686050415039,-99.92343139648438,-152.68299865722656,-30.750001907348633,-11.100000381469727,-31.500001907348633
5.41,42.94240188598633,19.958065032958984,-11.91354751586914,-86.86676788330078,-97.65850067138672,-153.48239135742188,-29.250001907348633,-8.100000381469727,-31.500001907348633
5.42,44.091617584228516,21.6818904876709,-11.760318756103516,-83.66921997070312,-82.6033706665039,-148.15313720703125,-29.400001525878906,-8.700000762939453,-32.85000228881836
5.43,46.58158874511719,26.43198585510254,-13.292608261108398,-80.73812866210938,-86.73353576660156,-124.8376693725586,-29.400001525878906,-8.700000762939453,-32.85000228881836
5.44,49.79939651489258,26.66183090209961,-15.437812805175781,-60.08728790283203,-83.26952362060547,-103.92036437988281,-27.900001525878906,-7.500000476837158,-31.80000114440918
5.459,53.859962463378906,29.611486434936523,-15.552734375,-42.633995056152344,-71.81163787841797,-118.17610931396484,-27.750001907348633,-6.900000095367432,-33.0
5.463,55.507171630859375,30.0711727142334,-15.820884704589844,-16.78713607788086,-80.33843994140625,-104.98621368408203,-27.900001525878906,-5.850000381469727,-33.900001525878906
5.47,55.009178161621094,33.02082824707031,-16.625335693359375,-2.398162364959717,-92.59571075439453,-90.4640121459961,-25.80000114440918,-6.450000286102295,-33.0
5.48,53.476890563964844,32.484527587890625,-18.04270362854004,12.390504837036133,-84.06890869140625,-75.67534637451172,-25.80000114440918,-6.450000286102295,-33.0
5.49,54.97087097167969,32.10145568847656,-18.962078094482422,6.9280242919921875,-79.9387435913086,-60.62021255493164,-26.55000114440918,-6.150000095367432,-34.20000076293945
5.5,58.418521881103516,29.76471519470215,-22.946029663085938,11.191424369812012,-65.016845703125,-37.304744720458984,-25.950000762939453,-6.300000190734863,-33.900001525878906
5.519,67.5739517211914,27.198131561279297,-31.182083129882812,2.531393527984619,-39.83613967895508,-28.24502182006836,-25.05000114440918,-4.5,-33.75
5.522,75.04386138916016,26.12552833557129,-35.66402816772461,-7.860642910003662,-4.529861927032471,-13.056661605834961,-25.200000762939453,-4.800000190734863,-35.10000228881836
5.53,85.5017318725586,29.15180015563965,-34.9744987487793,-13.323123931884766,17.852985382080078,-17.719755172729492,-25.200000762939453,-4.800000190734863,-35.10000228881836
5.54,90.71151733398438,33.44221115112305,-34.32327651977539,13.189892768859863,17.986217498779297,15.854516983032227,-24.450000762939453,-4.350000381469727,-34.35000228881836
5.55,96.30436706542969,33.863590240478516,-30.99054718017578,42.500762939453125,12.523736000061035,26.513015747070312,-25.200000762939453,-5.550000190734863,-33.900001525878906
5.56,97.98988342285156,28.117504119873047,-31.948226928710938,36.10566711425781,15.188361167907715,28.77794647216797,-24.900001525878906,-6.300000190734863,-33.30000305175781
5.581,92.51195526123047,19.613300323486328,-35.6257209777832,21.050535202026367,24.381317138671875,42.76722717285156,-24.900001525878906,-5.850000381469727,-33.60000228881836
5.584,84.3525161743164,11.530475616455078,-40.375816345214844,-10.525267601013184,42.90045928955078,63.018375396728516,-26.400001525878906,-5.550000190734863,-33.30000305175781
5.59,79.21934509277344,5.822698593139648,-41.41011428833008,-20.251148223876953,41.30168533325195,71.01225280761719,-26.400001525878906,-5.550000190734863,-33.30000305175781
5.6,81.09639739990234,4.137180328369141,-39.26490783691406,-50.62786865234375,60.48698043823242,66.882080078125,-24.0,-5.700000286102295,-34.95000076293945
5.61,85.5017318725586,8.312667846679688,-37.311241149902344,-62.485450744628906,57.02296829223633,92.99540710449219,-25.500001907348633,-6.900000095367432,-34.95000076293945
5.62,93.9676284790039,13.905523300170898,-35.35757064819336,-72.87748718261719,59.82082748413086,105.91883087158203,-26.55000114440918,-5.700000286102295,-34.20000076293945
5.639,101.36092376708984,20.724210739135742,-34.20835494995117,-78.60643005371094,69.54670715332031,120.17457580566406,-26.55000114440918,-5.700000286102295,-34.20000076293945
5.642,102.39521789550781,25.665842056274414,-36.928165435791016,-51.4272575378418,70.87902069091797,140.1592559814453,-27.30000114440918,-6.900000095367432,-33.45000076293945
5.65,97.6068115234375,23.02264404296875,-41.448421478271484,-43.30015182495117,75.67534637451172,146.1546630859375,-27.750001907348633,-5.400000095367432,-31.950000762939453
5.66,95.61483764648438,18.693927764892578,-41.639957427978516,-32.77488327026367,77.00765228271484,147.8866729736328,-28.200000762939453,-5.850000381469727,-30.600000381469727
5.67,92.51195526123047,10.72602367401123,-40.069358825683594,-39.569679260253906,77.00765228271484,155.21438598632812,-27.150001525878906,-7.800000190734863,-31.350000381469727
5.68,91.13289642333984,3.7158010005950928,-39.226600646972656,-63.418067932128906,76.87442779541016,162.94180297851562,-27.150001525878906,-7.800000190734863,-31.350000381469727
5.699,90.13690185546875,-0.1149216815829277,-35.6257209777832,-107.3843765258789,74.8759536743164,164.00765991210938,-27.900001525878906,-7.500000476837158,-31.80000114440918
5.704,88.79615020751953,-4.022258758544922,-31.258697509765625,-174.66615295410156,82.6033706665039,174.53292846679688,-29.250001907348633,-9.15000057220459,-30.900001525878906
5.71,90.2518310546875,2.719813108444214,-25.321077346801758,-185.19142150878906,72.34455871582031,196.64930725097656,-29.250001907348633,-9.15000057220459,-30.900001525878906
5.72,89.98367309570312,6.473921298980713,-25.321077346801758,-202.77793884277344,73.81010437011719,191.9862060546875,-28.500001907348633,-8.40000057220459,-30.450000762939453
5.73,91.24781799316406,12.947842597961426,-26.163835525512695,-218.23277282714844,84.4686050415039,191.58651733398438,-28.500001907348633,-8.40000057220459,-30.450000762939453
5.74,88.6046142578125,19.766529083251953,-25.857378005981445,-202.3782501220703,83.93567657470703,210.2388916015625,-28.500001907348633,-7.650000095367432,-30.150001525878906
5.759,86.22956848144531,24.44001007080078,-25.933992385864258,-178.6630859375,76.60796356201172,204.50994873046875,-29.250001907348633,-6.450000286102295,-31.200000762939453
5.762,84.9654312133789,26.087221145629883,-25.550920486450195,-145.75497436523438,65.54976654052734,216.76722717285156,-29.700000762939453,-9.450000762939453,-30.600000381469727
5.77,83.7396011352539,23.21417999267578,-24.938005447387695,-142.15773010253906,75.27565002441406,225.42726135253906,-29.700000762939453,-9.450000762939453,-30.600000381469727
5.78,81.86254119873047,21.298818588256836,-24.286781311035156,-128.03521728515625,72.74425506591797,225.69371032714844,-29.700000762939453,-9.450000762939453,-30.600000381469727
5.79,79.18103790283203,15.591041564941406,-23.903709411621094,-110.848388671875,61.81929397583008,233.68759155273438,-30.150001525878906,-10.5,-28.500001907348633
5.8,79.37257385253906,11.60708999633789,-23.13756561279297,-121.10719299316406,70.61255645751953,227.1592559814453,-29.55000114440918,-9.600000381469727,-27.150001525878906
5.819,76.84429931640625,7.4316020011901855,-23.558944702148438,-109.51607513427734,76.34149932861328,235.15313720703125,-32.25,-10.050000190734863,-28.650001525878906
5.822,70.79175567626953,6.89530086517334,-22.60126495361328,-105.38591003417969,76.20826721191406,232.62173461914062,-28.80000114440918,-10.350000381469727,-27.450000762939453
5.83,68.64655303955078,6.205770969390869,-21.75850486755371,-95.12710571289062,73.27718353271484,240.21592712402344,-28.80000114440918,-10.350000381469727,-27.450000762939453
5.84,66.73119354248047,8.312667846679688,-20.532672882080078,-95.9264907836914,80.20520782470703,236.7519073486328,-32.25,-11.100000381469727,-28.200000762939453
5.85,63.589996337890625,7.929595947265625,-20.877439498901367,-93.79479217529297,81.93721008300781,239.41653442382812,-31.950000762939453,-11.40000057220459,-26.250001907348633
5.86,60.71695327758789,10.41956615447998,-19.613300323486328,-79.2725830078125,71.54517364501953,250.34149169921875,-31.05000114440918,-11.850000381469727,-27.150001525878906
5.879,58.57175064086914,10.917559623718262,-19.07699966430664,-69.94640350341797,79.2725830078125,253.1393585205078,-31.950000762939453,-11.40000057220459,-26.250001907348633
5.882,56.80961608886719,10.687716484069824,-17.31486701965332,-55.82388687133789,80.33843994140625,253.1393585205078,-31.80000114440918,-12.750000953674316,-25.650001525878906
5.89,55.58378601074219,11.568782806396484,-16.089035034179688,-34.773353576660156,78.60643005371094,247.67686462402344,-31.80000114440918,-12.750000953674316,-25.650001525878906
5.9,55.23902130126953,10.074800491333008,-14.939818382263184,-19.052066802978516,76.4747314453125,251.80703735351562,-33.900001525878906,-14.40000057220459,-25.500001907348633
5.91,56.15839385986328,9.500192642211914,-14.556746482849121,-3.197549819946289,70.87902069091797,238.6171417236328,-32.400001525878906,-15.90000057220459,-24.750001907348633
5.92,56.15839385986328,7.5848307609558105,-14.786589622497559,12.124042510986328,59.287899017333984,245.9448699951172,-32.400001525878906,-15.90000057220459,-24.750001907348633
5.939,55.46886444091797,4.6734819412231445,-12.411541938781738,19.185298919677734,40.502296447753906,241.41500854492188,-32.400001525878906,-15.90000057220459,-24.750001907348633
5.942,54.31964874267578,1.6089035272598267,-15.284584045410156,20.517610549926758,39.569679260253906,233.42112731933594,-34.650001525878906,-17.55000114440918,-23.700000762939453
5.95,53.93657684326172,-0.6512228846549988,-14.863204002380371,16.25421142578125,40.502296447753906,218.49923706054688,-33.150001525878906,-19.05000114440918,-24.0
5.96,53.974884033203125,-1.9536685943603516,-14.09705924987793,19.185298919677734,20.251148223876953,214.50228881835938,-33.900001525878906,-17.850000381469727,-23.700000762939453
5.97,51.676448822021484,-4.098873138427734,-12.334927558898926,17.719755172729492,18.119447708129883,200.77947998046875,-33.900001525878906,-17.850000381469727,-23.700000762939453
5.98,49.9526252746582,-6.703764915466309,-13.254301071166992,8.660030364990234,33.04134750366211,181.59417724609375,-33.75,-21.600000381469727,-24.150001525878906
5.999,49.99093246459961,-10.189722061157227,-14.556746482849121,0.6661561727523804,38.90352249145508,153.61561584472656,-33.45000076293945,-21.450000762939453,-22.950000762939453
6.004,53.859962463378906,-10.5344877243042,-11.798625946044922,-1.0658499002456665,21.983154296875,130.43338012695312,-33.30000305175781,-23.55000114440918,-22.350000381469727
6.01,60.29557418823242,-13.177685737609863,-8.96389102935791,-11.058192253112793,17.586523056030273,124.30474090576172,-33.0,-22.350000381469727,-22.80000114440918
6.02,61.942787170410156,-15.667655944824219,-8.044517517089844,-29.84379768371582,19.584991455078125,108.983154296875,-33.0,-22.350000381469727,-22.80000114440918
6.03,63.896453857421875,-13.752294540405273,-7.967903137207031,-29.31087303161621,9.059723854064941,100.3231201171875,-31.500001907348633,-23.850000381469727,-22.80000114440918
6.04,64.24121856689453,-13.713987350463867,-8.35097599029541,-33.57427215576172,4.529861927032471,76.07503509521484,-33.30000305175781,-23.850000381469727,-23.100000381469727
6.059,62.977081298828125,-10.189722061157227,-9.078812599182129,-41.168453216552734,15.321592330932617,58.888206481933594,-32.70000076293945,-23.25,-21.75
6.063,58.61005783081055,-1.7621324062347412,-10.457873344421387,-19.31852912902832,0.0,58.08882141113281,-31.950000762939453,-25.650001525878906,-22.950000762939453
6.07,58.45682907104492,-0.3447650372982025,-12.105083465576172,-3.9969370365142822,3.597243309020996,50.62786865234375,-31.950000762939453,-25.650001525878906,-22.950000762939453
6.08,57.76729965209961,3.026270866394043,-12.334927558898926,9.992342948913574,21.45022964477539,35.839202880859375,-31.500001907348633,-24.750001907348633,-22.350000381469727
6.09,57.99714279174805,3.294421434402466,-12.105083465576172,46.63093185424805,17.986217498779297,41.83460998535156,-33.900001525878906,-23.700000762939453,-22.200000762939453
6.1,61.253257751464844,-0.689530074596405,-10.879252433776855,80.73812866210938,15.45482349395752,40.635528564453125,-31.500001907348633,-23.55000114440918,-22.05000114440918
6.119,67.42072296142578,-9.040505409240723,-5.631162166595459,95.9264907836914,1.4655436277389526,-9.459418296813965,-33.30000305175781,-25.80000114440918,-21.30000114440918
6.122,80.67501831054688,-28.002582550048828,6.933608055114746,92.06278228759766,-7.9938740730285645,-13.58958625793457,-33.30000305175781,-25.80000114440918,-21.30000114440918
6.13,83.54806518554688,-31.488540649414062,5.784391403198242,79.53904724121094,-12.25727367401123,-33.97396469116211,-31.950000762939453,-25.650001525878906,-21.450000762939453
6.14,86.34449005126953,-34.170047760009766,7.086836814880371,77.4073486328125,-25.313934326171875,-60.88667678833008,-32.70000076293945,-27.150001525878906,-22.200000762939453
6.15,88.87276458740234,-37.15800857543945,3.907337188720703,83.13629150390625,-25.846860885620117,-99.65696716308594,-32.55000305175781,-25.05000114440918,-22.350000381469727
6.16,90.21351623535156,-36.88985824584961,2.1068975925445557,75.8085708618164,-30.643184661865234,-116.17764282226562,-33.30000305175781,-25.500001907348633,-22.05000114440918
6.179,93.39302062988281,-34.01681900024414,-1.2258312702178955,68.74732208251953,-12.790199279785156,-131.49923706054688,-32.25,-23.850000381469727,-20.55000114440918
6.183,94.27408599853516,-30.837318420410156,-7.546523571014404,74.8759536743164,-0.2664624750614166,-144.68911743164062,-32.25,-23.850000381469727,-20.55000114440918
6.19,95.49991607666016,-30.415939331054688,-8.619126319885254,77.94027709960938,9.992342948913574,-151.084228515625,-33.0,-24.750001907348633,-22.350000381469727
6.2,95.57653045654297,-28.960264205932617,-10.457873344421387,85.80091857910156,9.326186180114746,-149.61868286132812,-33.30000305175781,-25.05000114440918,-20.100000381469727
6.21,96.07452392578125,-27.389667510986328,-9.078812599182129,95.39356231689453,4.663093090057373,-151.6171417236328,-32.400001525878906,-25.200000762939453,-21.75
6.22,99.2157211303711,-25.014619827270508,-5.592854976654053,97.7917251586914,1.7320060729980469,-157.87901306152344,-32.400001525878906,-25.200000762939453,-21.75
6.236,100.70970153808594,-23.903709411621094,-3.907337188720703,104.5865249633789,-2.797856092453003,-166.1393585205078,-31.80000114440918,-24.750001907348633,-21.600000381469727
6.24,103.96581268310547,-21.6818904876709,-0.6129156351089478,109.51607513427734,-12.390504837036133,-168.1378173828125,-31.650001525878906,-24.150001525878906,-19.650001525878906
6.25,106.64732360839844,-21.835119247436523,1.5322890281677246,117.37671661376953,-26.64624786376953,-175.7320098876953,-32.70000076293945,-22.950000762939453,-20.700000762939453
6.26,112.12525177001953,-23.63555908203125,1.9919757843017578,115.51148223876953,-37.83767318725586,-199.44715881347656,-33.30000305175781,-23.55000114440918,-19.80000114440918
6.27,118.94393920898438,-23.63555908203125,4.175487995147705,118.04287719726562,-45.03215789794922,-216.10107421875,-33.30000305175781,-23.55000114440918,-19.80000114440918
6.28,118.75240325927734,-21.337125778198242,4.596867084503174,117.24349212646484,-64.21745300292969,-223.16232299804688,-33.30000305175781,-22.80000114440918,-20.55000114440918
6.299,119.7100830078125,-18.464082717895508,1.800439715385437,95.52679443359375,-74.20980072021484,-236.88514709472656,-34.05000305175781,-22.350000381469727,-20.850000381469727
6.303,112.35509490966797,-15.361198425292969,-5.592854976654053,87.39968872070312,-61.81929397583008,-237.6845245361328,-34.05000305175781,-22.350000381469727,-20.850000381469727
6.31,112.20186614990234,-14.786589622497559,-6.703764915466309,87.53292083740234,-59.15467071533203,-238.6171417236328,-33.75,-21.150001525878906,-20.100000381469727
6.32,111.2824935913086,-13.445837020874023,-7.967903137207031,83.26952362060547,-59.95405578613281,-244.87901306152344,-33.75,-21.150001525878906,-20.100000381469727
6.33,110.40142822265625,-10.496180534362793,-6.627150535583496,77.14088439941406,-58.355281829833984,-243.81317138671875,-32.55000305175781,-16.950000762939453,-21.600000381469727
6.348,109.13729095458984,-7.1251444816589355,-8.159439086914062,73.9433364868164,-54.75803756713867,-250.20826721191406,-34.05000305175781,-18.900001525878906,-21.600000381469727
6.352,105.91948699951172,-2.4899697303771973,-10.381258964538574,65.28330993652344,-63.81776428222656,-226.89279174804688,-33.75,-19.200000762939453,-21.30000114440918
6.36,100.59477996826172,2.75812029838562,-11.530475616455078,71.41194152832031,-64.75038146972656,-216.90045166015625,-33.0,-18.450000762939453,-20.850000381469727
6.37,96.9555892944336,4.8267107009887695,-13.828908920288086,83.5359878540039,-65.949462890625,-218.76568603515625,-33.0,-18.450000762939453,-20.850000381469727
6.38,92.78010559082031,6.856993675231934,-13.828908920288086,86.86676788330078,-67.28177642822266,-204.11026000976562,-31.500001907348633,-16.200000762939453,-22.05000114440918
6.39,85.15696716308594,4.367023944854736,-15.24627685546875,105.5191421508789,-67.41500854492188,-189.0551300048828,-33.150001525878906,-15.15000057220459,-22.950000762939453
6.409,79.14273071289062,4.290409564971924,-14.633360862731934,108.58345794677734,-63.151607513427734,-185.85757446289062,-33.0,-16.200000762939453,-23.100000381469727
6.413,72.4772720336914,3.907337188720703,-12.143390655517578,120.17457580566406,-72.47779083251953,-173.6002960205078,-33.30000305175781,-14.250000953674316,-21.600000381469727
6.42,66.42472839355469,1.8387469053268433,-9.461885452270508,116.44409942626953,-77.67381286621094,-161.2097930908203,-33.30000305175781,-14.250000953674316,-21.600000381469727
6.43,64.12629699707031,1.4939818382263184,-6.358999729156494,110.71515655517578,-90.4640121459961,-160.6768798828125,-33.30000305175781,-13.050000190734863,-23.55000114440918
6.44,59.60604476928711,1.1109095811843872,-4.63517427444458,91.79632568359375,-86.46707153320312,-153.34915161132812,-33.30000305175781,-13.800000190734863,-23.100000381469727
6.45,55.27732849121094,1.2258312702178955,-4.137180328369141,82.07044219970703,-92.46247863769531,-160.6768798828125,-31.950000762939453,-13.200000762939453,-22.5
6.468,52.44259262084961,1.3407529592514038,-4.32871675491333,73.54364013671875,-106.05206298828125,-160.54364013671875,-31.950000762939453,-12.90000057220459,-22.950000762939453
6.472,50.83369064331055,0.1149216815829277,-2.719813108444214,49.42878723144531,-107.91730499267578,-165.3399658203125,-31.950000762939453,-12.90000057220459,-22.950000762939453
6.48,48.80340576171875,-0.3064578175544739,-2.4133553504943848,44.36600112915039,-110.71515655517578,-165.87289428710938,-31.200000762939453,-12.90000057220459,-25.200000762939453
6.49,50.68046188354492,-0.4596867263317108,-3.2178070545196533,35.17304611206055,-115.37825012207031,-168.9372100830078,-30.750001907348633,-12.300000190734863,-24.900001525878906
6.5,50.335697174072266,1.7621324062347412,-2.0685901641845703,21.316997528076172,-120.57427215576172,-173.86676025390625,-31.950000762939453,-11.700000762939453,-26.250001907348633
6.51,51.063533782958984,0.038307227194309235,-3.332728862762451,-3.7304747104644775,-109.915771484375,-181.19448852539062,-31.80000114440918,-10.800000190734863,-25.350000381469727
6.529,51.48491287231445,0.07661445438861847,-2.2601263523101807,-18.519142150878906,-112.4471664428711,-189.5880584716797,-31.80000114440918,-10.800000190734863,-25.350000381469727
6.533,51.7913703918457,2.1068975925445557,-4.32871675491333,-38.37059783935547,-119.37519073486328,-189.32159423828125,-29.400001525878906,-10.5,-26.250001907348633
6.54,50.48892593383789,4.405331134796143,-4.098873138427734,-56.62327575683594,-111.11485290527344,-198.9142303466797,-29.400001525878906,-9.75,-25.80000114440918
6.55,48.535255432128906,5.324704647064209,-6.320692539215088,-67.5482406616211,-106.31852722167969,-195.84991455078125,-27.900001525878906,-9.0,-26.250001907348633
6.56,49.224788665771484,8.734047889709473,-4.903325080871582,-78.3399658203125,-114.17916870117188,-192.7855987548828,-28.950000762939453,-9.75,-27.750001907348633
6.57,48.30541229248047,11.60708999633789,-6.435614109039307,-78.73966217041016,-110.31546783447266,-189.5880584716797,-28.950000762939453,-9.75,-27.750001907348633
6.588,48.30541229248047,14.058752059936523,-7.240066051483154,-96.8591079711914,-98.59111785888672,-188.92189025878906,-27.750001907348633,-7.650000095367432,-27.900001525878906
6.593,49.79939651489258,17.276559829711914,-10.457873344421387,-91.26339721679688,-96.8591079711914,-180.66156005859375,-28.650001525878906,-7.050000190734863,-27.30000114440918
6.6,51.29337692260742,19.38345718383789,-12.373234748840332,-96.72587585449219,-83.00305938720703,-168.1378173828125,-28.650001525878906,-5.100000381469727,-28.500001907348633
6.61,51.676448822021484,22.869415283203125,-14.288596153259277,-94.86064147949219,-73.81010437011719,-164.67381286621094,-28.650001525878906,-5.100000381469727,-28.500001907348633
6.62,51.561527252197266,24.210166931152344,-15.361198425292969,-92.72894287109375,-60.22052001953125,-153.7488555908203,-27.450000762939453,-5.100000381469727,-28.05000114440918
6.63,52.902278900146484,27.542896270751953,-15.399505615234375,-78.60643005371094,-56.22358322143555,-142.29095458984375,-26.250001907348633,-1.8000000715255737,-29.400001525878906
6.65,54.05149841308594,30.415939331054688,-18.310853958129883,-72.0781021118164,-58.08882141113281,-121.3736572265625,-27.150001525878906,-2.1000001430511475,-28.500001907348633
6.653,56.04347229003906,33.82528305053711,-16.855180740356445,-51.560489654541016,-50.89433288574219,-100.18988800048828,-25.80000114440918,-1.8000000715255737,-27.450000762939453
6.66,55.507171630859375,37.73262023925781,-18.617311477661133,-45.16539001464844,-40.635528564453125,-91.92955017089844,-25.80000114440918,-1.8000000715255737,-27.450000762939453
6.67,53.055511474609375,36.8515510559082,-18.617311477661133,-16.520673751831055,-50.22817611694336,-79.40581512451172,-24.750001907348633,-1.0500000715255737,-27.900001525878906
6.68,52.289363861083984,37.19631576538086,-21.98834800720215,-8.260336875915527,-37.83767318725586,-71.01225280761719,-24.0,0.0,-27.900001525878906
6.69,53.89826965332031,35.702335357666016,-24.631547927856445,12.124042510986328,-23.182235717773438,-56.62327575683594,-24.450000762939453,-0.15000000596046448,-28.500001907348633
6.71,56.57977294921875,28.998571395874023,-28.155811309814453,17.852985382080078,-19.31852912902832,-48.09647750854492,-23.700000762939453,-1.350000023841858,-27.750001907348633
6.713,66.9610366821289,25.359384536743164,-29.84132957458496,-1.8652373552322388,1.5987749099731445,-53.69218826293945,-23.55000114440918,0.75,-28.650001525878906
6.72,81.59439086914062,24.938005447387695,-26.96828842163086,-10.658498764038086,4.130168437957764,-53.29249572753906,-23.55000114440918,0.75,-28.650001525878906
6.73,85.11865997314453,25.435998916625977,-26.31706428527832,-23.182235717773438,5.196018218994141,-38.90352249145508,-25.500001907348633,0.75,-28.650001525878906
6.74,82.85853576660156,29.726408004760742,-25.70414924621582,-22.116384506225586,-5.329249382019043,-15.588054656982422,-24.150001525878906,-0.45000001788139343,-28.500001907348633
6.75,76.5761489868164,35.85556411743164,-27.198131561279297,-13.456355094909668,-4.663093090057373,2.9310872554779053,-22.5,0.75,-29.400001525878906
6.769,74.3160171508789,37.656005859375,-30.032865524291992,-14.388973236083984,11.324655532836914,16.920366287231445,-22.5,0.75,-29.400001525878906
6.773,75.54185485839844,38.49876403808594,-31.10546875,-17.186830520629883,1.0658499002456665,39.03675079345703,-23.400001525878906,0.15000000596046448,-26.55000114440918
6.78,78.989501953125,35.12772750854492,-33.212364196777344,-26.912710189819336,8.926492691040039,48.362937927246094,-23.400001525878906,0.15000000596046448,-26.55000114440918
6.79,82.24561309814453,34.170047760009766,-33.557132720947266,-46.764163970947266,25.04747200012207,56.22358322143555,-26.250001907348633,-0.30000001192092896,-27.450000762939453
6.8,81.55608367919922,29.075185775756836,-35.93217849731445,-57.15620040893555,30.776416778564453,77.14088439941406,-22.650001525878906,-0.9000000357627869,-27.000001907348633
6.81,82.36053466796875,28.500577926635742,-37.387855529785156,-52.626338958740234,44.63246536254883,79.13935852050781,-22.650001525878906,-0.9000000357627869,-27.000001907348633
6.83,86.45941162109375,29.381643295288086,-39.149986267089844,-50.22817611694336,58.754974365234375,91.13016510009766,-22.650001525878906,-1.350000023841858,-27.30000114440918
6.833,91.05628204345703,30.952239990234375,-37.694313049316406,-42.90045928955078,75.40888214111328,102.05513000488281,-25.200000762939453,-2.1000001430511475,-27.750001907348633
6.84,97.72173309326172,33.978511810302734,-34.9744987487793,-27.31240463256836,80.60489654541016,118.8422622680664,-24.750001907348633,0.0,-27.900001525878906
6.851,98.75603485107422,32.331298828125,-33.212364196777344,-23.848390579223633,93.79479217529297,112.84685516357422,-24.750001907348633,0.0,-27.900001525878906
6.86,99.94355773925781,30.68408966064453,-32.331298828125,-10.392036437988281,88.73200225830078,123.37212371826172,-24.750001907348633,0.0,-27.900001525878906
6.87,99.36894989013672,27.351360321044922,-30.4925537109375,-10.125574111938477,100.58958435058594,123.10566711425781,-24.750001907348633,-0.75,-25.650001525878906
6.889,96.3809814453125,23.405715942382812,-27.964275360107422,-13.856048583984375,88.73200225830078,129.6339874267578,-25.200000762939453,0.15000000596046448,-26.250001907348633
6.893,91.74581146240234,18.502389907836914,-25.665842056274414,-45.16539001464844,83.66921997070312,140.1592559814453,-26.400001525878906,-1.6500000953674316,-24.750001907348633
6.9,88.87276458740234,14.556746482849121,-21.75850486755371,-75.14241790771484,87.53292083740234,135.89585876464844,-26.400001525878906,-1.6500000953674316,-24.750001907348633
6.91,87.99169921875,13.024456977844238,-20.532672882080078,-106.98468017578125,77.4073486328125,148.0198974609375,-26.400001525878906,-2.4000000953674316,-25.200000762939453
6.92,88.94937896728516,14.326903343200684,-18.34916114807129,-139.35987854003906,73.41041564941406,156.01377868652344,-27.30000114440918,-1.8000000715255737,-25.650001525878906
6.93,89.29414367675781,16.855180740356445,-19.19192123413086,-174.66615295410156,77.00765228271484,156.94639587402344,-27.150001525878906,-2.1000001430511475,-24.750001907348633
6.949,89.06430053710938,19.766529083251953,-20.915746688842773,-194.2511444091797,84.33537292480469,174.0,-26.700000762939453,-1.6500000953674316,-24.450000762939453
6.953,87.57032012939453,25.550920486450195,-24.095245361328125,-192.7855987548828,81.00459289550781,186.12403869628906,-26.700000762939453,-1.6500000953674316,-24.450000762939453
6.96,84.85050964355469,30.68408966064453,-25.167848587036133,-188.2557373046875,76.60796356201172,197.31546020507812,-28.80000114440918,-3.450000047683716,-22.80000114440918
6.97,81.17301177978516,33.90189743041992,-22.83110809326172,-176.26492309570312,89.66461944580078,207.0413360595703,-28.650001525878906,-2.4000000953674316,-23.25
6.98,77.1890640258789,34.66804122924805,-19.843143463134766,-145.35528564453125,73.81010437011719,236.7519073486328,-29.250001907348633,-3.750000238418579,-22.05000114440918
