time,accel_x,accel_y,accel_z,gyro_x,gyro_y,gyro_z,mag_x,mag_y,mag_z
0.0,73.0135726928711,23.673866271972656,13.292608261108398,-4.130168437957764,-7.06125545501709,1.3323123455047607,-45.0,-15.450000762939453,8.700000762939453
0.01,73.47325897216797,23.21417999267578,12.90953540802002,0.7993874549865723,1.3323123455047607,-0.5329249501228333,-45.0,-15.450000762939453,8.700000762939453
0.02,72.17081451416016,23.712173461914062,12.373234748840332,-5.995405673980713,7.327718257904053,-4.396630764007568,-44.70000076293945,-16.80000114440918,8.550000190734863
0.03,72.63050079345703,23.290794372558594,11.798625946044922,-2.6646246910095215,5.8621745109558105,-5.595712184906006,-42.45000076293945,-17.55000114440918,8.25
0.049,73.97125244140625,23.9420166015625,11.990161895751953,4.796324729919434,0.1332312375307083,2.9310872554779053,-44.55000305175781,-14.550000190734863,8.700000762939453
0.053,73.20510864257812,23.712173461914062,12.334927558898926,0.9326186776161194,9.059723854064941,-3.3307809829711914,-45.150001525878906,-15.600000381469727,9.300000190734863
0.06,73.16680145263672,25.780763626098633,11.836933135986328,-3.0643184185028076,6.128636837005615,-5.995405673980713,-45.150001525878906,-15.600000381469727,9.300000190734863
0.07,73.89463806152344,24.05693817138672,12.60307788848877,-1.1990811824798584,-7.06125545501709,2.131699800491333,-45.0,-16.200000762939453,7.950000286102295
0.08,73.6264877319336,24.478317260742188,12.411541938781738,-1.0658499002456665,-5.196018218994141,-1.0658499002456665,-44.25,-16.200000762939453,8.40000057220459
0.09,72.24742889404297,22.90772247314453,11.568782806396484,-6.794793128967285,3.3307809829711914,-3.4640121459960938,-44.400001525878906,-17.55000114440918,9.0
0.111,71.97927856445312,23.788787841796875,11.798625946044922,-10.125574111938477,1.5987749099731445,-1.0658499002456665,-44.25,-16.200000762939453,8.700000762939453
0.114,72.36235046386719,24.478317260742188,12.181697845458984,-9.72588062286377,-1.1990811824798584,-5.196018218994141,-44.25,-16.200000762939453,8.700000762939453
0.12,73.43495178222656,24.478317260742188,12.641385078430176,-8.39356803894043,3.86370587348938,-8.39356803894043,-44.25,-16.5,7.650000095367432
0.13,73.664794921875,24.59324073791504,12.258312225341797,0.7993874549865723,-5.462480545043945,4.130168437957764,-43.5,-16.5,8.700000762939453
0.14,72.32404327392578,25.244462966918945,13.560758590698242,8.526799201965332,-1.9984685182571411,0.7993874549865723,-43.05000305175781,-15.750000953674316,9.15000057220459
0.15,73.81802368164062,24.66985511779785,13.369222640991211,6.128636837005615,-3.9969370365142822,-0.6661561727523804,-43.5,-16.950000762939453,8.700000762939453
0.17,72.70711517333984,25.014619827270508,12.181697845458984,-3.9969370365142822,7.06125545501709,-8.793261528015137,-43.5,-16.950000762939453,8.700000762939453
0.173,72.63050079345703,24.24847412109375,12.373234748840332,3.197549819946289,-0.7993874549865723,6.395099639892578,-43.650001525878906,-17.850000381469727,8.550000190734863
0.18,73.0901870727539,24.210166931152344,13.062764167785645,4.396630764007568,1.0658499002456665,3.9969370365142822,-45.30000305175781,-16.200000762939453,7.650000095367432
0.19,73.47325897216797,24.05693817138672,12.986149787902832,-6.395099639892578,5.595712184906006,-2.531393527984619,-43.80000305175781,-16.950000762939453,8.40000057220459
0.2,73.7031021118164,25.28277015686035,12.411541938781738,-7.860642910003662,5.329249382019043,-11.324655532836914,-44.400001525878906,-15.90000057220459,9.300000190734863
0.21,73.58818054199219,24.171859741210938,13.139378547668457,1.5987749099731445,-1.8652373552322388,-2.797856092453003,-43.80000305175781,-16.200000762939453,7.950000286102295
0.229,72.86034393310547,25.09123420715332,11.60708999633789,0.6661561727523804,-2.6646246910095215,-1.0658499002456665,-43.80000305175781,-16.200000762939453,7.950000286102295
0.233,72.70711517333984,24.44001007080078,12.526463508605957,-4.529861927032471,-5.995405673980713,-0.1332312375307083,-44.70000076293945,-16.350000381469727,7.500000476837158
0.24,73.16680145263672,24.516624450683594,12.22000503540039,-7.860642910003662,7.9938740730285645,-3.3307809829711914,-43.80000305175781,-15.750000953674316,8.700000762939453
0.25,73.39664459228516,25.5892276763916,12.60307788848877,-1.5987749099731445,1.3323123455047607,-2.9310872554779053,-44.400001525878906,-15.90000057220459,9.0
0.26,72.97526550292969,24.05693817138672,13.560758590698242,-7.06125545501709,4.130168437957764,-7.860642910003662,-44.400001525878906,-16.80000114440918,8.550000190734863
0.27,71.8260498046875,23.788787841796875,12.7946138381958,-8.39356803894043,4.396630764007568,-6.395099639892578,-44.400001525878906,-16.80000114440918,8.550000190734863
0.289,73.81802368164062,23.52063751220703,11.492168426513672,0.0,0.6661561727523804,-0.1332312375307083,-45.45000076293945,-15.15000057220459,8.550000190734863
0.293,72.70711517333984,23.597251892089844,11.951854705810547,3.597243309020996,-6.261868000030518,4.529861927032471,-45.150001525878906,-16.350000381469727,7.800000190734863
0.3,73.28172302246094,23.52063751220703,12.564770698547363,-1.1990811824798584,5.462480545043945,-4.796324729919434,-44.25,-17.400001525878906,7.950000286102295
0.31,74.35432434082031,23.060951232910156,12.143390655517578,-5.595712184906006,1.8652373552322388,-3.597243309020996,-43.95000076293945,-15.15000057220459,8.550000190734863
0.32,73.32003021240234,24.59324073791504,11.990161895751953,3.3307809829711914,-0.6661561727523804,11.058192253112793,-43.95000076293945,-15.15000057220459,8.550000190734863
0.33,73.24341583251953,24.708162307739258,11.836933135986328,-0.9326186776161194,1.0658499002456665,-3.197549819946289,-44.25,-18.150001525878906,7.350000381469727
0.349,72.59219360351562,24.018630981445312,12.105083465576172,-4.130168437957764,0.5329249501228333,-6.395099639892578,-44.55000305175781,-16.200000762939453,8.40000057220459
0.352,73.7031021118164,24.210166931152344,12.411541938781738,-4.929555892944336,-6.794793128967285,-1.1990811824798584,-44.55000305175781,-16.5,8.40000057220459
0.36,72.24742889404297,24.554933547973633,12.181697845458984,-3.597243309020996,-4.796324729919434,-0.2664624750614166,-43.650001525878906,-16.80000114440918,7.050000190734863
0.37,72.97526550292969,25.167848587036133,12.756306648254395,-10.125574111938477,-1.1990811824798584,-7.327718257904053,-43.650001525878906,-16.80000114440918,7.050000190734863
0.38,72.20912170410156,23.02264404296875,12.02846908569336,-3.597243309020996,3.0643184185028076,-5.595712184906006,-43.5,-15.000000953674316,9.15000057220459
0.39,73.43495178222656,23.21417999267578,11.875240325927734,-0.6661561727523804,-1.5987749099731445,1.0658499002456665,-44.55000305175781,-17.400001525878906,8.700000762939453
0.409,73.51156616210938,24.631547927856445,12.641385078430176,-6.5283308029174805,10.525267601013184,-13.856048583984375,-45.0,-16.200000762939453,8.700000762939453
0.412,74.2777099609375,22.409727096557617,12.717999458312988,-0.2664624750614166,2.6646246910095215,-1.1990811824798584,-42.30000305175781,-16.5,7.650000095367432
0.42,74.92893981933594,23.558944702148438,12.526463508605957,-1.5987749099731445,-5.462480545043945,-0.9326186776161194,-42.30000305175781,-16.5,7.650000095367432
0.43,72.4006576538086,24.018630981445312,12.143390655517578,0.5329249501228333,-1.0658499002456665,4.663093090057373,-44.400001525878906,-16.350000381469727,9.0
0.44,72.82203674316406,23.060951232910156,11.683704376220703,-4.796324729919434,4.796324729919434,-5.196018218994141,-43.95000076293945,-16.80000114440918,7.050000190734863
0.45,72.74542236328125,24.746469497680664,12.02846908569336,-0.2664624750614166,-0.39969372749328613,-7.9938740730285645,-43.80000305175781,-17.400001525878906,9.15000057220459
0.469,71.97927856445312,24.78477668762207,12.60307788848877,2.531393527984619,-6.128636837005615,-1.1990811824798584,-44.25,-15.750000953674316,8.40000057220459
0.472,72.17081451416016,24.89969825744629,12.105083465576172,-3.597243309020996,8.260336875915527,-8.660030364990234,-44.25,-15.750000953674316,8.40000057220459
0.48,71.48128509521484,25.244462966918945,12.564770698547363,-5.062787055969238,4.663093090057373,-13.989279747009277,-45.150001525878906,-17.850000381469727,9.0
0.49,72.86034393310547,23.75048065185547,12.986149787902832,-2.797856092453003,-1.1990811824798584,-7.9938740730285645,-43.5,-16.950000762939453,7.350000381469727
0.5,73.47325897216797,23.52063751220703,13.522451400756836,-0.39969372749328613,3.0643184185028076,1.7320060729980469,-42.900001525878906,-15.90000057220459,9.300000190734863
0.51,73.58818054199219,22.984336853027344,12.90953540802002,-10.125574111938477,5.8621745109558105,-11.724349021911621,-43.95000076293945,-15.90000057220459,8.550000190734863
0.529,73.0518798828125,23.02264404296875,12.29662036895752,-7.9938740730285645,7.72741174697876,-12.25727367401123,-43.95000076293945,-15.90000057220459,8.550000190734863
0.532,73.43495178222656,22.639572143554688,13.139378547668457,-6.395099639892578,5.595712184906006,-4.929555892944336,-44.25,-16.950000762939453,7.950000286102295
0.54,73.24341583251953,23.060951232910156,13.10107135772705,-10.525267601013184,6.128636837005615,-5.462480545043945,-44.25,-15.450000762939453,9.15000057220459
0.55,73.6264877319336,23.63555908203125,13.139378547668457,-3.197549819946289,0.39969372749328613,0.39969372749328613,-44.400001525878906,-17.55000114440918,7.050000190734863
0.56,73.28172302246094,23.252487182617188,12.066776275634766,3.4640121459960938,0.39969372749328613,2.6646246910095215,-45.30000305175781,-16.200000762939453,9.450000762939453
0.57,71.67282104492188,24.66985511779785,12.526463508605957,6.395099639892578,-4.263399600982666,6.794793128967285,-45.30000305175781,-16.200000762939453,9.450000762939453
0.589,72.97526550292969,25.052927017211914,12.258312225341797,-4.396630764007568,7.327718257904053,-8.526799201965332,-45.150001525878906,-16.350000381469727,8.25
0.593,72.63050079345703,25.89568519592285,12.02846908569336,-2.398162364959717,-3.86370587348938,-5.728943347930908,-44.70000076293945,-16.350000381469727,7.800000190734863
0.6,73.20510864257812,25.39769172668457,11.875240325927734,0.7993874549865723,-2.531393527984619,5.062787055969238,-44.70000076293945,-16.350000381469727,7.800000190734863
0.61,72.17081451416016,25.665842056274414,12.066776275634766,-7.860642910003662,3.597243309020996,-5.595712184906006,-44.55000305175781,-15.750000953674316,8.700000762939453
0.62,72.13250732421875,24.095245361328125,12.105083465576172,-5.329249382019043,5.329249382019043,-1.7320060729980469,-44.55000305175781,-15.750000953674316,8.700000762939453
0.63,73.81802368164062,23.597251892089844,12.258312225341797,-1.0658499002456665,-2.9310872554779053,0.6661561727523804,-43.650001525878906,-17.55000114440918,8.550000190734863
0.649,73.664794921875,23.82709503173828,12.526463508605957,-0.1332312375307083,-3.197549819946289,5.595712184906006,-43.20000076293945,-16.80000114440918,8.550000190734863
0.653,72.74542236328125,23.63555908203125,13.292608261108398,-9.459418296813965,4.529861927032471,-7.460949420928955,-43.80000305175781,-15.450000762939453,8.40000057220459
0.66,73.6264877319336,22.448034286499023,13.024456977844238,-7.72741174697876,-2.6646246910095215,-4.263399600982666,-43.80000305175781,-15.450000762939453,8.40000057220459
0.67,72.32404327392578,22.792800903320312,12.90953540802002,-1.7320060729980469,-4.130168437957764,3.3307809829711914,-43.80000305175781,-15.450000762939453,8.40000057220459
0.68,73.16680145263672,22.677879333496094,12.105083465576172,-0.2664624750614166,7.06125545501709,-4.663093090057373,-44.25,-16.5,9.15000057220459
0.69,72.63050079345703,23.9420166015625,12.411541938781738,-6.9280242919921875,0.6661561727523804,-4.263399600982666,-45.45000076293945,-14.40000057220459,7.050000190734863
0.703,72.93695831298828,24.36339569091797,13.407529830932617,-5.995405673980713,3.197549819946289,-4.130168437957764,-42.45000076293945,-16.80000114440918,8.550000190734863
0.71,73.58818054199219,23.75048065185547,12.871228218078613,4.796324729919434,-1.1990811824798584,5.595712184906006,-42.45000076293945,-16.80000114440918,8.550000190734863
0.72,73.32003021240234,24.78477668762207,13.445837020874023,-1.7320060729980469,6.261868000030518,-6.128636837005615,-42.45000076293945,-16.80000114440918,8.550000190734863
0.73,73.32003021240234,25.244462966918945,12.986149787902832,-2.131699800491333,4.130168437957764,-6.9280242919921875,-42.45000076293945,-16.80000114440918,8.550000190734863
0.74,72.20912170410156,24.938005447387695,11.645397186279297,2.9310872554779053,1.0658499002456665,-2.9310872554779053,-43.650001525878906,-16.350000381469727,8.550000190734863
0.75,73.0135726928711,24.861391067504883,12.526463508605957,-8.793261528015137,3.9969370365142822,-8.793261528015137,-43.80000305175781,-16.950000762939453,8.700000762939453
0.765,73.0135726928711,23.13756561279297,13.062764167785645,-10.92496109008789,5.062787055969238,-12.390504837036133,-43.80000305175781,-16.5,7.950000286102295
0.77,73.97125244140625,23.3291015625,12.564770698547363,-1.7320060729980469,-6.128636837005615,-5.462480545043945,-43.80000305175781,-16.5,7.950000286102295
0.78,74.04786682128906,23.82709503173828,12.679692268371582,-3.7304747104644775,-0.7993874549865723,0.2664624750614166,-43.80000305175781,-16.5,7.950000286102295
0.79,73.35833740234375,23.099258422851562,12.449849128723145,-8.260336875915527,5.329249382019043,-7.06125545501709,-44.70000076293945,-15.600000381469727,9.0
1.056,74.00955963134766,24.478317260742188,13.560758590698242,-11.724349021911621,3.9969370365142822,-10.791729927062988,-43.80000305175781,-16.200000762939453,8.40000057220459
1.06,72.4772720336914,24.171859741210938,12.641385078430176,2.6646246910095215,-3.7304747104644775,-2.6646246910095215,-44.25,-16.950000762939453,7.950000286102295
1.067,72.43896484375,23.63555908203125,11.530475616455078,0.0,7.460949420928955,-11.724349021911621,-44.25,-16.950000762939453,7.950000286102295
1.077,73.74140930175781,24.861391067504883,11.836933135986328,0.2664624750614166,-3.3307809829711914,-0.9326186776161194,-43.20000076293945,-17.100000381469727,7.050000190734863
1.087,73.0518798828125,24.78477668762207,11.185709953308105,6.661561965942383,1.7320060729980469,-3.9969370365142822,-43.80000305175781,-15.000000953674316,6.900000095367432
1.097,72.86034393310547,23.02264404296875,12.29662036895752,-3.86370587348938,5.462480545043945,-10.92496109008789,-44.400001525878906,-15.90000057220459,8.25
1.107,73.89463806152344,23.82709503173828,13.177685737609863,1.9984685182571411,-3.3307809829711914,1.5987749099731445,-44.70000076293945,-16.80000114440918,9.0
1.126,73.81802368164062,24.24847412109375,12.258312225341797,-0.7993874549865723,2.2649309635162354,2.2649309635162354,-44.70000076293945,-16.80000114440918,9.0
1.13,73.58818054199219,22.48634147644043,12.679692268371582,-5.728943347930908,-0.1332312375307083,-5.8621745109558105,-43.80000305175781,-16.200000762939453,9.15000057220459
1.137,73.664794921875,23.21417999267578,12.756306648254395,-6.261868000030518,4.263399600982666,-2.9310872554779053,-43.05000305175781,-16.950000762939453,7.650000095367432
1.147,73.39664459228516,24.554933547973633,12.90953540802002,-2.797856092453003,1.9984685182571411,-4.130168437957764,-43.650001525878906,-16.350000381469727,9.0
1.157,72.82203674316406,24.746469497680664,12.29662036895752,4.396630764007568,-1.9984685182571411,5.8621745109558105,-43.5,-16.950000762939453,8.700000762939453
1.167,73.12849426269531,24.171859741210938,12.258312225341797,-8.660030364990234,6.661561965942383,-3.86370587348938,-43.5,-16.950000762939453,8.700000762939453
1.186,72.78372955322266,24.823083877563477,12.871228218078613,-0.2664624750614166,-1.3323123455047607,-3.197549819946289,-43.5,-16.950000762939453,8.700000762939453
1.19,72.28573608398438,24.66985511779785,12.526463508605957,-7.860642910003662,9.459418296813965,-4.130168437957764,-44.400001525878906,-15.600000381469727,8.550000190734863
1.197,72.20912170410156,25.014619827270508,11.798625946044922,-1.5987749099731445,3.86370587348938,-5.8621745109558105,-45.0,-15.750000953674316,9.15000057220459
1.207,73.32003021240234,24.36339569091797,13.024456977844238,-3.3307809829711914,7.9938740730285645,-1.8652373552322388,-42.900001525878906,-15.90000057220459,7.500000476837158
1.217,72.97526550292969,23.980323791503906,12.986149787902832,4.263399600982666,-1.4655436277389526,5.462480545043945,-42.900001525878906,-17.100000381469727,9.300000190734863
1.227,73.54987335205078,23.252487182617188,12.526463508605957,-3.7304747104644775,9.859111785888672,-2.131699800491333,-42.900001525878906,-17.100000381469727,9.300000190734863
1.247,74.00955963134766,23.060951232910156,13.713987350463867,4.929555892944336,-0.5329249501228333,5.329249382019043,-43.95000076293945,-16.350000381469727,7.800000190734863
1.251,74.08617401123047,22.792800903320312,12.60307788848877,-0.1332312375307083,-1.4655436277389526,-3.9969370365142822,-44.55000305175781,-16.950000762939453,7.950000286102295
1.257,73.43495178222656,22.677879333496094,12.181697845458984,0.2664624750614166,-1.5987749099731445,2.131699800491333,-43.650001525878906,-16.350000381469727,7.800000190734863
1.267,73.0135726928711,24.24847412109375,12.066776275634766,0.39969372749328613,5.728943347930908,-0.2664624750614166,-44.400001525878906,-16.350000381469727,9.0
1.277,73.43495178222656,24.24847412109375,12.373234748840332,-5.462480545043945,5.329249382019043,-1.1990811824798584,-44.400001525878906,-16.350000381469727,9.0
1.287,72.63050079345703,25.09123420715332,12.641385078430176,2.9310872554779053,-0.6661561727523804,0.6661561727523804,-44.400001525878906,-15.90000057220459,8.550000190734863
1.306,72.28573608398438,25.244462966918945,12.105083465576172,1.4655436277389526,-4.263399600982666,1.0658499002456665,-43.95000076293945,-15.600000381469727,9.75
1.31,73.74140930175781,23.9420166015625,12.947842597961426,-3.0643184185028076,-3.7304747104644775,0.0,-44.55000305175781,-15.000000953674316,7.950000286102295
1.317,73.12849426269531,24.325088500976562,12.143390655517578,-0.39969372749328613,-5.995405673980713,-2.131699800491333,-44.70000076293945,-17.100000381469727,9.300000190734863
1.327,74.2394027709961,24.24847412109375,12.105083465576172,-2.6646246910095215,-1.4655436277389526,-2.9310872554779053,-44.70000076293945,-17.100000381469727,9.300000190734863
1.337,74.54586791992188,23.82709503173828,12.90953540802002,-12.923430442810059,1.5987749099731445,-14.655436515808105,-45.30000305175781,-16.950000762939453,9.90000057220459
1.347,73.97125244140625,22.409727096557617,12.526463508605957,-0.9326186776161194,-1.3323123455047607,10.92496109008789,-43.80000305175781,-17.400001525878906,8.40000057220459
1.366,72.86034393310547,22.409727096557617,12.02846908569336,2.6646246910095215,0.7993874549865723,7.460949420928955,-43.650001525878906,-17.100000381469727,8.550000190734863
1.37,73.89463806152344,22.792800903320312,11.990161895751953,4.796324729919434,-4.663093090057373,4.263399600982666,-45.150001525878906,-16.80000114440918,9.0
1.377,73.12849426269531,23.099258422851562,11.760318756103516,-4.396630764007568,5.196018218994141,-2.797856092453003,-45.150001525878906,-16.80000114440918,9.0
1.387,73.0135726928711,22.90772247314453,11.990161895751953,5.062787055969238,-12.124042510986328,2.2649309635162354,-44.400001525878906,-16.80000114440918,9.0
1.397,73.47325897216797,23.903709411621094,12.526463508605957,1.4655436277389526,-8.260336875915527,2.2649309635162354,-42.900001525878906,-16.350000381469727,7.500000476837158
1.407,73.51156616210938,23.980323791503906,13.369222640991211,0.0,1.7320060729980469,-2.398162364959717,-43.5,-16.200000762939453,7.950000286102295
1.427,72.36235046386719,25.321077346801758,13.407529830932617,-3.3307809829711914,3.0643184185028076,-0.2664624750614166,-45.0,-15.750000953674316,10.200000762939453
1.431,73.39664459228516,24.554933547973633,12.258312225341797,-6.794793128967285,12.656967163085938,-3.7304747104644775,-45.0,-15.750000953674316,10.200000762939453
1.437,73.32003021240234,24.325088500976562,12.258312225341797,-3.9969370365142822,11.591117858886719,-11.990811347961426,-45.0,-15.450000762939453,8.40000057220459
1.447,73.54987335205078,24.24847412109375,12.679692268371582,-1.3323123455047607,4.529861927032471,1.1990811824798584,-44.25,-16.950000762939453,9.450000762939453
1.457,73.39664459228516,23.060951232910156,13.407529830932617,-2.797856092453003,-0.5329249501228333,-1.9984685182571411,-45.30000305175781,-16.950000762939453,8.700000762939453
1.467,73.0518798828125,22.83110809326172,12.526463508605957,-4.663093090057373,-6.9280242919921875,4.929555892944336,-43.95000076293945,-16.80000114440918,8.550000190734863
1.487,72.51557922363281,23.903709411621094,12.334927558898926,-8.526799201965332,1.0658499002456665,-3.86370587348938,-43.95000076293945,-16.80000114440918,8.550000190734863
1.49,73.0518798828125,23.63555908203125,11.91354751586914,-4.796324729919434,8.127105712890625,-3.86370587348938,-43.95000076293945,-16.350000381469727,7.500000476837158
1.497,72.78372955322266,23.13756561279297,11.72201156616211,7.327718257904053,-5.8621745109558105,10.392036437988281,-44.400001525878906,-16.350000381469727,10.050000190734863
1.507,73.12849426269531,23.712173461914062,11.03248119354248,-4.396630764007568,7.9938740730285645,-0.5329249501228333,-43.5,-16.950000762939453,8.700000762939453
1.517,73.85633087158203,23.712173461914062,12.066776275634766,-1.7320060729980469,10.258805274963379,-0.5329249501228333,-44.70000076293945,-15.90000057220459,7.800000190734863
1.527,73.58818054199219,24.325088500976562,12.373234748840332,6.794793128967285,-0.6661561727523804,1.4655436277389526,-44.70000076293945,-15.90000057220459,7.800000190734863
1.547,73.89463806152344,24.516624450683594,11.951854705810547,6.794793128967285,2.6646246910095215,-1.4655436277389526,-43.80000305175781,-16.200000762939453,9.450000762939453
1.551,72.4772720336914,24.823083877563477,12.105083465576172,5.062787055969238,-1.8652373552322388,-1.5987749099731445,-43.05000305175781,-17.700000762939453,7.950000286102295
1.557,72.28573608398438,23.865402221679688,13.292608261108398,-3.197549819946289,5.8621745109558105,-0.9326186776161194,-43.80000305175781,-16.200000762939453,7.350000381469727
1.567,72.09420013427734,23.597251892089844,11.492168426513672,0.9326186776161194,-6.794793128967285,-1.8652373552322388,-44.25,-16.5,7.950000286102295
1.577,72.32404327392578,23.82709503173828,12.373234748840332,-6.128636837005615,1.0658499002456665,-3.86370587348938,-44.25,-16.5,7.950000286102295
1.587,73.35833740234375,23.405715942382812,12.90953540802002,-7.594180583953857,2.9310872554779053,-5.462480545043945,-43.80000305175781,-15.750000953674316,8.40000057220459
1.607,72.4772720336914,23.63555908203125,12.90953540802002,2.531393527984619,-2.2649309635162354,-4.130168437957764,-44.400001525878906,-17.100000381469727,9.0
1.611,72.43896484375,22.677879333496094,12.60307788848877,-2.2649309635162354,6.128636837005615,-1.0658499002456665,-45.30000305175781,-15.000000953674316,7.650000095367432
1.617,73.47325897216797,22.562957763671875,13.292608261108398,4.263399600982666,3.86370587348938,-5.595712184906006,-45.150001525878906,-16.80000114440918,8.550000190734863
1.627,73.93294525146484,23.099258422851562,12.564770698547363,8.260336875915527,2.6646246910095215,2.531393527984619,-45.150001525878906,-16.80000114440918,8.550000190734863
1.637,74.08617401123047,23.099258422851562,12.181697845458984,11.324655532836914,5.595712184906006,1.1990811824798584,-44.55000305175781,-15.450000762939453,7.650000095367432
1.647,74.00955963134766,22.90772247314453,12.832921028137207,-0.39969372749328613,12.923430442810059,-17.719755172729492,-43.20000076293945,-15.90000057220459,8.25
1.667,74.12448120117188,22.06496238708496,12.564770698547363,9.459418296813965,9.192955017089844,-1.0658499002456665,-44.400001525878906,-16.80000114440918,8.550000190734863
1.67,74.16278839111328,22.792800903320312,12.986149787902832,7.9938740730285645,10.525267601013184,-3.4640121459960938,-43.20000076293945,-15.15000057220459,9.0
1.677,74.16278839111328,21.98834800720215,12.411541938781738,12.124042510986328,2.531393527984619,0.1332312375307083,-43.20000076293945,-15.15000057220459,9.0
1.687,73.97125244140625,22.524648666381836,12.181697845458984,1.3323123455047607,6.794793128967285,-3.197549819946289,-43.20000076293945,-15.15000057220459,9.0
1.697,73.85633087158203,23.02264404296875,11.645397186279297,-5.062787055969238,7.327718257904053,4.263399600982666,-45.900001525878906,-16.80000114440918,9.0
1.707,74.89063262939453,23.290794372558594,10.457873344421387,-0.2664624750614166,-2.531393527984619,1.8652373552322388,-44.55000305175781,-16.200000762939453,9.90000057220459
1.728,74.2777099609375,22.639572143554688,10.764330863952637,-9.72588062286377,8.660030364990234,-5.595712184906006,-43.80000305175781,-17.400001525878906,8.40000057220459
1.731,75.2737045288086,23.558944702148438,10.879252433776855,-13.056661605834961,7.327718257904053,-7.9938740730285645,-43.95000076293945,-16.80000114440918,9.0
1.737,72.97526550292969,24.095245361328125,10.342951774597168,-10.658498764038086,-3.597243309020996,-1.0658499002456665,-43.95000076293945,-16.80000114440918,9.0
1.747,72.66880798339844,24.66985511779785,10.304644584655762,-1.3323123455047607,-3.7304747104644775,-7.9938740730285645,-44.25,-16.950000762939453,9.450000762939453
1.757,72.89865112304688,24.018630981445312,8.580819129943848,-9.326186180114746,3.3307809829711914,-13.722817420959473,-43.5,-16.200000762939453,7.650000095367432
1.767,73.35833740234375,23.290794372558594,9.385271072387695,-9.326186180114746,5.728943347930908,-12.923430442810059,-44.70000076293945,-16.350000381469727,8.550000190734863
1.786,73.51156616210938,23.099258422851562,8.504204750061035,-1.1990811824798584,-4.929555892944336,-5.062787055969238,-42.45000076293945,-16.350000381469727,8.25
1.79,73.12849426269531,23.980323791503906,8.925583839416504,-6.128636837005615,-0.1332312375307083,-1.0658499002456665,-44.25,-16.5,8.40000057220459
1.797,74.08617401123047,24.286781311035156,9.040505409240723,-9.72588062286377,2.6646246910095215,-10.525267601013184,-44.25,-16.5,8.40000057220459
1.807,73.47325897216797,23.865402221679688,10.342951774597168,-7.327718257904053,-9.326186180114746,-5.462480545043945,-43.650001525878906,-16.350000381469727,8.25
1.817,72.36235046386719,23.980323791503906,9.806650161743164,-8.526799201965332,-2.797856092453003,0.0,-43.20000076293945,-16.80000114440918,9.0
1.827,69.9873046875,23.175872802734375,8.197746276855469,-12.656967163085938,-5.728943347930908,-22.782541275024414,-43.05000305175781,-16.5,9.450000762939453
1.847,70.44699096679688,24.095245361328125,9.84495735168457,-3.0643184185028076,-5.462480545043945,-17.453292846679688,-43.05000305175781,-16.5,9.450000762939453
1.852,70.44699096679688,23.82709503173828,9.576807022094727,4.529861927032471,-9.459418296813965,-10.92496109008789,-43.05000305175781,-15.000000953674316,6.600000381469727
1.858,72.97526550292969,25.5892276763916,8.427590370178223,9.059723854064941,-12.390504837036133,-5.8621745109558105,-43.05000305175781,-15.000000953674316,6.600000381469727
1.867,72.4006576538086,23.903709411621094,9.27034854888916,7.194486618041992,-4.396630764007568,-14.655436515808105,-44.55000305175781,-16.200000762939453,6.900000095367432
1.877,73.89463806152344,25.28277015686035,9.615114212036133,11.191424369812012,5.595712184906006,-11.457886695861816,-44.25,-15.750000953674316,7.950000286102295
1.887,74.58417510986328,23.252487182617188,11.070788383483887,11.191424369812012,-3.0643184185028076,-6.794793128967285,-44.25,-15.750000953674316,7.950000286102295
1.907,75.2737045288086,21.911733627319336,12.871228218078613,7.594180583953857,9.192955017089844,-17.986217498779297,-43.95000076293945,-15.600000381469727,7.050000190734863
1.91,73.85633087158203,20.494365692138672,11.492168426513672,13.722817420959473,-3.3307809829711914,-5.995405673980713,-45.0,-14.250000953674316,7.350000381469727
1.917,74.43093872070312,20.685903549194336,11.568782806396484,12.656967163085938,-3.3307809829711914,-5.196018218994141,-43.95000076293945,-17.850000381469727,7.500000476837158
1.927,74.46924591064453,19.766529083251953,11.492168426513672,-1.8652373552322388,2.398162364959717,-9.72588062286377,-43.95000076293945,-17.850000381469727,7.500000476837158
1.937,74.04786682128906,20.992361068725586,12.756306648254395,-9.059723854064941,-0.7993874549865723,-18.519142150878906,-43.95000076293945,-17.850000381469727,7.500000476837158
1.947,76.19307708740234,19.919757843017578,12.717999458312988,-15.188361167907715,2.398162364959717,-9.992342948913574,-42.900001525878906,-16.350000381469727,6.750000476837158
1.967,73.58818054199219,20.11129379272461,12.066776275634766,-18.652372360229492,0.0,-11.058192253112793,-44.400001525878906,-15.90000057220459,8.550000190734863
1.97,72.59219360351562,22.37141990661621,12.334927558898926,-17.053598403930664,5.995405673980713,-11.724349021911621,-45.150001525878906,-15.90000057220459,7.050000190734863
1.977,70.29376220703125,23.060951232910156,11.185709953308105,-15.987748146057129,8.793261528015137,-11.058192253112793,-45.150001525878906,-15.90000057220459,7.050000190734863
1.987,71.44297790527344,23.980323791503906,10.879252433776855,-2.6646246910095215,13.58958625793457,-5.728943347930908,-44.55000305175781,-15.750000953674316,7.650000095367432
1.997,72.24742889404297,26.393678665161133,10.802638053894043,-5.329249382019043,19.31852912902832,-10.258805274963379,-43.650001525878906,-15.90000057220459,8.550000190734863
2.007,72.01758575439453,27.044902801513672,10.84094524383545,-1.7320060729980469,18.78560447692871,-13.456355094909668,-43.95000076293945,-15.90000057220459,7.500000476837158
2.028,71.09821319580078,27.734432220458984,10.917559623718262,12.656967163085938,16.520673751831055,-10.125574111938477,-43.95000076293945,-16.350000381469727,6.300000190734863
2.032,70.5619125366211,28.61549949645996,10.036493301391602,-0.7993874549865723,26.64624786376953,-13.722817420959473,-43.95000076293945,-16.350000381469727,6.300000190734863
2.038,71.09821319580078,28.232425689697266,9.155426979064941,7.460949420928955,15.987748146057129,-11.724349021911621,-43.650001525878906,-16.350000381469727,8.25
2.047,72.24742889404297,28.73042106628418,10.228029251098633,-2.9310872554779053,24.64777946472168,-17.32006072998047,-45.30000305175781,-14.250000953674316,7.950000286102295
2.057,72.51557922363281,29.22841453552246,10.304644584655762,2.531393527984619,15.987748146057129,-16.387441635131836,-43.80000305175781,-15.000000953674316,7.650000095367432
2.067,71.1748275756836,28.002582550048828,10.72602367401123,-10.125574111938477,27.17917251586914,-18.519142150878906,-44.55000305175781,-15.000000953674316,7.350000381469727
2.087,70.98329162597656,28.577192306518555,10.496180534362793,-2.6646246910095215,23.715160369873047,-12.523736000061035,-44.55000305175781,-15.000000953674316,7.350000381469727
2.09,70.52360534667969,26.929981231689453,10.304644584655762,5.462480545043945,16.65390396118164,-13.722817420959473,-44.55000305175781,-14.550000190734863,7.950000286102295
2.097,69.91069030761719,26.891674041748047,9.806650161743164,4.396630764007568,13.856048583984375,-13.323123931884766,-44.400001525878906,-14.850000381469727,7.800000190734863
2.107,69.18285369873047,26.66183090209961,11.224017143249512,3.86370587348938,17.32006072998047,-5.728943347930908,-43.5,-13.500000953674316,9.450000762939453
2.117,70.52360534667969,26.470293045043945,12.449849128723145,7.460949420928955,4.663093090057373,3.0643184185028076,-46.05000305175781,-14.550000190734863,8.40000057220459
2.127,72.63050079345703,28.61549949645996,10.955866813659668,22.116384506225586,13.856048583984375,3.0643184185028076,-46.05000305175781,-14.550000190734863,8.40000057220459
2.147,73.32003021240234,30.454246520996094,8.159439086914062,20.517610549926758,21.316997528076172,4.130168437957764,-42.900001525878906,-15.90000057220459,9.300000190734863
2.151,72.36235046386719,29.53487205505371,8.695740699768066,32.24195861816406,28.511484146118164,3.7304747104644775,-43.80000305175781,-15.450000762939453,7.650000095367432
2.157,71.44297790527344,26.85336685180664,10.5344877243042,46.497703552246094,27.578866958618164,14.92189884185791,-43.5,-15.450000762939453,7.650000095367432
2.167,71.7877426147461,27.58120346069336,11.377246856689453,38.23736572265625,18.119447708129883,8.127105712890625,-45.0,-16.200000762939453,8.700000762939453
2.177,72.51557922363281,25.665842056274414,14.135366439819336,20.91730499267578,15.055130004882812,10.125574111938477,-45.0,-16.200000762939453,8.700000762939453
2.187,72.32404327392578,24.286781311035156,15.093047142028809,8.127105712890625,13.722817420959473,-1.5987749099731445,-44.25,-15.450000762939453,8.40000057220459
2.207,72.86034393310547,27.389667510986328,13.062764167785645,16.25421142578125,3.4640121459960938,8.127105712890625,-45.0,-14.550000190734863,9.15000057220459
2.21,72.63050079345703,28.309040069580078,13.024456977844238,29.31087303161621,5.462480545043945,4.929555892944336,-45.0,-17.700000762939453,9.15000057220459
2.217,72.20912170410156,30.760704040527344,12.02846908569336,30.90964698791504,13.989279747009277,-3.0643184185028076,-43.95000076293945,-15.90000057220459,9.300000190734863
2.227,71.59620666503906,29.03687858581543,12.60307788848877,48.76263427734375,7.860642910003662,6.261868000030518,-43.95000076293945,-15.90000057220459,9.300000190734863
2.237,70.29376220703125,29.34333610534668,12.449849128723145,53.026031494140625,12.523736000061035,-3.4640121459960938,-43.95000076293945,-15.90000057220459,9.300000190734863
2.247,68.1485595703125,28.309040069580078,12.258312225341797,31.176109313964844,25.7136287689209,-13.189892768859863,-46.20000076293945,-14.850000381469727,10.050000190734863
2.266,67.91871643066406,27.389667510986328,14.824896812438965,11.457886695861816,31.042879104614258,-20.251148223876953,-43.95000076293945,-15.600000381469727,9.300000190734863
2.27,68.95301055908203,26.470293045043945,16.1656494140625,-8.127105712890625,11.990811347961426,-35.03981399536133,-45.150001525878906,-17.55000114440918,10.050000190734863
2.277,68.53163146972656,26.66183090209961,17.583017349243164,-19.85145378112793,20.784072875976562,-31.575803756713867,-43.05000305175781,-16.200000762939453,8.40000057220459
2.287,69.83407592773438,27.925968170166016,18.693927764892578,-28.24502182006836,11.058192253112793,-21.183767318725586,-43.05000305175781,-16.200000762939453,8.40000057220459
2.297,71.213134765625,28.19411849975586,17.851167678833008,-22.382848739624023,-1.4655436277389526,-18.91883659362793,-46.20000076293945,-15.600000381469727,10.800000190734863
2.307,70.90667724609375,29.879636764526367,17.774553298950195,-20.117916107177734,4.663093090057373,-25.313934326171875,-44.25,-16.200000762939453,9.450000762939453
2.327,72.20912170410156,28.53888511657715,17.085023880004883,-28.644716262817383,13.456355094909668,-23.315465927124023,-45.30000305175781,-16.5,9.15000057220459
2.331,72.32404327392578,28.73042106628418,16.81687355041504,-25.580398559570312,25.313934326171875,-25.313934326171875,-44.55000305175781,-13.800000190734863,9.90000057220459
2.337,71.44297790527344,27.657817840576172,16.66364288330078,-24.64777946472168,25.7136287689209,-19.85145378112793,-44.55000305175781,-13.800000190734863,9.90000057220459
2.347,71.09821319580078,28.232425689697266,17.544710159301758,-42.633995056152344,42.36753463745117,-13.58958625793457,-45.150001525878906,-17.100000381469727,9.300000190734863
2.357,67.91871643066406,27.236438751220703,16.740259170532227,-41.035221099853516,38.37059783935547,-23.715160369873047,-44.400001525878906,-16.350000381469727,10.350000381469727
2.367,68.60824584960938,28.232425689697266,17.31486701965332,-35.839202880859375,36.905052185058594,-12.790199279785156,-45.30000305175781,-15.450000762939453,10.65000057220459
2.388,68.7231674194336,28.92195701599121,16.510414123535156,-33.30780792236328,39.03675079345703,-17.586523056030273,-44.400001525878906,-15.600000381469727,10.350000381469727
2.392,68.761474609375,29.573179244995117,14.633360862731934,-27.578866958618164,51.82695007324219,-4.396630764007568,-44.400001525878906,-15.600000381469727,10.350000381469727
2.397,68.91470336914062,28.998571395874023,14.97812557220459,-26.779478073120117,51.693721771240234,-7.06125545501709,-44.55000305175781,-15.750000953674316,12.450000762939453
2.407,68.95301055908203,28.92195701599121,14.326903343200684,-21.050535202026367,52.89280319213867,-2.398162364959717,-44.70000076293945,-14.850000381469727,12.300000190734863
2.417,67.99533081054688,30.91393280029297,13.407529830932617,-17.852985382080078,63.950992584228516,-1.9984685182571411,-45.900001525878906,-15.15000057220459,11.100000381469727
2.427,70.14053344726562,31.41192626953125,12.717999458312988,-11.058192253112793,69.28024291992188,-4.929555892944336,-44.400001525878906,-14.100000381469727,11.850000381469727
2.447,75.2737045288086,32.63775634765625,13.560758590698242,-1.5987749099731445,62.35221862792969,-2.6646246910095215,-44.400001525878906,-14.100000381469727,11.850000381469727
2.452,77.84028625488281,35.31926345825195,12.90953540802002,-28.24502182006836,77.54058074951172,-7.194486618041992,-44.25,-14.250000953674316,12.0
2.458,76.07815551757812,31.41192626953125,14.09705924987793,-32.64165496826172,56.62327575683594,-10.525267601013184,-44.25,-14.250000953674316,12.0
2.467,72.89865112304688,29.03687858581543,13.828908920288086,-52.3598747253418,59.68759536743164,-0.2664624750614166,-43.80000305175781,-14.550000190734863,12.750000953674316
2.477,69.3360824584961,27.27474594116211,14.058752059936523,-48.22970962524414,38.77029037475586,-13.056661605834961,-44.400001525878906,-15.15000057220459,13.050000190734863
2.487,67.68887329101562,25.972299575805664,12.373234748840332,-47.56355285644531,30.509952545166016,-9.992342948913574,-44.400001525878906,-15.15000057220459,13.050000190734863
2.507,65.46704864501953,25.435998916625977,11.109095573425293,-40.23583221435547,27.84532928466797,-6.128636837005615,-44.25,-15.450000762939453,13.950000762939453
2.511,65.73519897460938,24.861391067504883,10.457873344421387,-13.323123931884766,9.859111785888672,8.660030364990234,-44.55000305175781,-15.450000762939453,12.750000953674316
2.517,65.3138198852539,26.66183090209961,12.373234748840332,-1.7320060729980469,2.797856092453003,6.9280242919921875,-46.80000305175781,-14.550000190734863,13.950000762939453
2.527,65.19889831542969,28.155811309814453,12.7946138381958,3.197549819946289,3.4640121459960938,7.194486618041992,-43.95000076293945,-14.40000057220459,13.65000057220459
2.537,65.65858459472656,29.573179244995117,14.288596153259277,11.857580184936523,0.5329249501228333,6.661561965942383,-43.95000076293945,-14.40000057220459,13.65000057220459
2.547,66.69288635253906,32.178070068359375,14.556746482849121,17.986217498779297,-1.8652373552322388,3.197549819946289,-44.70000076293945,-15.600000381469727,13.65000057220459
2.567,69.45100402832031,34.3615837097168,13.599065780639648,3.9969370365142822,10.92496109008789,-12.656967163085938,-45.150001525878906,-15.15000057220459,14.850000381469727
2.57,71.02159881591797,35.05111312866211,16.127342224121094,0.0,-1.3323123455047607,1.0658499002456665,-45.900001525878906,-16.80000114440918,13.350000381469727
2.577,69.18285369873047,31.794998168945312,19.574993133544922,-9.326186180114746,-5.995405673980713,-5.595712184906006,-45.900001525878906,-16.80000114440918,13.350000381469727
2.587,68.60824584960938,30.224401473999023,20.877439498901367,-19.185298919677734,-10.658498764038086,-13.58958625793457,-45.900001525878906,-16.80000114440918,13.350000381469727
2.597,68.26348114013672,28.270732879638672,19.68991470336914,-43.03369140625,-5.196018218994141,-23.04900360107422,-46.80000305175781,-15.000000953674316,13.950000762939453
2.607,68.7231674194336,26.738445281982422,21.183897018432617,-54.89126968383789,-13.58958625793457,-18.119447708129883,-44.25,-15.000000953674316,13.500000953674316
2.627,69.87238311767578,26.508602142333984,19.80483627319336,-65.41653442382812,-19.185298919677734,-12.923430442810059,-45.30000305175781,-15.000000953674316,13.500000953674316
2.631,70.44699096679688,25.742456436157227,21.605276107788086,-70.61255645751953,-12.656967163085938,-16.78713607788086,-45.900001525878906,-15.15000057220459,13.350000381469727
2.637,71.74943542480469,26.278757095336914,18.923770904541016,-78.07350158691406,-3.197549819946289,-12.656967163085938,-45.900001525878906,-15.15000057220459,13.350000381469727
2.647,70.67683410644531,27.427974700927734,19.651607513427734,-64.48391723632812,7.860642910003662,-19.584991455078125,-44.55000305175781,-15.000000953674316,11.700000762939453
2.657,70.6002197265625,26.43198585510254,20.609289169311523,-43.03369140625,1.3323123455047607,6.5283308029174805,-45.0,-14.550000190734863,11.700000762939453
2.667,70.6385269165039,26.470293045043945,20.992361068725586,-44.36600112915039,13.323123931884766,7.327718257904053,-46.05000305175781,-14.550000190734863,11.700000762939453
2.687,71.48128509521484,28.155811309814453,20.30282974243164,-35.439510345458984,27.978559494018555,12.923430442810059,-45.30000305175781,-15.450000762939453,12.750000953674316
2.691,73.28172302246094,29.688100814819336,19.80483627319336,-31.575803756713867,32.64165496826172,23.581928253173828,-47.25,-14.550000190734863,12.750000953674316
2.697,71.67282104492188,29.803022384643555,19.345149993896484,-37.304744720458984,41.568145751953125,28.911178588867188,-47.25,-14.550000190734863,12.750000953674316
2.707,70.25545501708984,29.84132957458496,20.532672882080078,-36.10566711425781,46.364471435546875,34.373661041259766,-46.20000076293945,-14.850000381469727,12.600000381469727
2.717,68.56993865966797,31.22039031982422,20.800825119018555,-19.052066802978516,43.43338394165039,31.575803756713867,-45.75,-15.450000762939453,13.950000762939453
2.727,68.87639617919922,32.44622039794922,18.54069709777832,-20.91730499267578,42.23430252075195,40.635528564453125,-45.0,-16.200000762939453,13.500000953674316
2.747,70.75344848632812,34.66804122924805,17.353174209594727,-22.249616622924805,55.55742645263672,45.16539001464844,-45.0,-16.200000762939453,13.500000953674316
2.751,70.71514129638672,36.430171966552734,15.24627685546875,-20.251148223876953,67.41500854492188,36.771820068359375,-44.70000076293945,-14.100000381469727,13.050000190734863
2.757,70.21714782714844,36.88985824584961,14.824896812438965,-19.31852912902832,66.34915924072266,44.09954071044922,-44.70000076293945,-14.100000381469727,13.050000190734863
2.767,70.6002197265625,38.65199279785156,14.633360862731934,-33.57427215576172,82.86982727050781,41.30168533325195,-44.55000305175781,-17.400001525878906,13.500000953674316
2.777,72.24742889404297,37.54108428955078,15.361198425292969,-39.43644714355469,87.66615295410156,31.309341430664062,-45.45000076293945,-15.90000057220459,13.65000057220459
2.787,75.77169799804688,36.58340072631836,15.820884704589844,-34.24042892456055,76.74119567871094,33.84073257446289,-45.45000076293945,-15.90000057220459,13.65000057220459
2.807,79.83226013183594,35.74064254760742,15.399505615234375,-38.63705825805664,77.54058074951172,31.176109313964844,-45.45000076293945,-15.90000057220459,13.65000057220459
2.81,85.19527435302734,38.03907775878906,17.31486701965332,-42.633995056152344,58.62174606323242,37.83767318725586,-45.30000305175781,-16.5,16.5
2.817,90.44336700439453,41.41011428833008,23.290794372558594,-34.10719680786133,50.4946403503418,43.03369140625,-45.45000076293945,-16.350000381469727,13.65000057220459
2.827,93.50794219970703,41.60165023803711,27.351360321044922,-9.72588062286377,7.72741174697876,50.76110076904297,-45.150001525878906,-16.350000381469727,16.350000381469727
2.837,89.37075805664062,41.60165023803711,27.734432220458984,-10.125574111938477,-3.86370587348938,37.70444107055664,-45.150001525878906,-16.350000381469727,16.350000381469727
2.847,83.81621551513672,39.26490783691406,22.83110809326172,-13.456355094909668,-2.2649309635162354,33.17457962036133,-44.70000076293945,-17.100000381469727,14.40000057220459
2.867,77.49552154541016,37.46446990966797,18.23423957824707,-14.255742073059082,-4.396630764007568,24.64777946472168,-45.0,-17.700000762939453,14.700000762939453
2.87,72.13250732421875,35.089420318603516,14.250288963317871,-18.519142150878906,15.854516983032227,11.058192253112793,-44.25,-16.950000762939453,13.950000762939453
2.877,68.53163146972656,32.21637725830078,13.024456977844238,-18.91883659362793,31.176109313964844,3.3307809829711914,-45.0,-18.150001525878906,15.000000953674316
2.887,70.10222625732422,31.028854370117188,14.556746482849121,-10.125574111938477,33.17457962036133,7.06125545501709,-45.0,-18.150001525878906,15.000000953674316
2.897,72.59219360351562,30.186094284057617,13.369222640991211,-17.852985382080078,48.22970962524414,10.392036437988281,-45.45000076293945,-17.100000381469727,15.600000381469727
2.907,75.3503189086914,28.462270736694336,12.29662036895752,-33.84073257446289,63.81776428222656,-4.529861927032471,-45.0,-15.750000953674316,15.450000762939453
2.927,79.06611633300781,26.43198585510254,9.615114212036133,-51.29402542114258,73.27718353271484,0.7993874549865723,-46.05000305175781,-15.750000953674316,14.700000762939453
2.931,78.989501953125,22.103269577026367,6.167463779449463,-47.56355285644531,37.304744720458984,15.588054656982422,-44.70000076293945,-17.100000381469727,17.100000381469727
2.937,78.989501953125,20.992361068725586,9.730035781860352,-36.372127532958984,4.929555892944336,17.719755172729492,-44.70000076293945,-17.100000381469727,17.100000381469727
2.947,74.20109558105469,18.387468338012695,12.22000503540039,-25.447166442871094,-46.764163970947266,32.108726501464844,-46.650001525878906,-17.55000114440918,16.350000381469727
2.957,73.16680145263672,19.230228424072266,12.334927558898926,-16.65390396118164,-99.25727081298828,36.905052185058594,-45.45000076293945,-15.15000057220459,15.600000381469727
2.967,72.28573608398438,23.099258422851562,11.645397186279297,-17.453292846679688,-127.36906433105469,27.71209716796875,-44.70000076293945,-15.90000057220459,15.15000057220459
2.987,72.09420013427734,26.393678665161133,8.197746276855469,-18.385910034179688,-134.03062438964844,21.983154296875,-46.05000305175781,-18.150001525878906,15.750000953674316
2.99,69.56592559814453,30.530860900878906,6.780379295349121,2.2649309635162354,-140.82542419433594,6.9280242919921875,-46.05000305175781,-18.150001525878906,15.750000953674316
2.997,68.26348114013672,33.978511810302734,4.520252704620361,23.98162269592285,-145.48851013183594,4.529861927032471,-45.150001525878906,-17.100000381469727,13.65000057220459
3.007,67.68887329101562,33.288978576660156,1.647210717201233,39.9693717956543,-145.35528564453125,-7.72741174697876,-45.30000305175781,-18.150001525878906,12.450000762939453
3.017,67.03765106201172,32.21637725830078,-2.183511972427368,42.101070404052734,-141.0918731689453,-32.5084228515625,-46.05000305175781,-18.150001525878906,13.200000762939453
3.027,68.95301055908203,28.807035446166992,-5.631162166595459,54.89126968383789,-152.41653442382812,-35.705970764160156,-45.150001525878906,-15.90000057220459,12.300000190734863
3.047,70.6385269165039,28.002582550048828,-3.8307228088378906,71.67840576171875,-185.4578857421875,-43.30015182495117,-45.150001525878906,-15.90000057220459,12.300000190734863
3.051,74.92893981933594,27.427974700927734,-4.558559894561768,93.66156005859375,-234.8866729736328,-57.955589294433594,-45.900001525878906,-14.40000057220459,9.75
3.057,80.33025360107422,26.278757095336914,-2.911349296569824,90.19754791259766,-243.94639587402344,-64.75038146972656,-45.0,-15.450000762939453,8.700000762939453
3.067,80.21533203125,27.083209991455078,-0.9193734526634216,111.5145492553711,-277.1209716796875,-60.75344467163086,-44.70000076293945,-15.15000057220459,9.0
3.077,79.94718170166016,27.619510650634766,1.2258312702178955,130.69984436035156,-303.2342834472656,-60.35375213623047,-45.0,-13.800000190734863,6.900000095367432
3.087,78.49150848388672,24.13355255126953,10.036493301391602,136.16232299804688,-312.0275573730469,-68.4808578491211,-45.0,-13.800000190734863,6.900000095367432
3.107,77.57213592529297,19.881450653076172,15.131354331970215,138.96017456054688,-321.0872802734375,-77.54058074951172,-44.400001525878906,-14.100000381469727,5.700000286102295
3.11,77.1890640258789,16.35718536376953,19.766529083251953,146.68759155273438,-309.0964660644531,-72.47779083251953,-45.900001525878906,-12.90000057220459,3.750000238418579
3.117,80.40686798095703,17.8128604888916,21.298818588256836,139.49310302734375,-281.91729736328125,-64.3506851196289,-46.05000305175781,-11.850000381469727,2.8500001430511475
3.127,82.36053466796875,18.04270362854004,20.83913230895996,139.2266387939453,-246.07809448242188,-56.22358322143555,-43.95000076293945,-13.200000762939453,0.9000000357627869
3.137,89.7921371459961,20.187908172607422,20.11129379272461,151.48391723632812,-210.37213134765625,-31.709033966064453,-43.95000076293945,-13.200000762939453,0.9000000357627869
3.147,98.6028060913086,22.06496238708496,20.41775131225586,135.36293029785156,-168.27105712890625,-36.63859176635742,-45.45000076293945,-10.950000762939453,-0.45000001788139343
3.166,105.88117218017578,22.60126495361328,24.66985511779785,93.92802429199219,-137.76109313964844,-14.522205352783203,-43.95000076293945,-12.15000057220459,-1.9500000476837158
3.17,110.47804260253906,18.464082717895508,26.01060676574707,23.315465927124023,-134.16384887695312,-13.056661605834961,-43.20000076293945,-10.950000762939453,-2.25
3.177,107.29854583740234,16.28057098388672,22.946029663085938,-19.31852912902832,-143.75650024414062,-4.263399600982666,-42.900001525878906,-12.15000057220459,-3.450000047683716
3.187,100.55647277832031,16.89348793029785,20.724210739135742,-83.5359878540039,-152.949462890625,-10.791729927062988,-42.900001525878906,-12.15000057220459,-3.450000047683716
3.197,86.91909790039062,12.679692268371582,15.897499084472656,-95.26033782958984,-162.27565002441406,-19.98468589782715,-41.70000076293945,-10.5,-5.25
3.207,79.6407241821289,7.8529815673828125,12.22000503540039,-85.80091857910156,-170.4027557373047,-33.17457962036133,-42.0,-11.100000381469727,-6.150000095367432
3.227,73.74140930175781,6.167463779449463,8.08282470703125,-84.86830139160156,-166.00611877441406,-53.42572784423828,-43.5,-10.350000381469727,-6.600000381469727
3.231,70.44699096679688,9.576807022094727,5.5545477867126465,-89.66461944580078,-136.29556274414062,-53.558956146240234,-41.400001525878906,-9.75,-7.800000190734863
3.237,66.19488525390625,11.72201156616211,6.588842868804932,-78.47319793701172,-140.95864868164062,-38.90352249145508,-41.400001525878906,-9.75,-7.800000190734863
3.247,65.50535583496094,10.381258964538574,8.159439086914062,-74.07656860351562,-124.8376693725586,-44.23276901245117,-42.45000076293945,-10.200000762939453,-9.0
3.257,63.74322509765625,9.921571731567383,8.96389102935791,-55.29096221923828,-112.84685516357422,-50.09494400024414,-41.55000305175781,-8.40000057220459,-9.15000057220459
3.267,62.59400939941406,11.30063247680664,8.08282470703125,-27.045940399169922,-104.85298156738281,-39.569679260253906,-39.0,-7.200000286102295,-10.65000057220459
3.287,61.52140808105469,13.139378547668457,8.925583839416504,-8.526799201965332,-86.60030364990234,-34.773353576660156,-40.5,-9.600000381469727,-10.200000762939453
3.29,62.057708740234375,13.79060173034668,9.576807022094727,17.719755172729492,-59.95405578613281,-31.709033966064453,-40.5,-9.600000381469727,-10.200000762939453
3.297,59.68265914916992,16.81687355041504,9.078812599182129,25.447166442871094,-33.30780792236328,-34.10719680786133,-40.95000076293945,-7.800000190734863,-11.850000381469727
3.307,58.76328659057617,18.693927764892578,8.65743350982666,39.43644714355469,-7.194486618041992,-40.36906433105469,-41.55000305175781,-8.100000381469727,-12.750000953674316
3.317,57.920528411865234,18.579004287719727,11.60708999633789,16.25421142578125,15.055130004882812,-33.70750427246094,-40.20000076293945,-8.700000762939453,-13.350000381469727
3.327,57.0777702331543,20.226215362548828,13.10107135772705,-47.0306282043457,23.315465927124023,-50.4946403503418,-41.400001525878906,-7.050000190734863,-12.300000190734863
3.347,55.23902130126953,23.367408752441406,14.556746482849121,-119.37519073486328,24.64777946472168,-63.418067932128906,-41.400001525878906,-7.050000190734863,-12.300000190734863
3.351,54.51118469238281,26.700138092041016,12.679692268371582,-174.66615295410156,-0.1332312375307083,-83.26952362060547,-41.400001525878906,-7.050000190734863,-12.300000190734863
3.357,58.07375717163086,25.052927017211914,4.711789131164551,-152.016845703125,-13.856048583984375,-82.7365951538086,-40.05000305175781,-8.850000381469727,-10.950000762939453
3.367,60.065731048583984,22.103269577026367,-3.141192674636841,-121.50688934326172,-10.392036437988281,-92.99540710449219,-41.400001525878906,-6.750000476837158,-11.100000381469727
3.377,63.704917907714844,20.685903549194336,-11.338939666748047,-56.22358322143555,-16.520673751831055,-81.27105712890625,-41.70000076293945,-5.550000190734863,-12.600000381469727
3.387,65.9267349243164,21.796812057495117,-16.012420654296875,5.196018218994141,-14.655436515808105,-75.14241790771484,-39.900001525878906,-6.300000190734863,-13.050000190734863
3.407,66.69288635253906,21.835119247436523,-15.131354331970215,36.5053596496582,5.995405673980713,-40.102603912353516,-39.900001525878906,-6.300000190734863,-13.050000190734863
3.411,67.15257263183594,26.54690933227539,-11.568782806396484,40.502296447753906,9.859111785888672,-21.583459854125977,-40.5,-4.950000286102295,-11.700000762939453
3.417,66.19488525390625,29.64979362487793,-8.121131896972656,27.71209716796875,14.388973236083984,-17.586523056030273,-40.5,-5.700000286102295,-13.950000762939453
3.427,64.66259765625,30.530860900878906,-8.848969459533691,-23.448698043823242,21.716691970825195,-14.788667678833008,-40.05000305175781,-6.150000095367432,-12.450000762939453
3.437,65.00736236572266,31.067161560058594,-7.393294811248779,-69.14701080322266,16.520673751831055,-19.85145378112793,-38.70000076293945,-4.800000190734863,-12.300000190734863
3.447,65.54366302490234,32.599449157714844,-7.201758861541748,-96.99234008789062,0.2664624750614166,-25.313934326171875,-38.70000076293945,-4.800000190734863,-12.300000190734863
3.466,65.77350616455078,30.79901123046875,-9.346963882446289,-116.84379577636719,-5.8621745109558105,-5.196018218994141,-41.25,-4.5,-12.0
3.47,63.704917907714844,31.373619079589844,-11.836933135986328,-117.64318084716797,4.130168437957764,-15.188361167907715,-40.05000305175781,-5.400000095367432,-11.40000057220459
3.477,62.057708740234375,30.454246520996094,-14.326903343200684,-111.781005859375,12.790199279785156,-15.188361167907715,-41.400001525878906,-4.350000381469727,-12.300000190734863
3.487,62.32585906982422,31.83330535888672,-14.748282432556152,-88.99846649169922,11.990811347961426,2.6646246910095215,-39.75,-3.450000047683716,-11.700000762939453
3.497,62.670623779296875,31.948226928710938,-14.173673629760742,-61.01990509033203,19.052066802978516,-2.6646246910095215,-39.75,-3.450000047683716,-11.700000762939453
3.507,66.5013427734375,30.837318420410156,-14.441824913024902,-42.90045928955078,34.50688934326172,-7.06125545501709,-41.25,-3.750000238418579,-10.65000057220459
3.527,71.97927856445312,31.028854370117188,-14.709975242614746,-21.050535202026367,44.09954071044922,-0.7993874549865723,-40.80000305175781,-4.200000286102295,-10.200000762939453
3.531,77.30398559570312,30.415939331054688,-12.334927558898926,-0.5329249501228333,42.101070404052734,-1.3323123455047607,-39.75,-2.700000047683716,-9.90000057220459
3.537,82.0157699584961,35.0128059387207,-7.738059997558594,2.531393527984619,40.502296447753906,-3.3307809829711914,-39.75,-2.700000047683716,-9.90000057220459
3.547,80.75163269042969,38.15399932861328,-5.822698593139648,-14.788667678833008,43.30015182495117,-8.127105712890625,-39.75,-2.700000047683716,-9.90000057220459
3.557,78.52981567382812,42.48271560668945,-7.469909191131592,-40.102603912353516,31.44257164001465,-3.197549819946289,-40.95000076293945,-4.050000190734863,-10.350000381469727
3.567,75.73339080810547,45.20252990722656,-10.496180534362793,-86.20060729980469,18.119447708129883,-22.116384506225586,-41.70000076293945,-2.4000000953674316,-11.850000381469727
3.588,74.85232543945312,47.65419006347656,-14.901511192321777,-119.37519073486328,19.185298919677734,-36.5053596496582,-40.5,-3.750000238418579,-9.90000057220459
3.592,74.96724700927734,47.80741882324219,-21.26051139831543,-78.3399658203125,11.990811347961426,-28.24502182006836,-40.80000305175781,-4.200000286102295,-10.65000057220459
3.598,76.38461303710938,47.730804443359375,-26.66183090209961,-55.02450180053711,9.992342948913574,-18.652372360229492,-40.80000305175781,-4.200000286102295,-10.65000057220459
3.607,79.25765228271484,48.07556915283203,-23.13756561279297,-25.7136287689209,32.37519073486328,-17.053598403930664,-40.20000076293945,-3.1500000953674316,-10.350000381469727
3.617,93.23979187011719,48.343719482421875,-21.413740158081055,-5.329249382019043,42.101070404052734,-5.995405673980713,-40.650001525878906,-1.6500000953674316,-11.100000381469727
3.627,116.83704376220703,45.31745147705078,-16.433799743652344,15.854516983032227,42.36753463745117,14.255742073059082,-40.05000305175781,-1.8000000715255737,-9.90000057220459
3.647,123.65573120117188,46.54328155517578,-6.89530086517334,19.718223571777344,17.32006072998047,15.45482349395752,-40.05000305175781,-3.450000047683716,-9.15000057220459
3.651,103.39120483398438,41.25688552856445,-3.754108190536499,20.38437843322754,-8.660030364990234,1.3323123455047607,-41.25,-2.700000047683716,-9.15000057220459
3.657,66.30980682373047,33.7486686706543,-14.173673629760742,41.568145751953125,-10.258805274963379,4.929555892944336,-41.25,-2.700000047683716,-9.15000057220459
3.667,53.8216552734375,30.530860900878906,-9.768342971801758,72.0781021118164,-11.591117858886719,8.926492691040039,-40.20000076293945,-2.4000000953674316,-10.800000190734863
3.677,41.448421478271484,22.17988395690918,1.6855180263519287,116.44409942626953,8.39356803894043,7.9938740730285645,-42.30000305175781,-1.5,-9.15000057220459
3.687,35.47249221801758,16.05072784423828,10.41956615447998,169.33689880371094,25.580398559570312,24.381317138671875,-40.650001525878906,-1.350000023841858,-9.75
3.707,36.8132438659668,13.177685737609863,12.7946138381958,206.37518310546875,35.705970764160156,72.87748718261719,-40.650001525878906,-1.350000023841858,-9.75
3.711,46.42835998535156,15.054739952087402,10.649409294128418,191.18682861328125,66.61561584472656,96.99234008789062,-41.25,-3.450000047683716,-10.950000762939453
3.717,66.4630355834961,15.24627685546875,9.423578262329102,182.12710571289062,75.94180297851562,112.04747009277344,-40.650001525878906,-4.350000381469727,-9.300000190734863
3.727,75.42693328857422,13.599065780639648,7.738059997558594,158.67840576171875,100.45635223388672,124.57120513916016,-42.150001525878906,-7.800000190734863,-9.0
3.737,84.50574493408203,4.6734819412231445,-2.719813108444214,108.58345794677734,131.7657012939453,100.58958435058594,-42.150001525878906,-7.800000190734863,-9.0
3.747,87.64693450927734,2.298433542251587,-2.8347349166870117,28.911178588867188,138.42726135253906,76.20826721191406,-41.400001525878906,-7.500000476837158,-9.0
3.766,83.7396011352539,15.016432762145996,10.228029251098633,-43.56661605834961,102.72128295898438,82.07044219970703,-42.45000076293945,-6.750000476837158,-8.25
3.77,79.90887451171875,24.36339569091797,17.62132453918457,-89.39816284179688,59.68759536743164,90.33078002929688,-42.45000076293945,-7.800000190734863,-8.25
3.777,75.23539733886719,26.393678665161133,12.48815631866455,-106.18529510498047,46.09800720214844,77.80704498291016,-42.150001525878906,-7.500000476837158,-9.300000190734863
3.787,73.43495178222656,27.236438751220703,9.308655738830566,-120.04134368896484,46.497703552246094,60.35375213623047,-42.150001525878906,-7.500000476837158,-9.300000190734863
3.797,71.36636352539062,32.63775634765625,6.244078159332275,-99.25727081298828,43.96630859375,70.07962799072266,-42.45000076293945,-9.0,-7.800000190734863
3.807,69.22116088867188,35.85556411743164,6.01423454284668,-67.41500854492188,50.22817611694336,68.61408996582031,-43.80000305175781,-8.100000381469727,-7.650000095367432
3.827,68.56993865966797,38.15399932861328,3.907337188720703,-43.69984436035156,77.00765228271484,68.34762573242188,-42.45000076293945,-9.0,-7.800000190734863
3.83,66.80780792236328,41.41011428833008,2.298433542251587,-9.992342948913574,96.19295501708984,77.27411651611328,-41.400001525878906,-9.450000762939453,-6.750000476837158
3.837,63.475074768066406,41.86980056762695,5.094861030578613,13.456355094909668,95.52679443359375,85.26799011230469,-41.400001525878906,-9.450000762939453,-6.750000476837158
3.847,62.32585906982422,40.33750915527344,5.975927352905273,41.701377868652344,96.32618713378906,73.9433364868164,-41.400001525878906,-9.450000762939453,-6.750000476837158
3.857,60.02742385864258,36.8132438659668,8.274360656738281,87.9326171875,101.78866577148438,51.027565002441406,-42.150001525878906,-9.75,-4.950000286102295
3.867,60.60203170776367,36.123714447021484,6.3973069190979,128.43490600585938,96.59264373779297,49.69525146484375,-43.20000076293945,-10.950000762939453,-5.25
3.886,64.0113754272461,37.924156188964844,7.814674377441406,158.4119415283203,98.85757446289062,40.36906433105469,-44.55000305175781,-11.100000381469727,-5.850000381469727
3.89,70.0256118774414,39.533058166503906,8.465897560119629,178.39662170410156,98.19142150878906,21.983154296875,-43.5,-10.350000381469727,-3.9000000953674316
3.897,77.03583526611328,37.694313049316406,12.02846908569336,185.0581817626953,103.7871322631836,0.1332312375307083,-43.5,-10.350000381469727,-3.9000000953674316
3.907,78.49150848388672,39.533058166503906,12.717999458312988,188.78866577148438,94.19448852539062,4.263399600982666,-43.95000076293945,-10.950000762939453,-4.200000286102295
3.917,79.41088104248047,38.15399932861328,14.36521053314209,160.94332885742188,89.13169860839844,-16.920366287231445,-44.55000305175781,-12.300000190734863,-3.3000001907348633
3.927,79.37257385253906,34.3998908996582,12.641385078430176,140.42572021484375,98.72434997558594,-22.116384506225586,-43.650001525878906,-12.450000762939453,-1.9500000476837158
3.947,78.64473724365234,29.84132957458496,10.802638053894043,138.6937255859375,95.79325866699219,-37.4379768371582,-45.0,-11.550000190734863,-3.3000001907348633
3.952,77.763671875,25.28277015686035,10.304644584655762,129.50076293945312,86.20060729980469,-38.23736572265625,-45.0,-11.550000190734863,-3.3000001907348633
3.957,75.23539733886719,19.728221893310547,13.982137680053711,128.16845703125,75.40888214111328,-40.23583221435547,-45.45000076293945,-11.40000057220459,-1.6500000953674316
3.967,74.50755310058594,17.851167678833008,14.518439292907715,113.11331939697266,67.41500854492188,-44.36600112915039,-45.0,-11.850000381469727,-1.350000023841858
3.977,72.97526550292969,16.012420654296875,16.012420654296875,93.92802429199219,47.9632453918457,-36.905052185058594,-45.150001525878906,-10.950000762939453,-0.45000001788139343
3.987,71.05990600585938,15.629348754882812,15.85919189453125,70.47932434082031,33.70750427246094,-37.304744720458984,-45.900001525878906,-12.450000762939453,-0.45000001788139343
4.007,67.80379486083984,15.744270324707031,15.24627685546875,32.77488327026367,23.448698043823242,-46.231239318847656,-45.900001525878906,-12.450000762939453,-0.45000001788139343
4.011,67.61225891113281,16.625335693359375,15.897499084472656,9.859111785888672,5.329249382019043,-21.84992218017578,-46.20000076293945,-9.75,-0.9000000357627869
4.017,69.02962493896484,18.04270362854004,16.89348793029785,2.9310872554779053,2.2649309635162354,-15.854516983032227,-45.150001525878906,-11.40000057220459,1.2000000476837158
4.027,71.97927856445312,19.460071563720703,17.238252639770508,-20.117916107177734,-0.2664624750614166,-19.45176124572754,-45.45000076293945,-10.5,0.45000001788139343
4.037,74.58417510986328,19.958065032958984,17.889474868774414,-41.83460998535156,0.1332312375307083,-22.382848739624023,-45.0,-12.750000953674316,0.6000000238418579
4.047,76.03984832763672,21.45204734802246,18.579004287719727,-53.159263610839844,-7.860642910003662,-22.782541275024414,-45.0,-12.750000953674316,0.6000000238418579
4.066,76.19307708740234,22.7161865234375,18.4257755279541,-60.75344467163086,0.2664624750614166,-4.929555892944336,-46.05000305175781,-10.350000381469727,0.30000001192092896
4.07,76.26969146728516,23.82709503173828,17.468095779418945,-65.41653442382812,20.117916107177734,-19.45176124572754,-45.75,-11.550000190734863,-2.1000001430511475
4.077,75.15878295898438,23.597251892089844,16.931795120239258,-48.62940216064453,20.517610549926758,-5.995405673980713,-46.80000305175781,-10.800000190734863,0.6000000238418579
4.087,73.43495178222656,24.171859741210938,16.58702850341797,-46.63093185424805,32.24195861816406,-0.1332312375307083,-44.70000076293945,-12.450000762939453,-1.2000000476837158
4.097,69.9489974975586,23.980323791503906,14.97812557220459,-51.560489654541016,57.15620040893555,-9.859111785888672,-44.70000076293945,-12.450000762939453,-1.2000000476837158
4.107,67.38241577148438,23.558944702148438,14.939818382263184,-47.696781158447266,70.74578857421875,-11.457886695861816,-45.0,-10.800000190734863,0.30000001192092896
4.127,66.69288635253906,24.018630981445312,14.250288963317871,-44.76569747924805,84.20214080810547,-5.329249382019043,-45.150001525878906,-11.40000057220459,-0.45000001788139343
4.13,67.38241577148438,24.13355255126953,12.564770698547363,-25.846860885620117,98.85757446289062,5.728943347930908,-46.80000305175781,-9.15000057220459,0.30000001192092896
4.137,72.01758575439453,24.554933547973633,9.730035781860352,-21.45022964477539,113.91270446777344,6.261868000030518,-45.75,-9.600000381469727,1.0500000715255737
4.147,72.70711517333984,24.286781311035156,10.649409294128418,-10.658498764038086,111.38131713867188,12.790199279785156,-45.75,-9.600000381469727,1.0500000715255737
4.157,76.19307708740234,25.052927017211914,11.338939666748047,-9.859111785888672,119.5084228515625,19.98468589782715,-46.05000305175781,-10.800000190734863,1.8000000715255737
4.167,79.79395294189453,26.929981231689453,10.189722061157227,-17.32006072998047,134.83001708984375,15.987748146057129,-45.30000305175781,-11.100000381469727,2.8500001430511475
4.187,79.33426666259766,27.88766098022461,9.385271072387695,-29.31087303161621,141.22511291503906,13.989279747009277,-45.900001525878906,-9.75,3.750000238418579
4.191,78.91288757324219,28.117504119873047,7.240066051483154,-51.4272575378418,138.96017456054688,19.45176124572754,-46.80000305175781,-11.550000190734863,3.9000000953674316
4.197,76.5761489868164,29.879636764526367,-0.1149216815829277,-83.5359878540039,142.82388305664062,32.64165496826172,-46.80000305175781,-11.550000190734863,3.9000000953674316
4.207,73.16680145263672,31.335311889648438,-1.455674648284912,-130.83306884765625,146.28790283203125,15.721285820007324,-46.650001525878906,-11.700000762939453,4.5
4.217,70.21714782714844,29.726408004760742,5.094861030578613,-138.8269500732422,100.58958435058594,30.509952545166016,-46.95000076293945,-10.5,6.0
4.227,67.19087982177734,27.58120346069336,10.304644584655762,-122.70597076416016,38.77029037475586,11.191424369812012,-45.75,-10.050000190734863,5.850000381469727
4.247,67.26749420166016,26.31706428527832,12.02846908569336,-103.52066802978516,-14.655436515808105,-10.258805274963379,-46.95000076293945,-11.40000057220459,6.0
4.252,69.02962493896484,26.66183090209961,8.236053466796875,-66.74884796142578,-44.89892578125,-13.189892768859863,-46.95000076293945,-11.40000057220459,6.0
4.257,71.67282104492188,27.313053131103516,4.481945514678955,-48.49617004394531,-57.822357177734375,-19.185298919677734,-46.05000305175781,-11.100000381469727,6.150000095367432
4.267,71.28974914550781,26.815059661865234,7.048529624938965,-19.85145378112793,-66.34915924072266,6.128636837005615,-46.20000076293945,-10.200000762939453,6.0
4.277,75.04386138916016,26.85336685180664,10.5344877243042,-7.327718257904053,-59.287899017333984,2.797856092453003,-46.95000076293945,-11.40000057220459,4.5
4.287,74.92893981933594,28.61549949645996,13.637372970581055,4.396630764007568,-61.28636932373047,23.448698043823242,-45.0,-11.100000381469727,5.100000381469727
4.307,76.30799865722656,30.14778709411621,15.399505615234375,10.258805274963379,-63.950992584228516,21.050535202026367,-45.0,-11.100000381469727,5.100000381469727
4.311,74.89063262939453,29.53487205505371,17.00840950012207,13.456355094909668,-61.15313720703125,19.052066802978516,-46.650001525878906,-10.950000762939453,4.5
4.317,73.89463806152344,30.837318420410156,18.272546768188477,2.131699800491333,-47.696781158447266,16.920366287231445,-44.400001525878906,-11.700000762939453,4.5
4.327,72.59219360351562,31.948226928710938,17.889474868774414,-4.663093090057373,-52.093414306640625,24.64777946472168,-47.25,-11.100000381469727,2.8500001430511475
4.337,73.0135726928711,34.74465560913086,17.697938919067383,-9.859111785888672,-52.626338958740234,25.7136287689209,-46.5,-11.550000190734863,2.1000001430511475
4.347,75.15878295898438,34.24666213989258,18.693927764892578,-31.042879104614258,-39.30321502685547,5.196018218994141,-46.5,-11.550000190734863,2.1000001430511475
4.366,78.29997253417969,34.43819808959961,19.728221893310547,-20.91730499267578,-44.76569747924805,16.12097930908203,-46.5,-11.550000190734863,2.1000001430511475
4.37,79.21934509277344,35.5874137878418,20.41775131225586,-33.57427215576172,-32.64165496826172,1.4655436277389526,-44.25,-11.550000190734863,4.350000381469727
4.377,79.33426666259766,37.502777099609375,21.14558982849121,-38.63705825805664,-28.24502182006836,8.39356803894043,-45.900001525878906,-12.450000762939453,3.450000047683716
4.387,79.5641098022461,38.15399932861328,22.37141990661621,-35.57273864746094,-25.580398559570312,-7.460949420928955,-46.05000305175781,-10.800000190734863,2.5500001907348633
4.397,80.02379608154297,36.88985824584961,20.41775131225586,-25.313934326171875,-21.716691970825195,4.396630764007568,-45.30000305175781,-11.850000381469727,2.8500001430511475
4.407,80.7899398803711,35.54910659790039,19.80483627319336,-21.84992218017578,-13.722817420959473,0.5329249501228333,-45.30000305175781,-11.850000381469727,2.8500001430511475
4.427,78.10843658447266,34.09343338012695,17.544710159301758,-36.771820068359375,10.791729927062988,-9.192955017089844,-45.45000076293945,-11.700000762939453,3.750000238418579
4.43,77.26567840576172,31.488540649414062,15.361198425292969,-34.50688934326172,35.57273864746094,-5.595712184906006,-46.650001525878906,-13.65000057220459,2.25
4.437,75.04386138916016,28.19411849975586,15.093047142028809,-26.779478073120117,38.63705825805664,-2.6646246910095215,-46.650001525878906,-13.65000057220459,2.25
4.447,73.7031021118164,26.700138092041016,13.828908920288086,-22.116384506225586,53.159263610839844,-5.196018218994141,-45.30000305175781,-12.300000190734863,2.8500001430511475
4.457,70.94498443603516,22.37141990661621,10.72602367401123,-19.584991455078125,67.28177642822266,-2.797856092453003,-45.30000305175781,-12.300000190734863,2.8500001430511475
4.467,70.6385269165039,20.992361068725586,8.925583839416504,-26.246553421020508,79.13935852050781,-7.9938740730285645,-46.95000076293945,-12.15000057220459,2.700000047683716
4.487,69.29777526855469,17.161638259887695,-2.604891538619995,-55.69065856933594,118.8422622680664,-2.9310872554779053,-45.150001525878906,-11.700000762939453,4.200000286102295
4.491,70.17884063720703,13.943830490112305,-15.437812805175781,-146.28790283203125,132.43185424804688,-0.5329249501228333,-45.900001525878906,-12.15000057220459,5.25
4.497,74.92893981933594,17.889474868774414,-13.752294540405273,-176.26492309570312,84.60183715820312,10.92496109008789,-45.900001525878906,-12.15000057220459,5.25
4.507,78.52981567382812,23.21417999267578,-5.592854976654053,-167.0719757080078,-42.76722717285156,9.72588062286377,-45.900001525878906,-12.15000057220459,5.25
4.517,83.20330047607422,30.14778709411621,5.975927352905273,-97.65850067138672,-190.1209716796875,-12.124042510986328,-46.95000076293945,-13.200000762939453,6.0
4.527,81.36454772949219,27.198131561279297,-0.07661445438861847,-53.95865249633789,-253.80551147460938,-27.978559494018555,-46.20000076293945,-11.700000762939453,6.300000190734863
4.547,76.99752807617188,32.75267791748047,-11.03248119354248,-12.523736000061035,-264.9969177246094,-20.650842666625977,-46.5,-12.300000190734863,5.850000381469727
4.551,72.97526550292969,33.557132720947266,-12.449849128723145,43.16691970825195,-231.55589294433594,-14.522205352783203,-45.45000076293945,-11.700000762939453,2.700000047683716
4.557,69.06793212890625,27.46628189086914,-7.201758861541748,60.75344467163086,-211.0382843017578,-22.382848739624023,-45.45000076293945,-11.700000762939453,2.700000047683716
4.567,68.53163146972656,27.27474594116211,-6.01423454284668,85.93415069580078,-190.25421142578125,-24.248085021972656,-45.75,-11.550000190734863,0.30000001192092896
4.577,69.91069030761719,28.960264205932617,-3.485957622528076,86.60030364990234,-183.45941162109375,-33.4410400390625,-45.150001525878906,-10.5,0.9000000357627869
4.587,72.28573608398438,29.15180015563965,-2.3750481605529785,72.74425506591797,-187.3231201171875,-47.297088623046875,-45.900001525878906,-12.450000762939453,0.45000001788139343
4.607,74.6990966796875,30.186094284057617,-0.38307225704193115,74.74272155761719,-210.1056671142578,-68.08116149902344,-45.900001525878906,-12.450000762939453,-1.2000000476837158
4.611,79.6407241821289,27.27474594116211,-0.7661445140838623,84.86830139160156,-245.4119415283203,-65.016845703125,-45.0,-10.800000190734863,-2.1000001430511475
4.617,84.314208984375,24.823083877563477,1.723825216293335,73.81010437011719,-258.6018371582031,-74.8759536743164,-45.30000305175781,-10.350000381469727,-2.1000001430511475
4.627,86.57433319091797,22.754493713378906,2.3750481605529785,71.81163787841797,-264.9969177246094,-58.754974365234375,-43.80000305175781,-10.800000190734863,-5.100000381469727
4.637,88.18323516845703,20.685903549194336,5.20978307723999,73.14395141601562,-261.9326171875,-47.163856506347656,-42.45000076293945,-10.200000762939453,-3.750000238418579
4.647,90.55828857421875,17.8128604888916,6.205770969390869,80.20520782470703,-242.6140899658203,-40.502296447753906,-42.45000076293945,-10.200000762939453,-3.750000238418579
4.666,91.93734741210938,16.855180740356445,9.27034854888916,64.21745300292969,-220.36447143554688,-49.02909469604492,-43.05000305175781,-10.350000381469727,-6.900000095367432
4.67,93.62286376953125,19.574993133544922,12.679692268371582,15.45482349395752,-201.31239318847656,-41.967838287353516,-43.20000076293945,-8.25,-9.300000190734863
4.677,95.30838012695312,17.391481399536133,16.203956604003906,-18.78560447692871,-200.11331176757812,-26.513015747070312,-42.45000076293945,-9.450000762939453,-7.800000190734863
4.687,95.53822326660156,15.85919189453125,16.1656494140625,-58.4885139465332,-187.85604858398438,-44.36600112915039,-42.150001525878906,-8.700000762939453,-10.350000381469727
4.697,91.05628204345703,15.169661521911621,17.92778205871582,-86.73353576660156,-170.53598022460938,-45.03215789794922,-42.150001525878906,-8.700000762939453,-10.350000381469727
4.707,82.59038543701172,14.709975242614746,16.318878173828125,-80.73812866210938,-166.40582275390625,-30.90964698791504,-40.80000305175781,-9.15000057220459,-10.65000057220459
4.727,75.19709014892578,14.901511192321777,12.947842597961426,-67.814697265625,-144.1562042236328,-19.98468589782715,-40.80000305175781,-10.350000381469727,-11.40000057220459
4.731,68.53163146972656,15.437812805175781,8.848969459533691,-58.4885139465332,-86.0673828125,-21.84992218017578,-41.25,-8.40000057220459,-13.950000762939453
4.737,59.759273529052734,16.510414123535156,4.865017890930176,-70.74578857421875,-65.41653442382812,-11.990811347961426,-39.30000305175781,-9.15000057220459,-12.750000953674316
4.747,57.0777702331543,18.655620574951172,3.2178070545196533,-79.9387435913086,-49.69525146484375,-7.72741174697876,-39.30000305175781,-9.15000057220459,-12.750000953674316
4.757,56.92454147338867,22.333112716674805,3.869029998779297,-86.0673828125,-58.888206481933594,-11.990811347961426,-40.95000076293945,-6.750000476837158,-14.850000381469727
4.767,57.499149322509766,25.167848587036133,3.4093432426452637,-88.99846649169922,-71.01225280761719,-20.251148223876953,-40.05000305175781,-9.15000057220459,-15.000000953674316
4.786,60.7935676574707,27.77273941040039,0.5746083855628967,-80.47166442871094,-78.60643005371094,-9.192955017089844,-39.900001525878906,-8.700000762939453,-14.100000381469727
4.79,63.93476104736328,29.075185775756836,-3.179499864578247,-75.67534637451172,-65.949462890625,-22.649311065673828,-40.5,-9.15000057220459,-15.450000762939453
4.797,66.5013427734375,28.92195701599121,-4.596867084503174,-72.87748718261719,-48.8958625793457,-26.246553421020508,-40.5,-9.15000057220459,-15.450000762939453
4.807,68.49332427978516,29.075185775756836,-4.941632270812988,-63.151607513427734,-47.830013275146484,-39.569679260253906,-39.900001525878906,-9.450000762939453,-15.600000381469727
4.817,67.91871643066406,28.768728256225586,-2.911349296569824,-55.82388687133789,-40.102603912353516,-30.90964698791504,-39.30000305175781,-8.100000381469727,-13.500000953674316
4.827,68.49332427978516,25.933992385864258,-2.145204782485962,-57.02296829223633,-28.378253936767578,-36.238895416259766,-39.75,-8.40000057220459,-16.80000114440918
4.847,67.72718048095703,21.56696891784668,-1.3407529592514038,-37.4379768371582,-12.656967163085938,-42.36753463745117,-38.70000076293945,-7.500000476837158,-15.600000381469727
4.852,64.85413360595703,15.169661521911621,-2.1068975925445557,10.92496109008789,-4.130168437957764,-35.705970764160156,-38.70000076293945,-7.500000476837158,-15.600000381469727
4.858,60.831878662109375,8.734047889709473,-1.8770540952682495,27.445634841918945,-4.663093090057373,-25.447166442871094,-40.05000305175781,-7.200000286102295,-15.450000762939453
4.867,58.724979400634766,6.818686485290527,-1.1875240802764893,40.36906433105469,7.460949420928955,-20.784072875976562,-39.30000305175781,-6.900000095367432,-15.750000953674316
4.877,56.120086669921875,5.439626216888428,-1.1875240802764893,40.76875686645508,13.456355094909668,-5.995405673980713,-37.80000305175781,-6.900000095367432,-17.25
4.887,54.93256378173828,5.094861030578613,0.19153612852096558,53.82542037963867,2.398162364959717,7.327718257904053,-39.0,-8.100000381469727,-15.750000953674316
4.907,55.085792541503906,5.937620162963867,0.4213795065879822,37.97090148925781,7.9938740730285645,-1.1990811824798584,-39.0,-8.100000381469727,-15.750000953674316
4.911,53.70673370361328,10.994174003601074,-1.1875240802764893,27.17917251586914,-7.327718257904053,31.575803756713867,-39.0,-8.100000381469727,-15.750000953674316
4.917,57.614070892333984,17.42978858947754,-2.719813108444214,12.124042510986328,-12.390504837036133,39.70290756225586,-39.900001525878906,-7.050000190734863,-15.15000057220459
4.927,59.146358489990234,21.0689754486084,-2.719813108444214,22.915773391723633,-5.196018218994141,49.42878723144531,-38.70000076293945,-9.450000762939453,-15.600000381469727
4.937,60.7552604675293,27.427974700927734,-3.179499864578247,31.975496292114258,3.3307809829711914,65.54976654052734,-38.70000076293945,-7.500000476837158,-16.650001525878906
4.947,60.21895980834961,31.565155029296875,-1.4939818382263184,45.03215789794922,6.5283308029174805,55.95711898803711,-40.5,-7.200000286102295,-15.450000762939453
4.966,59.5294303894043,35.43418502807617,-0.7661445140838623,49.69525146484375,3.0643184185028076,63.418067932128906,-40.5,-7.200000286102295,-15.450000762939453
4.97,54.894256591796875,36.8132438659668,-0.5746083855628967,13.58958625793457,8.793261528015137,57.822357177734375,-40.05000305175781,-9.15000057220459,-16.80000114440918
4.977,49.68447494506836,37.54108428955078,-5.592854976654053,-17.32006072998047,21.183767318725586,42.633995056152344,-40.95000076293945,-9.450000762939453,-15.600000381469727
4.987,47.99895477294922,34.3998908996582,-8.465897560119629,-51.29402542114258,12.923430442810059,23.448698043823242,-41.25,-10.050000190734863,-15.450000762939453
4.997,46.0452880859375,31.067161560058594,-8.695740699768066,-71.81163787841797,20.784072875976562,7.06125545501709,-39.0,-10.350000381469727,-16.05000114440918
5.007,43.51700973510742,28.19411849975586,-12.411541938781738,-80.47166442871094,38.77029037475586,-17.719755172729492,-39.0,-10.350000381469727,-16.05000114440918
5.027,43.55531692504883,24.59324073791504,-15.054739952087402,-58.62174606323242,55.4241943359375,-39.30321502685547,-40.80000305175781,-8.40000057220459,-15.750000953674316
5.03,47.04127502441406,24.746469497680664,-15.85919189453125,-34.50688934326172,76.20826721191406,-29.577335357666016,-38.70000076293945,-7.800000190734863,-14.40000057220459
5.037,55.46886444091797,25.435998916625977,-12.679692268371582,-31.309341430664062,86.73353576660156,-30.776416778564453,-40.05000305175781,-8.100000381469727,-16.05000114440918
5.047,59.644351959228516,24.018630981445312,-12.143390655517578,-26.912710189819336,75.00918579101562,-15.055130004882812,-38.70000076293945,-9.0,-14.100000381469727
5.057,61.90447998046875,22.256498336791992,-11.91354751586914,-23.04900360107422,80.73812866210938,-16.78713607788086,-38.70000076293945,-9.0,-14.100000381469727
5.067,61.023414611816406,21.337125778198242,-9.615114212036133,-34.373661041259766,78.3399658203125,-18.385910034179688,-40.05000305175781,-8.100000381469727,-13.500000953674316
5.087,57.192691802978516,20.800825119018555,-8.08282470703125,-32.77488327026367,69.94640350341797,-15.854516983032227,-40.650001525878906,-10.200000762939453,-12.600000381469727
5.09,52.25105667114258,20.724210739135742,-3.9456443786621094,-11.591117858886719,63.018375396728516,-16.12097930908203,-39.75,-7.200000286102295,-14.250000953674316
5.097,50.71876907348633,21.6818904876709,-5.018246650695801,13.722817420959473,60.08728790283203,0.9326186776161194,-41.55000305175781,-8.40000057220459,-12.0
5.107,53.668426513671875,23.175872802734375,-5.899312973022461,45.831546783447266,71.2787094116211,-6.395099639892578,-41.55000305175781,-8.40000057220459,-12.0
5.117,57.920528411865234,24.13355255126953,-10.228029251098633,78.60643005371094,63.28483963012695,3.0643184185028076,-42.0,-7.650000095367432,-12.450000762939453
5.127,65.2755126953125,24.095245361328125,-15.591041564941406,103.38744354248047,40.502296447753906,23.581928253173828,-39.900001525878906,-7.050000190734863,-13.050000190734863
5.147,73.74140930175781,23.558944702148438,-21.605276107788086,94.9938735961914,44.09954071044922,16.520673751831055,-40.80000305175781,-6.450000286102295,-11.700000762939453
5.151,84.62066650390625,20.915746688842773,-28.423961639404297,82.86982727050781,64.3506851196289,1.1990811824798584,-40.650001525878906,-7.800000190734863,-10.800000190734863
5.157,101.28430938720703,23.367408752441406,-27.27474594116211,73.0107192993164,81.00459289550781,-24.248085021972656,-40.650001525878906,-7.800000190734863,-10.800000190734863
5.167,105.3448715209961,28.692113876342773,-20.532672882080078,77.14088439941406,74.07656860351562,1.9984685182571411,-41.70000076293945,-7.050000190734863,-10.050000190734863
5.177,103.16136169433594,33.48051834106445,-13.139378547668457,47.0306282043457,73.14395141601562,-0.1332312375307083,-39.75,-8.40000057220459,-10.200000762939453
5.187,95.42330169677734,31.680076599121094,-9.691728591918945,0.9326186776161194,65.81623077392578,-8.260336875915527,-39.30000305175781,-9.15000057220459,-10.200000762939453
5.207,84.23759460449219,27.121517181396484,-8.35097599029541,-21.316997528076172,43.43338394165039,-9.72588062286377,-42.30000305175781,-8.850000381469727,-9.450000762939453
5.211,76.72937774658203,28.807035446166992,-9.040505409240723,-38.63705825805664,33.57427215576172,-18.119447708129883,-42.30000305175781,-8.850000381469727,-9.450000762939453
5.217,69.75746154785156,34.51481246948242,-6.933608055114746,-25.580398559570312,26.513015747070312,-12.390504837036133,-41.70000076293945,-7.050000190734863,-8.25
5.227,66.61626434326172,35.35757064819336,-6.3973069190979,9.72588062286377,26.513015747070312,-6.261868000030518,-41.70000076293945,-7.050000190734863,-8.550000190734863
5.237,63.168617248535156,35.5874137878418,-9.27034854888916,45.56508255004883,33.17457962036133,0.7993874549865723,-40.95000076293945,-8.25,-8.550000190734863
5.247,59.68265914916992,32.75267791748047,-11.760318756103516,67.14854431152344,63.551300048828125,9.059723854064941,-40.80000305175781,-7.200000286102295,-8.700000762939453
5.266,57.46084213256836,29.917943954467773,-12.90953540802002,99.79019927978516,75.14241790771484,15.721285820007324,-40.80000305175781,-7.200000286102295,-8.700000762939453
5.27,57.34592056274414,25.627534866333008,-12.411541938781738,135.4961700439453,94.72740936279297,23.04900360107422,-41.400001525878906,-6.750000476837158,-7.800000190734863
5.277,62.670623779296875,22.639572143554688,-11.492168426513672,161.47625732421875,94.59417724609375,19.185298919677734,-41.25,-7.650000095367432,-6.900000095367432
5.287,67.5739517211914,20.83913230895996,-10.457873344421387,164.4073486328125,108.3169937133789,11.191424369812012,-41.400001525878906,-7.800000190734863,-6.750000476837158
5.297,73.58818054199219,19.268535614013672,-10.649409294128418,155.21438598632812,112.31393432617188,20.650842666625977,-41.25,-6.900000095367432,-8.40000057220459
5.307,77.763671875,19.268535614013672,-9.615114212036133,129.36753845214844,101.9218978881836,23.04900360107422,-41.25,-6.900000095367432,-8.40000057220459
5.327,79.52580261230469,22.333112716674805,-11.30063247680664,76.20826721191406,92.86217498779297,21.316997528076172,-43.80000305175781,-7.200000286102295,-4.650000095367432
5.331,80.56009674072266,22.48634147644043,-13.982137680053711,-13.189892768859863,68.74732208251953,-5.595712184906006,-42.45000076293945,-8.700000762939453,-6.0
5.337,86.22956848144531,21.0689754486084,-22.103269577026367,-75.94180297851562,59.55436325073242,-2.2649309635162354,-42.45000076293945,-8.700000762939453,-6.0
5.347,90.09859466552734,22.946029663085938,-25.550920486450195,-179.72894287109375,78.3399658203125,-49.69525146484375,-42.45000076293945,-9.450000762939453,-4.950000286102295
5.357,99.2923355102539,31.067161560058594,-26.048913955688477,-238.75038146972656,79.13935852050781,-4.796324729919434,-42.45000076293945,-9.450000762939453,-4.950000286102295
5.367,108.869140625,41.14196014404297,-19.345149993896484,-251.14088439941406,81.00459289550781,-31.975496292114258,-42.0,-8.40000057220459,-4.350000381469727
5.388,110.63127136230469,41.29519271850586,-4.865017890930176,-214.50228881835938,28.644716262817383,48.8958625793457,-42.45000076293945,-7.500000476837158,-3.450000047683716
5.392,104.96179962158203,37.043087005615234,8.848969459533691,-135.76263427734375,-81.67074584960938,-39.9693717956543,-43.80000305175781,-6.450000286102295,-2.8500001430511475
5.397,87.76185607910156,29.611486434936523,15.744270324707031,-119.64165496826172,-96.19295501708984,-28.644716262817383,-43.80000305175781,-6.450000286102295,-2.8500001430511475
5.407,82.13069152832031,28.38565444946289,10.955866813659668,-123.10566711425781,-101.2557373046875,-52.226646423339844,-43.80000305175781,-6.450000286102295,-2.8500001430511475
5.417,73.20510864257812,29.305028915405273,1.2641384601593018,-153.0826873779297,-67.14854431152344,-49.82848358154297,-41.400001525878906,-5.850000381469727,-4.200000286102295
5.427,84.77389526367188,34.66804122924805,-1.7621324062347412,-204.7764129638672,-21.84992218017578,-51.960182189941406,-42.30000305175781,-4.200000286102295,-3.3000001907348633
5.447,112.81478118896484,47.2711181640625,-11.72201156616211,-363.7212829589844,30.37672233581543,-64.3506851196289,-40.80000305175781,-3.750000238418579,-3.6000001430511475
5.452,144.9545440673828,62.90046691894531,-34.85957717895508,-290.1776428222656,-104.5865249633789,-70.21286010742188,-43.05000305175781,-1.8000000715255737,-3.9000000953674316
5.458,116.0708999633789,61.866172790527344,60.71695327758789,-124.17151641845703,-187.3231201171875,-51.29402542114258,-43.05000305175781,-1.8000000715255737,-3.9000000953674316
5.467,91.40104675292969,52.25105667114258,46.0452880859375,57.422664642333984,-212.23736572265625,-27.17917251586914,-43.05000305175781,-1.8000000715255737,-3.9000000953674316
5.477,68.87639617919922,42.7508659362793,14.556746482849121,140.5589599609375,-171.06890869140625,11.990811347961426,-42.30000305175781,-2.25,-4.350000381469727
5.487,50.25908279418945,33.7486686706543,-1.6089035272598267,237.95098876953125,-91.66309356689453,10.92496109008789,-41.400001525878906,-2.1000001430511475,-4.5
5.507,43.900081634521484,21.911733627319336,-7.623138427734375,325.7503662109375,5.595712184906006,8.526799201965332,-39.900001525878906,-3.1500000953674316,-7.050000190734863
5.511,51.29337692260742,28.92195701599121,-4.443638324737549,428.8713684082031,96.8591079711914,27.17917251586914,-39.900001525878906,-3.1500000953674316,-7.050000190734863
5.517,70.90667724609375,36.66001510620117,7.163451671600342,449.12249755859375,132.56507873535156,34.64012145996094,-40.5,-3.1500000953674316,-7.050000190734863
5.527,77.7253646850586,39.035064697265625,9.691728591918945,445.6584777832031,177.33078002929688,58.222049713134766,-42.45000076293945,-4.350000381469727,-6.750000476837158
5.537,87.11063385009766,43.05732345581055,14.786589622497559,385.97088623046875,198.9142303466797,64.084228515625,-41.400001525878906,-5.550000190734863,-7.050000190734863
5.547,96.53421020507812,45.04929733276367,17.73624610900879,296.7059631347656,196.915771484375,72.61102294921875,-43.95000076293945,-5.850000381469727,-4.200000286102295
5.568,99.13910675048828,44.93437576293945,20.570980072021484,171.06890869140625,185.5911102294922,64.61714935302734,-43.95000076293945,-5.850000381469727,-4.200000286102295
5.571,96.72574615478516,40.33750915527344,22.562957763671875,-15.987748146057129,150.2848358154297,49.69525146484375,-42.45000076293945,-6.750000476837158,-3.450000047683716
5.577,76.65276336669922,25.244462966918945,12.90953540802002,-51.693721771240234,130.30015563964844,31.309341430664062,-42.150001525878906,-8.700000762939453,-4.200000286102295
5.587,69.29777526855469,17.12333106994629,9.155426979064941,-37.17151641845703,99.79019927978516,23.581928253173828,-42.75,-8.100000381469727,-3.6000001430511475
5.597,62.785545349121094,4.8267107009887695,0.38307225704193115,1.0658499002456665,82.47013854980469,8.793261528015137,-43.05000305175781,-8.100000381469727,-1.350000023841858
5.607,59.41450881958008,2.4133553504943848,-7.1251444816589355,47.56355285644531,64.88361358642578,6.661561965942383,-43.05000305175781,-8.100000381469727,-1.350000023841858
5.627,60.21895980834961,4.711789131164551,-9.423578262329102,89.66461944580078,50.62786865234375,21.316997528076172,-42.900001525878906,-7.050000190734863,-0.9000000357627869
5.631,59.68265914916992,12.564770698547363,-7.546523571014404,126.43644714355469,60.48698043823242,22.116384506225586,-44.400001525878906,-10.5,-1.2000000476837158
5.637,62.74723815917969,21.6818904876709,-4.8267107009887695,126.96936798095703,65.81623077392578,24.381317138671875,-43.5,-9.15000057220459,-0.30000001192092896
5.647,64.16460418701172,26.776752471923828,-2.6431987285614014,85.53445434570312,66.08269500732422,32.5084228515625,-42.0,-8.40000057220459,-0.30000001192092896
5.657,67.68887329101562,31.83330535888672,3.6391866207122803,21.983154296875,56.889739990234375,16.520673751831055,-42.0,-8.40000057220459,-0.30000001192092896
5.667,69.9489974975586,35.85556411743164,7.508216381072998,-49.42878723144531,57.822357177734375,-9.326186180114746,-43.5,-8.850000381469727,-0.6000000238418579
5.687,70.5619125366211,40.60565948486328,9.27034854888916,-107.25114440917969,53.159263610839844,-8.260336875915527,-43.5,-9.600000381469727,1.0500000715255737
5.691,69.75746154785156,40.91211700439453,7.814674377441406,-144.42266845703125,30.643184661865234,-17.32006072998047,-44.400001525878906,-9.450000762939453,0.15000000596046448
5.697,70.10222625732422,32.52283477783203,0.38307225704193115,-152.81622314453125,30.643184661865234,-19.584991455078125,-44.25,-10.050000190734863,0.0
5.707,70.98329162597656,29.84132957458496,-3.44765043258667,-158.0122528076172,31.309341430664062,-37.83767318725586,-44.25,-10.050000190734863,0.0
5.717,70.0256118774414,24.44001007080078,-8.197746276855469,-129.76722717285156,13.323123931884766,-21.716691970825195,-43.20000076293945,-9.450000762939453,0.45000001788139343
5.727,69.18285369873047,21.75850486755371,-9.500192642211914,-107.91730499267578,-8.793261528015137,-18.119447708129883,-43.650001525878906,-9.0,0.15000000596046448
5.747,68.41670989990234,20.64759635925293,-8.08282470703125,-90.19754791259766,-22.51607894897461,-22.782541275024414,-44.55000305175781,-8.40000057220459,0.6000000238418579
5.751,66.34811401367188,21.030668258666992,-10.649409294128418,-68.61408996582031,-26.113323211669922,-16.12097930908203,-43.20000076293945,-7.050000190734863,-0.15000000596046448
5.757,65.42874145507812,25.359384536743164,-7.7763671875,-50.76110076904297,-29.044410705566406,-13.056661605834961,-43.20000076293945,-7.050000190734863,-0.15000000596046448
5.767,66.30980682373047,27.121517181396484,-3.907337188720703,-42.36753463745117,-27.045940399169922,-4.263399600982666,-43.5,-10.050000190734863,-0.30000001192092896
5.777,68.1868667602539,30.0711727142334,-1.4173674583435059,-46.897396087646484,-14.655436515808105,2.131699800491333,-42.150001525878906,-7.050000190734863,0.45000001788139343
5.787,69.71915435791016,30.454246520996094,0.038307227194309235,-46.09800720214844,-11.990811347961426,3.9969370365142822,-43.650001525878906,-8.700000762939453,0.45000001788139343
5.807,69.9489974975586,32.75267791748047,2.030282974243164,-27.978559494018555,-18.2526798248291,20.784072875976562,-42.900001525878906,-9.450000762939453,-0.15000000596046448
5.811,70.33206939697266,31.488540649414062,2.298433542251587,-21.316997528076172,-4.929555892944336,14.388973236083984,-42.900001525878906,-9.450000762939453,-0.15000000596046448
5.817,67.80379486083984,30.454246520996094,-2.451662540435791,-28.24502182006836,-1.0658499002456665,16.65390396118164,-43.95000076293945,-9.75,-0.9000000357627869
5.827,68.64655303955078,28.19411849975586,-4.098873138427734,-35.839202880859375,-18.119447708129883,15.45482349395752,-42.45000076293945,-9.0,0.15000000596046448
5.837,67.45903015136719,24.89969825744629,-6.052541732788086,-63.418067932128906,-30.643184661865234,-3.86370587348938,-43.650001525878906,-9.0,-0.9000000357627869
5.847,68.41670989990234,22.48634147644043,-9.53849983215332,-84.60183715820312,-60.22052001953125,-35.972434997558594,-42.900001525878906,-9.450000762939453,-0.45000001788139343
5.867,67.80379486083984,21.950040817260742,-4.060565948486328,-63.81776428222656,-80.07197570800781,-37.97090148925781,-42.900001525878906,-9.450000762939453,-0.45000001788139343
5.871,67.76548767089844,20.532672882080078,-2.4899697303771973,-40.102603912353516,-102.8545150756836,-36.238895416259766,-43.05000305175781,-8.40000057220459,-2.8500001430511475
5.877,70.40868377685547,21.87342643737793,-6.780379295349121,-42.500762939453125,-96.99234008789062,-27.578866958618164,-40.80000305175781,-8.40000057220459,-1.350000023841858
5.887,71.13652038574219,21.835119247436523,-6.3973069190979,-40.502296447753906,-76.34149932861328,-27.445634841918945,-41.70000076293945,-7.500000476837158,-1.2000000476837158
5.897,72.66880798339844,21.643583297729492,-3.141192674636841,-38.10413360595703,-77.67381286621094,-12.390504837036133,-42.150001525878906,-8.700000762939453,-2.700000047683716
5.907,74.00955963134766,22.48634147644043,0.038307227194309235,-40.635528564453125,-71.94486999511719,-6.395099639892578,-42.150001525878906,-8.700000762939453,-2.700000047683716
5.927,70.98329162597656,21.0689754486084,2.183511972427368,-57.689125061035156,-70.07962799072266,-5.329249382019043,-41.25,-8.40000057220459,-2.5500001907348633
5.931,64.50936889648438,20.609289169311523,3.5242648124694824,-52.75957107543945,-86.86676788330078,-9.592649459838867,-41.70000076293945,-8.25,-1.9500000476837158
5.937,57.26930618286133,16.66364288330078,6.435614109039307,-42.633995056152344,-104.45329284667969,-1.8652373552322388,-42.45000076293945,-7.050000190734863,-4.200000286102295
5.947,52.82566452026367,15.437812805175781,6.703764915466309,-50.4946403503418,-83.80245208740234,-12.390504837036133,-42.75,-8.100000381469727,-4.650000095367432
5.957,50.06754684448242,17.238252639770508,0.19153612852096558,-116.71056365966797,-85.53445434570312,-4.263399600982666,-42.75,-8.100000381469727,-4.650000095367432
5.967,50.68046188354492,21.222204208374023,-4.9799394607543945,-212.63705444335938,-116.0444107055664,7.06125545501709,-42.75,-8.100000381469727,-4.650000095367432
5.987,62.172630310058594,22.984336853027344,-2.183511972427368,-254.0719757080078,-145.88819885253906,-17.453292846679688,-40.5,-8.40000057220459,-5.100000381469727
5.991,69.02962493896484,27.236438751220703,1.9153614044189453,-248.34303283691406,-156.28024291992188,-40.23583221435547,-41.55000305175781,-6.450000286102295,-5.850000381469727
5.997,72.28573608398438,32.75267791748047,1.37906014919281,-237.55130004882812,-144.02296447753906,-45.96477508544922,-40.5,-6.450000286102295,-6.150000095367432
6.007,70.71514129638672,32.982521057128906,4.137180328369141,-253.67227172851562,-173.33384704589844,-52.626338958740234,-42.0,-5.700000286102295,-5.400000095367432
6.017,62.249244689941406,36.315250396728516,-2.9879636764526367,-367.4517517089844,-207.70750427246094,-65.68299865722656,-42.0,-5.700000286102295,-5.400000095367432
6.027,54.85594940185547,35.05111312866211,-19.766529083251953,-449.38897705078125,-236.7519073486328,-104.5865249633789,-39.0,-5.400000095367432,-6.150000095367432
6.047,51.1784553527832,33.17405700683594,-27.925968170166016,-402.35833740234375,-210.90504455566406,-143.62327575683594,-39.45000076293945,-2.4000000953674316,-9.0
6.051,49.26309585571289,33.59543991088867,-32.21637725830078,-224.76109313964844,-120.30780792236328,-159.21133422851562,-38.55000305175781,-1.0500000715255737,-8.25
6.057,60.257266998291016,39.18829345703125,-13.828908920288086,-129.2342987060547,-97.65850067138672,-152.81622314453125,-38.55000305175781,-1.0500000715255737,-7.950000286102295
6.067,62.32585906982422,37.54108428955078,4.175487995147705,40.635528564453125,-74.34303283691406,-105.65237426757812,-38.55000305175781,-1.0500000715255737,-7.950000286102295
6.077,63.168617248535156,35.510799407958984,12.066776275634766,173.73353576660156,-64.3506851196289,-43.69984436035156,-37.95000076293945,0.45000001788139343,-10.050000190734863
6.087,58.3036003112793,32.63775634765625,8.006210327148438,221.83001708984375,-63.950992584228516,7.860642910003662,-37.95000076293945,-0.45000001788139343,-10.050000190734863
6.107,54.54949188232422,26.163835525512695,6.358999729156494,236.21897888183594,-96.19295501708984,44.89892578125,-38.70000076293945,0.45000001788139343,-10.050000190734863
6.111,48.228797912597656,14.518439292907715,3.1028854846954346,292.309326171875,-122.03981018066406,37.57120895385742,-37.650001525878906,-1.350000023841858,-11.100000381469727
6.117,39.456443786621094,5.746084213256836,-1.9919757843017578,317.7565002441406,-126.43644714355469,47.163856506347656,-37.650001525878906,-1.350000023841858,-11.100000381469727
6.127,39.68628692626953,11.224017143249512,-3.2178070545196533,304.6998291015625,-101.65543365478516,16.25421142578125,-36.30000305175781,-1.8000000715255737,-11.40000057220459
6.137,50.68046188354492,26.929981231689453,1.9153614044189453,226.35987854003906,-114.04593658447266,-7.460949420928955,-36.30000305175781,-2.25,-11.700000762939453
6.147,68.37840270996094,41.98472213745117,5.899312973022461,29.977027893066406,-166.2725830078125,-77.00765228271484,-36.0,-2.700000047683716,-12.0
6.167,90.32844543457031,51.255069732666016,0.727837324142456,-157.87901306152344,-204.37672424316406,-189.85450744628906,-35.25,-2.25,-13.500000953674316
6.171,107.56669616699219,64.73921203613281,-9.308655738830566,-286.84686279296875,-200.91270446777344,-265.9295349121094,-35.400001525878906,0.45000001788139343,-15.600000381469727
6.177,129.0570526123047,85.23358154296875,-29.22841453552246,-331.0796203613281,-194.2511444091797,-260.4670715332031,-35.400001525878906,0.45000001788139343,-15.600000381469727
6.187,130.3594970703125,87.68524169921875,-43.09563064575195,-278.4532775878906,-195.45022583007812,-260.3338317871094,-33.75,0.75,-16.5
6.197,121.35729217529297,78.9511947631836,-58.9548225402832,-60.22052001953125,-170.93568420410156,-220.36447143554688,-33.30000305175781,1.5,-16.5
6.207,108.60099029541016,61.52140808105469,-68.1102523803711,191.9862060546875,-136.16232299804688,-174.1332244873047,-32.55000305175781,4.200000286102295,-16.80000114440918
6.227,97.53019714355469,53.09381866455078,-59.98911666870117,340.9387512207031,-112.71363067626953,-154.54823303222656,-32.55000305175781,4.200000286102295,-16.80000114440918
6.23,91.32443237304688,44.398075103759766,-44.97268295288086,366.11944580078125,-94.46094512939453,-149.61868286132812,-31.80000114440918,4.200000286102295,-18.0
6.237,87.4170913696289,35.05111312866211,-25.627534866333008,320.6875915527344,-74.47626495361328,-127.23583221435547,-31.80000114440918,4.200000286102295,-18.0
6.247,86.38279724121094,34.93619155883789,-10.5344877243042,271.2587890625,-95.66002655029297,-118.57579803466797,-32.25,2.700000047683716,-20.55000114440918
6.257,90.36675262451172,38.65199279785156,6.856993675231934,243.94639587402344,-138.56048583984375,-113.11331939697266,-32.70000076293945,2.1000001430511475,-19.650001525878906
6.267,103.39120483398438,44.0150032043457,8.197746276855469,171.86830139160156,-158.545166015625,-124.97090148925781,-32.70000076293945,2.1000001430511475,-19.650001525878906
6.287,118.59917449951172,51.21676254272461,-6.89530086517334,116.31086730957031,-156.94639587402344,-118.44257354736328,-33.45000076293945,2.4000000953674316,-20.400001525878906
6.291,133.38577270507812,57.99714279174805,-18.693927764892578,51.560489654541016,-134.43031311035156,-93.39509582519531,-32.25,2.25,-21.30000114440918
6.297,124.76663970947266,49.9526252746582,-23.060951232910156,26.246553421020508,-120.57427215576172,-59.287899017333984,-32.25,2.25,-21.30000114440918
6.307,109.71189880371094,41.946414947509766,-17.851167678833008,6.794793128967285,-112.18070220947266,-46.764163970947266,-33.150001525878906,4.800000190734863,-19.950000762939453
6.317,83.54806518554688,30.952239990234375,-16.35718536376953,-0.9326186776161194,-126.03675079345703,-45.56508255004883,-33.150001525878906,4.800000190734863,-19.950000762939453
6.327,74.00955963134766,26.355371475219727,-17.851167678833008,-52.493106842041016,-137.76109313964844,-56.22358322143555,-30.150001525878906,4.800000190734863,-21.150001525878906
6.347,70.33206939697266,19.19192123413086,-21.796812057495117,-62.8851432800293,-128.16845703125,-71.41194152832031,-29.700000762939453,5.850000381469727,-24.0
6.351,79.29595947265625,15.322891235351562,-10.802638053894043,-69.54670715332031,-135.0964813232422,-75.94180297851562,-25.650001525878906,4.800000190734863,-24.450000762939453
6.357,60.48711013793945,45.54729461669922,-46.88804626464844,-11.457886695861816,-88.33231353759766,-47.297088623046875,-25.650001525878906,4.800000190734863,-24.450000762939453
6.367,58.49513626098633,46.811431884765625,-53.208740234375,43.43338394165039,-8.526799201965332,-6.661561965942383,-25.650001525878906,4.800000190734863,-24.450000762939453
6.377,52.174442291259766,39.87782287597656,-52.63412857055664,91.79632568359375,26.779478073120117,33.30780792236328,-25.200000762939453,3.6000001430511475,-25.500001907348633
6.387,48.26710510253906,26.815059661865234,-35.28095626831055,130.83306884765625,26.246553421020508,47.56355285644531,-24.30000114440918,3.750000238418579,-26.850000381469727
6.407,45.93036651611328,19.38345718383789,-17.046716690063477,151.48391723632812,9.192955017089844,48.8958625793457,-24.450000762939453,2.8500001430511475,-25.200000762939453
6.411,45.20252990722656,16.203956604003906,-10.611102104187012,144.1562042236328,13.58958625793457,52.3598747253418,-24.450000762939453,2.8500001430511475,-25.200000762939453
6.417,42.02302932739258,13.48414421081543,-6.627150535583496,128.03521728515625,21.45022964477539,56.356815338134766,-24.450000762939453,2.8500001430511475,-25.200000762939453
6.427,41.90810775756836,13.407529830932617,-5.171475887298584,99.92343139648438,22.51607894897461,74.60948944091797,-26.55000114440918,0.0,-26.400001525878906
6.437,37.809234619140625,15.667655944824219,-6.129156112670898,49.29555892944336,36.238895416259766,75.14241790771484,-25.200000762939453,0.15000000596046448,-26.250001907348633
6.447,36.66001510620117,15.093047142028809,-8.504204750061035,23.448698043823242,50.89433288574219,73.67687225341797,-25.500001907348633,-0.75,-25.650001525878906
6.467,34.93619155883789,14.518439292907715,-9.308655738830566,14.788667678833008,52.493106842041016,93.2618637084961,-25.500001907348633,-0.75,-25.650001525878906
6.47,34.782962799072266,13.48414421081543,-11.530475616455078,15.854516983032227,77.4073486328125,112.04747009277344,-25.650001525878906,-2.1000001430511475,-25.80000114440918
6.477,32.676063537597656,13.522451400756836,-10.189722061157227,5.462480545043945,92.06278228759766,111.91423797607422,-26.400001525878906,-2.1000001430511475,-25.80000114440918
6.487,33.59543991088867,13.982137680053711,-9.921571731567383,5.196018218994141,106.4517593383789,122.3062744140625,-26.700000762939453,-1.6500000953674316,-25.200000762939453
6.497,33.44221115112305,15.016432762145996,-8.197746276855469,-3.597243309020996,118.57579803466797,129.6339874267578,-27.150001525878906,-4.050000190734863,-25.500001907348633
6.507,33.44221115112305,15.514427185058594,-9.615114212036133,-20.91730499267578,137.76109313964844,123.10566711425781,-27.150001525878906,-4.050000190734863,-25.500001907348633
6.527,31.83330535888672,19.038692474365234,-10.611102104187012,-26.113323211669922,154.14854431152344,137.09494018554688,-27.900001525878906,-3.1500000953674316,-24.0
6.531,33.05913543701172,21.643583297729492,-12.60307788848877,-32.77488327026367,159.74424743652344,131.49923706054688,-30.750001907348633,-5.700000286102295,-24.150001525878906
6.537,33.7869758605957,27.657817840576172,-12.564770698547363,-34.773353576660156,166.00611877441406,122.9724349975586,-28.80000114440918,-4.950000286102295,-22.80000114440918
6.547,35.510799407958984,29.266721725463867,-14.211980819702148,-43.03369140625,172.93414306640625,119.64165496826172,-29.400001525878906,-4.800000190734863,-24.0
6.557,38.728607177734375,32.9442138671875,-16.089035034179688,-55.69065856933594,192.65237426757812,112.58039855957031,-29.400001525878906,-4.800000190734863,-24.0
6.567,44.16823196411133,33.978511810302734,-18.310853958129883,-32.5084228515625,197.44869995117188,128.7013702392578,-29.400001525878906,-4.800000190734863,-24.0
6.587,49.26309585571289,36.35355758666992,-17.851167678833008,-6.9280242919921875,197.848388671875,133.89739990234375,-31.05000114440918,-4.950000286102295,-20.850000381469727
6.591,55.16240692138672,39.99274444580078,-14.518439292907715,41.168453216552734,185.19142150878906,134.03062438964844,-30.30000114440918,-6.150000095367432,-20.100000381469727
6.597,59.5294303894043,42.44440841674805,-14.020444869995117,57.822357177734375,184.5252685546875,125.7702865600586,-30.750001907348633,-5.400000095367432,-19.05000114440918
6.607,63.20692443847656,42.061336517333984,-14.09705924987793,49.29555892944336,183.7258758544922,114.57886505126953,-32.55000305175781,-6.150000095367432,-18.75
6.617,64.20291137695312,38.69029998779297,-13.637372970581055,15.45482349395752,197.44869995117188,84.20214080810547,-32.55000305175781,-6.150000095367432,-18.75
6.627,64.89244079589844,39.30321502685547,-15.935806274414062,-35.17304611206055,196.1163787841797,59.287899017333984,-32.400001525878906,-7.500000476837158,-17.400001525878906
6.647,66.5396499633789,40.95042419433594,-18.77054214477539,-96.45941925048828,183.45941162109375,75.14241790771484,-33.0,-7.650000095367432,-17.55000114440918
6.651,64.6242904663086,40.7205810546875,-19.268535614013672,-166.00611877441406,154.28176879882812,60.35375213623047,-34.650001525878906,-7.500000476837158,-17.400001525878906
6.657,63.704917907714844,39.72459411621094,-22.984336853027344,-186.5237274169922,143.2235870361328,50.89433288574219,-33.45000076293945,-8.700000762939453,-15.15000057220459
6.667,64.50936889648438,34.05512619018555,-25.28277015686035,-187.1898956298828,135.0964813232422,60.48698043823242,-33.45000076293945,-8.700000762939453,-15.15000057220459
6.677,63.704917907714844,28.577192306518555,-30.032865524291992,-177.73046875,143.75650024414062,41.83460998535156,-34.20000076293945,-5.850000381469727,-15.600000381469727
6.687,64.96905517578125,25.014619827270508,-38.03907775878906,-154.28176879882812,167.47166442871094,25.04747200012207,-33.900001525878906,-4.350000381469727,-15.600000381469727
6.707,65.888427734375,24.746469497680664,-38.76691436767578,-101.65543365478516,178.6630859375,12.390504837036133,-34.20000076293945,-7.500000476837158,-13.65000057220459
6.71,64.85413360595703,24.631547927856445,-35.817256927490234,-19.85145378112793,180.9280242919922,7.194486618041992,-34.20000076293945,-5.850000381469727,-13.65000057220459
6.717,62.8238525390625,28.462270736694336,-31.871612548828125,15.188361167907715,194.78407287597656,5.8621745109558105,-34.20000076293945,-5.850000381469727,-13.65000057220459
6.727,60.44880294799805,29.688100814819336,-27.77273941040039,69.67993927001953,193.3185272216797,9.059723854064941,-35.55000305175781,-5.700000286102295,-11.700000762939453
6.737,57.0777702331543,27.389667510986328,-22.026655197143555,119.24195861816406,183.05972290039062,17.852985382080078,-35.25,-6.150000095367432,-11.700000762939453
6.747,52.02121353149414,27.542896270751953,-16.58702850341797,177.33078002929688,182.6600341796875,27.578866958618164,-36.0,-8.100000381469727,-10.200000762939453
6.767,49.07155990600586,23.52063751220703,-13.21599292755127,204.6431884765625,189.85450744628906,14.12251091003418,-35.70000076293945,-8.25,-9.75
6.771,50.22077560424805,23.52063751220703,-12.986149787902832,239.28330993652344,186.5237274169922,20.784072875976562,-35.70000076293945,-8.25,-9.75
6.777,56.541465759277344,21.643583297729492,-13.79060173034668,239.1500701904297,183.05972290039062,19.718223571777344,-35.70000076293945,-8.700000762939453,-7.500000476837158
6.787,61.023414611816406,18.502389907836914,-15.207969665527344,212.77027893066406,185.32464599609375,4.130168437957764,-36.0,-8.850000381469727,-7.650000095367432
6.797,68.07194519042969,13.254301071166992,-19.613300323486328,155.08116149902344,166.80551147460938,-5.196018218994141,-36.75,-8.40000057220459,-7.350000381469727
6.807,78.64473724365234,8.580819129943848,-24.018630981445312,85.13475799560547,135.0964813232422,-12.656967163085938,-37.05000305175781,-8.100000381469727,-7.350000381469727
6.827,84.42913055419922,9.193734169006348,-29.879636764526367,7.460949420928955,105.91883087158203,-18.385910034179688,-37.05000305175781,-8.100000381469727,-7.350000381469727
6.831,84.12267303466797,14.556746482849121,-32.02484130859375,-68.34762573242188,76.87442779541016,-22.51607894897461,-36.45000076293945,-6.750000476837158,-4.200000286102295
6.837,79.14273071289062,21.298818588256836,-27.121517181396484,-71.81163787841797,44.63246536254883,-16.520673751831055,-37.5,-8.100000381469727,-5.400000095367432
6.847,79.25765228271484,23.060951232910156,-17.468095779418945,-52.75957107543945,19.584991455078125,-24.64777946472168,-37.650001525878906,-8.700000762939453,-4.5
6.857,86.765869140625,23.673866271972656,-5.822698593139648,8.127105712890625,0.39969372749328613,-39.70290756225586,-35.55000305175781,-8.850000381469727,-6.600000381469727
6.867,98.98587799072266,28.883649826049805,7.7763671875,71.94486999511719,5.062787055969238,-57.689125061035156,-35.55000305175781,-8.850000381469727,-6.600000381469727
6.887,114.34707641601562,35.0128059387207,14.824896812438965,131.89892578125,-0.1332312375307083,-59.287899017333984,-36.30000305175781,-6.900000095367432,-5.100000381469727
6.891,129.2485809326172,44.0150032043457,11.72201156616211,18.91883659362793,61.9525260925293,-54.4915771484375,-36.75,-6.900000095367432,-5.100000381469727
6.897,138.2124786376953,50.18246841430664,-0.07661445438861847,-95.9264907836914,70.74578857421875,-43.83307647705078,-36.30000305175781,-6.450000286102295,-4.350000381469727
6.907,126.06908416748047,53.32366180419922,10.572794914245605,-224.3614044189453,2.531393527984619,-49.56201934814453,-37.20000076293945,-8.25,-5.25
6.917,104.1956558227539,48.91832733154297,26.508602142333984,-233.42112731933594,-90.99693298339844,-71.14547729492188,-37.20000076293945,-8.25,-5.25
6.927,84.69728088378906,37.234622955322266,31.41192626953125,-156.01377868652344,-132.29861450195312,-87.13323211669922,-37.5,-7.650000095367432,-5.400000095367432
6.947,76.80599212646484,30.569168090820312,24.171859741210938,-91.79632568359375,-128.3016815185547,-88.59877014160156,-35.70000076293945,-5.550000190734863,-6.0
6.951,85.04204559326172,33.13574981689453,7.6997528076171875,-124.17151641845703,-14.12251091003418,-84.73506927490234,-36.0,-5.400000095367432,-4.650000095367432
6.957,146.86990356445312,11.453861236572266,-55.89024353027344,-218.36599731445312,67.5482406616211,-111.38131713867188,-36.0,-5.400000095367432,-4.650000095367432
6.967,172.53575134277344,22.639572143554688,-51.561527252197266,-237.95098876953125,92.06278228759766,-116.44409942626953,-36.0,-5.400000095367432,-4.650000095367432
6.977,166.48321533203125,72.32404327392578,41.448421478271484,-62.21898651123047,-65.28330993652344,9.459418296813965,-34.5,-3.750000238418579,-4.650000095367432
6.987,125.6093978881836,54.396263122558594,55.58378601074219,38.10413360595703,-151.35069274902344,40.502296447753906,-35.55000305175781,-2.700000047683716,-4.350000381469727
7.007,85.23358154296875,33.863590240478516,14.403517723083496,69.01377868652344,-138.56048583984375,33.70750427246094,-34.95000076293945,-2.4000000953674316,-6.0
7.011,62.057708740234375,24.210166931152344,-4.481945514678955,154.28176879882812,-62.35221862792969,36.905052185058594,-36.45000076293945,-3.1500000953674316,-5.25
7.017,55.23902130126953,21.107282638549805,-3.485957622528076,208.24041748046875,-23.448698043823242,33.04134750366211,-36.45000076293945,-3.1500000953674316,-5.25
7.027,64.81582641601562,30.186094284057617,-0.9959878921508789,285.91424560546875,39.43644714355469,36.10566711425781,-35.70000076293945,-3.6000001430511475,-6.750000476837158
7.037,79.83226013183594,43.172245025634766,6.129156112670898,322.5528259277344,97.5252685546875,36.905052185058594,-36.150001525878906,-4.800000190734863,-6.0
7.047,89.10260772705078,48.38202667236328,10.72602367401123,319.4884948730469,134.16384887695312,41.83460998535156,-34.80000305175781,-6.150000095367432,-7.650000095367432
7.067,95.69145202636719,51.867984771728516,12.449849128723145,263.2649230957031,163.87442016601562,20.251148223876953,-33.150001525878906,-7.050000190734863,-7.050000190734863
7.071,97.45358276367188,53.70673370361328,15.399505615234375,154.0153045654297,192.11944580078125,29.84379768371582,-33.150001525878906,-7.050000190734863,-7.050000190734863
7.077,91.74581146240234,46.12190246582031,17.1999454498291,88.73200225830078,197.18223571777344,13.58958625793457,-33.150001525878906,-7.050000190734863,-7.050000190734863
7.087,84.46743774414062,37.694313049316406,18.11931800842285,19.718223571777344,175.9984588623047,0.0,-36.900001525878906,-8.25,-4.5
7.097,73.51156616210938,30.032865524291992,19.345149993896484,-32.108726501464844,162.27565002441406,-14.388973236083984,-35.70000076293945,-7.800000190734863,-4.5
7.107,64.50936889648438,24.13355255126953,19.574993133544922,-58.222049713134766,145.0888214111328,-29.31087303161621,-36.30000305175781,-7.650000095367432,-2.5500001907348633
7.127,58.80159378051758,20.379444122314453,16.510414123535156,-63.151607513427734,118.70903015136719,-27.17917251586914,-36.75,-7.650000095367432,-3.3000001907348633
7.13,54.81764221191406,19.115306854248047,12.143390655517578,-51.693721771240234,92.06278228759766,-37.83767318725586,-36.30000305175781,-8.40000057220459,-1.350000023841858
7.137,52.05952072143555,16.81687355041504,8.465897560119629,-47.696781158447266,84.33537292480469,-34.50688934326172,-36.30000305175781,-8.40000057220459,-1.350000023841858
7.147,51.29337692260742,17.161638259887695,6.244078159332275,-49.29555892944336,75.5421142578125,-26.379785537719727,-36.75,-5.700000286102295,-1.350000023841858
7.157,51.1784553527832,16.012420654296875,0.26815059781074524,-67.01531219482422,93.66156005859375,-32.5084228515625,-38.25,-8.40000057220459,-0.30000001192092896
7.167,51.255069732666016,11.338939666748047,-10.802638053894043,-103.12097930908203,122.3062744140625,-33.70750427246094,-38.25,-7.650000095367432,-1.8000000715255737
7.187,56.92454147338867,7.661445617675781,-11.453861236572266,-125.23736572265625,140.5589599609375,-35.17304611206055,-38.25,-7.650000095367432,-1.8000000715255737
7.191,63.36015319824219,10.802638053894043,-5.592854976654053,-132.9647674560547,96.99234008789062,-14.255742073059082,-37.5,-8.100000381469727,1.350000023841858
7.197,70.17884063720703,13.522451400756836,2.7964274883270264,-135.76263427734375,56.09035110473633,3.7304747104644775,-37.5,-8.100000381469727,1.350000023841858
7.207,73.6264877319336,17.544710159301758,3.2178070545196533,-174.79937744140625,24.51454734802246,8.660030364990234,-37.650001525878906,-6.750000476837158,0.15000000596046448
7.217,69.64253997802734,27.198131561279297,2.145204782485962,-208.77334594726562,4.796324729919434,21.716691970825195,-36.150001525878906,-8.25,1.6500000953674316
7.227,69.48931121826172,29.726408004760742,-1.8770540952682495,-222.89585876464844,-25.846860885620117,34.10719680786133,-36.150001525878906,-8.25,1.6500000953674316
7.246,66.57795715332031,33.94020462036133,-1.072602391242981,-235.28636169433594,-50.62786865234375,24.64777946472168,-36.45000076293945,-8.25,1.9500000476837158
7.251,63.97306823730469,36.96647262573242,-0.689530074596405,-250.87442016601562,-60.75344467163086,20.38437843322754,-37.5,-6.900000095367432,2.1000001430511475
7.257,62.51739501953125,41.71657180786133,-4.711789131164551,-253.93873596191406,-73.0107192993164,17.186830520629883,-37.5,-6.900000095367432,2.1000001430511475
7.267,61.90447998046875,42.1762580871582,-7.316680431365967,-267.5283203125,-79.0061264038086,9.059723854064941,-36.0,-6.450000286102295,0.6000000238418579
7.277,62.670623779296875,43.3637809753418,-7.086836814880371,-266.1960144042969,-79.2725830078125,-18.119447708129883,-36.0,-6.450000286102295,0.6000000238418579
7.287,63.475074768066406,39.07337188720703,-3.4093432426452637,-213.0367431640625,-83.66921997070312,-27.84532928466797,-36.45000076293945,-6.750000476837158,0.45000001788139343
7.307,61.78955841064453,35.74064254760742,-3.141192674636841,-173.46707153320312,-81.13782501220703,-30.90964698791504,-37.650001525878906,-5.100000381469727,-0.15000000596046448
7.311,64.0879898071289,37.311241149902344,-8.542511940002441,-148.55282592773438,-58.754974365234375,-31.309341430664062,-37.20000076293945,-5.850000381469727,-0.9000000357627869
7.317,69.68084716796875,29.53487205505371,-14.326903343200684,-127.36906433105469,-47.163856506347656,-22.382848739624023,-37.20000076293945,-5.850000381469727,-0.9000000357627869
