time,accel_x,accel_y,accel_z,gyro_x,gyro_y,gyro_z,mag_x,mag_y,mag_z
0.0,3.1585259437561035,-9.110671997070312,1.8699908256530762,-0.005650503095239401,0.023060161620378494,-0.01191187184303999,-22.142648696899414,61.224788665771484,-49.020755767822266
0.01,3.1214370727539062,-9.050850868225098,1.8592231273651123,-0.003512475173920393,0.019089538604021072,-0.009773843921720982,-21.967260360717773,61.4732551574707,-49.82461166381836
0.02,3.1884360313415527,-9.038887023925781,1.8305093050003052,0.004886921960860491,0.007941247895359993,-0.007941247895359993,-22.244956970214844,61.414791107177734,-49.25460433959961
0.03,3.2207393646240234,-9.119047164916992,1.8149559497833252,0.02321287989616394,-0.01710422709584236,-0.0003054326225537807,-22.37649917602539,61.5171012878418,-48.78690719604492
0.049,3.238685369491577,-9.127422332763672,1.8269200325012207,0.03130684420466423,-0.03436116874217987,0.0029016099870204926,-22.303421020507812,61.78017807006836,-48.83074951171875
0.053,3.2506494522094727,-9.165706634521484,1.8532410860061646,0.03176499158143997,-0.039706241339445114,0.004123340360820293,-22.595731735229492,61.28324890136719,-49.239986419677734
0.06,3.238685369491577,-9.18724250793457,1.8305093050003052,0.025045473128557205,-0.03329215571284294,0.0009162978385575116,-22.66880989074707,61.75094985961914,-48.93306350708008
0.07,3.198007583618164,-9.145367622375488,1.8233308792114258,0.011759155429899693,-0.014508049935102463,-0.0027488935738801956,-22.303421020507812,61.619407653808594,-49.12306213378906
0.08,3.1896326541900635,-9.096315383911133,1.8065810203552246,-0.0024434609804302454,0.005192354787141085,-0.006108652334660292,-22.186494827270508,61.414791107177734,-48.88921356201172
0.09,3.183650493621826,-9.030512809753418,1.798206090927124,-0.01038470957428217,0.01572977937757969,-0.008399397134780884,-22.1718807220459,61.37094497680664,-49.69307327270508
0.111,3.2063820362091064,-9.030512809753418,1.8149559497833252,-0.01313360221683979,0.028099801391363144,-0.00931569468230009,-22.961122512817383,61.67787170410156,-50.07307434082031
0.114,3.2243285179138184,-9.10110092163086,1.8448662757873535,-0.018020525574684143,0.032681290060281754,-0.010537425056099892,-23.078046798706055,61.239402770996094,-49.89768981933594
0.12,3.221935510635376,-9.096315383911133,1.8400804996490479,-0.014049900695681572,0.02672535367310047,-0.007177666295319796,-22.94650650024414,61.414791107177734,-49.25460433959961
0.13,3.221935510635376,-9.05444049835205,1.8352948427200317,0.0004581489192787558,0.01725694164633751,-0.0032070425804704428,-22.464191436767578,61.37094497680664,-48.9184455871582
0.14,3.238685369491577,-9.038887023925781,1.8412768840789795,0.010537425056099892,0.0004581489192787558,0.0006108652451075613,-22.332651138305664,61.50248718261719,-48.83074951171875
0.15,3.2267210483551025,-9.037691116333008,1.8293129205703735,0.021380282938480377,-0.010690141469240189,0.0009162978385575116,-22.244956970214844,61.56094741821289,-49.049983978271484
0.17,3.2004001140594482,-9.097511291503906,1.8376877307891846,0.030085112899541855,-0.01618792861700058,0.0012217304902151227,-22.434959411621094,61.2978630065918,-48.2607421875
0.173,3.160918712615967,-9.146564483642578,1.86520516872406,0.03420845419168472,-0.021991148591041565,0.006872233934700489,-22.274188995361328,61.210174560546875,-49.00613784790039
0.18,3.166900634765625,-9.160921096801758,1.836491346359253,0.029474247246980667,-0.02275473065674305,0.01191187184303999,-22.244956970214844,61.400177001953125,-48.52382278442383
0.19,3.1621150970458984,-9.142974853515625,1.8412768840789795,0.02428189292550087,-0.01618792861700058,0.015271631069481373,-22.72727394104004,61.400177001953125,-49.239986419677734
0.2,3.198007583618164,-9.0843505859375,1.8508483171463013,0.01664607785642147,-0.003359758760780096,0.016340645030140877,-22.65419578552246,61.59017562866211,-49.225372314453125
0.21,3.253042459487915,-9.043672561645508,1.8508483171463013,0.007635815534740686,0.0073303827084600925,0.012217304669320583,-22.11341667175293,61.70710372924805,-48.90382766723633
0.229,3.3379874229431152,-9.029315948486328,1.8125630617141724,-0.0003054326225537807,0.01114829070866108,0.005497787147760391,-22.347267150878906,61.224788665771484,-49.166908264160156
0.233,3.369094133377075,-9.040083885192871,1.810170292854309,0.007788531482219696,0.020005837082862854,-0.006261368282139301,-22.318035125732422,61.59017562866211,-49.15229415893555
0.24,3.400200843811035,-9.087940216064453,1.781456470489502,0.015882495790719986,0.024434609338641167,-0.012675453908741474,-22.11341667175293,61.195556640625,-48.669979095458984
0.25,3.3236305713653564,-9.121438980102539,1.805384635925293,0.024892758578062057,0.025656340643763542,-0.019547687843441963,-22.069570541381836,61.32709884643555,-47.95381546020508
0.26,3.2279176712036133,-9.087940216064453,1.8077774047851562,0.029932396486401558,0.025656340643763542,-0.02367102913558483,-22.347267150878906,61.70710372924805,-48.17304992675781
0.27,3.170490026473999,-9.109475135803223,1.8077774047851562,0.032681290060281754,0.01664607785642147,-0.018936822190880775,-22.66880989074707,61.35633087158203,-48.62613296508789
0.289,3.142972707748413,-9.146564483642578,1.8029918670654297,0.02932153083384037,-0.003359758760780096,-0.00931569468230009,-21.92341423034668,60.94709014892578,-48.5822868347168
0.293,3.1417760848999023,-9.175277709960938,1.8029918670654297,0.023518310859799385,-0.01725694164633751,0.0036651913542300463,-22.244956970214844,61.18094253540039,-49.2984504699707
0.3,3.1896326541900635,-9.140582084655762,1.7886348962783813,0.016798794269561768,-0.01878410577774048,0.008246680721640587,-22.288803100585938,61.44401931762695,-48.845367431640625
0.31,3.245863676071167,-9.141778945922852,1.7838492393493652,0.007024950347840786,-0.02367102913558483,0.009162978269159794,-21.967260360717773,61.66325759887695,-49.15229415893555
0.32,3.231506824493408,-9.125028610229492,1.7575281858444214,0.0007635815418325365,-0.024587325751781464,0.006108652334660292,-22.084184646606445,61.45863342285156,-48.83074951171875
0.33,3.2745776176452637,-9.096315383911133,1.7599210739135742,0.003512475173920393,-0.01710422709584236,0.0012217304902151227,-22.069570541381836,61.15170669555664,-48.845367431640625
0.349,3.2829525470733643,-9.047262191772461,1.8149559497833252,-0.010079275816679,0.00931569468230009,-0.014049900695681572,-22.537269592285156,61.32709884643555,-50.07307434082031
0.352,3.2578277587890625,-9.036494255065918,1.8388842344284058,-0.014813481830060482,0.01572977937757969,-0.01878410577774048,-22.274188995361328,61.13709259033203,-49.13768005371094
0.36,3.201596736907959,-9.035297393798828,1.8305093050003052,-0.018325956538319588,0.026114489883184433,-0.022143863141536713,-22.259572982788086,61.619407653808594,-48.88921356201172
0.37,3.1884360313415527,-9.06161880493164,1.8041881322860718,-0.01572977937757969,0.030543262138962746,-0.020463986322283745,-22.20111083984375,61.35633087158203,-48.50920867919922
0.38,3.2039895057678223,-9.157332420349121,1.836491346359253,-0.007635815534740686,0.01313360221683979,-0.017562376335263252,-22.215726852416992,61.239402770996094,-48.55305480957031
0.39,3.1441688537597656,-9.182456970214844,1.8532410860061646,0.006566801108419895,-0.008246680721640587,-0.009773843921720982,-22.347267150878906,61.13709259033203,-49.25460433959961
0.409,3.0867412090301514,-9.206384658813477,1.8783657550811768,0.014355332590639591,-0.005345070734620094,-0.0022907445672899485,-22.084184646606445,60.96170425415039,-49.2984504699707
0.412,3.1094729900360107,-9.18006420135498,1.875972867012024,0.012522736564278603,-0.003817907767370343,-0.0010690141934901476,-22.142648696899414,61.341712951660156,-49.80999755859375
0.42,3.1214370727539062,-9.09272575378418,1.8436697721481323,0.006719517521560192,0.006108652334660292,0.0006108652451075613,-22.420345306396484,61.195556640625,-49.45922088623047
0.43,3.170490026473999,-9.005387306213379,1.8125630617141724,0.0018325956771150231,0.005345070734620094,0.005650503095239401,-21.92341423034668,61.634029388427734,-49.34230041503906
0.44,3.2793633937835693,-9.019744873046875,1.7970097064971924,0.0007635815418325365,-0.008704829961061478,0.00809396430850029,-21.908798217773438,61.28324890136719,-49.239986419677734
0.45,3.2961132526397705,-9.04845905303955,1.8113667964935303,0.0029016099870204926,-0.013744467869400978,0.006566801108419895,-22.157264709472656,61.034786224365234,-49.649227142333984
0.469,3.335594892501831,-9.031708717346191,1.8795621395111084,-0.0013744467869400978,-0.00809396430850029,-0.0024434609804302454,-21.908798217773438,61.2978630065918,-49.70768737792969
0.472,3.355933427810669,-9.036494255065918,1.8556338548660278,0.00015271631127689034,-0.006566801108419895,-0.004123340360820293,-22.215726852416992,61.38555908203125,-49.06460189819336
0.48,3.3367910385131836,-9.075976371765137,1.84965181350708,0.006566801108419895,-0.001679879380390048,-0.010842857882380486,-21.894182205200195,61.67787170410156,-49.38614273071289
0.49,3.2446675300598145,-9.140582084655762,1.8508483171463013,0.02076941914856434,0.007177666295319796,-0.018020525574684143,-22.09880256652832,61.341712951660156,-49.049983978271484
0.5,3.0867412090301514,-9.126225471496582,1.8460626602172852,0.02733621932566166,0.015271631069481373,-0.020005837082862854,-22.1718807220459,61.35633087158203,-49.4007568359375
0.51,3.049652338027954,-9.145367622375488,1.8592231273651123,0.02626720443367958,0.01863138936460018,-0.01725694164633751,-22.537269592285156,61.239402770996094,-49.12306213378906
0.529,3.053241491317749,-9.237491607666016,1.856830358505249,0.01542434748262167,0.007024950347840786,-0.004734205547720194,-23.00497055053711,61.414791107177734,-48.93306350708008
0.532,3.0508487224578857,-9.23031234741211,1.8640087842941284,0.016340645030140877,0.0074830991216003895,-0.0025961773935705423,-22.39111328125,61.09324645996094,-48.43613052368164
0.54,3.0340988636016846,-9.144170761108398,1.8376877307891846,0.010231993161141872,0.0138971833512187,0.003817907767370343,-21.981876373291016,61.56094741821289,-48.90382766723633
0.55,3.1585259437561035,-9.120243072509766,1.8221343755722046,0.0019853119738399982,0.01237002108246088,0.006719517521560192,-22.698041915893555,61.429405212402344,-48.14381790161133
0.56,3.2721848487854004,-9.065208435058594,1.7994025945663452,-0.004581489134579897,-0.003054326167330146,0.0073303827084600925,-22.5518856048584,61.80941390991211,-48.289974212646484
0.57,3.3032915592193604,-9.06879711151123,1.7611173391342163,0.0,-0.011453723534941673,0.0050396379083395,-22.186494827270508,61.5755615234375,-48.77228546142578
0.589,3.3439693450927734,-9.060422897338867,1.798206090927124,0.012980885803699493,-0.006872233934700489,-0.0039706239476799965,-22.917274475097656,61.54633331298828,-48.90382766723633
0.593,3.400200843811035,-9.059226036071777,1.8245272636413574,0.010231993161141872,-0.005650503095239401,-0.006566801108419895,-22.566499710083008,61.531715393066406,-49.283836364746094
0.6,3.3200414180755615,-9.074779510498047,1.832902193069458,0.008246680721640587,-0.005192354787141085,-0.010079275816679,-22.259572982788086,61.926334381103516,-48.94767761230469
0.61,3.2817561626434326,-9.06281566619873,1.8017953634262085,0.0074830991216003895,-0.003359758760780096,-0.01160643994808197,-22.537269592285156,61.18094253540039,-48.81613540649414
0.62,3.2159535884857178,-9.111868858337402,1.8269200325012207,0.007177666295319796,-0.006719517521560192,-0.012217304669320583,-22.186494827270508,61.341712951660156,-48.94767761230469
0.63,3.1716861724853516,-9.141778945922852,1.852044701576233,0.005192354787141085,-0.00809396430850029,-0.01114829070866108,-22.508039474487305,61.531715393066406,-49.839229583740234
0.649,3.0903303623199463,-9.09272575378418,1.8831512928009033,-0.0074830991216003895,0.015577062964439392,-0.009468411095440388,-22.303421020507812,61.8532600402832,-49.473838806152344
0.653,3.053241491317749,-9.083154678344727,1.8616158962249756,-0.012980885803699493,0.026572639122605324,-0.009621127508580685,-22.66880989074707,61.82402801513672,-48.36305236816406
0.66,3.0652055740356445,-9.105886459350586,1.8735800981521606,-0.019547687843441963,0.03420845419168472,-0.009926560334861279,-22.74188804626465,61.926334381103516,-49.37152862548828
0.67,3.07716965675354,-9.135796546936035,1.8747763633728027,-0.019394971430301666,0.027030786499381065,-0.006108652334660292,-22.04033851623535,61.940948486328125,-48.289974212646484
0.68,3.13220477104187,-9.109475135803223,1.852044701576233,-0.009773843921720982,0.010079275816679,0.001679879380390048,-22.142648696899414,61.634029388427734,-48.72844314575195
0.69,3.1752755641937256,-9.102296829223633,1.8771692514419556,0.0018325956771150231,-0.012217304669320583,0.010537425056099892,-22.75650405883789,61.8971061706543,-49.41537857055664
0.703,3.239881753921509,-9.074779510498047,1.8783657550811768,0.017867807298898697,-0.032681290060281754,0.0177150908857584,-22.84419822692871,61.75094985961914,-49.19614028930664
0.71,3.2829525470733643,-9.073582649230957,1.9022939205169678,0.022449297830462456,-0.0328340083360672,0.011759155429899693,-22.537269592285156,61.78017807006836,-48.611515045166016
0.72,3.28773832321167,-9.065208435058594,1.8867405652999878,0.02321287989616394,-0.024129178375005722,0.006108652334660292,-22.04033851623535,61.37094497680664,-48.289974212646484
0.73,3.2853453159332275,-9.030512809753418,1.8556338548660278,0.026114489883184433,-0.013286319561302662,-0.005955935921519995,-22.814966201782227,61.35633087158203,-49.25460433959961
0.74,3.263810157775879,-9.087940216064453,1.856830358505249,0.02367102913558483,-0.008399397134780884,-0.013744467869400978,-22.259572982788086,61.531715393066406,-48.8599853515625
0.75,3.1764719486236572,-9.10827922821045,1.8771692514419556,0.020616700872778893,0.0025961773935705423,-0.02122756652534008,-22.785736083984375,61.35633087158203,-48.8599853515625
0.765,3.115455150604248,-9.140582084655762,1.8747763633728027,0.016340645030140877,0.03130684420466423,-0.02122756652534008,-22.5518856048584,61.2540168762207,-49.34230041503906
0.77,3.0891339778900146,-9.1716890335083,1.8664016723632812,0.010995574295520782,0.03878994286060333,-0.021074850112199783,-22.47880744934082,61.76556396484375,-49.34230041503906
0.78,3.0903303623199463,-9.168099403381348,1.8616158962249756,0.0006108652451075613,0.04703662171959877,-0.018020525574684143,-22.303421020507812,61.48787307739258,-49.4007568359375
0.79,3.087937355041504,-9.17288589477539,1.832902193069458,-0.0073303827084600925,0.04841107130050659,-0.01542434748262167,-22.712656021118164,61.341712951660156,-49.32768249511719
1.056,3.2434709072113037,-9.08674430847168,1.8197414875030518,-0.00427605677396059,0.005955935921519995,-0.0138971833512187,-22.20111083984375,60.830162048339844,-49.34230041503906
1.06,3.25663161277771,-9.081957817077637,1.782652735710144,0.004123340360820293,0.0009162978385575116,-0.01313360221683979,-21.82110595703125,61.2978630065918,-48.77228546142578
1.067,3.2446675300598145,-9.083154678344727,1.813759446144104,0.005803219974040985,-0.001527163083665073,-0.012675453908741474,-22.186494827270508,61.56094741821289,-48.88921356201172
1.077,3.194417953491211,-9.080760955810547,1.817348837852478,0.00809396430850029,-0.006719517521560192,-0.0138971833512187,-21.587255477905273,61.531715393066406,-48.684593200683594
1.087,3.183650493621826,-9.097511291503906,1.8065810203552246,0.009468411095440388,-0.008399397134780884,-0.010079275816679,-22.65419578552246,61.5755615234375,-48.69921112060547
1.097,3.128615379333496,-9.129814147949219,1.8580267429351807,0.007788531482219696,-0.009773843921720982,-0.005803219974040985,-22.47880744934082,61.67787170410156,-47.96842956542969
1.107,3.1178479194641113,-9.138189315795898,1.867598056793213,0.005497787147760391,-0.01710422709584236,0.0013744467869400978,-21.864952087402344,61.531715393066406,-49.576148986816406
1.126,3.0628130435943604,-9.132206916809082,1.8699908256530762,0.010079275816679,-0.011453723534941673,0.006566801108419895,-22.069570541381836,61.400177001953125,-48.684593200683594
1.13,3.111865520477295,-9.142974853515625,1.8891334533691406,0.010690141469240189,-0.006108652334660292,0.005955935921519995,-21.748027801513672,61.970184326171875,-49.049983978271484
1.137,3.1824538707733154,-9.097511291503906,1.852044701576233,0.012064589187502861,-0.0024434609804302454,0.006566801108419895,-21.64571762084961,61.8532600402832,-48.62613296508789
1.147,3.2374887466430664,-9.131011009216309,1.8891334533691406,0.010079275816679,0.001527163083665073,0.002138028386980295,-22.318035125732422,61.955570220947266,-48.9622917175293
1.157,3.2745776176452637,-9.115457534790039,1.8448662757873535,0.004581489134579897,0.016798794269561768,0.0007635815418325365,-22.04033851623535,61.429405212402344,-48.74305725097656
1.167,3.317648410797119,-9.041280746459961,1.805384635925293,0.006566801108419895,0.02474004216492176,-0.0027488935738801956,-22.420345306396484,61.48787307739258,-49.19614028930664
1.186,3.328416109085083,-8.96829891204834,1.8245272636413574,0.009010262787342072,0.010079275816679,-0.0074830991216003895,-22.215726852416992,61.28324890136719,-49.020755767822266
1.19,3.335594892501831,-9.005387306213379,1.8460626602172852,0.00855211354792118,0.004734205547720194,-0.009621127508580685,-22.084184646606445,61.67787170410156,-49.15229415893555
1.197,3.293720245361328,-9.023334503173828,1.8352948427200317,0.008704829961061478,-0.006108652334660292,-0.008246680721640587,-22.318035125732422,60.976322174072266,-48.041507720947266
1.207,3.2374887466430664,-9.060422897338867,1.8460626602172852,0.02275473065674305,-0.01313360221683979,-0.005803219974040985,-21.894182205200195,60.94709014892578,-48.30459213256836
1.217,3.1645078659057617,-9.128618240356445,1.872383713722229,0.037110064178705215,-0.012675453908741474,-0.0024434609804302454,-22.069570541381836,61.48787307739258,-49.19614028930664
1.227,3.1130621433258057,-9.20159912109375,1.9142580032348633,0.042760565876960754,-0.014049900695681572,-0.0003054326225537807,-21.791873931884766,61.604793548583984,-48.83074951171875
1.247,3.074777126312256,-9.2315092086792,1.8699908256530762,0.038026362657547,-0.013439035043120384,0.0018325956771150231,-22.318035125732422,61.2540168762207,-48.114585876464844
1.251,3.148954391479492,-9.19322395324707,1.8005989789962769,0.032070424407720566,-0.012980885803699493,0.0073303827084600925,-22.011106491088867,61.54633331298828,-48.845367431640625
1.257,3.1728827953338623,-9.17886734008789,1.782652735710144,0.03222314268350601,-0.015882495790719986,0.007941247895359993,-21.952646255493164,61.37094497680664,-48.845367431640625
1.267,3.2279176712036133,-9.097511291503906,1.769492268562317,0.02626720443367958,-0.02672535367310047,0.007177666295319796,-21.879568099975586,61.224788665771484,-48.669979095458984
1.277,3.235095977783203,-9.103493690490723,1.7670994997024536,0.020463986322283745,-0.019394971430301666,0.0019853119738399982,-22.537269592285156,61.54633331298828,-48.465362548828125
1.287,3.249452829360962,-9.031708717346191,1.7970097064971924,0.012980885803699493,-0.0027488935738801956,-0.0022907445672899485,-22.274188995361328,61.312477111816406,-48.55305480957031
1.306,3.3068807125091553,-9.09392261505127,1.8017953634262085,0.0,0.0138971833512187,-0.01725694164633751,-22.288803100585938,62.028648376464844,-48.62613296508789
1.31,3.2889344692230225,-9.081957817077637,1.7898313999176025,-0.002138028386980295,0.014813481830060482,-0.017867807298898697,-22.128032684326172,61.5171012878418,-48.74305725097656
1.317,3.2506494522094727,-9.103493690490723,1.7862420082092285,-0.0012217304902151227,0.015118913725018501,-0.022907447069883347,-22.157264709472656,61.400177001953125,-48.36305236816406
1.327,3.150151014328003,-9.20040225982666,1.8125630617141724,-0.0007635815418325365,0.015118913725018501,-0.02580905519425869,-21.83572006225586,61.35633087158203,-49.31306457519531
1.337,3.087937355041504,-9.157332420349121,1.7790635824203491,-0.0003054326225537807,0.016798794269561768,-0.02519819140434265,-22.244956970214844,61.32709884643555,-48.55305480957031
1.347,3.0508487224578857,-9.133403778076172,1.8017953634262085,0.00015271631127689034,0.01618792861700058,-0.01817324012517929,-22.230342864990234,61.54633331298828,-48.465362548828125
1.366,3.0592236518859863,-9.09152889251709,1.817348837852478,-0.013286319561302662,-0.006261368282139301,0.0024434609804302454,-22.11341667175293,61.634029388427734,-49.225372314453125
1.37,3.032902479171753,-9.104689598083496,1.8245272636413574,-0.013439035043120384,-0.009926560334861279,0.006566801108419895,-22.259572982788086,61.239402770996094,-47.98304748535156
1.377,3.125026226043701,-9.10110092163086,1.84965181350708,-0.01191187184303999,-0.016340645030140877,0.014508049935102463,-22.508039474487305,61.50248718261719,-48.041507720947266
1.387,3.1968109607696533,-9.134600639343262,1.868794322013855,-0.01160643994808197,-0.021991148591041565,0.019547687843441963,-21.938030242919922,61.54633331298828,-48.74305725097656
1.397,3.297309398651123,-9.122635841369629,1.8711872100830078,-0.004734205547720194,-0.02122756652534008,0.016035212203860283,-22.347267150878906,61.619407653808594,-48.18766403198242
1.407,3.3499515056610107,-9.09392261505127,1.875972867012024,0.005650503095239401,-0.021532999351620674,0.010537425056099892,-22.566499710083008,61.69248962402344,-48.5384407043457
1.427,3.31884503364563,-9.090332984924316,1.9010975360870361,0.01572977937757969,-0.019853120669722557,0.0019853119738399982,-22.054954528808594,61.2540168762207,-48.611515045166016
1.431,3.2159535884857178,-9.10110092163086,1.8891334533691406,0.027641652151942253,-0.011759155429899693,-0.009468411095440388,-21.92341423034668,61.239402770996094,-48.596900939941406
1.437,3.13938307762146,-9.113064765930176,1.9082759618759155,0.029474247246980667,0.001679879380390048,-0.012675453908741474,-22.069570541381836,60.976322174072266,-49.07921600341797
1.447,3.080759048461914,-9.123832702636719,1.8987046480178833,0.023060161620378494,0.022907447069883347,-0.018020525574684143,-22.44957733154297,61.5171012878418,-47.836891174316406
1.457,3.1405797004699707,-9.134600639343262,1.887937068939209,0.01114829070866108,0.04306599870324135,-0.022449297830462456,-22.420345306396484,61.604793548583984,-48.88921356201172
1.467,3.1381869316101074,-9.073582649230957,1.8233308792114258,0.0029016099870204926,0.05100724473595619,-0.020922133699059486,-22.47880744934082,61.59017562866211,-49.18152618408203
1.487,3.1680970191955566,-9.040083885192871,1.7802599668502808,0.01572977937757969,0.02626720443367958,-0.013591751456260681,-22.522653579711914,61.8532600402832,-48.75767135620117
1.49,3.1992037296295166,-9.067601203918457,1.7850456237792969,0.019853120669722557,0.014508049935102463,-0.010079275816679,-21.777257919311523,61.56094741821289,-49.97077178955078
1.497,3.1788647174835205,-9.081957817077637,1.7766706943511963,0.030237827450037003,-0.0029016099870204926,-0.004734205547720194,-22.537269592285156,61.414791107177734,-49.13768005371094
1.507,3.2207393646240234,-9.119047164916992,1.8233308792114258,0.039706241339445114,-0.02474004216492176,0.005955935921519995,-22.230342864990234,61.18094253540039,-49.37152862548828
1.517,3.2470602989196777,-9.150154113769531,1.7994025945663452,0.042760565876960754,-0.0507018156349659,0.016340645030140877,-22.128032684326172,61.195556640625,-49.576148986816406
1.527,3.2650065422058105,-9.163313865661621,1.798206090927124,0.03848451003432274,-0.05757404863834381,0.015118913725018501,-22.65419578552246,61.45863342285156,-49.32768249511719
1.547,3.2303104400634766,-9.116654396057129,1.8005989789962769,0.030543262138962746,-0.04718933627009392,0.008399397134780884,-22.493423461914062,61.56094741821289,-49.25460433959961
1.551,3.198007583618164,-9.06281566619873,1.7850456237792969,0.02122756652534008,-0.03176499158143997,-0.003512475173920393,-22.39111328125,61.66325759887695,-49.4007568359375
1.557,3.208775043487549,-9.079565048217773,1.817348837852478,0.01618792861700058,-0.023976460099220276,-0.0073303827084600925,-22.025724411010742,60.786319732666016,-49.32768249511719
1.567,3.1166512966156006,-9.081957817077637,1.8269200325012207,0.007024950347840786,-0.004886921960860491,-0.01237002108246088,-22.318035125732422,61.736331939697266,-48.78690719604492
1.577,3.1106693744659424,-9.0843505859375,1.8472589254379272,-0.0018325956771150231,0.013744467869400978,-0.01114829070866108,-21.777257919311523,61.06401824951172,-48.976905822753906
1.587,3.13220477104187,-9.10708236694336,1.8819550275802612,-0.0027488935738801956,0.01878410577774048,-0.009010262787342072,-22.11341667175293,61.66325759887695,-48.78690719604492
1.607,3.13938307762146,-9.042476654052734,1.84965181350708,-0.0027488935738801956,0.006872233934700489,-0.005192354787141085,-21.996492385864258,61.09324645996094,-48.93306350708008
1.611,3.128615379333496,-9.075976371765137,1.813759446144104,0.019089538604021072,-0.029626963660120964,0.005345070734620094,-22.054954528808594,61.16632843017578,-49.12306213378906
1.617,3.0867412090301514,-9.10110092163086,1.8245272636413574,0.029932396486401558,-0.04337143152952194,0.009621127508580685,-22.47880744934082,61.15170669555664,-49.035369873046875
1.627,3.0867412090301514,-9.109475135803223,1.820937991142273,0.058490343391895294,-0.07635815441608429,0.014660765416920185,-22.230342864990234,61.341712951660156,-48.684593200683594
1.637,3.10109806060791,-9.181260108947754,1.8664016723632812,0.06994406878948212,-0.0933096632361412,0.0277943667024374,-22.04033851623535,61.619407653808594,-48.88921356201172
1.647,3.0448665618896484,-9.168099403381348,1.8197414875030518,0.07666358351707458,-0.10384708642959595,0.029626963660120964,-22.332651138305664,61.400177001953125,-48.77228546142578
1.667,3.0652055740356445,-9.229116439819336,1.832902193069458,0.0685696229338646,-0.08949175477027893,0.025503622367978096,-22.508039474487305,61.50248718261719,-48.81613540649414
1.67,3.036491870880127,-9.237491607666016,1.7802599668502808,0.06383541971445084,-0.08155050873756409,0.023518310859799385,-22.128032684326172,61.926334381103516,-49.049983978271484
1.677,3.0101706981658936,-9.239884376525879,1.7551352977752686,0.058337628841400146,-0.06780604273080826,0.01817324012517929,-22.566499710083008,62.43788528442383,-48.72844314575195
1.687,3.0077779293060303,-9.261420249938965,1.7383856773376465,0.051312681287527084,-0.046731188893318176,0.015271631069481373,-22.186494827270508,61.604793548583984,-49.26921844482422
1.697,3.060420036315918,-9.269794464111328,1.7240287065505981,0.03741549327969551,-0.031612277030944824,0.010231993161141872,-22.288803100585938,62.01403045654297,-49.44460678100586
1.707,3.091526985168457,-9.299705505371094,1.6977075338363647,0.023365594446659088,-0.01572977937757969,0.004123340360820293,-22.858814239501953,61.940948486328125,-49.38614273071289
1.728,3.0975089073181152,-9.292526245117188,1.6414762735366821,0.014660765416920185,0.012980885803699493,-0.005192354787141085,-22.566499710083008,61.634029388427734,-48.93306350708008
1.731,3.153740167617798,-9.168099403381348,1.566102385520935,0.019547687843441963,0.04886921867728233,-0.022143863141536713,-22.610347747802734,61.15170669555664,-48.611515045166016
1.737,3.1549363136291504,-9.134600639343262,1.5158531665802002,0.023060161620378494,0.05146539583802223,-0.028099801391363144,-22.142648696899414,61.195556640625,-48.9184455871582
1.747,3.125026226043701,-9.080760955810547,1.4763715267181396,0.021838432177901268,0.04535674676299095,-0.035582900047302246,-22.347267150878906,61.312477111816406,-48.72844314575195
1.757,3.170490026473999,-9.053244590759277,1.4333007335662842,0.017409659922122955,0.02535090781748295,-0.04138611629605293,-22.230342864990234,61.69248962402344,-49.42999267578125
1.767,3.153740167617798,-9.138189315795898,1.4117653369903564,0.014813481830060482,0.012064589187502861,-0.04535674676299095,-22.624963760375977,61.44401931762695,-49.42999267578125
1.786,3.1645078659057617,-9.229116439819336,1.3962119817733765,0.007024950347840786,0.03298672288656235,-0.05115996673703194,-23.253435134887695,61.28324890136719,-49.51768493652344
1.79,3.1884360313415527,-9.220742225646973,1.4201401472091675,0.001679879380390048,0.043218713253736496,-0.052839841693639755,-22.858814239501953,61.16632843017578,-50.08769607543945
1.797,3.1860432624816895,-9.160921096801758,1.435693621635437,-0.010842857882380486,0.05146539583802223,-0.054367005825042725,-22.624963760375977,61.45863342285156,-49.25460433959961
1.807,3.1896326541900635,-9.016155242919922,1.4105688333511353,-0.03237585723400116,0.0555887334048748,-0.05757404863834381,-22.683425903320312,61.531715393066406,-49.42999267578125
1.817,3.1752755641937256,-8.870193481445312,1.3794622421264648,-0.05100724473595619,0.05497787147760391,-0.0630718320608139,-22.902660369873047,61.2540168762207,-49.31306457519531
1.827,3.2004001140594482,-8.760123252868652,1.4177473783493042,-0.07070764899253845,0.04001167416572571,-0.07192938029766083,-23.01958465576172,61.82402801513672,-48.406898498535156
1.847,3.2614171504974365,-8.796015739440918,1.435693621635437,-0.08139779418706894,0.014966198243200779,-0.07819075137376785,-22.522653579711914,61.45863342285156,-49.239986419677734
1.852,3.3296124935150146,-8.947959899902344,1.4261221885681152,-0.06918048858642578,-0.03634648025035858,-0.07559457421302795,-22.917274475097656,61.75094985961914,-49.95615005493164
1.858,3.370290756225586,-9.052047729492188,1.4608181715011597,-0.057879481464624405,-0.0555887334048748,-0.07330382615327835,-22.961122512817383,61.28324890136719,-48.845367431640625
1.867,3.2925240993499756,-9.18724250793457,1.5110673904418945,-0.0328340083360672,-0.09712757170200348,-0.07162395119667053,-22.814966201782227,61.5171012878418,-47.866119384765625
1.877,3.166900634765625,-9.254240989685059,1.5876377820968628,-0.0007635815418325365,-0.13439035415649414,-0.07391469925642014,-22.405729293823242,61.56094741821289,-48.55305480957031
1.887,2.9826531410217285,-9.293722152709961,1.7096717357635498,0.011759155429899693,-0.1342376321554184,-0.0708603635430336,-22.990352630615234,61.59017562866211,-48.18766403198242
1.907,2.78165602684021,-9.244669914245605,1.758724570274353,0.009926560334861279,-0.11667525768280029,-0.06490442901849747,-23.092662811279297,61.721717834472656,-48.5822868347168
1.91,2.699103832244873,-9.154938697814941,1.750349760055542,0.0022907445672899485,-0.09040804952383041,-0.05711590126156807,-23.414207458496094,61.15170669555664,-47.661502838134766
1.917,2.671586275100708,-9.19322395324707,1.7778671979904175,-0.003359758760780096,-0.0809396430850029,-0.05360342189669609,-23.194971084594727,61.44401931762695,-48.20227813720703
1.927,2.6524438858032227,-9.352347373962402,1.8592231273651123,-0.010231993161141872,-0.05665775015950203,-0.05513058975338936,-23.063430786132812,61.619407653808594,-48.406898498535156
1.937,2.638087034225464,-9.421738624572754,1.8640087842941284,-0.012828170321881771,0.007024950347840786,-0.06200282275676727,-23.048816680908203,61.838645935058594,-48.713829040527344
1.947,2.6835503578186035,-9.256633758544922,1.8317056894302368,-0.005650503095239401,0.07910704612731934,-0.0659734457731247,-22.990352630615234,61.926334381103516,-48.494590759277344
1.967,2.884547472000122,-9.023334503173828,1.7838492393493652,0.01863138936460018,0.12828169763088226,-0.05864306166768074,-23.39959144592285,61.59017562866211,-48.289974212646484
1.97,3.1130621433258057,-8.823533058166504,1.688136339187622,0.029626963660120964,0.11270463466644287,-0.05910121276974678,-22.66880989074707,62.49634552001953,-47.661502838134766
1.977,3.198007583618164,-8.761320114135742,1.6307085752487183,0.04046982154250145,0.0907134935259819,-0.05971207842230797,-22.902660369873047,62.130958557128906,-47.60304260253906
1.987,3.3655049800872803,-8.798408508300781,1.5984054803848267,0.08552113175392151,0.037110064178705215,-0.06444628536701202,-22.566499710083008,61.86787414550781,-47.427650451660156
1.997,3.603590726852417,-8.931209564208984,1.6426726579666138,0.11667525768280029,0.0032070425804704428,-0.06887505203485489,-22.84419822692871,62.101722717285156,-48.72844314575195
2.007,3.7363924980163574,-8.890532493591309,1.6689937114715576,0.1345430612564087,-0.024129178375005722,-0.0754418596625328,-22.508039474487305,62.26249313354492,-48.23151397705078
2.028,3.7782669067382812,-8.744569778442383,1.605583906173706,0.14813482761383057,-0.04841107130050659,-0.08597928285598755,-22.771120071411133,62.80327606201172,-47.61765670776367
2.032,3.8009984493255615,-8.790033340454102,1.561316728591919,0.168751522898674,-0.06688974052667618,-0.09865473955869675,-22.785736083984375,61.838645935058594,-47.866119384765625
2.038,3.7938201427459717,-8.870193481445312,1.5720844268798828,0.17562375962734222,-0.06352998316287994,-0.10980302840471268,-22.581117630004883,62.51095962524414,-47.60304260253906
2.047,3.7770702838897705,-9.016155242919922,1.5553346872329712,0.18280142545700073,-0.04444044828414917,-0.1238529235124588,-22.771120071411133,62.569419860839844,-48.669979095458984
2.057,3.744767427444458,-8.924031257629395,1.5266207456588745,0.1895209401845932,-0.010995574295520782,-0.12400564551353455,-22.917274475097656,62.2332649230957,-48.93306350708008
2.067,3.693321704864502,-8.853443145751953,1.5481561422348022,0.19074267148971558,0.010231993161141872,-0.1137736514210701,-23.136510848999023,62.43788528442383,-48.684593200683594
2.087,3.647857904434204,-8.816354751586914,1.5589239597320557,0.18035796284675598,0.002138028386980295,-0.1036943718791008,-23.01958465576172,62.2332649230957,-49.56153106689453
2.09,3.6251261234283447,-8.762516021728516,1.5194423198699951,0.1644754558801651,-0.04001167416572571,-0.08185594528913498,-23.136510848999023,62.1163444519043,-49.54691696166992
2.097,3.538984537124634,-8.737391471862793,1.5517455339431763,0.15882496535778046,-0.05574145168066025,-0.0630718320608139,-22.84419822692871,62.30634307861328,-49.10844802856445
2.107,3.544966459274292,-8.779266357421875,1.712064504623413,0.12965615093708038,-0.056352317333221436,-0.03497203439474106,-22.610347747802734,62.540191650390625,-49.25460433959961
2.117,3.755535125732422,-8.927620887756348,1.6797614097595215,0.08888089656829834,-0.06383541971445084,-0.003817907767370343,-22.566499710083008,61.67787170410156,-48.99152374267578
2.127,3.9696924686431885,-9.05444049835205,1.466800332069397,0.09407324343919754,-0.11163561791181564,0.023518310859799385,-22.610347747802734,62.540191650390625,-49.4007568359375
2.147,4.047459602355957,-9.095118522644043,1.4225330352783203,0.15363259613513947,-0.1944078654050827,0.054367005825042725,-22.361881256103516,62.39403533935547,-49.38614273071289
2.151,3.847658634185791,-8.916852951049805,1.514656662940979,0.21441368758678436,-0.2952006161212921,0.07269296050071716,-22.347267150878906,61.70710372924805,-48.655364990234375
2.157,3.5700912475585938,-8.916852951049805,1.7132608890533447,0.22357667982578278,-0.3306308090686798,0.07284567505121231,-22.39111328125,61.75094985961914,-49.576148986816406
2.167,3.298506021499634,-9.066404342651367,1.9286149740219116,0.18539761006832123,-0.30375272035598755,0.07727444916963577,-22.72727394104004,62.80327606201172,-49.26921844482422
2.177,3.1764719486236572,-9.176474571228027,2.035095691680908,0.11682797223329544,-0.2292271852493286,0.07956519722938538,-22.961122512817383,61.940948486328125,-49.54691696166992
2.187,3.418147087097168,-9.120243072509766,1.971685767173767,0.048258356750011444,-0.15775594115257263,0.07498370856046677,-22.37649917602539,61.88248825073242,-49.42999267578125
2.207,3.8333017826080322,-9.073582649230957,1.9070795774459839,0.025503622367978096,-0.17211127281188965,0.08200865983963013,-22.581117630004883,62.29172897338867,-49.91230773925781
2.21,4.071387767791748,-8.997013092041016,1.8376877307891846,0.03756821155548096,-0.25961771607398987,0.0884227380156517,-22.259572982788086,62.26249313354492,-49.2984504699707
2.217,4.034298896789551,-8.896513938903809,1.8233308792114258,0.058795779943466187,-0.3182607889175415,0.07987063378095627,-21.908798217773438,62.30634307861328,-50.365386962890625
2.227,3.9050865173339844,-8.740981101989746,1.8436697721481323,0.09392052888870239,-0.37629297375679016,0.04871650040149689,-21.894182205200195,62.29172897338867,-49.853843688964844
2.237,3.7387852668762207,-8.545965194702148,1.8472589254379272,0.1394299864768982,-0.3901901841163635,0.0010690141934901476,-22.20111083984375,62.350189208984375,-49.035369873046875
2.247,3.5090742111206055,-8.409575462341309,1.9812570810317993,0.182648703455925,-0.3228422701358795,-0.0659734457731247,-22.259572982788086,62.07249069213867,-49.4007568359375
2.266,3.352344274520874,-8.488537788391113,2.2432711124420166,0.16172656416893005,-0.07788532227277756,-0.14767667651176453,-22.581117630004883,62.46711730957031,-49.15229415893555
2.27,3.3810582160949707,-8.6033935546875,2.441875457763672,0.14004085958003998,-0.0018325956771150231,-0.1621847152709961,-21.967260360717773,62.07249069213867,-49.91230773925781
2.277,3.4959137439727783,-8.675178527832031,2.4765713214874268,0.10491610318422318,0.08903361111879349,-0.17333300411701202,-22.157264709472656,62.61327362060547,-50.0
2.287,3.678964614868164,-8.827122688293457,2.493321180343628,0.06291911751031876,0.16661350429058075,-0.17699819803237915,-22.493423461914062,62.42327117919922,-49.6784553527832
2.297,3.862015724182129,-8.895318031311035,2.44785737991333,0.0429132841527462,0.19394971430301666,-0.1788308024406433,-22.405729293823242,62.39403533935547,-49.41537857055664
2.307,3.8560335636138916,-8.95992374420166,2.4538395404815674,0.05375614017248154,0.18524488806724548,-0.18051066994667053,-22.74188804626465,62.584041595458984,-50.64308547973633
2.327,3.8249268531799316,-8.970691680908203,2.392822504043579,0.08903361111879349,0.1696678102016449,-0.18417586386203766,-23.078046798706055,62.598655700683594,-50.42385482788086
2.331,3.7052857875823975,-8.877371788024902,2.4083759784698486,0.18051066994667053,0.1797470897436142,-0.17898350954055786,-23.458053588867188,62.42327117919922,-51.388484954833984
2.337,3.669393539428711,-8.83669376373291,2.4095723628997803,0.21105393767356873,0.20036378502845764,-0.1725694239139557,-22.94650650024414,62.18941879272461,-50.84770202636719
2.347,3.579662799835205,-8.641678810119629,2.4646072387695312,0.26481008529663086,0.27091872692108154,-0.15577064454555511,-23.326513290405273,62.364803314208984,-50.65769958496094
2.357,3.6358938217163086,-8.461020469665527,2.451446771621704,0.27977627515792847,0.3075706362724304,-0.14385876059532166,-23.458053588867188,62.84711837768555,-51.154632568359375
2.367,3.702892780303955,-8.425127983093262,2.286341905593872,0.29993483424186707,0.30466902256011963,-0.12538009881973267,-23.56036376953125,62.130958557128906,-51.169246673583984
2.388,3.8153557777404785,-8.523233413696289,2.128415822982788,0.34147366881370544,0.28267788887023926,-0.10873401165008545,-24.378835678100586,62.1163444519043,-51.169246673583984
2.392,3.9003007411956787,-8.48614501953125,2.0685951709747314,0.422871470451355,0.251218318939209,-0.07666358351707458,-24.086524963378906,62.1163444519043,-51.54925537109375
2.397,3.895514965057373,-8.444271087646484,2.0518453121185303,0.4518875777721405,0.2379319965839386,-0.051770828664302826,-23.5895938873291,61.99941635131836,-51.6807975769043
2.407,4.037888050079346,-8.469395637512207,1.9884356260299683,0.4715879559516907,0.19883663952350616,-0.022907447069883347,-23.925752639770508,61.69248962402344,-52.60157775878906
2.417,4.24367094039917,-8.70389175415039,1.9573287963867188,0.4786129295825958,0.12461650371551514,0.001527163083665073,-23.57497787475586,62.160186767578125,-53.06927490234375
2.427,4.394418716430664,-9.17288589477539,1.9465612173080444,0.49235737323760986,0.04489859566092491,0.004886921960860491,-23.487285614013672,62.45249938964844,-52.8792724609375
2.447,4.449453830718994,-9.553343772888184,1.95852530002594,0.5232061147689819,0.023060161620378494,-0.010231993161141872,-23.57497787475586,61.970184326171875,-53.434669494628906
2.452,4.005584716796875,-9.474380493164062,1.9848462343215942,0.5581781268119812,0.15363259613513947,-0.03940080478787422,-22.93189239501953,62.130958557128906,-53.624671936035156
2.458,3.7710883617401123,-9.256633758544922,2.0027923583984375,0.5410738587379456,0.25641068816185,-0.059406641870737076,-23.31189727783203,62.21864700317383,-53.829288482666016
2.467,3.5365920066833496,-8.937192916870117,1.9956140518188477,0.4700608253479004,0.3709478974342346,-0.08460482954978943,-23.764982223510742,62.05787658691406,-54.077754974365234
2.477,3.3918259143829346,-8.548358917236328,1.8484554290771484,0.36621370911598206,0.4095851480960846,-0.10247264802455902,-23.341127395629883,62.1748046875,-54.282371520996094
2.487,3.421736478805542,-8.292326927185059,1.6498512029647827,0.2658790946006775,0.37690383195877075,-0.09147706627845764,-23.633440017700195,62.86173629760742,-54.867000579833984
2.507,3.473181962966919,-8.209774017333984,1.5290136337280273,0.18280142545700073,0.27351492643356323,-0.038637224584817886,-22.800350189208984,62.24787902832031,-54.472373962402344
2.511,3.658625841140747,-8.197810173034668,1.710868239402771,0.11178833991289139,0.11636982858181,0.025045473128557205,-23.341127395629883,62.39403533935547,-54.73545837402344
2.517,3.789034366607666,-8.194220542907715,1.891526222229004,0.06368270516395569,0.020616700872778893,0.06368270516395569,-23.12189483642578,62.569419860839844,-55.34931564331055
2.527,3.9361932277679443,-8.218149185180664,1.9776678085327148,0.009162978269159794,-0.07788532227277756,0.09162978827953339,-23.458053588867188,62.26249313354492,-54.238529205322266
2.537,4.104887008666992,-8.264808654785156,1.998006820678711,-0.011301006190478802,-0.13958270847797394,0.07437284290790558,-23.165740966796875,62.81789016723633,-54.57468795776367
2.547,4.382454872131348,-8.47298526763916,2.076970100402832,0.0019853119738399982,-0.1514945775270462,0.024587325751781464,-23.50189971923828,63.06635665893555,-54.31160354614258
2.567,4.518845558166504,-8.778069496154785,2.2707886695861816,0.027947084978222847,-0.11224649101495743,-0.0050396379083395,-23.428821563720703,62.89096450805664,-54.51622772216797
2.57,4.214956760406494,-8.717052459716797,2.6081764698028564,0.020463986322283745,-0.018478674814105034,-0.04841107130050659,-23.38497543334961,62.80327606201172,-54.37007141113281
2.577,3.9792640209198,-8.621339797973633,2.7290141582489014,-0.009926560334861279,0.04948008432984352,-0.07330382615327835,-23.253435134887695,63.5925178527832,-54.38468551635742
2.587,3.7292141914367676,-8.58903694152832,2.7900309562683105,-0.0607810914516449,0.14752395451068878,-0.10094548016786575,-23.194971084594727,63.02250671386719,-54.004676818847656
2.597,3.4875388145446777,-8.644071578979492,2.798405885696411,-0.09758572280406952,0.2528982162475586,-0.1290452778339386,-23.487285614013672,63.080970764160156,-53.449283599853516
2.607,3.355933427810669,-8.642874717712402,2.860619306564331,-0.12400564551353455,0.39996400475502014,-0.1511891484260559,-23.516515731811523,62.92020034790039,-54.31160354614258
2.627,3.31884503364563,-8.74337387084961,2.9216363430023193,-0.1333213448524475,0.5141957998275757,-0.15164729952812195,-23.881906509399414,62.744815826416016,-53.624671936035156
2.631,3.462414264678955,-8.830711364746094,2.7601208686828613,-0.1082758679986,0.5833762884140015,-0.12996158003807068,-24.334989547729492,63.24174499511719,-53.434669494628906
2.637,3.5856447219848633,-8.858229637145996,2.720639228820801,-0.0682641938328743,0.570242702960968,-0.10491610318422318,-24.188833236694336,62.934814453125,-53.639286041259766
2.647,3.6574294567108154,-8.809176445007324,2.794816732406616,-0.012675453908741474,0.50335294008255,-0.04642575979232788,-24.174217224121094,63.270973205566406,-53.522361755371094
2.657,3.6646077632904053,-8.683552742004395,2.8737800121307373,0.032070424407720566,0.37629297375679016,0.02321287989616394,-23.66267204284668,62.83250427246094,-53.215431213378906
2.667,3.6921253204345703,-8.767301559448242,2.8139593601226807,0.07635815441608429,0.2932153046131134,0.06734789162874222,-23.823442459106445,63.41712951660156,-52.85004425048828
2.687,3.757927656173706,-8.926424980163574,2.724228620529175,0.1472185254096985,0.2499965876340866,0.10781770944595337,-23.867290496826172,62.86173629760742,-53.36158752441406
2.691,3.810570001602173,-8.846264839172363,2.748156785964966,0.2739730477333069,0.25014930963516235,0.18310685455799103,-24.13037109375,63.373287200927734,-53.27389907836914
2.697,3.88594388961792,-8.72662353515625,2.8187451362609863,0.30024024844169617,0.25244006514549255,0.21166479587554932,-23.764982223510742,63.54867172241211,-52.718502044677734
2.707,4.000799655914307,-8.583054542541504,2.8666014671325684,0.3168863356113434,0.23976460099220276,0.27580565214157104,-23.677288055419922,63.051734924316406,-54.048526763916016
2.717,4.29033088684082,-8.554340362548828,2.699103832244873,0.3162754774093628,0.20051652193069458,0.314442902803421,-23.29728126525879,62.934814453125,-53.91698455810547
2.727,4.524827480316162,-8.647661209106445,2.4981067180633545,0.3404046595096588,0.15683965384960175,0.3413209319114685,-23.458053588867188,62.759429931640625,-53.4200553894043
2.747,4.731806755065918,-8.700303077697754,2.337787628173828,0.39675697684288025,0.13439035415649414,0.3565925657749176,-22.93189239501953,62.949432373046875,-53.25928497314453
2.751,4.850251197814941,-8.679964065551758,2.200200319290161,0.5083925724029541,0.14706581830978394,0.3643811345100403,-23.03420066833496,62.40864944458008,-54.033905029296875
2.757,4.8466620445251465,-8.670392990112305,2.1882362365722656,0.5612324476242065,0.1693623811006546,0.3591887652873993,-22.94650650024414,62.64250183105469,-54.048526763916016
2.767,4.784448623657227,-8.87378215789795,2.1810576915740967,0.6151412725448608,0.2151772677898407,0.3361286222934723,-22.93189239501953,62.774044036865234,-54.73545837402344
2.777,4.7641096115112305,-9.306883811950684,2.2707886695861816,0.6404921412467957,0.25182920694351196,0.2984076738357544,-23.22420310974121,62.68634796142578,-55.04238510131836
2.787,4.6648077964782715,-9.839285850524902,2.293520450592041,0.6403394937515259,0.2857322096824646,0.266642689704895,-22.288803100585938,63.080970764160156,-55.40777587890625
2.807,4.728217601776123,-10.487741470336914,2.3569302558898926,0.624609649181366,0.32681289315223694,0.251218318939209,-22.318035125732422,62.715576171875,-55.40777587890625
2.81,5.3970112800598145,-11.553744316101074,3.032902479171753,0.5149593949317932,0.34926217794418335,0.2863430678844452,-22.142648696899414,62.70096206665039,-55.02777099609375
2.817,5.717649936676025,-11.845667839050293,3.4983065128326416,0.3761402666568756,0.29596421122550964,0.3286454975605011,-21.996492385864258,63.06635665893555,-55.33469772338867
2.827,5.6925249099731445,-11.586047172546387,3.672982692718506,0.1485929638147354,0.15134187042713165,0.36132678389549255,-21.92341423034668,62.84711837768555,-55.30546951293945
2.837,5.266602516174316,-10.681560516357422,3.2757742404937744,-0.023060161620378494,0.03588833287358284,0.34727686643600464,-21.82110595703125,62.86173629760742,-56.182403564453125
2.847,4.894518852233887,-9.753144264221191,2.699103832244873,-0.08124507963657379,0.04535674676299095,0.3147483170032501,-21.528793334960938,62.67173385620117,-56.32855987548828
2.867,4.60857629776001,-9.056833267211914,2.2600209712982178,-0.010079275816679,0.13729196786880493,0.22831088304519653,-21.704179763793945,62.89096450805664,-56.06547546386719
2.87,4.411168098449707,-8.447859764099121,2.1164515018463135,0.11820242553949356,0.15577064454555511,0.1258382350206375,-21.718795776367188,62.64250183105469,-56.54779052734375
2.877,4.287938117980957,-8.452645301818848,2.108076810836792,0.182648703455925,0.128434419631958,0.0809396430850029,-21.455713272094727,62.83250427246094,-55.992401123046875
2.887,4.027120590209961,-8.708678245544434,2.0518453121185303,0.26633724570274353,0.1085812970995903,0.05009094625711441,-21.236480712890625,63.650978088378906,-55.583160400390625
2.897,3.7734811305999756,-9.090332984924316,1.8257235288619995,0.36071592569351196,0.1563815027475357,0.03649919852614403,-21.894182205200195,63.460975646972656,-56.09471130371094
2.907,3.393022298812866,-9.556933403015137,1.4919248819351196,0.45631635189056396,0.23457224667072296,0.02825251594185829,-21.28032684326172,63.28559112548828,-55.86085891723633
2.927,2.9168508052825928,-9.903892517089844,1.176072359085083,0.5190827250480652,0.3448334336280823,0.017867807298898697,-21.76264190673828,62.84711837768555,-56.56240463256836
2.931,2.768495798110962,-10.152746200561523,1.1509475708007812,0.4017966091632843,0.3900374472141266,0.0705549344420433,-22.084184646606445,63.34404754638672,-56.54779052734375
2.937,2.7637100219726562,-10.124032020568848,1.451246976852417,0.19486600160598755,0.3631593883037567,0.1313360333442688,-21.879568099975586,63.06635665893555,-56.22624588012695
2.947,2.779263496398926,-9.92303466796875,1.6582260131835938,-0.20830504596233368,0.2382374405860901,0.19226983189582825,-22.069570541381836,62.964046478271484,-56.86933517456055
2.957,3.0041887760162354,-9.625128746032715,1.6331013441085815,-0.6253732442855835,0.1420261561870575,0.23228150606155396,-22.04033851623535,62.788658142089844,-56.65010070800781
2.967,3.40378999710083,-9.299705505371094,1.290927767753601,-0.9604328870773315,0.12919799983501434,0.23182335495948792,-21.806488037109375,62.68634796142578,-56.3577880859375
2.987,4.168296813964844,-8.874979019165039,1.1210373640060425,-1.0943650007247925,0.08216137439012527,0.19746218621730804,-21.411867141723633,63.50482177734375,-54.75007247924805
2.99,4.60857629776001,-8.544769287109375,0.8554341197013855,-1.1659890413284302,-0.07712173461914062,0.12095130980014801,-21.938030242919922,63.43174743652344,-54.57468795776367
2.997,4.621737003326416,-8.395217895507812,0.6364907622337341,-1.1684324741363525,-0.18219056725502014,0.06490442901849747,-21.777257919311523,63.080970764160156,-53.77082824707031
3.007,4.469792366027832,-8.319844245910645,0.15314064919948578,-1.13926362991333,-0.2970332205295563,-0.01970040239393711,-22.493423461914062,63.358665466308594,-53.639286041259766
3.017,4.219742774963379,-8.507680892944336,-0.1986042857170105,-1.1195632219314575,-0.3972151279449463,-0.13072516024112701,-22.084184646606445,63.080970764160156,-53.142356872558594
3.027,3.9050865173339844,-9.036494255065918,-0.3601197898387909,-1.2124147415161133,-0.4668537676334381,-0.2151772677898407,-22.902660369873047,63.154048919677734,-52.39695739746094
3.047,3.775874137878418,-9.585646629333496,-0.349352091550827,-1.3996449708938599,-0.5499314665794373,-0.30665433406829834,-22.464191436767578,62.964046478271484,-51.4615592956543
3.051,3.7124643325805664,-10.297511100769043,-0.11246266216039658,-1.7762433290481567,-0.7134906053543091,-0.4311181306838989,-22.888044357299805,62.90558624267578,-50.570011138916016
3.057,3.733999490737915,-10.443473815917969,-0.015553345903754234,-1.9074267148971558,-0.7730499505996704,-0.4634940028190613,-22.990352630615234,62.46711730957031,-50.350772857666016
3.067,3.785445213317871,-10.269994735717773,0.21655045449733734,-2.1789562702178955,-0.9443976879119873,-0.5119050741195679,-23.721134185791016,62.89096450805664,-48.80152130126953
3.077,3.425325632095337,-10.028319358825684,1.322034478187561,-2.330756187438965,-1.0586293935775757,-0.5259549617767334,-24.042678833007812,62.80327606201172,-47.00379943847656
3.087,2.908475875854492,-9.90030288696289,2.2636101245880127,-2.470033645629883,-1.150259256362915,-0.5371032357215881,-24.641918182373047,62.774044036865234,-45.4837760925293
3.107,2.420340061187744,-9.773483276367188,2.688336133956909,-2.556776285171509,-1.2180652618408203,-0.5635231733322144,-25.021923065185547,62.29172897338867,-43.466819763183594
3.11,2.2061824798583984,-9.69810962677002,2.935993194580078,-2.4662158489227295,-1.2244794368743896,-0.5609269738197327,-25.591930389404297,61.70710372924805,-42.443729400634766
3.117,2.3150558471679688,-9.787840843200684,2.9826531410217285,-2.309070587158203,-1.2066115140914917,-0.5174028873443604,-25.723472595214844,61.736331939697266,-41.683719635009766
3.127,2.6560330390930176,-10.470992088317871,2.904886484146118,-2.0079140663146973,-1.2030991315841675,-0.4349360466003418,-25.913476943969727,61.2540168762207,-40.879859924316406
3.137,2.7517459392547607,-11.583653450012207,3.1310083866119385,-1.6659822463989258,-1.189507246017456,-0.3271183371543884,-26.4104061126709,61.18094253540039,-39.403682708740234
3.147,2.7349960803985596,-12.664012908935547,3.4157540798187256,-1.3657419681549072,-1.1151344776153564,-0.19379699230194092,-27.185035705566406,60.87401580810547,-38.90675354003906
3.166,2.304288148880005,-13.49910831451416,3.5952160358428955,-1.0790934562683105,-0.5329799056053162,-0.022602012380957603,-26.936567306518555,60.47938919067383,-36.67056655883789
3.17,1.5780664682388306,-13.604392051696777,3.4193434715270996,-1.0751228332519531,-0.2900082468986511,-0.032070424407720566,-27.272727966308594,60.64016342163086,-36.50979232788086
3.177,1.451246976852417,-13.03370475769043,2.9455647468566895,-1.1200214624404907,0.09957103431224823,-0.058184914290905,-27.141185760498047,60.201690673828125,-36.115169525146484
3.187,1.499103307723999,-11.172087669372559,2.410768747329712,-1.2205086946487427,0.52702397108078,-0.07925976812839508,-27.404266357421875,60.201690673828125,-34.785152435302734
3.197,1.2813564538955688,-10.193424224853516,1.8903299570083618,-1.3164145946502686,0.6991352438926697,-0.11835514008998871,-27.62350082397461,60.391700744628906,-33.83513641357422
3.207,0.9272187352180481,-9.455238342285156,1.3938192129135132,-1.3351987600326538,0.7096726894378662,-0.24297165870666504,-28.26658821105957,60.24554443359375,-32.373573303222656
3.227,1.2813564538955688,-8.737391471862793,1.1006983518600464,-1.2925907373428345,0.693637490272522,-0.3709478974342346,-28.588130950927734,59.51476287841797,-31.306636810302734
3.231,1.55413818359375,-8.164310455322266,1.1222338676452637,-1.1566733121871948,0.6629414558410645,-0.3640756905078888,-29.026599884033203,59.52937698364258,-31.408945083618164
3.237,1.624726414680481,-8.002795219421387,1.2227323055267334,-1.0893254280090332,0.661414384841919,-0.3202460706233978,-28.938907623291016,59.310142517089844,-31.10201644897461
3.247,1.5780664682388306,-7.947760105133057,1.392622709274292,-1.0247265100479126,0.5853615999221802,-0.3061962127685547,-29.567378997802734,59.80707550048828,-30.488161087036133
3.257,1.765903115272522,-7.7898335456848145,1.4033904075622559,-0.9781479835510254,0.42806383967399597,-0.3347541391849518,-29.81584358215332,59.54399108886719,-29.742765426635742
3.267,2.00518536567688,-7.575676441192627,1.3603196144104004,-0.8834638595581055,0.21624629199504852,-0.3430008292198181,-29.81584358215332,59.16398620605469,-28.82198143005371
3.287,1.9094724655151367,-7.506284236907959,1.4656038284301758,-0.7186830043792725,0.07360926270484924,-0.3017674386501312,-29.947385787963867,59.32476043701172,-28.544286727905273
3.29,2.434696912765503,-7.232306003570557,1.4739786386489868,-0.5021312236785889,-0.10476338863372803,-0.26832255721092224,-29.71353530883789,59.32476043701172,-28.69044303894043
3.297,2.6668004989624023,-6.9403815269470215,1.416550874710083,-0.32238414883613586,-0.23396137356758118,-0.25014930963516235,-29.391992568969727,58.94475555419922,-28.412744522094727
3.307,2.531606435775757,-6.812366008758545,1.592423439025879,-0.06215553730726242,-0.3300199508666992,-0.23884831368923187,-29.611223220825195,59.251678466796875,-28.16427993774414
3.317,2.251646041870117,-6.948756694793701,1.9824535846710205,0.11102475225925446,-0.23365594446659088,-0.2811506986618042,-29.333528518676758,58.72551727294922,-27.857351303100586
3.327,2.368894338607788,-6.935595989227295,2.0673987865448,0.18096882104873657,0.2588541507720947,-0.375529408454895,-30.415081024169922,58.857059478759766,-28.06197166442871
3.347,2.713460922241211,-6.825526237487793,1.84965181350708,0.14187344908714294,0.8211556077003479,-0.44165557622909546,-30.28354263305664,59.105525970458984,-28.23735809326172
3.351,3.1896326541900635,-7.136592864990234,1.0552347898483276,-0.0074830991216003895,1.321606993675232,-0.6272058486938477,-30.89739990234375,58.46243667602539,-28.003507614135742
3.357,3.293720245361328,-7.469195365905762,0.24885353446006775,-0.06398813426494598,1.3083206415176392,-0.6831000447273254,-31.072786331176758,58.60859298706055,-28.953521728515625
3.367,3.298506021499634,-7.892724990844727,-0.8350950479507446,-0.13744467496871948,1.0503827333450317,-0.7301366925239563,-32.21280288696289,58.667057037353516,-27.959659576416016
3.377,3.4815566539764404,-8.009973526000977,-1.5529417991638184,-0.12324206531047821,0.5199990272521973,-0.6565274000167847,-32.47588348388672,59.237064361572266,-28.003507614135742
3.387,3.5988051891326904,-8.270791053771973,-1.6079767942428589,-0.05696318298578262,0.044745877385139465,-0.5485569834709167,-33.045894622802734,58.652442932128906,-27.798887252807617
3.407,3.5581271648406982,-8.281558990478516,-1.2765707969665527,0.009773843921720982,-0.30970868468284607,-0.42409318685531616,-33.13358688354492,58.57936096191406,-27.50657844543457
3.411,3.5341989994049072,-8.158329010009766,-0.7836494445800781,0.11774427443742752,-0.3706424832344055,-0.2324342280626297,-33.65974807739258,58.46243667602539,-27.535808563232422
3.417,3.55214524269104,-8.140382766723633,-0.6819544434547424,0.15347988903522491,-0.26404649019241333,-0.18051066994667053,-33.71821212768555,58.60859298706055,-28.04735565185547
3.427,3.5772697925567627,-8.166703224182129,-0.665204644203186,0.18356500566005707,0.15500706434249878,-0.10934487730264664,-33.732826232910156,58.59397506713867,-27.798887252807617
3.437,3.7220354080200195,-8.255237579345703,-0.6831508874893188,0.1267545372247696,0.49556440114974976,-0.11591167747974396,-33.64513397216797,58.6962890625,-28.003507614135742
3.447,3.8560335636138916,-8.270791053771973,-0.8554341197013855,0.034666601568460464,0.765566885471344,-0.1293507218360901,-33.83513641357422,59.01782989501953,-27.491960525512695
3.466,3.946960687637329,-8.02074146270752,-1.1162517070770264,-0.030085112899541855,0.9818131327629089,-0.10613783448934555,-34.58053207397461,59.076290130615234,-28.748903274536133
3.47,4.11924409866333,-7.651050090789795,-1.4560325145721436,-0.021532999351620674,0.978606104850769,-0.10125090926885605,-34.712074279785156,58.81321334838867,-28.99736976623535
3.477,4.287938117980957,-7.513463020324707,-1.5553346872329712,0.03726277872920036,0.9005680680274963,-0.08017606288194656,-34.52206802368164,58.74013137817383,-28.968137741088867
3.487,4.445864677429199,-7.623532772064209,-1.4033904075622559,0.09697485715150833,0.7301366925239563,-0.05207626149058342,-34.49283981323242,58.50628662109375,-28.73428726196289
3.497,4.353740692138672,-8.118846893310547,-1.444068431854248,0.16432274878025055,0.5398521423339844,-0.018936822190880775,-34.799766540527344,58.857059478759766,-28.471206665039062
3.507,4.269991874694824,-8.769694328308105,-1.5002998113632202,0.23335051536560059,0.3770565688610077,-0.0088575454428792,-35.296695709228516,58.681671142578125,-28.398128509521484
3.527,4.3202409744262695,-9.482755661010742,-1.3052847385406494,0.28848108649253845,0.20891591906547546,-0.021532999351620674,-35.19438934326172,59.032447814941406,-29.421222686767578
3.531,4.687539577484131,-10.216156005859375,-0.7262216210365295,0.3191770911216736,-0.03588833287358284,-0.018020525574684143,-35.311309814453125,59.09090805053711,-28.982751846313477
3.537,4.803591251373291,-10.26640510559082,-0.6029912829399109,0.3127630054950714,-0.07177666574716568,0.002138028386980295,-35.0043830871582,58.9739875793457,-28.500438690185547
3.547,5.111069202423096,-9.884749412536621,-0.5910272002220154,0.294895201921463,0.030237827450037003,0.02672535367310047,-34.96053695678711,58.78398513793945,-29.085063934326172
3.557,5.264209270477295,-9.554540634155273,-0.8542376756668091,0.2641991972923279,0.2776382565498352,-0.01710422709584236,-35.12131118774414,58.93013381958008,-28.99736976623535
3.567,5.574079990386963,-9.437292098999023,-1.3543375730514526,0.2099849283695221,0.5958990454673767,-0.11728612333536148,-35.3843879699707,59.41244888305664,-29.041215896606445
3.588,5.935396194458008,-9.473184585571289,-2.069791555404663,0.13927727937698364,0.8565858006477356,-0.2226603776216507,-35.76439666748047,59.17860412597656,-29.31891441345215
3.592,6.4905314445495605,-9.323633193969727,-2.8654050827026367,0.09285151958465576,0.7658722400665283,-0.28527405858039856,-35.61824035644531,59.266300201416016,-30.02046012878418
3.598,6.667600154876709,-9.571290016174316,-2.65842604637146,0.11743884533643723,0.5363396406173706,-0.24007004499435425,-35.83747482299805,59.251678466796875,-29.45045280456543
3.607,6.595815181732178,-10.937591552734375,-2.2791635990142822,0.1765400469303131,0.23273965716362,-0.10323622077703476,-35.99824523925781,59.35398864746094,-29.669687271118164
3.617,6.236892223358154,-13.59362506866455,-1.8257235288619995,0.3019201457500458,0.03741549327969551,0.022602012380957603,-35.925167083740234,59.251678466796875,-30.049694061279297
3.627,6.1328043937683105,-15.3822603225708,-0.8231310248374939,0.3709478974342346,-0.08750644326210022,0.07895433157682419,-36.115169525146484,59.14937210083008,-29.81584358215332
3.647,5.918646335601807,-14.467004776000977,-0.004785645287483931,0.1794416606426239,-0.184939444065094,0.11652254313230515,-35.9836311340332,59.38322067260742,-30.093538284301758
3.651,4.700699806213379,-9.158528327941895,-1.4404791593551636,-0.07238753139972687,-0.23228150606155396,0.0731511116027832,-36.115169525146484,58.78398513793945,-29.45045280456543
3.657,4.316651821136475,-7.148557662963867,-1.1772687435150146,-0.10002917796373367,-0.28038716316223145,0.05711590126156807,-35.662086486816406,59.032447814941406,-30.37123680114746
3.667,3.7112677097320557,-5.416153907775879,0.12921242415905,-0.04718933627009392,-0.4914410710334778,0.055894169956445694,-35.720550537109375,59.280914306640625,-29.172758102416992
3.677,3.071187734603882,-4.504488468170166,1.3483555316925049,0.04260785132646561,-0.869719386100769,0.08552113175392151,-35.80824279785156,59.061676025390625,-29.523530960083008
3.687,2.421536445617676,-4.230510234832764,1.832902193069458,0.17272214591503143,-1.3981177806854248,0.22143864631652832,-35.340545654296875,59.280914306640625,-29.055830001831055
3.707,2.0925233364105225,-5.43290376663208,1.6199408769607544,0.28756481409072876,-1.6478089094161987,0.4378376603126526,-34.65361022949219,59.38322067260742,-29.421222686767578
3.711,1.9477574825286865,-7.586443901062012,1.4943177700042725,0.45295655727386475,-1.6493360996246338,0.767857551574707,-34.25898742675781,59.456298828125,-28.880443572998047
3.717,1.781456470489502,-8.805586814880371,1.4105688333511353,0.5534439086914062,-1.5667166709899902,0.9240863919258118,-33.572052001953125,59.7778434753418,-29.669687271118164
3.727,0.8003991842269897,-9.91705322265625,0.6137589812278748,0.7215845584869385,-1.370628833770752,1.0045678615570068,-32.797428131103516,59.500144958496094,-29.304296493530273
3.737,-0.19740787148475647,-10.493722915649414,-0.13639087975025177,1.042746901512146,-0.9143125414848328,0.8251261711120605,-32.09587860107422,59.894771575927734,-29.421222686767578
3.747,0.8434699773788452,-10.729416847229004,1.3363914489746094,1.1050552129745483,-0.3833179175853729,0.677602231502533,-31.45279312133789,59.92399978637695,-30.254310607910156
3.766,2.4179470539093018,-10.48534870147705,2.275574207305908,0.5937610268592834,0.5968153476715088,0.765566885471344,-30.868165969848633,60.610931396484375,-31.08740234375
3.77,3.0041887760162354,-9.719645500183105,1.9501503705978394,0.5360342264175415,0.6638578176498413,0.7504479885101318,-30.502779006958008,60.800933837890625,-31.482023239135742
3.777,3.2303104400634766,-9.353543281555176,1.5014961957931519,0.4155410826206207,0.8266533613204956,0.66584312915802,-30.853551864624023,61.28324890136719,-31.71587371826172
3.787,4.082155227661133,-8.96112060546875,1.1976077556610107,0.3442225456237793,0.9527970552444458,0.5230533480644226,-30.692779541015625,61.312477111816406,-32.183570861816406
3.797,4.937589645385742,-8.687142372131348,1.054038405418396,0.35552358627319336,0.8384125232696533,0.5036584138870239,-30.195850372314453,61.76556396484375,-32.183570861816406
3.807,5.284548759460449,-8.368897438049316,0.8817551136016846,0.4164573848247528,0.5815436840057373,0.5198463201522827,-29.494300842285156,61.26863479614258,-32.69511795043945
3.827,5.505885124206543,-8.163114547729492,0.7178468108177185,0.5343543291091919,0.34727686643600464,0.5546656250953674,-29.8889217376709,61.400177001953125,-33.29435729980469
3.83,5.708078384399414,-7.954938888549805,0.8614161610603333,0.7295258641242981,0.07376197725534439,0.6443100571632385,-29.771995544433594,61.414791107177734,-33.557437896728516
3.837,5.595615386962891,-7.722835063934326,1.0169496536254883,0.7666358351707458,-0.02168571576476097,0.6588181853294373,-29.523530960083008,61.195556640625,-33.08974075317383
3.847,5.284548759460449,-7.399803638458252,1.1748758554458618,0.793666660785675,-0.34025195240974426,0.6007859706878662,-28.880443572998047,61.736331939697266,-33.08974075317383
3.857,5.185246467590332,-7.459624290466309,1.1294121742248535,0.7806857824325562,-0.6721044778823853,0.4781547486782074,-28.544286727905273,62.21864700317383,-33.68898010253906
3.867,5.43290376663208,-7.838886737823486,1.1581261157989502,0.7805330157279968,-0.9909761548042297,0.38117989897727966,-28.295820236206055,61.911720275878906,-34.37591552734375
3.886,5.31685209274292,-8.425127983093262,1.317248821258545,0.8249735236167908,-1.3267992734909058,0.22937989234924316,-27.886581420898438,62.43788528442383,-35.45746612548828
3.89,5.213960647583008,-9.322437286376953,1.7802599668502808,0.8210029006004333,-1.3629930019378662,0.194713294506073,-27.52119255065918,61.838645935058594,-35.559776306152344
3.897,5.357529640197754,-9.664609909057617,1.920240044593811,0.793666660785675,-1.5202908515930176,0.056810468435287476,-27.57965660095215,61.48787307739258,-36.6851806640625
3.907,4.980660438537598,-9.853643417358398,2.090130567550659,0.7773259878158569,-1.5363260507583618,-0.051923543214797974,-27.871967315673828,62.18941879272461,-37.065185546875
3.917,4.443471431732178,-9.899106979370117,2.0099709033966064,0.7631233930587769,-1.334282398223877,-0.11209376901388168,-27.258113861083984,62.40864944458008,-36.64133071899414
3.927,3.851248025894165,-9.729216575622559,1.7335999011993408,0.7716754674911499,-1.1959214210510254,-0.17837265133857727,-26.89272117614746,62.715576171875,-37.079803466796875
3.947,3.427718162536621,-9.651450157165527,1.6235301494598389,0.788627028465271,-1.1339186429977417,-0.25182920694351196,-26.95118522644043,62.87635040283203,-38.36597442626953
3.952,2.833101749420166,-9.477970123291016,1.9118653535842896,0.7351763248443604,-1.0639744997024536,-0.29413163661956787,-27.185035705566406,62.61327362060547,-38.950599670410156
3.957,2.472982168197632,-9.440881729125977,2.045863151550293,0.6679810881614685,-1.0416779518127441,-0.31612274050712585,-27.272727966308594,62.964046478271484,-38.68751907348633
3.967,2.1332013607025146,-9.383453369140625,2.187039852142334,0.5577199459075928,-0.9830348491668701,-0.3347541391849518,-27.024263381958008,63.154048919677734,-39.35983657836914
3.977,1.8352948427200317,-9.138189315795898,2.224128484725952,0.4378376603126526,-0.8521569967269897,-0.33169981837272644,-27.345806121826172,63.50482177734375,-39.30137634277344
3.987,1.7742778062820435,-8.793622970581055,2.1678972244262695,0.33108893036842346,-0.6507241725921631,-0.3152064383029938,-27.272727966308594,63.54867172241211,-40.11984634399414
4.007,1.8340984582901,-8.541180610656738,2.122433662414551,0.22571469843387604,-0.3562871515750885,-0.26374107599258423,-28.251972198486328,63.270973205566406,-39.564453125
4.011,2.1954145431518555,-8.736194610595703,2.2648065090179443,0.12476921826601028,-0.11239920556545258,-0.21135936677455902,-28.06197166442871,63.840980529785156,-40.23677444458008
4.017,2.416750907897949,-9.006584167480469,2.376072883605957,0.06185010448098183,-0.021838432177901268,-0.18875734508037567,-27.97427749633789,63.60713195800781,-39.91522979736328
4.027,2.4610180854797363,-9.259027481079102,2.4610180854797363,-0.0027488935738801956,0.07788532227277756,-0.17730362713336945,-28.251972198486328,63.85559844970703,-40.11984634399414
4.037,2.605783700942993,-9.41934585571289,2.528017044067383,-0.038179077208042145,0.2292271852493286,-0.1641700267791748,-27.915815353393555,63.62174606323242,-40.36831283569336
4.047,2.93001127243042,-9.474380493164062,2.5531415939331055,-0.033597588539123535,0.4057672321796417,-0.12370020896196365,-27.62350082397461,63.30020523071289,-40.514469146728516
4.066,3.0664021968841553,-9.401399612426758,2.5292134284973145,0.040622539818286896,0.5064072608947754,-0.07681629806756973,-27.57965660095215,63.41712951660156,-39.72522735595703
4.07,3.2482566833496094,-9.18604564666748,2.480160713195801,0.07360926270484924,0.49006664752960205,-0.07223481684923172,-27.535808563232422,63.13943099975586,-40.70447540283203
4.077,3.321237564086914,-8.998208999633789,2.341376781463623,0.13637566566467285,0.4465424716472626,-0.06551529467105865,-27.667348861694336,63.51943588256836,-40.587547302246094
4.087,3.290131092071533,-8.650053024291992,2.2205393314361572,0.2454151064157486,0.3854559361934662,-0.05803219974040985,-28.13504981994629,63.56328582763672,-40.587547302246094
4.097,3.190828800201416,-8.294719696044922,2.1678972244262695,0.4059199392795563,0.35781431198120117,-0.039248090237379074,-27.433500289916992,63.387901306152344,-40.2660026550293
4.107,3.146561861038208,-8.067400932312012,2.042273998260498,0.5262603759765625,0.3407100737094879,-0.022449297830462456,-28.105815887451172,63.577903747558594,-40.47062301635742
4.127,3.183650493621826,-8.167899131774902,1.8939191102981567,0.6383541822433472,0.3039054572582245,-0.001527163083665073,-27.959659576416016,64.3379135131836,-41.683719635009766
4.13,3.3379874229431152,-8.567501068115234,1.7072789669036865,0.7730499505996704,0.23640485107898712,0.0328340083360672,-27.433500289916992,64.22098541259766,-42.078338623046875
4.137,3.387040376663208,-8.830711364746094,1.6378871202468872,0.8483390808105469,0.1788308024406433,0.0503963828086853,-28.032737731933594,64.1771469116211,-41.727561950683594
4.147,3.427718162536621,-9.245866775512695,1.628315806388855,0.949895441532135,0.09422595798969269,0.06627887487411499,-28.222742080688477,64.46945190429688,-42.01987838745117
4.157,3.458824872970581,-9.610772132873535,1.5936198234558105,1.002277135848999,0.08659014105796814,0.08491026610136032,-27.959659576416016,63.840980529785156,-41.93218231201172
4.167,3.6095728874206543,-9.82373332977295,1.454836130142212,1.0428996086120605,0.12522737681865692,0.11453723162412643,-27.945045471191406,64.04560089111328,-42.6629638671875
4.187,3.5940194129943848,-9.90748119354248,1.325623631477356,1.0711522102355957,0.19379699230194092,0.1434006243944168,-27.50657844543457,64.68869018554688,-44.48991394042969
4.191,3.504288673400879,-9.65384292602539,0.7836494445800781,1.1233811378479004,0.39767327904701233,0.16798794269561768,-27.62350082397461,64.1771469116211,-44.88453674316406
4.197,3.3846476078033447,-9.272187232971191,0.2392822504043579,1.1681270599365234,0.5601634383201599,0.18585574626922607,-27.740427017211914,63.97251892089844,-44.38760757446289
4.207,3.5018956661224365,-9.034101486206055,0.6149553656578064,1.1426234245300293,0.9892961978912354,0.22663100063800812,-27.316574096679688,64.73253631591797,-45.32300567626953
4.217,3.723231792449951,-9.007781028747559,1.286142110824585,0.8707883954048157,1.1381946802139282,0.18127425014972687,-27.62350082397461,64.4109878540039,-46.170711517333984
4.227,3.8572299480438232,-9.109475135803223,1.5122638940811157,0.42928555607795715,1.0474811792373657,0.06902776658535004,-27.462730407714844,64.60099029541016,-46.02455520629883
4.247,3.8943188190460205,-9.136992454528809,1.2035897970199585,-0.02580905519425869,0.8254316449165344,-0.055436018854379654,-27.50657844543457,64.16252899169922,-46.4191780090332
4.252,3.899104356765747,-9.056833267211914,0.7968099117279053,-0.3845396637916565,0.5525276064872742,-0.09285151958465576,-27.594270706176758,64.27944946289062,-46.57994842529297
4.257,3.8847475051879883,-9.109475135803223,0.9667003750801086,-0.45173484086990356,0.4056145250797272,-0.06704245507717133,-27.740427017211914,64.44022369384766,-46.50687026977539
4.267,3.809373378753662,-9.270990371704102,1.5469597578048706,-0.49357911944389343,0.19104810059070587,-0.012675453908741474,-27.4481143951416,64.55714416503906,-45.4837760925293
4.277,3.7902309894561768,-9.382257461547852,1.8963117599487305,-0.5006040930747986,0.03756821155548096,0.06169738993048668,-27.4481143951416,64.63021850585938,-45.32300567626953
4.287,3.88594388961792,-9.41934585571289,2.2013967037200928,-0.48288896679878235,-0.030237827450037003,0.14309518039226532,-27.433500289916992,64.26483154296875,-44.65068435668945
4.307,3.9038898944854736,-9.34875774383545,2.389233350753784,-0.4657847285270691,-0.06688974052667618,0.19456057250499725,-27.1704158782959,64.74714660644531,-44.50453186035156
4.311,4.094119548797607,-9.119047164916992,2.4598214626312256,-0.4407392740249634,-0.10766499489545822,0.17577646672725677,-26.717334747314453,64.54253387451172,-44.606842041015625
4.317,4.185046672821045,-9.034101486206055,2.4502503871917725,-0.4285219609737396,-0.08292495459318161,0.17318028211593628,-26.761180877685547,64.32330322265625,-44.13914108276367
4.327,4.314259052276611,-9.06161880493164,2.506481647491455,-0.4060726761817932,-0.00931569468230009,0.16982053220272064,-26.746564865112305,64.06021881103516,-44.13914108276367
4.337,4.4303107261657715,-9.293722152709961,2.5806589126586914,-0.38377609848976135,0.07116580009460449,0.1595885455608368,-26.629642486572266,64.01637268066406,-44.0806770324707
4.347,4.551148414611816,-9.549755096435547,2.662015199661255,-0.355981707572937,0.13973543047904968,0.1371392458677292,-26.571178436279297,63.79713439941406,-43.89067459106445
4.366,4.612165451049805,-9.720841407775879,2.761317014694214,-0.29626965522766113,0.23182335495948792,0.09437867254018784,-27.024263381958008,64.01637268066406,-43.58374786376953
4.37,4.773681163787842,-9.846465110778809,2.9012973308563232,-0.284052312374115,0.24465152621269226,0.08674286305904388,-26.86349105834961,64.35253143310547,-43.21835708618164
4.377,4.861019134521484,-9.92303466796875,2.963510751724243,-0.2687807083129883,0.2542726695537567,0.07467827200889587,-26.68810272216797,63.98713684082031,-43.72990417480469
4.387,4.883750915527344,-10.022336959838867,2.933600664138794,-0.24556781351566315,0.2457205355167389,0.05268712714314461,-26.43963623046875,64.1771469116211,-43.27682113647461
4.397,4.754538536071777,-9.929017066955566,2.8067808151245117,-0.2002110779285431,0.22021691501140594,0.01725694164633751,-26.775794982910156,63.85559844970703,-42.999122619628906
4.407,4.515256404876709,-9.674181938171387,2.6464619636535645,-0.09285151958465576,0.21532998979091644,-0.023060161620378494,-26.4104061126709,64.01637268066406,-42.15141677856445
4.427,4.116851329803467,-9.359525680541992,2.376072883605957,0.02672535367310047,0.23487769067287445,-0.03787364438176155,-26.33732795715332,64.30867767333984,-42.619117736816406
4.43,3.7770702838897705,-9.09152889251709,2.1260228157043457,0.20433442294597626,0.2551889419555664,-0.04795292019844055,-26.89272117614746,64.2940673828125,-42.838348388671875
4.437,3.6047871112823486,-8.98385238647461,2.0099709033966064,0.29886582493782043,0.2448042333126068,-0.036651913076639175,-26.42502212524414,64.36714172363281,-43.53989791870117
4.447,3.218346357345581,-8.85942554473877,1.7599210739135742,0.4092797338962555,0.2025018185377121,-0.021838432177901268,-26.86349105834961,63.884830474853516,-44.03683090209961
4.457,2.964707136154175,-8.700303077697754,1.5110673904418945,0.5044220089912415,0.14966197311878204,-0.009010262787342072,-26.702720642089844,64.14791107177734,-43.53989791870117
4.467,2.335394859313965,-8.416753768920898,0.27397817373275757,0.6446155309677124,0.16264288127422333,-0.010537425056099892,-26.731950759887695,64.19175720214844,-44.051448822021484
4.487,1.4656038284301758,-8.258827209472656,-1.2215359210968018,0.9004153609275818,0.4404338300228119,-0.019089538604021072,-26.293479919433594,64.1186752319336,-45.132999420166016
4.491,1.5397813320159912,-9.343972206115723,-1.6749757528305054,1.1158980131149292,1.016479730606079,-0.016035212203860283,-26.68810272216797,64.27944946289062,-45.615318298339844
4.497,2.4358932971954346,-10.52841854095459,-1.031306505203247,0.9071348309516907,1.3419182300567627,0.016493361443281174,-26.32271385192871,63.85559844970703,-46.170711517333984
4.507,4.068994522094727,-12.019147872924805,0.17946170270442963,0.05146539583802223,1.4228578805923462,0.05772676318883896,-26.30809783935547,64.2502212524414,-45.93686294555664
4.517,4.750949382781982,-12.037094116210938,0.35533416271209717,-1.3848315477371216,0.8278751373291016,-0.051923543214797974,-26.483484268188477,63.884830474853516,-46.44840621948242
4.527,4.587040901184082,-10.065407752990723,-0.9978070259094238,-2.0251710414886475,0.3819434940814972,-0.19685132801532745,-26.43963623046875,63.44636154174805,-45.64455032348633
4.547,4.675575256347656,-9.032905578613281,-1.179661512374878,-2.121993064880371,0.144622340798378,-0.17577646672725677,-26.819643020629883,63.840980529785156,-44.50453186035156
4.551,4.265206336975098,-8.334200859069824,-0.6017948985099792,-1.8501580953598022,-0.270766019821167,-0.11698068678379059,-26.96579933166504,63.460975646972656,-41.9029541015625
4.557,4.157529354095459,-8.234898567199707,-0.40677982568740845,-1.7382169961929321,-0.42806383967399597,-0.12950342893600464,-27.141185760498047,63.82636260986328,-41.99064636230469
4.567,3.9385857582092285,-8.316254615783691,-0.10408778488636017,-1.4972307682037354,-0.6992879509925842,-0.19257526099681854,-26.89272117614746,63.358665466308594,-40.324466705322266
4.577,3.812962770462036,-8.924031257629395,0.05144568905234337,-1.4175127744674683,-0.7296785116195679,-0.24419337511062622,-26.60040855407715,63.24174499511719,-39.579071044921875
4.587,3.7842490673065186,-9.439684867858887,0.16031910479068756,-1.4741705656051636,-0.675006091594696,-0.32070425152778625,-27.301958084106445,63.12481689453125,-38.93598175048828
4.607,3.781856060028076,-10.076175689697266,0.2021934986114502,-1.6488779783248901,-0.6498079299926758,-0.40775254368782043,-26.921951293945312,62.80327606201172,-39.1844482421875
4.611,3.428914785385132,-10.687541961669922,0.4342972934246063,-1.9381226301193237,-0.7099781036376953,-0.4920519292354584,-27.272727966308594,61.970184326171875,-37.079803466796875
4.617,3.242274522781372,-10.789237022399902,0.5216353535652161,-2.037693738937378,-0.7191411256790161,-0.4899139106273651,-27.71119499206543,61.82402801513672,-37.605960845947266
4.627,2.667997121810913,-11.058429718017578,0.9607182741165161,-2.10809588432312,-0.6653849482536316,-0.45433101058006287,-27.945045471191406,61.44401931762695,-35.67670440673828
4.637,2.568694829940796,-11.127821922302246,1.1114661693572998,-2.066251516342163,-0.5969680547714233,-0.3689625859260559,-27.769657135009766,61.13709259033203,-34.59514617919922
4.647,2.392822504043579,-11.298907279968262,1.4715858697891235,-1.9266688823699951,-0.6472117304801941,-0.35582900047302246,-28.544286727905273,60.187076568603516,-33.49897384643555
4.666,2.4023938179016113,-11.33360481262207,1.8795621395111084,-1.6407840251922607,-0.3874412775039673,-0.3150537610054016,-28.748903274536133,60.12861633300781,-30.517393112182617
4.67,1.9214365482330322,-11.615957260131836,2.275574207305908,-1.595579981803894,-0.2002110779285431,-0.3019201457500458,-29.143524169921875,59.93861389160156,-30.34200668334961
4.677,1.6618152856826782,-11.685348510742188,2.3437697887420654,-1.5358679294586182,0.08994990587234497,-0.2993239462375641,-28.880443572998047,60.1140022277832,-29.581993103027344
4.687,1.6941183805465698,-11.385049819946289,2.455035924911499,-1.4700472354888916,0.41920626163482666,-0.3153591752052307,-29.26045036315918,59.909385681152344,-28.07658576965332
4.697,1.9082759618759155,-10.50090217590332,2.4610180854797363,-1.4327844381332397,0.6114761233329773,-0.3153591752052307,-28.79275131225586,59.997074127197266,-27.798887252807617
4.707,2.1619153022766113,-9.414560317993164,2.17627215385437,-1.3548990488052368,0.6679810881614685,-0.26801711320877075,-29.011985778808594,59.894771575927734,-26.95118522644043
4.727,2.190629005432129,-8.38684368133545,1.6462620496749878,-1.130406141281128,0.5710062980651855,-0.18784105777740479,-29.421222686767578,59.70476150512695,-25.518856048583984
4.731,2.172683000564575,-7.167700290679932,1.0013961791992188,-0.7863362431526184,0.49754971265792847,-0.11468994617462158,-29.567378997802734,59.19321823120117,-25.50423812866211
4.737,2.344965934753418,-6.930810928344727,0.8769694566726685,-0.5977316498756409,0.5154175162315369,-0.08139779418706894,-29.771995544433594,59.295528411865234,-25.533470153808594
4.747,2.7361927032470703,-7.028916358947754,0.7896314859390259,-0.46043968200683594,0.5601634383201599,-0.06185010448098183,-29.8889217376709,59.22244644165039,-25.89885902404785
4.757,3.1752755641937256,-7.276573657989502,0.7800601124763489,-0.46883904933929443,0.645073652267456,-0.07116580009460449,-29.45045280456543,58.81321334838867,-25.518856048583984
4.767,3.544966459274292,-7.5493550300598145,0.4654039740562439,-0.5859724879264832,0.6785185933113098,-0.09605855494737625,-29.78661346435547,58.90090560913086,-25.387313842773438
4.786,3.8356947898864746,-7.830511569976807,-0.009571290574967861,-0.597426176071167,0.6455318927764893,-0.15347988903522491,-30.07892417907715,59.295528411865234,-24.87576675415039
4.79,3.926621675491333,-8.231308937072754,-0.26919254660606384,-0.564592182636261,0.6047565937042236,-0.1820378452539444,-29.669687271118164,58.6962890625,-24.74422836303711
4.797,3.9948172569274902,-8.301898002624512,-0.3002992272377014,-0.4917464852333069,0.554818332195282,-0.2243402600288391,-29.275066375732422,58.98860168457031,-24.364221572875977
4.807,3.9290146827697754,-8.335397720336914,-0.10169495642185211,-0.3943135142326355,0.4999931752681732,-0.2692388594150543,-30.28354263305664,58.59397506713867,-23.896520614624023
4.817,3.592823028564453,-8.400003433227539,0.0526420958340168,-0.31963521242141724,0.4700608253479004,-0.29764407873153687,-30.181232452392578,58.49167251586914,-24.276527404785156
4.827,3.231506824493408,-8.434700012207031,0.1746760457754135,-0.2393064647912979,0.4314235746860504,-0.2964223325252533,-30.42970085144043,58.72551727294922,-23.808828353881836
4.847,2.5603203773498535,-8.141578674316406,0.014356935396790504,-0.16264288127422333,0.2984076738357544,-0.3003929853439331,-30.590471267700195,58.243202209472656,-23.706518173217773
4.852,1.6785650253295898,-7.593622207641602,-0.02392822690308094,-0.03695734962821007,-0.044745877385139465,-0.2825251817703247,-30.882781982421875,58.126277923583984,-23.823442459106445
4.858,1.4787644147872925,-7.457231521606445,0.0406779870390892,-0.0088575454428792,-0.15653420984745026,-0.25182920694351196,-30.73662757873535,58.28704833984375,-23.69190216064453
4.867,1.113858938217163,-7.18086051940918,0.08374878764152527,0.03084869496524334,-0.32971450686454773,-0.16600261628627777,-31.365097045898438,58.126277923583984,-23.22420310974121
4.877,0.8398807048797607,-6.942774772644043,0.2584248483181,0.05604688450694084,-0.41661009192466736,-0.06414084881544113,-30.619701385498047,58.38935852050781,-23.078046798706055
4.887,0.8709874153137207,-6.776473522186279,0.3170489966869354,0.04581489413976669,-0.4164573848247528,-0.005803219974040985,-30.985092163085938,58.21397399902344,-23.22420310974121
4.907,1.1868400573730469,-6.812366008758545,0.15912269055843353,0.017867807298898697,-0.3617849349975586,0.05100724473595619,-30.210464477539062,58.155513763427734,-22.94650650024414
4.911,2.00518536567688,-7.026523113250732,-0.02991028130054474,-0.03298672288656235,-0.20265454053878784,0.20082195103168488,-30.6489315032959,58.11166000366211,-23.151124954223633
4.917,2.585444688796997,-7.233502388000488,-0.11964112520217896,-0.05009094625711441,-0.15836679935455322,0.26251932978630066,-29.947385787963867,58.4185905456543,-23.253435134887695
4.927,3.438485860824585,-7.462017059326172,-0.1663011610507965,-0.06505714356899261,-0.16050483286380768,0.4098905920982361,-29.757381439208984,58.360130310058594,-23.69190216064453
4.937,4.29750919342041,-7.478766918182373,-0.02871387079358101,-0.03039054572582245,-0.27870726585388184,0.49724429845809937,-30.049694061279297,57.921661376953125,-23.355743408203125
4.947,4.645665168762207,-7.341179370880127,0.1746760457754135,0.015882495790719986,-0.38988474011421204,0.5438227653503418,-29.81584358215332,57.717044830322266,-23.2095890045166
4.966,4.687539577484131,-6.997809410095215,0.26440688967704773,0.07987063378095627,-0.30833423137664795,0.47830748558044434,-29.201988220214844,58.550132751464844,-24.305757522583008
4.97,4.445864677429199,-6.401997089385986,-0.16510476171970367,0.08720101416110992,-0.2457205355167389,0.4593706429004669,-28.80736541748047,58.33089828491211,-23.85267448425293
4.977,4.23529577255249,-6.029912948608398,-0.5000999569892883,0.1215621829032898,0.07452555745840073,0.35934150218963623,-28.28120231628418,58.33089828491211,-23.428821563720703
4.987,3.860819101333618,-5.595615386962891,-0.867398202419281,0.14844025671482086,0.37919458746910095,0.21960605680942535,-28.325050354003906,58.4185905456543,-23.984214782714844
4.997,3.6681969165802,-5.247459411621094,-1.1306086778640747,0.16982053220272064,0.5713117122650146,0.06414084881544113,-28.63197898864746,58.08243179321289,-23.721134185791016
5.007,3.483949661254883,-5.132604598999023,-1.5445669889450073,0.24495695531368256,0.5853615999221802,-0.09117163717746735,-29.128910064697266,58.50628662109375,-23.896520614624023
5.027,3.510270595550537,-5.398207664489746,-1.7886348962783813,0.3787364661693573,0.46761733293533325,-0.21792617440223694,-29.36275863647461,58.56474685668945,-25.32884979248047
5.03,3.4875388145446777,-6.704688549041748,-1.3830513954162598,0.5879577994346619,0.2626720666885376,-0.24129176139831543,-29.669687271118164,58.243202209472656,-25.065771102905273
5.037,3.31884503364563,-7.283751964569092,-1.2179466485977173,0.6378960609436035,0.21013763546943665,-0.20983220636844635,-29.391992568969727,58.71090316772461,-25.168079376220703
5.047,3.0484561920166016,-7.7036919593811035,-1.1066803932189941,0.667828381061554,0.18936823308467865,-0.18219056725502014,-30.137386322021484,59.032447814941406,-25.372699737548828
5.057,2.8582265377044678,-7.700103282928467,-0.9631110429763794,0.6751587986946106,0.21319197118282318,-0.18310685455799103,-30.57585334777832,58.76936340332031,-25.31423568725586
5.067,2.7218358516693115,-7.3160552978515625,-0.714257538318634,0.6574437022209167,0.26801711320877075,-0.17623461782932281,-30.53200912475586,59.32476043701172,-26.32271385192871
5.087,2.7876384258270264,-6.845865249633789,-0.37806597352027893,0.6126978397369385,0.29046642780303955,-0.14508049190044403,-30.707395553588867,58.98860168457031,-26.834259033203125
5.09,3.1178479194641113,-6.453442096710205,-0.25244277715682983,0.5575672388076782,0.13759739696979523,-0.09056076407432556,-31.160480499267578,59.09090805053711,-26.68810272216797
5.097,3.431307554244995,-6.594618797302246,-0.4414757788181305,0.5400048494338989,-0.04566217586398125,-0.06185010448098183,-30.780473709106445,59.63168716430664,-27.565038681030273
5.107,3.6095728874206543,-7.144968032836914,-0.8003991842269897,0.5169447064399719,-0.3536909520626068,-0.00809396430850029,-31.13124656677246,59.485530853271484,-27.945045471191406
5.117,3.510270595550537,-7.951349258422852,-1.345962643623352,0.46883904933929443,-0.6281222105026245,0.054825153201818466,-30.678165435791016,59.12014389038086,-28.018123626708984
5.127,3.2231318950653076,-8.935996055603027,-2.159522294998169,0.40515637397766113,-0.7742716670036316,0.10980302840471268,-31.18971061706543,59.35398864746094,-28.018123626708984
5.147,2.853440999984741,-10.074979782104492,-2.985046148300171,0.38469237089157104,-0.7652614116668701,0.11774427443742752,-31.335866928100586,59.280914306640625,-28.16427993774414
5.151,3.0233314037323,-12.000005722045898,-3.235095977783203,0.5184718370437622,-0.6592763066291809,0.005803219974040985,-30.868165969848633,59.76322937011719,-28.880443572998047
5.157,3.5258240699768066,-12.806386947631836,-2.5603203773498535,0.5757404565811157,-0.6455318927764893,-0.025961771607398987,-30.415081024169922,59.675533294677734,-28.865829467773438
5.167,4.240081787109375,-13.058829307556152,-1.5529417991638184,0.6151412725448608,-0.6253732442855835,-0.016493361443281174,-30.37123680114746,60.02630615234375,-30.35662078857422
5.177,3.875175952911377,-12.361321449279785,-0.9583254456520081,0.5772676467895508,-0.5009095072746277,0.05253440886735916,-30.678165435791016,60.435546875,-30.54662322998047
5.187,3.177668571472168,-11.186446189880371,-0.7202395796775818,0.4657847285270691,-0.15164729952812195,0.003054326167330146,-30.45893096923828,60.362464904785156,-30.239694595336914
5.207,3.442075490951538,-9.772287368774414,-0.8087739944458008,0.3663664162158966,0.14049901068210602,-0.06750060617923737,-30.9266300201416,60.3770866394043,-30.63431739807129
5.211,4.431507587432861,-8.955138206481934,-0.6257230639457703,0.25732696056365967,0.27580565214157104,-0.10018189251422882,-30.56123924255371,59.894771575927734,-30.56123924255371
5.217,4.83469820022583,-8.563911437988281,-0.503689169883728,0.19822576642036438,0.19257526099681854,-0.09407324343919754,-31.4674072265625,60.099388122558594,-30.415081024169922
5.227,5.072783946990967,-7.998009204864502,-0.6819544434547424,0.17806722223758698,-0.048258356750011444,-0.07437284290790558,-31.233558654785156,59.982460021972656,-31.02893829345703
5.237,4.743770599365234,-7.401000499725342,-1.0253244638442993,0.29336804151535034,-0.3286454975605011,-0.002138028386980295,-31.335866928100586,60.187076568603516,-31.18971061706543
5.247,4.240081787109375,-7.055237293243408,-1.2478569746017456,0.43279802799224854,-0.5212207436561584,0.055894169956445694,-31.423559188842773,60.216312408447266,-30.795087814331055
5.266,3.940978765487671,-7.056434154510498,-1.2550355195999146,0.6795875430107117,-1.0343475341796875,0.14614950120449066,-30.678165435791016,60.23093032836914,-32.09587860107422
5.27,3.504288673400879,-7.501498699188232,-1.1569297313690186,0.7046330571174622,-1.0923796892166138,0.1543961763381958,-31.262788772583008,60.187076568603516,-32.32973098754883
5.277,3.115455150604248,-8.081757545471191,-1.046859860420227,0.7745771408081055,-1.2405145168304443,0.17150041460990906,-30.89739990234375,60.14323425292969,-32.680503845214844
5.287,2.6847469806671143,-8.880961418151855,-0.9044869542121887,0.8639161586761475,-1.3533719778060913,0.16249015927314758,-31.10201644897461,60.64016342163086,-32.84127426147461
5.297,2.506481647491455,-9.722038269042969,-0.9176474213600159,0.8906415104866028,-1.2912163734436035,0.16768251359462738,-30.28354263305664,60.34785079956055,-33.71821212768555
5.307,2.475374937057495,-10.06301498413086,-1.0719845294952393,0.8568911552429199,-1.1110111474990845,0.2021963894367218,-30.678165435791016,60.435546875,-33.586673736572266
5.327,2.4047865867614746,-10.25085163116455,-1.3375877141952515,0.7658722400665283,-0.7973318696022034,0.22708913683891296,-30.093538284301758,60.87401580810547,-33.9082145690918
5.331,1.810170292854309,-10.74855899810791,-2.2025930881500244,0.5705481171607971,-0.012675453908741474,0.10949759185314178,-30.54662322998047,60.34785079956055,-34.77053451538086
5.337,1.7060824632644653,-11.035697937011719,-2.5782663822174072,0.49495354294776917,0.555429220199585,-0.049785517156124115,-30.298158645629883,60.771705627441406,-35.179771423339844
5.347,3.060420036315918,-12.08495044708252,-2.9551358222961426,0.5048801302909851,1.324508547782898,-0.24144448339939117,-31.072786331176758,60.786319732666016,-35.44285202026367
5.357,4.843072891235352,-13.25743293762207,-2.139183282852173,0.5871942043304443,1.8176295757293701,-0.2900082468986511,-31.20432472229004,60.625545501708984,-35.74978256225586
5.367,5.423332214355469,-14.096117973327637,-0.7298108339309692,0.5474879741668701,1.9449949264526367,-0.17806722223758698,-31.774335861206055,61.13709259033203,-36.96287536621094
5.388,5.472385406494141,-13.920245170593262,0.8327022790908813,0.24404066801071167,1.7771596908569336,-0.11591167747974396,-32.53434753417969,61.48787307739258,-37.635196685791016
5.392,4.637290000915527,-12.065807342529297,2.2085752487182617,-0.47342056035995483,1.1786644458770752,-0.19914206862449646,-32.76819610595703,61.09324645996094,-36.59748840332031
5.397,4.091726303100586,-10.61934757232666,1.8664016723632812,-0.7254024744033813,0.9779952168464661,-0.27641651034355164,-32.972816467285156,60.56708526611328,-37.18210983276367
5.407,3.530609607696533,-9.06401252746582,0.8279166221618652,-0.7805330157279968,0.9569203853607178,-0.3523165285587311,-33.48435974121094,61.16632843017578,-36.26132583618164
5.417,3.943371534347534,-9.499505043029785,0.1746760457754135,-0.5549710988998413,1.1612548828125,-0.39446622133255005,-33.440513610839844,60.815547943115234,-35.7059326171875
5.427,4.947160720825195,-12.56710433959961,-0.064606212079525,-0.314442902803421,1.45172119140625,-0.4069889783859253,-34.551300048828125,60.87401580810547,-36.495174407958984
5.447,5.216352939605713,-16.403995513916016,-3.94815731048584,0.024434609338641167,2.421011447906494,-0.4813618063926697,-34.85823059082031,60.771705627441406,-35.939781188964844
5.452,11.203194618225098,-17.860027313232422,6.233302593231201,-0.725249707698822,2.4608705043792725,-0.48258352279663086,-36.05670928955078,60.596317291259766,-36.69979476928711
5.458,10.202995300292969,-13.552947044372559,6.339783668518066,-1.2983940839767456,1.415374755859375,-0.41722097992897034,-36.26132583618164,61.07863235473633,-35.50131607055664
5.467,7.4500532150268555,-9.029315948486328,2.988635540008545,-1.7499761581420898,-0.26710081100463867,-0.206777885556221,-36.58287048339844,59.997074127197266,-35.23823165893555
5.477,5.554937362670898,-5.905486106872559,0.576670229434967,-1.4735596179962158,-1.017396092414856,0.013744467869400978,-36.43671417236328,60.420928955078125,-33.9666748046875
5.487,4.363311767578125,-4.537988185882568,-0.0406779870390892,-0.8907942175865173,-1.6288721561431885,0.08933904021978378,-36.159019470214844,60.1140022277832,-33.87898254394531
5.507,4.54636287689209,-4.759324073791504,-0.2105683833360672,0.0027488935738801956,-2.5757131576538086,0.04718933627009392,-35.559776306152344,59.500144958496094,-32.95820236206055
5.511,5.24626350402832,-7.692924499511719,1.2406784296035767,0.7473936080932617,-3.297450304031372,0.16722436249256134,-35.25284957885742,59.485530853271484,-32.66588592529297
5.517,5.30967378616333,-8.925228118896484,1.7994025945663452,1.0532844066619873,-3.5666892528533936,0.2629774808883667,-34.2443733215332,59.500144958496094,-33.10435485839844
5.527,5.090729713439941,-10.15035343170166,2.2648065090179443,1.3574951887130737,-3.6387715339660645,0.3972151279449463,-33.70359420776367,60.3770866394043,-33.572052001953125
5.537,4.874179840087891,-11.359925270080566,2.657229423522949,1.5644259452819824,-3.3128747940063477,0.525496780872345,-32.56357955932617,60.391700744628906,-34.60976028442383
5.547,4.60857629776001,-12.340982437133789,2.9862425327301025,1.6545284986495972,-2.514932155609131,0.582001805305481,-32.35895919799805,60.625545501708984,-34.346683502197266
5.568,3.7435710430145264,-12.368499755859375,3.212364435195923,1.5606080293655396,-1.5960381031036377,0.5338962078094482,-31.277402877807617,61.07863235473633,-36.31978988647461
5.571,2.6452653408050537,-10.65284538269043,2.166700839996338,1.2441797256469727,0.04917465150356293,0.3494149148464203,-31.08740234375,60.68401336669922,-36.524410247802734
5.577,2.3186450004577637,-9.394221305847168,1.5972089767456055,1.1107057332992554,0.3286454975605011,0.30482175946235657,-30.809703826904297,61.034786224365234,-37.16749572753906
5.587,1.5050853490829468,-8.288737297058105,0.576670229434967,0.8547531962394714,0.4108068645000458,0.2203696370124817,-30.502779006958008,60.93247604370117,-37.78135299682617
5.597,1.0875378847122192,-7.777869701385498,-0.41036906838417053,0.6287330389022827,0.022143863141536713,0.11621711403131485,-30.99970817565918,61.400177001953125,-37.98596954345703
5.607,1.2813564538955688,-7.637889862060547,-0.9678966999053955,0.5062545537948608,-0.36422839760780334,0.12171489745378494,-30.254310607910156,61.341712951660156,-37.69365692138672
5.627,2.0027923583984375,-7.623532772064209,-0.8075776100158691,0.4294382631778717,-0.693637490272522,0.17577646672725677,-30.210464477539062,61.195556640625,-38.43905258178711
5.631,2.898904800415039,-7.6905317306518555,-0.39840495586395264,0.4369213581085205,-1.0575604438781738,0.2590068578720093,-29.567378997802734,61.15170669555664,-37.591346740722656
5.637,3.0723841190338135,-7.800601482391357,-0.1172483041882515,0.4625777006149292,-1.073290228843689,0.2701551616191864,-29.552762985229492,61.005558013916016,-38.1467399597168
5.647,3.3990042209625244,-8.2755765914917,0.44386857748031616,0.5195409059524536,-0.7435756921768188,0.25992316007614136,-29.494300842285156,61.239402770996094,-38.789825439453125
5.657,3.94815731048584,-8.748159408569336,1.195214867591858,0.5120577812194824,-0.2736676335334778,0.16600261628627777,-28.982751846313477,60.800933837890625,-39.579071044921875
5.667,4.401597023010254,-8.851051330566406,1.4428720474243164,0.46502113342285156,0.2301434725522995,0.027947084978222847,-29.830459594726562,61.429405212402344,-38.1467399597168
5.687,4.666004180908203,-8.817551612854004,1.3411771059036255,0.3868303894996643,0.7111998200416565,-0.04001167416572571,-29.31891441345215,61.38555908203125,-39.09675598144531
5.691,4.205385684967041,-8.799604415893555,0.4821537435054779,0.29306259751319885,1.173930287361145,-0.1339322030544281,-29.581993103027344,61.44401931762695,-40.339080810546875
5.697,4.0079779624938965,-8.82951545715332,0.14835500717163086,0.2704605758190155,1.2431107759475708,-0.1866193264722824,-29.655071258544922,61.16632843017578,-40.397544860839844
5.707,3.4875388145446777,-8.834300994873047,-0.5958127975463867,0.22647827863693237,1.2159273624420166,-0.2197587788105011,-29.8889217376709,61.82402801513672,-40.03215408325195
5.717,3.156132936477661,-8.841479301452637,-0.9116654396057129,0.13759739696979523,1.1042916774749756,-0.2096794992685318,-29.845073699951172,61.37094497680664,-40.23677444458008
5.727,3.1381869316101074,-8.737391471862793,-0.8506484627723694,-0.00809396430850029,0.9275988340377808,-0.17302757501602173,-30.28354263305664,60.990936279296875,-41.37678909301758
5.747,3.0281169414520264,-8.461020469665527,-0.9595218300819397,-0.16554446518421173,0.7232643961906433,-0.14095714688301086,-30.590471267700195,61.020172119140625,-41.157554626464844
5.751,3.3068807125091553,-8.104490280151367,-0.7932206988334656,-0.23671028017997742,0.5534439086914062,-0.11423180252313614,-30.152002334594727,61.005558013916016,-40.29523468017578
5.757,3.647857904434204,-8.140382766723633,-0.26440688967704773,-0.22372940182685852,0.4560109078884125,-0.08659014105796814,-30.502779006958008,61.736331939697266,-40.28062057495117
5.767,3.830909013748169,-8.413164138793945,0.12801600992679596,-0.2025018185377121,0.3546072542667389,-0.031001411378383636,-30.619701385498047,61.37094497680664,-40.9237060546875
5.777,3.9254255294799805,-8.531608581542969,0.20578275620937347,-0.16096298396587372,0.34116825461387634,0.02886338159441948,-30.54662322998047,61.414791107177734,-40.2221565246582
5.787,4.25802755355835,-8.678768157958984,0.47018963098526,-0.12431107461452484,0.33368512988090515,0.09162978827953339,-30.57585334777832,61.06401824951172,-39.68138122558594
5.807,4.381258010864258,-8.676374435424805,0.558724045753479,-0.11713340878486633,0.25014930963516235,0.13897183537483215,-30.108156204223633,61.341712951660156,-39.65214920043945
5.811,4.006781578063965,-8.4502534866333,0.13998012244701385,-0.09514226019382477,0.1270599663257599,0.17699819803237915,-30.195850372314453,61.28324890136719,-39.24291229248047
5.817,3.6406795978546143,-8.427520751953125,-0.15314064919948578,-0.07208210229873657,0.15683965384960175,0.16661350429058075,-29.8889217376709,61.020172119140625,-38.90675354003906
5.827,3.2781667709350586,-8.578269004821777,-0.3242274522781372,-0.0913243517279625,0.27030786871910095,0.10797043144702911,-30.298158645629883,61.38555908203125,-38.775211334228516
5.837,2.7972095012664795,-8.689535140991211,-0.769292414188385,-0.18936823308467865,0.45784348249435425,0.013286319561302662,-29.78661346435547,61.239402770996094,-38.570594787597656
5.847,3.022134780883789,-8.833104133605957,-0.6005984544754028,-0.35934150218963623,0.6490443348884583,-0.08552113175392151,-30.195850372314453,61.13709259033203,-39.52061080932617
5.867,3.2614171504974365,-8.86660385131836,-0.11006983369588852,-0.6728680729866028,0.526107668876648,-0.2125811129808426,-30.225080490112305,60.830162048339844,-38.64366912841797
5.871,3.0317063331604004,-8.72782039642334,-0.4630111753940582,-0.8101600408554077,0.3341432809829712,-0.2646573483943939,-30.37123680114746,60.45016098022461,-37.98596954345703
5.877,2.9455647468566895,-8.781658172607422,-0.5264209508895874,-0.7707592248916626,0.293826162815094,-0.23090705275535583,-30.415081024169922,60.391700744628906,-38.570594787597656
5.887,2.9036900997161865,-8.908477783203125,-0.21296119689941406,-0.6733261942863464,0.27977627515792847,-0.15393804013729095,-30.853551864624023,60.69862747192383,-38.00058364868164
5.897,2.884547472000122,-9.083154678344727,0.2679961323738098,-0.6108652353286743,0.2816088795661926,-0.09636398404836655,-30.400466918945312,60.47938919067383,-37.69365692138672
5.907,2.829512596130371,-8.944371223449707,0.5060819387435913,-0.565203070640564,0.3263547420501709,-0.058795779943466187,-30.57585334777832,60.3770866394043,-36.422096252441406
5.927,2.6009981632232666,-8.220541954040527,0.5682953596115112,-0.5529857277870178,0.385303258895874,-0.04993823170661926,-31.13124656677246,60.07015609741211,-36.18824768066406
5.931,2.3748762607574463,-7.416553497314453,0.9930213689804077,-0.637132465839386,0.44425174593925476,-0.046273037791252136,-30.853551864624023,60.1578483581543,-36.31978988647461
5.937,2.3030917644500732,-6.831508159637451,1.0588239431381226,-0.7209736704826355,0.3926336169242859,-0.07009679079055786,-30.751243591308594,60.14323425292969,-36.43671417236328
5.947,1.9010975360870361,-6.193820953369141,0.5802595019340515,-0.7426593899726868,0.3243694305419922,-0.07925976812839508,-30.42970085144043,60.1140022277832,-35.472084045410156
5.957,1.5242280960083008,-6.174678802490234,-0.2021934986114502,-0.7121161818504333,0.8249735236167908,-0.010842857882380486,-31.05817222595215,59.95323181152344,-35.6474723815918
5.967,2.155933141708374,-7.860422611236572,-0.13160523772239685,-0.8752171993255615,1.6299411058425903,-0.005650503095239401,-31.540485382080078,59.71937942504883,-35.3843879699707
5.987,3.31884503364563,-8.85942554473877,0.4055834412574768,-1.1104003190994263,2.0192148685455322,-0.1319468915462494,-31.64279556274414,59.39783477783203,-34.682838439941406
5.991,4.456632137298584,-8.914461135864258,0.6221339106559753,-1.2495248317718506,1.9909626245498657,-0.2727513313293457,-32.242034912109375,59.09090805053711,-34.65361022949219
5.997,4.700699806213379,-8.841479301452637,0.8506484627723694,-1.2475395202636719,1.9315558671951294,-0.30970868468284607,-32.85588836669922,59.01782989501953,-34.02513885498047
6.007,4.113262176513672,-8.276773452758789,0.4007977545261383,-1.3307698965072632,1.9630154371261597,-0.41661009192466736,-33.425899505615234,58.88629150390625,-33.367435455322266
6.017,3.2470602989196777,-7.434499740600586,-1.832902193069458,-1.6528486013412476,2.7540860176086426,-0.4940372407436371,-33.46974563598633,58.6378288269043,-33.586673736572266
6.027,3.9661033153533936,-6.519245147705078,-2.864208459854126,-1.9494236707687378,3.5214853286743164,-0.7331910133361816,-34.69745635986328,58.76936340332031,-32.76819610595703
6.047,5.349154949188232,-5.364708423614502,-3.2709884643554688,-1.8119789361953735,3.3959524631500244,-1.0966558456420898,-35.866703033447266,58.140892028808594,-30.663549423217773
6.051,6.50608491897583,-6.6520466804504395,-1.5445669889450073,-1.0293078422546387,2.0282251834869385,-1.3643674850463867,-37.3867301940918,57.62934875488281,-31.248172760009766
6.057,6.686742782592773,-7.247859477996826,-0.17228323221206665,-0.8005388975143433,1.1464413404464722,-1.2669343948364258,-37.86904525756836,57.05934143066406,-30.45893096923828
6.067,6.396015167236328,-7.737191677093506,1.7527425289154053,-0.6330090761184692,-0.18341228365898132,-0.896902859210968,-38.950599670410156,57.08857345581055,-30.502779006958008
6.077,5.294119834899902,-7.247859477996826,1.4333007335662842,-0.49327367544174194,-1.2533427476882935,-0.4311181306838989,-38.51213073730469,56.3577880859375,-29.771995544433594
6.087,3.9732820987701416,-7.144968032836914,1.1042876243591309,-0.46105054020881653,-1.7884607315063477,-0.018936822190880775,-38.833675384521484,56.75241470336914,-29.435836791992188
6.107,2.513659954071045,-6.756134510040283,0.6687938570976257,-0.7000515460968018,-1.9482018947601318,0.3231476843357086,-38.1028938293457,55.90470504760742,-28.71967315673828
6.111,1.4117653369903564,-5.083551406860352,-0.010767702013254166,-0.9712757468223572,-2.3275492191314697,0.3920227587223053,-37.78135299682617,55.84624481201172,-26.921951293945312
6.117,1.5601202249526978,-4.766502380371094,-0.017946168780326843,-0.935387372970581,-2.534327268600464,0.3170390725135803,-36.50979232788086,55.96316909790039,-26.848873138427734
6.127,2.967099905014038,-5.918646335601807,0.6173481941223145,-0.8281804919242859,-2.5667030811309814,0.22357667982578278,-35.88132095336914,55.4954719543457,-27.316574096679688
6.137,3.7399816513061523,-8.353343963623047,1.007378339767456,-0.8602509498596191,-2.097100257873535,0.0529925599694252,-35.45746612548828,54.99854278564453,-25.738086700439453
6.147,4.042673587799072,-11.105090141296387,0.5455635190010071,-1.2214250564575195,-0.7733554244041443,-0.4008803069591522,-35.61824035644531,54.99854278564453,-25.32884979248047
6.167,6.181857109069824,-13.03370475769043,-0.29312074184417725,-1.5554156303405762,0.8145887851715088,-1.1791225671768188,-37.094417572021484,53.91698455810547,-24.13037109375
6.171,9.735198020935059,-15.625131607055664,-2.641676187515259,-1.5709927082061768,2.132683277130127,-2.0751092433929443,-37.299034118652344,53.68313217163086,-24.451913833618164
6.177,10.549954414367676,-16.051054000854492,-4.417150497436523,-1.5783231258392334,2.6253459453582764,-2.2046127319335938,-38.73136520385742,52.8208122253418,-23.911136627197266
6.187,11.846864700317383,-15.259029388427734,-6.416353702545166,-1.5497651100158691,2.409710645675659,-2.0341813564300537,-39.959075927734375,52.80619812011719,-24.042678833007812
6.197,11.157731056213379,-13.73958683013916,-7.7252278327941895,-1.4602733850479126,0.9578366875648499,-1.7725781202316284,-41.099090576171875,52.25080108642578,-22.025724411010742
6.207,9.90269660949707,-12.04666519165039,-7.487142086029053,-1.20722234249115,-1.047023057937622,-1.5485433340072632,-41.66910171508789,51.62232971191406,-22.39111328125
6.227,7.2921271324157715,-11.334800720214844,-5.565705299377441,-0.8943067193031311,-2.6784913539886475,-1.2147055864334106,-41.85910415649414,51.25694274902344,-21.134170532226562
6.23,4.433900356292725,-10.77248764038086,-3.153740167617798,-0.7099781036376953,-2.975372076034546,-1.0254899263381958,-41.02601623535156,50.84770202636719,-20.90032196044922
6.237,3.940978765487671,-10.673185348510742,-1.4883357286453247,-0.6307183504104614,-2.738050699234009,-0.963792622089386,-40.61677932739258,51.05232620239258,-20.578777313232422
6.247,4.329812526702881,-11.437692642211914,0.6687938570976257,-0.682641863822937,-2.3464860916137695,-0.9089674949645996,-40.41215896606445,51.53464126586914,-20.315698623657227
6.257,4.900500774383545,-12.896116256713867,1.4261221885681152,-0.9335548281669617,-2.062739133834839,-0.883005678653717,-40.28062057495117,52.0169563293457,-20.841859817504883
6.267,5.474778175354004,-14.559128761291504,0.08374878764152527,-1.247844934463501,-1.5323554277420044,-0.8607090711593628,-40.67523956298828,52.484657287597656,-22.84419822692871
6.287,6.592226505279541,-16.254444122314453,-1.7850456237792969,-1.282817006111145,-1.0821477174758911,-0.8129088878631592,-41.727561950683594,52.090030670166016,-24.74422836303711
6.291,6.369693756103516,-15.670595169067383,-2.3988046646118164,-1.1236865520477295,-0.5694791078567505,-0.6411030292510986,-46.06840133666992,50.86231994628906,-25.109615325927734
6.297,5.437689304351807,-14.275579452514648,-2.025524377822876,-0.996626615524292,-0.3591887652873993,-0.5187773108482361,-47.529964447021484,49.54691696166992,-22.785736083984375
6.307,4.260420799255371,-11.302497863769531,-1.5816556215286255,-0.9384416937828064,-0.18875734508037567,-0.39584067463874817,-48.085357666015625,48.87459945678711,-19.64337921142578
6.317,3.238685369491577,-9.352347373962402,-2.2923240661621094,-0.9558513760566711,-0.026572639122605324,-0.38866299390792847,-45.805320739746094,47.57380676269531,-16.398714065551758
6.327,2.225324869155884,-9.019744873046875,-2.1056838035583496,-1.074817419052124,0.3228422701358795,-0.4312708377838135,-43.78836441040039,47.01841354370117,-15.244080543518066
6.347,1.9262220859527588,-9.58923625946045,-1.9501503705978394,-1.0335839986801147,0.4447098672389984,-0.6044511198997498,-42.29757308959961,46.65302658081055,-13.914060592651367
6.351,5.247459411621094,-7.802994728088379,-3.506681442260742,-1.1330022811889648,0.536797821521759,-0.6340781450271606,-41.946800231933594,45.08915710449219,-13.519438743591309
6.357,6.6520466804504395,-6.45822811126709,-5.871986389160156,-0.8663595914840698,0.26404649019241333,-0.4813618063926697,-41.683719635009766,44.6799201965332,-13.519438743591309
6.367,6.364907741546631,-5.779862880706787,-6.459424018859863,-0.16523903608322144,-0.38606685400009155,-0.02474004216492176,-41.36217498779297,44.6799201965332,-12.774043083190918
6.377,4.1383867263793945,-5.871986389160156,-4.35254430770874,0.17058412730693817,-0.7451028823852539,0.21212296187877655,-40.07600402832031,44.82607650756836,-12.920199394226074
6.387,2.9802606105804443,-5.876771926879883,-2.2959132194519043,0.22678370773792267,-0.9899070858955383,0.32650747895240784,-40.41215896606445,44.562992095947266,-13.022507667541504
6.407,2.403590202331543,-5.7200422286987305,-1.2119646072387695,0.14844025671482086,-1.1652253866195679,0.3848450779914856,-39.43291473388672,44.85530471801758,-12.408652305603027
6.411,1.6522438526153564,-5.318048000335693,-0.5575276613235474,0.0780380368232727,-1.232725977897644,0.4801400899887085,-38.468284606933594,44.84069061279297,-13.344051361083984
6.417,1.5445669889450073,-5.167300701141357,-0.436690092086792,0.10903944075107574,-1.0983357429504395,0.5280929803848267,-37.708274841308594,44.6799201965332,-12.598654747009277
6.427,1.6785650253295898,-4.796412467956543,-0.4462614059448242,0.17440202832221985,-0.8240572214126587,0.5933029055595398,-37.56211853027344,44.986846923828125,-12.642502784729004
6.437,1.6749757528305054,-4.405186176300049,-0.6640082597732544,0.25793784856796265,-0.5293146967887878,0.6369796991348267,-36.81671905517578,45.162235260009766,-12.467114448547363
6.447,1.7312071323394775,-4.266402721405029,-0.8757730722427368,0.3455969989299774,-0.28955012559890747,0.6788239479064941,-36.4074821472168,44.986846923828125,-13.095585823059082
6.467,1.758724570274353,-4.198206901550293,-1.042074203491211,0.44348815083503723,-0.12812897562980652,0.7475463151931763,-35.63285446166992,45.556854248046875,-12.671732902526855
6.47,1.817348837852478,-4.073780536651611,-0.9152546525001526,0.6188065409660339,-0.0607810914516449,0.8642215728759766,-35.69131851196289,45.761470794677734,-12.847121238708496
6.477,1.7994025945663452,-4.003191947937012,-0.8566304445266724,0.7092145085334778,-0.06765332818031311,0.9143125414848328,-35.369773864746094,45.790706634521484,-12.569424629211426
6.487,1.998006820678711,-3.998406410217285,-0.7501499056816101,0.8240572214126587,-0.05467243865132332,0.9758571982383728,-34.82899475097656,45.87839889526367,-12.934814453125
6.497,2.0159530639648438,-3.9732820987701416,-0.9188438653945923,0.9337075352668762,0.006566801108419895,1.03984534740448,-34.40514373779297,46.726104736328125,-14.133294105529785
6.507,2.3473589420318604,-3.9326038360595703,-1.0145567655563354,1.0451903343200684,0.1085812970995903,1.0855075120925903,-34.06898498535156,47.1791877746582,-14.73253345489502
6.527,2.685943365097046,-3.9086756706237793,-1.0959126949310303,1.137431025505066,0.17730362713336945,1.1045970916748047,-33.41128158569336,47.1207275390625,-14.878690719604492
6.531,3.3535408973693848,-4.0450663566589355,-1.2227323055267334,1.274264931678772,0.2868012487888336,1.056491494178772,-33.440513610839844,47.69073486328125,-15.477930068969727
6.537,3.744767427444458,-4.280759334564209,-1.3196415901184082,1.331838846206665,0.31062498688697815,1.0216721296310425,-33.425899505615234,47.9391975402832,-15.56562328338623
6.547,4.059423446655273,-4.657629013061523,-1.5780664682388306,1.40437912940979,0.3666718602180481,0.9955576062202454,-33.177433013916016,48.17304992675781,-16.384098052978516
6.557,4.453042984008789,-5.242674350738525,-1.8257235288619995,1.474017858505249,0.38957932591438293,0.9960157871246338,-32.66588592529297,48.83074951171875,-17.377958297729492
6.567,4.755734920501709,-6.017949104309082,-1.9573287963867188,1.5276212692260742,0.3269656002521515,1.0093021392822266,-32.85588836669922,49.4007568359375,-17.72873306274414
6.587,5.30967378616333,-6.715456485748291,-1.6630116701126099,1.5190690755844116,0.06948591768741608,1.0129672288894653,-31.803565979003906,50.0,-19.497222900390625
6.591,5.784648418426514,-7.456035137176514,-1.3160523176193237,1.4830280542373657,-0.29504790902137756,1.0458012819290161,-31.08740234375,50.45308303833008,-20.09646224975586
6.597,5.510670185089111,-7.6905317306518555,-1.330409288406372,1.4839444160461426,-0.4141666293144226,1.0453431606292725,-31.394329071044922,50.43846893310547,-19.43876075744629
6.607,5.005784511566162,-7.933403015136719,-1.384247899055481,1.500285029411316,-0.40653079748153687,0.9760099053382874,-30.663549423217773,50.86231994628906,-21.00263023376465
6.617,4.682753562927246,-8.021937370300293,-1.5816556215286255,1.5378532409667969,-0.24297165870666504,0.8174903988838196,-30.225080490112305,51.11078643798828,-21.353404998779297
6.627,4.504488468170166,-8.237292289733887,-1.836491346359253,1.5367841720581055,0.21365012228488922,0.6168211698532104,-29.71353530883789,51.65156173706055,-22.1718807220459
6.647,4.6061835289001465,-8.352147102355957,-2.1535403728485107,1.4479032754898071,0.7452555894851685,0.4859433174133301,-29.46506690979004,52.19234085083008,-22.712656021118164
6.651,4.977071285247803,-8.277969360351562,-2.306680917739868,1.2041680812835693,1.3466523885726929,0.46670103073120117,-30.35662078857422,52.075416564941406,-23.57497787475586
6.657,4.393222332000732,-8.153542518615723,-2.693121910095215,1.1403326988220215,1.4587461948394775,0.47448956966400146,-30.415081024169922,51.95848846435547,-24.232681274414062
6.667,4.077369689941406,-8.057829856872559,-3.2004001140594482,1.0908526182174683,1.5404495000839233,0.43737950921058655,-30.47354507446289,52.74773406982422,-24.247295379638672
6.677,3.538984537124634,-7.941778182983398,-4.040280818939209,1.1439979076385498,1.4581352472305298,0.3171917796134949,-30.663549423217773,53.1569709777832,-24.729610443115234
6.687,3.8871400356292725,-8.076972961425781,-4.543970108032227,1.2728904485702515,1.2819007635116577,0.21823160350322723,-31.233558654785156,53.1569709777832,-25.796550750732422
6.707,3.9876389503479004,-7.9860453605651855,-4.229313850402832,1.3631458282470703,0.9017897844314575,0.1270599663257599,-31.423559188842773,53.97544479370117,-25.97193717956543
6.71,4.554737567901611,-7.853243350982666,-3.834498167037964,1.4436273574829102,0.3119994103908539,0.056352317333221436,-31.803565979003906,53.7562141418457,-26.61502456665039
6.717,4.463810443878174,-7.618746757507324,-3.355933427810669,1.4796682596206665,-0.03481931984424591,0.0555887334048748,-31.701257705688477,53.814674377441406,-27.4481143951416
6.727,4.398007869720459,-7.238288402557373,-2.5902304649353027,1.5013539791107178,-0.44257184863090515,0.08888089656829834,-32.13972473144531,54.238529205322266,-27.901199340820312
6.737,4.109673023223877,-6.6077799797058105,-1.8484554290771484,1.4998267889022827,-0.944855809211731,0.13240504264831543,-31.18971061706543,54.3408317565918,-28.748903274536133
6.747,3.7974092960357666,-6.187839031219482,-1.4380862712860107,1.4958562850952148,-1.3240504264831543,0.15653420984745026,-31.04355239868164,54.79391860961914,-29.421222686767578
6.767,3.486342430114746,-6.1914286613464355,-1.2454640865325928,1.4931074380874634,-1.6241379976272583,0.1713476926088333,-30.45893096923828,54.39929962158203,-29.91815185546875
6.771,3.2482566833496094,-6.673582077026367,-1.286142110824585,1.5150984525680542,-1.9072738885879517,0.16829337179660797,-30.26892852783203,54.75007247924805,-31.218942642211914
6.777,2.878565549850464,-7.259823799133301,-1.4500504732131958,1.523039698600769,-1.944383978843689,0.1543961763381958,-30.093538284301758,54.662376403808594,-32.02280044555664
6.787,1.8867405652999878,-8.333003997802734,-1.8783657550811768,1.4758503437042236,-1.7944166660308838,0.08139779418706894,-29.947385787963867,55.393157958984375,-32.63665771484375
6.797,0.6556333899497986,-9.906285285949707,-2.638087034225464,1.345278024673462,-1.3741413354873657,-0.0064140851609408855,-29.742765426635742,54.633148193359375,-32.56357955932617
6.807,0.45224347710609436,-10.807183265686035,-3.174079179763794,1.1611021757125854,-0.835358202457428,-0.11194105446338654,-29.87430763244629,55.52470016479492,-33.01666259765625
6.827,0.9559326767921448,-10.926823616027832,-3.6406795978546143,0.9586002826690674,-0.21960605680942535,-0.18478672206401825,-28.79275131225586,55.261619567871094,-33.95206069946289
6.831,2.400001049041748,-10.362117767333984,-3.245863676071167,0.5925393104553223,0.49617525935173035,-0.14935654401779175,-29.1873722076416,55.14469909667969,-33.922828674316406
6.837,2.9862425327301025,-10.274779319763184,-2.5471596717834473,0.3998112976551056,0.5931501388549805,-0.13836097717285156,-29.90353775024414,54.676998138427734,-35.16515350341797
6.847,3.717249870300293,-10.876575469970703,-0.6520441174507141,0.16493360698223114,0.43737950921058655,-0.17333300411701202,-30.53200912475586,55.2762336730957,-34.975154876708984
6.857,4.448256969451904,-12.220145225524902,0.8171489238739014,0.006872233934700489,0.04596760869026184,-0.24862214922904968,-30.093538284301758,54.82314682006836,-35.20900344848633
6.867,5.481956481933594,-13.777872085571289,2.1678972244262695,-0.04749477282166481,-0.5519167184829712,-0.31322115659713745,-30.678165435791016,54.267757415771484,-34.82899475097656
6.887,5.796612739562988,-15.361920356750488,2.3330020904541016,0.01863138936460018,-1.0374019145965576,-0.36942076683044434,-30.415081024169922,54.79391860961914,-35.545162200927734
6.891,4.502095699310303,-16.776079177856445,0.3720839321613312,0.40622538328170776,-0.43936482071876526,-0.3793473243713379,-31.13124656677246,55.52470016479492,-35.092079162597656
6.897,4.863411903381348,-16.140783309936523,1.3316056728363037,0.5085453391075134,0.5100724697113037,-0.3251330256462097,-30.6489315032959,54.70622634887695,-35.9836311340332
