time,accel_x,accel_y,accel_z,gyro_x,gyro_y,gyro_z,mag_x,mag_y,mag_z
0.0,0.9320043921470642,-5.321637153625488,-8.628518104553223,0.9538660645484924,0.41263946890830994,0.02672535367310047,-26.61502456665039,42.72142791748047,-22.04033851623535
0.01,0.9284151792526245,-5.297708988189697,-8.807979583740234,0.9283624291419983,0.46242499351501465,0.020158551633358,-26.293479919433594,43.04296875,-23.048816680908203
0.02,1.1318050622940063,-5.0572309494018555,-8.956335067749023,0.95462965965271,0.5177083015441895,0.016951510682702065,-27.024263381958008,43.379127502441406,-23.28266716003418
0.03,1.3782658576965332,-4.82632303237915,-8.949155807495117,0.9935723543167114,0.587041437625885,0.027030786499381065,-27.258113861083984,43.78836441040039,-23.633440017700195
0.04,1.7395819425582886,-4.622933387756348,-8.731410026550293,1.0502300262451172,0.6586654186248779,0.03848451003432274,-27.316574096679688,43.93452072143555,-23.29728126525879
0.055,2.4083759784698486,-4.624129772186279,-8.220541954040527,1.1104003190994263,0.6698136925697327,0.04199698567390442,-26.936567306518555,44.51914596557617,-23.341127395629883
0.06,2.530409812927246,-4.689931869506836,-8.153542518615723,1.1186469793319702,0.6737843155860901,0.05146539583802223,-26.834259033203125,44.89915466308594,-23.954984664916992
0.07,2.7529425621032715,-4.83469820022583,-8.063812255859375,1.130406141281128,0.6511823534965515,0.06444628536701202,-27.57965660095215,44.606842041015625,-24.904998779296875
0.08,2.963510751724243,-4.923232555389404,-8.051847457885742,1.162629246711731,0.5958990454673767,0.06582073122262955,-27.258113861083984,45.29377365112305,-24.87576675415039
0.09,2.998206615447998,-5.072783946990967,-8.002795219421387,1.2289080619812012,0.5027421116828918,0.05100724473595619,-27.72580909729004,45.27915573120117,-26.220401763916016
0.109,2.963510751724243,-5.185246467590332,-7.819744110107422,1.2690725326538086,0.41890081763267517,0.022907447069883347,-28.003507614135742,46.097633361816406,-26.89272117614746
0.113,2.7661027908325195,-5.340780258178711,-7.5493550300598145,1.300837516784668,0.38408151268959045,-0.019547687843441963,-27.813507080078125,46.06840133666992,-26.848873138427734
0.12,2.6177480220794678,-5.436492443084717,-7.348358154296875,1.3254249095916748,0.4057672321796417,-0.03756821155548096,-28.208127975463867,46.477638244628906,-27.71119499206543
0.13,2.4837498664855957,-5.649453639984131,-7.136592864990234,1.3385584354400635,0.4807509481906891,-0.049785517156124115,-27.915815353393555,46.46302032470703,-27.945045471191406
0.14,2.4526431560516357,-5.857629776000977,-7.085147857666016,1.332908034324646,0.5583308339118958,-0.03985895588994026,-28.471206665039062,47.07687759399414,-28.251972198486328
0.15,2.3461625576019287,-6.137589454650879,-7.099504470825195,1.3199270963668823,0.5928446650505066,-0.016798794269561768,-28.412744522094727,47.486114501953125,-28.646595001220703
0.168,2.1774685382843018,-6.238088607788086,-7.070790767669678,1.3100005388259888,0.6107125282287598,-0.0027488935738801956,-28.982751846313477,47.427650451660156,-28.89505958557129
0.173,2.059023857116699,-6.226124286651611,-6.867401123046875,1.3083206415176392,0.622013509273529,-0.003359758760780096,-28.60274887084961,47.76381301879883,-29.81584358215332
0.18,1.9812570810317993,-6.203392505645752,-6.721438407897949,1.309389591217041,0.6217080950737,-0.009773843921720982,-28.865829467773438,48.655364990234375,-30.590471267700195
0.19,1.9800606966018677,-6.2321062088012695,-6.553940773010254,1.292285442352295,0.6172793507575989,-0.010995574295520782,-28.748903274536133,48.655364990234375,-31.05817222595215
0.2,1.9776678085327148,-6.203392505645752,-6.394818305969238,1.277471899986267,0.6125450730323792,0.0022907445672899485,-28.573516845703125,48.99152374267578,-31.08740234375
0.21,2.0279171466827393,-6.163910865783691,-6.250052452087402,1.2625057697296143,0.6275113224983215,0.033597588539123535,-29.1873722076416,49.19614028930664,-31.20432472229004
0.229,2.053041696548462,-6.135197162628174,-6.095715522766113,1.2432634830474854,0.6404921412467957,0.05497787147760391,-28.69044303894043,49.53229904174805,-31.408945083618164
0.233,2.20737886428833,-6.198606967926025,-6.10767936706543,1.207069754600525,0.684779942035675,0.06475171446800232,-29.201988220214844,50.29231262207031,-32.943580627441406
0.24,2.3270199298858643,-6.236892223358154,-6.1088762283325195,1.1827878952026367,0.7144068479537964,0.06612616032361984,-29.479684829711914,49.663841247558594,-32.34434509277344
0.25,2.5160529613494873,-6.357729434967041,-6.113661289215088,1.1467467546463013,0.755182147026062,0.07422012835741043,-29.128910064697266,49.795379638671875,-33.74744415283203
0.26,2.6560330390930176,-6.445067405700684,-6.110072612762451,1.1206321716308594,0.7805330157279968,0.0832303911447525,-29.640457153320312,50.07307434082031,-34.69745635986328
0.27,2.693121910095215,-6.488138675689697,-5.97727108001709,1.1119275093078613,0.7840455174446106,0.1014036312699318,-29.46506690979004,50.540775299072266,-35.06284713745117
0.288,2.5986053943634033,-6.57547664642334,-5.804987907409668,1.1047497987747192,0.7945829629898071,0.11423180252313614,-29.085063934326172,50.42385482788086,-35.01900100708008
0.292,2.4813568592071533,-6.695117950439453,-5.7439703941345215,1.0674870014190674,0.8402451872825623,0.11285734921693802,-29.26045036315918,50.526161193847656,-34.81438064575195
0.3,2.4155545234680176,-6.778866291046143,-5.6578288078308105,1.0351110696792603,0.8833111524581909,0.10735956579446793,-29.28968048095703,50.43846893310547,-35.77901077270508
0.31,2.451446771621704,-6.7932233810424805,-5.726024627685547,1.0073168277740479,0.9315694570541382,0.10308350622653961,-29.596609115600586,50.39461898803711,-37.15288162231445
0.32,2.528017044067383,-6.771687984466553,-5.734399318695068,0.9923505187034607,0.9897544384002686,0.1010981947183609,-29.611223220825195,50.789241790771484,-36.75825881958008
0.33,2.6464619636535645,-6.74656343460083,-5.5345988273620605,1.000749945640564,1.0587822198867798,0.09269880503416061,-29.494300842285156,50.526161193847656,-37.035953521728516
0.35,2.8426733016967773,-6.8518476486206055,-5.276174068450928,1.0175487995147705,1.129489779472351,0.08216137439012527,-29.581993103027344,51.27155685424805,-36.81671905517578
0.353,3.232703447341919,-7.1533427238464355,-4.948357105255127,1.0002918243408203,1.1687380075454712,0.08139779418706894,-29.757381439208984,50.584625244140625,-37.7228889465332
0.36,3.4504499435424805,-7.302894115447998,-4.867001056671143,0.9708175659179688,1.1884382963180542,0.08949175477027893,-29.830459594726562,51.403099060058594,-38.205204010009766
0.37,3.7746775150299072,-7.454838752746582,-4.880161762237549,0.9334020614624023,1.1980594396591187,0.10812314599752426,-29.87430763244629,51.4615592956543,-38.92136764526367
0.38,4.0558342933654785,-7.533802032470703,-4.8574299812316895,0.920573890209198,1.2098186016082764,0.14584407210350037,-29.698917388916016,51.44694519042969,-39.374454498291016
0.39,4.299902439117432,-7.672585487365723,-4.709074974060059,0.9405797719955444,1.1936306953430176,0.194713294506073,-29.596609115600586,51.82695388793945,-39.140602111816406
0.41,4.357329845428467,-7.966902732849121,-4.497309684753418,0.9537133574485779,1.0978776216506958,0.2739730477333069,-29.479684829711914,52.66004180908203,-40.38292694091797
0.414,4.145565032958984,-8.157132148742676,-4.401597023010254,0.9291260242462158,0.9349292516708374,0.3442225456237793,-29.46506690979004,51.94387435913086,-41.28909683227539
0.42,3.9326038360595703,-8.206185340881348,-4.445864677429199,0.914923369884491,0.8191702961921692,0.35934150218963623,-29.172758102416992,52.002342224121094,-40.63139724731445
0.43,3.6155548095703125,-8.255237579345703,-4.60857629776001,0.9019425511360168,0.6598871946334839,0.3599523603916168,-28.471206665039062,52.14849853515625,-41.756797790527344
0.44,3.460021495819092,-8.225327491760254,-4.663610935211182,0.8885034918785095,0.5590943694114685,0.35124751925468445,-28.398128509521484,52.44080352783203,-41.66910171508789
0.45,3.2518458366394043,-8.053044319152832,-4.691128730773926,0.891252338886261,0.5589417219161987,0.34956762194633484,-28.33966636657715,52.04618453979492,-42.98450469970703
0.469,3.2757742404937744,-7.939384937286377,-4.3477582931518555,0.9242391586303711,0.6398813128471375,0.35964691638946533,-28.544286727905273,52.80619812011719,-42.706809997558594
0.473,3.262613534927368,-7.9585280418396,-3.865604877471924,0.95462965965271,0.7254024744033813,0.3897320032119751,-28.222742080688477,52.733116149902344,-43.422977447509766
0.48,3.2338995933532715,-8.01834774017334,-3.544966459274292,0.9549350738525391,0.7580837607383728,0.41172316670417786,-28.04735565185547,53.01081466674805,-43.437591552734375
0.49,3.2590243816375732,-8.09970474243164,-3.2721848487854004,0.9356928467750549,0.7664831280708313,0.44974952936172485,-27.755043029785156,52.61619567871094,-44.372989654541016
0.5,3.238685369491577,-8.14397144317627,-3.3068807125091553,0.8782715201377869,0.7408268451690674,0.5016730427742004,-27.72580909729004,53.25928497314453,-45.191463470458984
0.51,3.3260233402252197,-8.048258781433105,-3.713660717010498,0.8388707041740417,0.7160868048667908,0.5274821519851685,-27.316574096679688,53.28851318359375,-45.58608627319336
0.53,3.3535408973693848,-8.14397144317627,-4.01754903793335,0.8246680498123169,0.698066234588623,0.540921151638031,-27.360422134399414,53.72698211669922,-45.98070526123047
0.534,3.2279176712036133,-8.322237014770508,-4.254438400268555,0.8504770994186401,0.664315938949585,0.5103778839111328,-27.08272361755371,53.99005889892578,-46.46302032470703
0.548,3.4408788681030273,-8.601000785827637,-3.513859748840332,0.8758280277252197,0.5826126933097839,0.4709770977497101,-26.746564865112305,53.87313461303711,-46.38994216918945
0.552,3.4193434715270996,-8.635696411132812,-3.3822548389434814,0.8713992834091187,0.5623013973236084,0.4726569652557373,-27.24349594116211,53.50774383544922,-46.740718841552734
0.56,3.187239646911621,-8.641678810119629,-2.96111798286438,0.8475754857063293,0.48090362548828125,0.4732678234577179,-27.345806121826172,53.77082824707031,-47.5591926574707
0.57,3.0340988636016846,-8.6967134475708,-2.794816732406616,0.8048149347305298,0.44226643443107605,0.4755585789680481,-27.111955642700195,54.077754974365234,-48.5384407043457
0.58,2.950350046157837,-8.621339797973633,-3.0664021968841553,0.7730499505996704,0.4508185386657715,0.478765606880188,-26.585792541503906,53.7562141418457,-47.32534408569336
0.59,2.9252257347106934,-8.492127418518066,-3.3272199630737305,0.7773259878158569,0.5184718370437622,0.49037206172943115,-26.819643020629883,53.71236038208008,-47.354576110839844
0.603,2.8737800121307373,-8.48734188079834,-3.662214994430542,0.8385652303695679,0.6580545902252197,0.48976120352745056,-27.214263916015625,53.94621658325195,-48.596900939941406
0.61,2.857030153274536,-8.598608016967773,-3.5365920066833496,0.8637634515762329,0.7408268451690674,0.4813618063926697,-26.351943969726562,53.93159866333008,-48.75767135620117
0.62,3.0173492431640625,-8.714659690856934,-3.317648410797119,0.8669705390930176,0.7622070908546448,0.4612032473087311,-26.512714385986328,53.843902587890625,-48.93306350708008
0.63,3.1345977783203125,-9.013762474060059,-3.102294445037842,0.8657487034797668,0.6499606370925903,0.4531092941761017,-26.556564331054688,53.653900146484375,-50.30692672729492
0.64,3.249452829360962,-9.184849739074707,-3.016152858734131,0.8620835542678833,0.5328271985054016,0.45875978469848633,-26.571178436279297,53.55158996582031,-50.24846649169922
0.65,3.129812002182007,-9.233901977539062,-3.1034910678863525,0.8924740552902222,0.3822489380836487,0.45891252160072327,-26.351943969726562,53.56621170043945,-49.88307571411133
0.669,3.135793924331665,-9.738787651062012,-2.372483730316162,0.848644495010376,0.32849279046058655,0.47311511635780334,-26.351943969726562,53.142356872558594,-50.84770202636719
0.672,3.0317063331604004,-9.680163383483887,-2.3641088008880615,0.8217664957046509,0.34605515003204346,0.47739118337631226,-25.913476943969727,53.478515625,-50.81847381591797
0.68,2.768495798110962,-9.608378410339355,-2.334198474884033,0.7906123399734497,0.37782013416290283,0.4584543704986572,-25.942707061767578,53.36158752441406,-51.53464126586914
0.69,2.685943365097046,-9.393025398254395,-2.282752752304077,0.744186520576477,0.4337143301963806,0.40943241119384766,-25.78193473815918,52.66004180908203,-52.57234573364258
0.7,2.610569477081299,-9.21595573425293,-2.2468602657318115,0.6835582256317139,0.4314235746860504,0.3205515146255493,-25.29962158203125,53.01081466674805,-51.85618591308594
0.718,2.4562323093414307,-9.031708717346191,-2.475374937057495,0.6684393286705017,0.3845396637916565,0.24694228172302246,-25.84039878845215,52.309268951416016,-53.639286041259766
0.722,2.610569477081299,-8.848657608032227,-2.719442844390869,0.6786712408065796,0.352011114358902,0.206777885556221,-25.7088565826416,52.36772918701172,-53.01081466674805
0.73,2.6668004989624023,-8.823533058166504,-2.8067808151245117,0.6908885836601257,0.3413209319114685,0.2249511182308197,-25.34346580505371,51.914642333984375,-53.17158508300781
0.74,2.713460922241211,-9.163313865661621,-2.3461625576019287,0.6933320164680481,0.26893341541290283,0.2396118938922882,-24.992692947387695,52.41157531738281,-53.58082580566406
0.75,2.8737800121307373,-9.558130264282227,-1.7048860788345337,0.6334671974182129,0.1085812970995903,0.2480112910270691,-25.05115509033203,51.82695388793945,-54.033905029296875
0.76,3.0065815448760986,-9.866804122924805,-1.1401798725128174,0.4801400899887085,-0.1485929638147354,0.27718010544776917,-24.68576431274414,52.265419006347656,-53.28851318359375
0.77,3.043670415878296,-9.883553504943848,-0.8482555747032166,0.3585779070854187,-0.38377609848976135,0.28939738869667053,-24.247295379638672,52.075416564941406,-54.3408317565918
0.786,2.926422119140625,-9.600004196166992,-0.9942178130149841,0.2499965876340866,-0.7336491346359253,0.251218318939209,-24.510377883911133,51.52002716064453,-54.51622772216797
0.79,2.99222469329834,-9.479166984558105,-1.00259268283844,0.2509129047393799,-0.8329147696495056,0.24373522400856018,-24.32037353515625,51.22771453857422,-54.54545593261719
1.047,3.592823028564453,-8.539983749389648,-1.5194423198699951,-0.5778785347938538,0.23686298727989197,-0.26083946228027344,-25.665008544921875,50.2776985168457,-57.98012161254883
1.057,3.201596736907959,-8.337790489196777,-1.490728497505188,-0.49953505396842957,0.08109235763549805,-0.31031954288482666,-25.50423812866211,50.570011138916016,-58.30166244506836
1.067,3.1716861724853516,-8.130810737609863,-1.6869399547576904,-0.37079522013664246,-0.09926559776067734,-0.3856086730957031,-25.591930389404297,51.03771209716797,-57.43934631347656
1.087,2.733799695968628,-8.188239097595215,-1.5553346872329712,-0.08261951804161072,-0.1970040500164032,-0.43875396251678467,-25.591930389404297,50.92078399658203,-57.497806549072266
1.09,2.581855535507202,-8.271987915039062,-1.5481561422348022,-0.04444044828414917,-0.18280142545700073,-0.45173484086990356,-25.89885902404785,50.745399475097656,-57.0154914855957
1.097,2.359323024749756,-8.374878883361816,-1.5984054803848267,0.09453140199184418,-0.06276640295982361,-0.48517972230911255,-26.103479385375977,50.73078155517578,-58.00935745239258
1.107,2.3952155113220215,-8.522037506103516,-1.534995675086975,0.3149010241031647,0.22021691501140594,-0.5051855444908142,-26.103479385375977,50.83308792114258,-57.84858322143555
1.117,2.623729705810547,-8.756534576416016,-1.2574282884597778,0.5783366560935974,0.6189591884613037,-0.44089198112487793,-26.351943969726562,50.760013580322266,-57.570884704589844
1.127,2.675175428390503,-9.134600639343262,-0.937986433506012,0.7305948138237,0.8857545852661133,-0.3514002561569214,-26.118093490600586,50.67231750488281,-58.27243423461914
1.146,2.544766664505005,-9.285347938537598,-0.9332008361816406,0.8845328688621521,1.0690141916275024,-0.3170390725135803,-26.191171646118164,50.160770416259766,-59.60245895385742
1.151,2.0410776138305664,-8.995816230773926,-1.5230315923690796,0.9683740735054016,1.0587822198867798,-0.33139437437057495,-26.49810028076172,50.0,-59.12014389038086
1.157,2.372483730316162,-8.740981101989746,-1.8819550275802612,1.0448850393295288,1.076497197151184,-0.28848108649253845,-26.132709503173828,50.73078155517578,-59.22244644165039
1.167,2.2600209712982178,-8.58066177368164,-1.6426726579666138,1.1467467546463013,1.0241155624389648,-0.20402897894382477,-25.97193717956543,50.49692916870117,-59.909385681152344
1.177,2.455035924911499,-8.577072143554688,-0.6484549045562744,1.0340421199798584,0.9428704977035522,-0.10812314599752426,-26.118093490600586,50.20461654663086,-60.46477508544922
1.187,2.6081764698028564,-8.45743179321289,-0.3122633397579193,0.7631233930587769,0.9340129494667053,0.03940080478787422,-26.161941528320312,50.07307434082031,-60.96170425415039
1.207,2.6775684356689453,-8.45743179321289,-1.2131609916687012,0.35582900047302246,1.3145819902420044,0.2545780837535858,-25.738086700439453,49.41537857055664,-61.16632843017578
1.211,2.8426733016967773,-8.685946464538574,-1.3052847385406494,0.3107776939868927,1.449125051498413,0.2997821271419525,-25.76732063293457,49.19614028930664,-60.75708770751953
1.217,3.10109806060791,-9.157332420349121,-1.2406784296035767,0.2672535479068756,1.5586225986480713,0.3347541391849518,-25.12423324584961,49.86845779418945,-61.69248962402344
1.227,3.208775043487549,-9.78425121307373,-1.046859860420227,0.15347988903522491,1.652390480041504,0.35521814227104187,-24.39345359802246,50.11692810058594,-61.429405212402344
1.237,3.125026226043701,-10.208977699279785,-1.1198409795761108,0.08857545256614685,1.541213035583496,0.2922990024089813,-24.364221572875977,49.95615005493164,-61.736331939697266
1.247,3.104687213897705,-10.090532302856445,-1.2969098091125488,0.09789115190505981,1.3303117752075195,0.2269364297389984,-23.764982223510742,49.6784553527832,-61.239402770996094
1.267,3.3822548389434814,-9.720841407775879,-0.4342972934246063,0.1333213448524475,0.9057604670524597,0.3404046595096588,-22.683425903320312,49.53229904174805,-61.56094741821289
1.271,3.3200414180755615,-9.603592872619629,-0.12083754688501358,0.09529497474431992,0.8335255980491638,0.39645153284072876,-22.683425903320312,49.32768249511719,-61.45863342285156
1.277,3.3403801918029785,-9.406185150146484,0.20578275620937347,0.012980885803699493,0.778853178024292,0.47112980484962463,-22.361881256103516,49.35691452026367,-60.96170425415039
1.287,3.510270595550537,-8.918049812316895,0.7369893193244934,-0.1319468915462494,0.7988590598106384,0.5549710988998413,-22.595731735229492,49.049983978271484,-61.28324890136719
1.297,3.562912940979004,-8.542376518249512,0.8410770893096924,-0.2538144886493683,0.9502009153366089,0.6155994534492493,-21.455713272094727,49.38614273071289,-60.72785949707031
1.307,3.7710883617401123,-8.325825691223145,0.8530412316322327,-0.31352660059928894,1.1688907146453857,0.6171265840530396,-21.879568099975586,49.25460433959961,-60.46477508544922
1.326,4.412364959716797,-8.34018325805664,0.5443671345710754,-0.23976460099220276,1.3939945697784424,0.5132794976234436,-20.695703506469727,49.34230041503906,-59.93861389160156
1.33,4.479363918304443,-8.428717613220215,0.503689169883728,-0.18906280398368835,1.397354245185852,0.47708573937416077,-20.286466598510742,49.15229415893555,-60.1140022277832
1.337,4.823930263519287,-9.012566566467285,0.3254238963127136,-0.10033462196588516,1.36650550365448,0.4187481105327606,-20.564163208007812,49.473838806152344,-59.792457580566406
1.347,4.928018093109131,-9.755537986755371,0.02991028130054474,0.04535674676299095,1.280068039894104,0.32391127943992615,-20.2718505859375,49.239986419677734,-59.96784591674805
1.357,4.9399824142456055,-10.484152793884277,-0.2799602448940277,0.23090705275535583,1.1314750909805298,0.19425514340400696,-19.90645980834961,48.75767135620117,-59.85091781616211
1.367,4.902893543243408,-10.869396209716797,-0.4630111753940582,0.43737950921058655,0.9178250432014465,0.07437284290790558,-19.877227783203125,48.83074951171875,-59.41244888305664
1.386,4.303491592407227,-10.037890434265137,-1.0552347898483276,0.7979426980018616,0.43157631158828735,-0.04795292019844055,-19.83338165283203,48.479976654052734,-60.581703186035156
1.39,4.100101470947266,-9.687341690063477,-1.1832507848739624,0.8755226135253906,0.37369680404663086,-0.05268712714314461,-19.131834030151367,48.099971771240234,-60.596317291259766
1.397,3.946960687637329,-9.300901412963867,-1.2215359210968018,0.9650143384933472,0.3462078869342804,-0.039706241339445114,-19.044137954711914,48.8599853515625,-60.69862747192383
1.407,3.9696924686431885,-9.10827922821045,-0.9056833982467651,1.0001391172409058,0.38041630387306213,0.016951510682702065,-18.63490104675293,48.07073974609375,-61.619407653808594
1.417,4.201796531677246,-9.151350021362305,-0.36610186100006104,0.8982772827148438,0.4586070775985718,0.11056660860776901,-18.62028694152832,48.43613052368164,-61.049400329589844
1.427,4.591826438903809,-9.394221305847168,0.07417750358581543,0.6104071140289307,0.583528995513916,0.2641991972923279,-18.72259521484375,48.289974212646484,-61.239402770996094
1.446,5.997609615325928,-10.972288131713867,0.09930214285850525,0.22128592431545258,0.7269296646118164,0.5215262174606323,-17.772581100463867,47.67612075805664,-61.70710372924805
1.45,6.355337142944336,-11.418549537658691,0.12921242415905,0.1739438772201538,0.7370089292526245,0.5769621729850769,-17.72873306274414,47.95381546020508,-61.400177001953125
1.457,6.832705020904541,-11.875578880310059,0.13280165195465088,0.13561208546161652,0.6878342628479004,0.6366742849349976,-17.31949806213379,48.026893615722656,-61.239402770996094
1.467,6.770491600036621,-11.956934928894043,-0.331405907869339,0.14905111491680145,0.5508477091789246,0.6469062566757202,-16.9541072845459,48.27535629272461,-62.01403045654297
1.477,6.064609050750732,-11.534601211547852,-1.325623631477356,0.3741549551486969,0.33292156457901,0.44028112292289734,-16.413330078125,47.77842712402344,-61.59017562866211
1.487,5.187639236450195,-10.898110389709473,-2.1774685382843018,0.6530149579048157,0.12324206531047821,0.1264491081237793,-16.442562103271484,48.026893615722656,-62.320960998535156
1.506,4.0725836753845215,-9.436095237731934,-3.163311243057251,1.2962559461593628,-0.34208452701568604,-0.5057964324951172,-15.784857749938965,47.354576110839844,-62.62788772583008
1.51,3.950549840927124,-9.272187232971191,-3.2338995933532715,1.3727668523788452,-0.40225476026535034,-0.5711589455604553,-15.974861145019531,46.945335388183594,-63.0371208190918
1.517,3.9314074516296387,-9.364311218261719,-3.095116138458252,1.5748106241226196,-0.5497786998748779,-0.7246388792991638,-16.661794662475586,47.500728607177734,-64.23560333251953
1.527,3.9625141620635986,-9.895517349243164,-2.2803597450256348,1.7140878438949585,-0.6801984310150146,-0.8237517476081848,-17.04180145263672,47.00379943847656,-64.54253387451172
1.537,4.314259052276611,-10.899307250976562,-1.392622709274292,1.576948642730713,-0.6837109327316284,-0.8228355050086975,-17.173341751098633,46.98918533325195,-65.24407958984375
1.556,3.964907169342041,-11.845667839050293,-0.9726824164390564,1.2580769062042236,-0.5746714472770691,-0.6530149579048157,-17.290266036987305,46.62379455566406,-67.46565246582031
1.559,2.9934210777282715,-12.037094116210938,-1.1006983518600464,0.7287622690200806,-0.23884831368923187,-0.46273043751716614,-17.480268478393555,46.667640686035156,-66.98333740234375
1.567,2.5674986839294434,-12.031111717224121,-1.246660590171814,0.38499781489372253,0.0022907445672899485,-0.3727805018424988,-17.933351516723633,46.43379211425781,-67.31949615478516
1.577,2.480160713195801,-11.95095157623291,-1.5601202249526978,-0.07635815441608429,0.26679539680480957,-0.2574796974658966,-18.386436462402344,46.98918533325195,-67.84565734863281
1.587,2.603391170501709,-11.682955741882324,-1.6522438526153564,-0.6475171446800232,0.30375272035598755,-0.12568552792072296,-18.00642967224121,46.60917663574219,-67.4364242553711
1.597,2.4705893993377686,-10.941182136535645,-1.8927226066589355,-1.0966558456420898,0.08552113175392151,-0.04352414980530739,-17.407190322875977,46.8430290222168,-67.46565246582031
1.607,2.462214469909668,-10.364510536193848,-2.3330020904541016,-1.4676038026809692,-0.18570303916931152,0.04948008432984352,-17.494884490966797,46.916107177734375,-67.2171859741211
1.62,2.7972095012664795,-9.936195373535156,-2.14516544342041,-1.8484783172607422,-0.4758639931678772,0.22479841113090515,-17.743350982666016,48.24612808227539,-66.54487609863281
1.627,3.0891339778900146,-9.803394317626953,-1.7072789669036865,-2.0986275672912598,-0.6583600044250488,0.33628129959106445,-17.61180877685547,48.27535629272461,-65.62408447265625
1.637,3.4169507026672363,-9.525826454162598,-1.0959126949310303,-2.5396721363067627,-0.9758571982383728,0.48197266459465027,-17.933351516723633,47.924583435058594,-65.34638977050781
1.647,3.6502509117126465,-9.125028610229492,-0.5910272002220154,-2.82769513130188,-1.2137892246246338,0.5505422949790955,-17.582576751708984,48.5384407043457,-63.78252029418945
1.657,3.5605199337005615,-8.947959899902344,-0.31824538111686707,-3.0082058906555176,-1.3891074657440186,0.5818491578102112,-17.377958297729492,49.26921844482422,-63.5340576171875
1.677,3.2829525470733643,-8.895318031311035,-0.05024927482008934,-3.0724992752075195,-1.4645494222640991,0.5693264007568359,-17.290266036987305,49.00613784790039,-62.028648376464844
1.68,2.830709218978882,-8.965906143188477,0.27397817373275757,-2.9906435012817383,-1.3842206001281738,0.46074509620666504,-17.363344192504883,49.590763092041016,-60.844783782958984
1.687,2.5770697593688965,-8.995816230773926,0.4785645008087158,-2.889698028564453,-1.2618948221206665,0.3715587854385376,-17.114879608154297,49.766151428222656,-60.27477264404297
1.697,2.533998966217041,-9.174081802368164,0.7345964908599854,-2.7345383167266846,-1.0989465713500977,0.20815233886241913,-17.655654907226562,49.51768493652344,-59.047061920166016
1.707,2.9252257347106934,-9.672985076904297,0.8602197170257568,-2.5552492141723633,-1.066417932510376,0.050243668258190155,-17.553346633911133,49.86845779418945,-58.56474685668945
1.717,2.95393967628479,-10.249655723571777,0.8327022790908813,-2.378556489944458,-1.0503827333450317,-0.0036651913542300463,-17.43642234802246,50.570011138916016,-58.4185905456543
1.736,3.2159535884857178,-10.99741268157959,0.7429714202880859,-2.205681562423706,-1.0074695348739624,0.03222314268350601,-18.152587890625,50.81847381591797,-57.731658935546875
1.74,3.0101706981658936,-11.536993980407715,0.20578275620937347,-1.905135989189148,-0.9514226317405701,0.19318613409996033,-17.69950294494629,51.25694274902344,-57.322418212890625
1.747,2.551945447921753,-11.404192924499512,-0.30508488416671753,-1.7201964855194092,-0.8914051055908203,0.2148718386888504,-17.90412139892578,51.63694763183594,-56.16778564453125
1.757,2.8283162117004395,-11.160123825073242,-0.5467599630355835,-1.486387848854065,-0.8153523802757263,0.1589776873588562,-17.918737411499023,51.373870849609375,-55.977787017822266
1.767,3.1334011554718018,-10.583454132080078,-0.6879364848136902,-1.28128981590271,-0.7489207983016968,0.14508049190044403,-17.88950538635254,51.33001708984375,-55.363929748535156
1.777,3.3571300506591797,-9.586843490600586,-0.8135596513748169,-1.0951286554336548,-0.6724098920822144,0.15363259613513947,-18.415668487548828,51.578487396240234,-55.378543853759766
1.797,3.513859748840332,-8.792426109313965,-0.6400800943374634,-0.9011789560317993,-0.6609561443328857,0.14767667651176453,-18.941829681396484,51.09617233276367,-55.96316909790039
1.801,3.6191442012786865,-7.678567886352539,-0.6520441174507141,-0.7111998200416565,-0.749531626701355,0.15577064454555511,-19.24875831604004,51.505409240722656,-55.173927307128906
1.807,3.7256245613098145,-7.288537502288818,-0.7046862840652466,-0.5183191299438477,-0.9503535628318787,0.1543961763381958,-19.36568260192871,51.33001708984375,-55.14469909667969
1.817,3.198007583618164,-7.307680130004883,-0.5084748268127441,-0.2093740552663803,-1.2125674486160278,0.12538009881973267,-19.672609329223633,51.54925537109375,-55.20315933227539
1.827,2.390429735183716,-7.733603000640869,-0.22612173855304718,0.010690141469240189,-1.2060006856918335,0.015882495790719986,-20.038002014160156,51.0815544128418,-55.071617126464844
1.837,1.8317056894302368,-8.02074146270752,-0.27038896083831787,0.09285151958465576,-0.717613935470581,-0.19028452038764954,-20.315698623657227,51.92926025390625,-54.22391128540039
1.857,1.557727575302124,-8.309076309204102,-0.3242274522781372,0.10476338863372803,-0.12339477986097336,-0.36651915311813354,-19.90645980834961,52.23618698120117,-54.9400749206543
1.86,1.3244272470474243,-8.5100736618042,0.007178467698395252,0.05910121276974678,0.5503895878791809,-0.6368269920349121,-20.344928741455078,52.38234329223633,-54.35545349121094
1.867,1.3710873126983643,-8.636893272399902,0.02273181453347206,0.015882495790719986,0.9075930714607239,-0.7959573864936829,-20.344928741455078,52.80619812011719,-54.57468795776367
1.877,1.4189437627792358,-8.645268440246582,-0.11006983369588852,-0.05574145168066025,1.2895365953445435,-0.9810495376586914,-20.666471481323242,52.83543014526367,-54.282371520996094
1.887,1.5266207456588745,-8.597411155700684,-0.3158525824546814,-0.13286319375038147,1.5102115869522095,-1.1242974996566772,-21.411867141723633,53.50774383544922,-54.6185302734375
1.897,1.7407783269882202,-8.407181739807129,-0.5539384484291077,-0.2499965876340866,1.4283556938171387,-1.2206615209579468,-22.084184646606445,53.27389907836914,-54.48699188232422
1.917,1.9130616188049316,-8.182256698608398,-1.0707881450653076,-0.32360586524009705,1.1162035465240479,-1.2192870378494263,-22.47880744934082,53.37620544433594,-53.88775634765625
1.92,1.903490424156189,-7.944170951843262,-1.3052847385406494,-0.34315353631973267,0.6052147150039673,-1.1650727987289429,-22.888044357299805,53.8585205078125,-55.29084777832031
1.927,1.887937068939209,-7.801797866821289,-1.3627125024795532,-0.3243694305419922,0.3269656002521515,-1.1198686361312866,-23.063430786132812,53.80005645751953,-54.443145751953125
1.937,1.8628122806549072,-7.429713726043701,-1.4141581058502197,-0.2744311988353729,0.04535674676299095,-1.0225883722305298,-23.66267204284668,54.077754974365234,-53.829288482666016
1.947,1.9525432586669922,-6.831508159637451,-1.6139588356018066,-0.1293507218360901,-0.2376265674829483,-0.8626943826675415,-24.013446807861328,54.18006134033203,-53.58082580566406
1.957,2.011167287826538,-5.990431308746338,-1.514656662940979,0.05451972037553787,-0.48487427830696106,-0.7316638231277466,-24.276527404785156,54.37007141113281,-54.70622634887695
1.977,1.7515461444854736,-5.398207664489746,-1.3639088869094849,0.19349156320095062,-0.5659666657447815,-0.5616905689239502,-25.43115997314453,54.238529205322266,-53.624671936035156
1.981,1.2574282884597778,-5.017748832702637,-0.9236294627189636,0.2776382565498352,-0.40775254368782043,-0.3251330256462097,-25.197309494018555,54.60391616821289,-54.70622634887695
1.987,0.9678966999053955,-4.9531426429748535,-0.867398202419281,0.28619036078453064,-0.31841349601745605,-0.26572638750076294,-24.904998779296875,54.38468551635742,-54.004676818847656
1.997,1.3148560523986816,-4.930410861968994,-1.0061818361282349,0.33887749910354614,-0.18219056725502014,-0.16371189057826996,-25.197309494018555,54.13621520996094,-54.22391128540039
2.007,1.9250258207321167,-5.615954875946045,-1.1856435537338257,0.39675697684288025,-0.18081609904766083,-0.10094548016786575,-25.460391998291016,54.238529205322266,-54.85238265991211
2.017,2.2432711124420166,-6.258427619934082,-1.573280930519104,0.43279802799224854,-0.12965615093708038,0.008246680721640587,-25.650394439697266,54.647762298583984,-55.11546325683594
2.037,2.1954145431518555,-7.007380962371826,-2.2636101245880127,0.48059821128845215,-0.012828170321881771,0.10002917796373367,-25.606548309326172,54.39929962158203,-55.802398681640625
2.04,2.170289993286133,-8.452645301818848,-3.5784661769866943,0.5439754724502563,0.3543018102645874,0.16233743727207184,-25.650394439697266,54.662376403808594,-55.91931915283203
2.047,2.1774685382843018,-9.083154678344727,-4.161118507385254,0.540921151638031,0.6027712821960449,0.156686931848526,-25.29962158203125,54.42852783203125,-56.06547546386719
2.057,2.234896183013916,-10.931610107421875,-5.994020938873291,0.42271873354911804,0.9920451641082764,0.12889257073402405,-25.197309494018555,54.75007247924805,-56.007015228271484
2.067,3.0077779293060303,-12.278769493103027,-7.323233604431152,0.11972958594560623,1.3193161487579346,0.11911872029304504,-25.738086700439453,54.75007247924805,-56.46010208129883
2.077,4.267599105834961,-12.44148063659668,-8.300702095031738,-0.08888089656829834,1.335962176322937,0.11911872029304504,-25.577316284179688,54.472373962402344,-56.09471130371094
2.097,5.605186939239502,-12.223733901977539,-8.056633949279785,-0.006261368282139301,1.0413724184036255,0.09407324343919754,-25.358083724975586,55.30546951293945,-56.59164047241211
2.101,7.032505512237549,-11.638689041137695,-5.14456844329834,0.2590068578720093,0.33169981837272644,-0.012980885803699493,-25.650394439697266,54.85238265991211,-56.927799224853516
2.107,7.066004753112793,-10.991430282592773,-4.094119548797607,0.2828305959701538,0.06398813426494598,-0.09407324343919754,-25.41654396057129,54.72084426879883,-57.307804107666016
2.117,6.489335060119629,-10.152746200561523,-3.286541700363159,0.2506074607372284,-0.13698652386665344,-0.204487144947052,-25.24115753173828,54.60391616821289,-56.97164535522461
2.127,5.641078948974609,-9.242277145385742,-2.908475875854492,0.13561208546161652,-0.18341228365898132,-0.25702154636383057,-25.76732063293457,54.77930450439453,-56.5770263671875
2.137,4.995017051696777,-8.414360046386719,-2.8654050827026367,0.015882495790719986,-0.2597704529762268,-0.3124575614929199,-26.52733039855957,54.80853271484375,-56.927799224853516
2.156,4.656432628631592,-7.829315185546875,-2.9012973308563232,-0.05451972037553787,-0.7316638231277466,-0.3933972120285034,-26.381174087524414,54.99854278564453,-57.65857696533203
2.16,4.937589645385742,-7.578068733215332,-2.647658109664917,-0.029474247246980667,-0.9269880056381226,-0.37888914346694946,-26.834259033203125,54.881614685058594,-57.03010559082031
2.167,4.782055854797363,-7.737191677093506,-2.4634108543395996,0.02733621932566166,-1.2579243183135986,-0.32620203495025635,-27.08272361755371,55.20315933227539,-58.00935745239258
2.177,4.3070807456970215,-8.0350980758667,-2.4765713214874268,0.1039998009800911,-1.6458237171173096,-0.26832255721092224,-27.360422134399414,55.393157958984375,-57.556270599365234
2.187,3.6095728874206543,-8.34855842590332,-2.695514678955078,0.19333885610103607,-1.8993327617645264,-0.2252565622329712,-28.251972198486328,54.72084426879883,-57.46857452392578
2.197,2.939582586288452,-8.780462265014648,-2.904886484146118,0.2561052441596985,-1.9578231573104858,-0.168751522898674,-28.28120231628418,55.071617126464844,-57.65857696533203
2.217,2.159522294998169,-10.009177207946777,-4.100101470947266,0.23182335495948792,-1.715462327003479,-0.09224064648151398,-29.15814208984375,55.1593132019043,-58.52090072631836
2.221,2.0470597743988037,-13.052846908569336,-5.4245285987854,0.28496861457824707,-1.2831224203109741,-0.07696902006864548,-29.231218338012695,55.773162841796875,-58.59397506713867
2.227,3.0867412090301514,-14.46341609954834,-4.947160720825195,0.42042800784111023,-1.0587822198867798,-0.07620543986558914,-29.36275863647461,54.77930450439453,-57.9947395324707
2.237,5.053641319274902,-15.882360458374023,-2.1547367572784424,0.493731826543808,-0.8400924205780029,0.07742717117071152,-29.391992568969727,55.01315689086914,-58.550132751464844
2.247,5.4173502922058105,-15.578471183776855,0.5180460810661316,0.31612274050712585,-0.983951210975647,0.30283644795417786,-29.231218338012695,55.23238754272461,-58.57936096191406
2.257,3.689732551574707,-12.384053230285645,-0.19381862878799438,0.30970868468284607,-0.8846855759620667,0.22617284953594208,-29.275066375732422,54.91084289550781,-58.22858810424805
2.277,2.719442844390869,-7.319643974304199,-1.2059825658798218,0.4335615932941437,0.12751811742782593,-0.16142113506793976,-29.45045280456543,55.51008605957031,-58.53551483154297
2.28,2.3988046646118164,-4.459024906158447,-0.8207381367683411,0.42531490325927734,0.20784689486026764,-0.19685132801532745,-30.035078048706055,55.188541412353516,-58.477054595947266
2.287,2.15234375,-3.55932354927063,-0.19142581522464752,0.4086688458919525,0.3023782968521118,-0.2883284091949463,-30.093538284301758,55.13007736206055,-58.053199768066406
2.297,1.3878371715545654,-3.3236305713653564,0.5455635190010071,0.3982841372489929,0.11484266072511673,-0.3758348524570465,-30.415081024169922,55.2762336730957,-59.105525970458984
2.307,1.2885348796844482,-4.485345840454102,0.906879723072052,0.39125916361808777,-0.4973970353603363,-0.3527746796607971,-30.751243591308594,54.867000579833984,-59.38322067260742
2.317,1.1318050622940063,-6.630511283874512,0.714257538318634,0.34086281061172485,-0.8188648223876953,-0.06429356336593628,-31.072786331176758,54.85238265991211,-59.17860412597656
2.337,0.3038884699344635,-8.184649467468262,-0.3361915946006775,0.3378084599971771,-0.7841982841491699,0.31093040108680725,-30.765857696533203,55.2762336730957,-59.8363037109375
2.341,-0.36610186100006104,-10.112068176269531,-1.171286702156067,0.4922046661376953,-0.35155293345451355,0.7929030656814575,-31.175094604492188,55.05699920654297,-59.85091781616211
2.347,-0.7034898400306702,-11.084750175476074,-1.3040882349014282,0.5519167184829712,-0.1690569519996643,0.919963002204895,-30.44431495666504,54.85238265991211,-59.76322937011719
2.357,-0.8410770893096924,-12.021539688110352,-0.9726824164390564,0.6233879327774048,0.18402314186096191,1.0468703508377075,-30.225080490112305,54.867000579833984,-60.55247116088867
2.367,-0.47018963098526,-12.531211853027344,-0.3613162338733673,0.5971208214759827,0.2877175211906433,0.9906706809997559,-29.333528518676758,54.881614685058594,-60.07015609741211
2.377,0.5288137793540955,-12.08495044708252,0.14715859293937683,0.5248859524726868,0.42500948905944824,0.8808676600456238,-29.09967803955078,54.32621765136719,-60.610931396484375
2.397,2.362912178039551,-10.949556350708008,0.5347958207130432,0.28527405858039856,1.1365147829055786,1.2021827697753906,-28.16427993774414,55.01315689086914,-60.610931396484375
2.401,3.840480089187622,-9.694520950317383,0.9296115636825562,0.2070833146572113,1.2224940061569214,1.2783881425857544,-28.06197166442871,54.77930450439453,-61.07863235473633
2.407,4.040280818939209,-9.353543281555176,0.9080761671066284,0.09804386645555496,1.1934778690338135,1.31748366355896,-26.848873138427734,54.633148193359375,-60.625545501708984
2.417,4.278366565704346,-8.5100736618042,0.2751745879650116,0.033597588539123535,0.9077457189559937,1.2330315113067627,-26.074249267578125,54.31160354614258,-61.38555908203125
2.427,4.715056896209717,-8.118846893310547,-0.3720839321613312,0.08124507963657379,0.5363396406173706,1.1365147829055786,-25.635778427124023,54.39929962158203,-60.94709014892578
2.437,5.023731231689453,-7.787441253662109,-1.0911270380020142,0.26801711320877075,0.19975292682647705,1.079246163368225,-25.358083724975586,54.37007141113281,-61.005558013916016
2.457,4.828715801239014,-8.309076309204102,-1.4428720474243164,0.9074403047561646,-0.46043968200683594,0.765566885471344,-24.84653663635254,54.51622772216797,-61.736331939697266
2.46,4.893321990966797,-8.47896671295166,-1.4141581058502197,1.0685560703277588,-0.589179515838623,0.6209444999694824,-24.934228897094727,54.09237289428711,-62.27711486816406
2.467,5.14456844329834,-8.815157890319824,-1.3758729696273804,1.2962559461593628,-0.7406740784645081,0.41890081763267517,-24.159603118896484,54.41391372680664,-62.1163444519043
2.477,5.50947380065918,-9.162117958068848,-1.1234301328659058,1.5474743843078613,-0.8518515229225159,0.2298380434513092,-24.49576187133789,54.033905029296875,-62.64250183105469
2.487,5.531009197235107,-9.30329418182373,-0.9272187352180481,1.7113388776779175,-0.8914051055908203,0.13775010406970978,-24.422683715820312,54.077754974365234,-63.43174743652344
2.497,4.457828521728516,-9.168099403381348,-0.9559326767921448,1.8066338300704956,-0.9245445132255554,0.0328340083360672,-24.96346092224121,53.59543991088867,-64.3379135131836
2.516,2.1607186794281006,-9.017352104187012,-1.3244272470474243,1.82572340965271,-1.116814374923706,-0.5146539211273193,-25.752704620361328,53.06927490234375,-66.67640686035156
2.52,1.9310078620910645,-9.081957817077637,-1.3866406679153442,1.793500304222107,-1.130711555480957,-0.6287330389022827,-25.88424301147461,53.215431213378906,-66.66179656982422
2.527,2.056631088256836,-9.072386741638184,-1.2849457263946533,1.7004960775375366,-1.1241447925567627,-0.7347181439399719,-26.68810272216797,52.86465835571289,-67.30487823486328
2.537,2.3605194091796875,-9.275776863098145,-1.1258230209350586,1.476919412612915,-1.0997101068496704,-0.7102835774421692,-27.24349594116211,52.499271392822266,-68.37181854248047
2.547,2.3090739250183105,-9.401399612426758,-0.8757730722427368,1.1643091440200806,-1.0219775438308716,-0.5725334286689758,-27.05349349975586,52.733116149902344,-69.54106903076172
2.557,2.0410776138305664,-9.460023880004883,-0.8231310248374939,0.7735080718994141,-0.9208793640136719,-0.42699480056762695,-27.988893508911133,52.499271392822266,-69.11721801757812
2.572,2.383251190185547,-9.20279598236084,-0.7824530005455017,0.14324790239334106,-0.85994553565979,-0.3579670190811157,-27.477344512939453,52.04618453979492,-69.58491516113281
2.577,2.605783700942993,-9.140582084655762,-0.6664010882377625,-0.006719517521560192,-0.8796459436416626,-0.3387247622013092,-27.842735290527344,51.95848846435547,-69.73107147216797
2.587,2.796013355255127,-9.016155242919922,-0.50129634141922,-0.2519819140434265,-0.9611964225769043,-0.32192596793174744,-27.740427017211914,52.0169563293457,-69.48260498046875
2.597,2.8965117931365967,-8.93838882446289,-0.34695929288864136,-0.4473060667514801,-1.0151053667068481,-0.3283400535583496,-27.915815353393555,52.8208122253418,-69.9356918334961
2.607,3.080759048461914,-8.640481948852539,-0.4247260093688965,-0.5783366560935974,-1.0115928649902344,-0.3393356204032898,-28.222742080688477,52.937740325927734,-68.94183349609375
2.617,3.2303104400634766,-8.286344528198242,-0.4941178560256958,-0.5665775537490845,-0.9373726844787598,-0.3491095006465912,-28.16427993774414,52.689273834228516,-68.59104919433594
2.637,3.348755121231079,-8.645268440246582,0.1698903888463974,-0.3478877544403076,-0.6753115057945251,-0.30955594778060913,-28.982751846313477,53.2008171081543,-67.84565734863281
2.641,3.2410783767700195,-8.694320678710938,0.24287149310112,-0.3361286222934723,-0.6342307925224304,-0.31154128909111023,-29.36275863647461,53.434669494628906,-67.61180877685547
2.647,2.860619306564331,-8.725427627563477,0.38763725757598877,-0.30741792917251587,-0.45646902918815613,-0.33719760179519653,-29.947385787963867,53.30312728881836,-68.02104949951172
2.657,2.7110679149627686,-8.577072143554688,0.45104703307151794,-0.26633724570274353,-0.0832303911447525,-0.4043927788734436,-29.552762985229492,53.0985107421875,-68.00643157958984
2.667,2.968296527862549,-8.2695951461792,0.45463627576828003,-0.10674870014190674,0.4323398768901825,-0.45295655727386475,-30.53200912475586,52.83543014526367,-68.12335968017578
2.677,2.830709218978882,-8.234898567199707,0.6257230639457703,0.062460970133543015,0.7556402683258057,-0.48288896679878235,-30.00584602355957,53.113128662109375,-68.29874420166016
2.695,2.5531415939331055,-8.599804878234863,0.5814558863639832,0.2929098606109619,1.3486377000808716,-0.6050620079040527,-30.619701385498047,53.46390151977539,-67.91873931884766
2.699,2.469392776489258,-8.775676727294922,0.3517449200153351,0.35552358627319336,1.476613998413086,-0.6403394937515259,-30.6489315032959,53.27389907836914,-68.7372055053711
2.707,2.334198474884033,-8.98385238647461,-0.12203395366668701,0.4544837474822998,1.637271523475647,-0.6879869699478149,-30.108156204223633,53.30312728881836,-68.25489044189453
2.717,2.0518453121185303,-9.017352104187012,-1.0037890672683716,0.6947064995765686,1.8768833875656128,-0.744186520576477,-30.809703826904297,52.952354431152344,-68.82490539550781
2.727,1.8735800981521606,-9.074779510498047,-1.7994025945663452,0.9398161768913269,1.9727892875671387,-0.7629706859588623,-30.54662322998047,52.80619812011719,-69.81876373291016
2.737,1.9549360275268555,-9.290133476257324,-1.7742778062820435,1.1317806243896484,1.9063576459884644,-0.7299839854240417,-30.94124412536621,52.280033111572266,-70.15492248535156
2.75,2.1068801879882812,-9.565308570861816,-1.5158531665802002,1.1380419731140137,1.5184582471847534,-0.5971208214759827,-30.678165435791016,51.783103942871094,-71.01725006103516
2.757,1.956132411956787,-9.584450721740723,-1.5792629718780518,1.0936014652252197,1.3865114450454712,-0.52702397108078,-30.44431495666504,52.002342224121094,-70.84185791015625
2.767,2.0542380809783936,-9.818947792053223,-1.6378871202468872,0.9450085163116455,1.1864529848098755,-0.3101668059825897,-30.035078048706055,51.25694274902344,-71.44110107421875
2.777,2.069791555404663,-10.006784439086914,-1.1509475708007812,0.7446447610855103,1.096961259841919,-0.11285734921693802,-30.122772216796875,51.56386947631836,-71.86495208740234
2.787,2.163111686706543,-9.92303466796875,-0.8805586695671082,0.45066583156585693,1.0674870014190674,0.0913243517279625,-30.108156204223633,51.1400146484375,-72.24495697021484
2.806,2.266003131866455,-9.462416648864746,-0.9822536706924438,0.14309518039226532,1.133155107498169,0.2877175211906433,-29.91815185546875,51.4615592956543,-72.62496185302734
2.81,2.638087034225464,-9.449256896972656,-1.0815558433532715,-0.1362229436635971,1.222646713256836,0.4465424716472626,-29.34814453125,51.43233108520508,-71.98188018798828
2.817,2.895315170288086,-9.617950439453125,-0.9224331378936768,-0.275347501039505,1.2683088779449463,0.5140430927276611,-29.041215896606445,51.03771209716797,-71.7480239868164
2.827,3.5736804008483887,-9.641878128051758,-0.259621262550354,-0.3732386529445648,1.2994630336761475,0.5845980048179626,-28.412744522094727,51.30078887939453,-72.44957733154297
2.837,4.029513359069824,-9.528219223022461,0.2715853750705719,-0.4677700698375702,1.3025174140930176,0.6766859889030457,-27.915815353393555,51.373870849609375,-72.09880065917969
2.847,4.198206901550293,-9.32602596282959,0.45463627576828003,-0.5132794976234436,1.2927435636520386,0.7567093372344971,-27.755043029785156,51.49079132080078,-71.17801666259766
2.867,4.113262176513672,-9.199206352233887,0.4019941985607147,-0.46792274713516235,1.2825114727020264,0.7591527700424194,-26.99502944946289,51.98772430419922,-71.92341613769531
2.87,4.256831645965576,-9.18604564666748,0.0933200791478157,-0.22220222651958466,1.207680583000183,0.6056728959083557,-26.015785217285156,51.87080001831055,-71.60187530517578
2.877,4.481756687164307,-9.251848220825195,-0.05982056260108948,-0.058337628841400146,1.13926362991333,0.5100724697113037,-25.533470153808594,51.54925537109375,-71.66033172607422
2.887,4.892125606536865,-9.375079154968262,-0.13280165195465088,0.13729196786880493,1.0290025472640991,0.4283692538738251,-25.518856048583984,51.75387191772461,-72.04033660888672
2.897,5.127819061279297,-9.389435768127441,-0.16869398951530457,0.2791654169559479,0.9097310304641724,0.3992004096508026,-25.007307052612305,51.66618347167969,-72.12803649902344
2.907,5.236692428588867,-9.323633193969727,-0.2309073656797409,0.36743542551994324,0.8356636762619019,0.3845396637916565,-24.817304611206055,51.973106384277344,-71.95264434814453
2.926,5.157729148864746,-9.33440113067627,-0.3936192989349365,0.43890663981437683,0.8497135639190674,0.3423899710178375,-24.247295379638672,51.783103942871094,-72.3472671508789
2.93,4.892125606536865,-9.34875774383545,-0.6879364848136902,0.49984046816825867,0.9447030425071716,0.2422080636024475,-23.794212341308594,51.87080001831055,-73.00496673583984
2.937,4.7796630859375,-9.42772102355957,-0.8901299834251404,0.546571671962738,0.9880744814872742,0.156686931848526,-23.925752639770508,51.476173400878906,-72.42034912109375
2.947,4.8358941078186035,-9.65503978729248,-0.8985048532485962,0.6148358583450317,0.9954048991203308,0.04337143152952194,-23.28266716003418,51.154632568359375,-72.88804626464844
2.957,5.139782905578613,-9.968499183654785,-0.8111668825149536,0.66584312915802,0.9321803450584412,-0.02367102913558483,-23.39959144592285,51.25694274902344,-73.28266143798828
2.967,5.7164530754089355,-10.447062492370605,-0.5682953596115112,0.688903272151947,0.8396342396736145,-0.0024434609804302454,-23.078046798706055,50.745399475097656,-72.63957977294922
2.987,6.5312089920043945,-11.272586822509766,-0.714257538318634,0.7353289723396301,0.7232643961906433,0.12660181522369385,-23.443437576293945,50.80385971069336,-73.12189483642578
2.99,7.074379920959473,-12.029914855957031,-1.1629117727279663,0.8596401214599609,0.6143776774406433,0.2460259646177292,-22.873428344726562,50.160770416259766,-73.67729187011719
2.997,6.704688549041748,-12.002398490905762,-1.8005989789962769,0.9813550114631653,0.5349652171134949,0.22892174124717712,-23.12189483642578,50.584625244140625,-74.0865249633789
3.007,5.6446685791015625,-11.891131401062012,-2.9527430534362793,1.2113457918167114,0.39125916361808777,0.023365594446659088,-22.873428344726562,50.01461410522461,-74.78807830810547
3.017,4.734199523925781,-11.662616729736328,-3.806980848312378,1.4827226400375366,0.20005835592746735,-0.3744603991508484,-22.873428344726562,49.51768493652344,-75.95732116699219
3.027,4.638486862182617,-11.621939659118652,-3.6502509117126465,1.6447546482086182,-0.18829920887947083,-0.8506298065185547,-23.063430786132812,48.93306350708008,-76.83425903320312
3.046,4.076173305511475,-11.609975814819336,-3.1824538707733154,1.5166256427764893,-0.5056437253952026,-1.0389289855957031,-23.487285614013672,49.049983978271484,-77.2288818359375
3.051,3.616751194000244,-11.965310096740723,-2.9108684062957764,1.017701506614685,-0.59803706407547,-0.9663887619972229,-24.510377883911133,48.37766647338867,-78.23735809326172
3.057,3.194417953491211,-12.244072914123535,-2.636890411376953,0.7718282341957092,-0.5201517343521118,-0.8556694388389587,-24.890382766723633,48.88921356201172,-77.93043518066406
3.067,2.4502503871917725,-12.361321449279785,-2.1092729568481445,0.18020524084568024,-0.2243402600288391,-0.5502368807792664,-24.94884490966797,48.289974212646484,-78.0327377319336
3.077,2.137986898422241,-12.345767974853516,-0.836291491985321,-0.7623597979545593,0.21380282938480377,-0.13347405195236206,-26.045015335083008,48.43613052368164,-77.81350708007812
3.087,1.9250258207321167,-11.424531936645508,0.37088748812675476,-1.5700763463974,0.4164573848247528,0.10247264802455902,-25.7088565826416,48.421512603759766,-78.07658386230469
3.107,2.014756679534912,-10.441081047058105,0.19262221455574036,-2.1725423336029053,0.4082106947898865,0.2542726695537567,-26.381174087524414,49.210758209228516,-76.87810516357422
3.11,2.104487419128418,-9.339186668395996,-0.3086740970611572,-2.5189027786254883,0.13744467496871948,0.37919458746910095,-25.752704620361328,49.69307327270508,-75.92809295654297
3.117,2.194218397140503,-8.932406425476074,-0.5324030518531799,-2.531578302383423,-0.003054326167330146,0.39187002182006836,-26.074249267578125,50.555397033691406,-74.80268859863281
3.127,2.121237277984619,-8.648857116699219,-0.5024927258491516,-2.5004241466522217,-0.4034765064716339,0.39706239104270935,-26.001171112060547,50.92078399658203,-73.60420989990234
3.137,2.365305185317993,-8.665606498718262,-0.31106695532798767,-2.4772112369537354,-0.7762569785118103,0.35582900047302246,-25.518856048583984,51.63694763183594,-72.24495697021484
3.147,2.9587249755859375,-8.94556713104248,-0.09571290761232376,-2.4665210247039795,-1.1143709421157837,0.3251330256462097,-25.84039878845215,52.03157043457031,-70.9880142211914
3.168,3.5222346782684326,-9.436095237731934,0.28594231605529785,-2.4744622707366943,-1.3277156352996826,0.34926217794418335,-26.746564865112305,53.06927490234375,-69.74568939208984
3.171,4.0079779624938965,-9.92423152923584,0.8111668825149536,-2.5618159770965576,-1.429271936416626,0.4593706429004669,-26.89272117614746,52.923118591308594,-68.98567962646484
3.177,3.899104356765747,-10.01755142211914,0.7932206988334656,-2.6082417964935303,-1.3997976779937744,0.4960225820541382,-27.141185760498047,53.34697341918945,-68.44490051269531
3.187,3.4265217781066895,-10.193424224853516,0.5958127975463867,-2.6225972175598145,-1.3100005388259888,0.4781547486782074,-27.1704158782959,53.88775634765625,-66.91026306152344
3.197,2.950350046157837,-10.584650039672852,0.2847459018230438,-2.568229913711548,-1.1808024644851685,0.38041630387306213,-26.96579933166504,54.443145751953125,-66.35486602783203
3.207,2.636890411376953,-10.932806968688965,-0.17706885933876038,-2.4472787380218506,-1.0329731702804565,0.22663100063800812,-27.52119255065918,54.91084289550781,-65.8140869140625
3.227,2.6775684356689453,-11.321639060974121,-0.5324030518531799,-2.258368730545044,-0.8659014701843262,0.058948494493961334,-27.813507080078125,54.969303131103516,-65.08330535888672
3.23,3.0376882553100586,-11.59442138671875,-0.605384111404419,-1.9239200353622437,-0.6499606370925903,-0.1667662113904953,-28.33966636657715,54.53084182739258,-63.665592193603516
3.237,3.2279176712036133,-11.651848793029785,-0.46420758962631226,-1.758528232574463,-0.5462662577629089,-0.24862214922904968,-28.398128509521484,55.10084533691406,-63.92867660522461
3.247,3.159722089767456,-12.007183074951172,-0.20338991284370422,-1.6145167350769043,-0.36102133989334106,-0.2393064647912979,-28.80736541748047,55.568546295166016,-62.46711730957031
3.257,2.8151557445526123,-11.37069320678711,-0.2991028130054474,-1.532660961151123,-0.18402314186096191,-0.1843285858631134,-29.87430763244629,55.04238510131836,-61.414791107177734
3.267,3.799802303314209,-9.607182502746582,-0.7920242547988892,-1.2745702266693115,-0.3045163154602051,-0.12324206531047821,-30.678165435791016,55.34931564331055,-59.76322937011719
3.287,4.41475772857666,-7.831707954406738,-0.8015955090522766,-0.43768492341041565,-1.3530665636062622,-0.09773843735456467,-30.07892417907715,55.817012786865234,-59.251678466796875
3.291,1.939382791519165,-8.401200294494629,1.1461620330810547,0.7338019013404846,-2.4353671073913574,-0.1560760736465454,-30.605087280273438,55.68547058105469,-59.675533294677734
3.297,1.0145567655563354,-8.997013092041016,1.4895319938659668,0.8788823485374451,-2.1432206630706787,-0.15790866315364838,-30.254310607910156,55.773162841796875,-59.95323181152344
3.307,0.19381862878799438,-9.10827922821045,0.7621140480041504,0.8133670687675476,-1.158811330795288,-0.1189659982919693,-30.37123680114746,56.007015228271484,-60.02630615234375
3.317,-0.5994020700454712,-9.353543281555176,0.0729810893535614,0.6646214127540588,0.051312681287527084,-0.1875356286764145,-30.56123924255371,56.46010208129883,-60.4940071105957
3.327,-1.2203395366668701,-9.443273544311523,-0.035892337560653687,0.42210787534713745,1.1568260192871094,-0.4121812880039215,-30.73662757873535,55.67085647583008,-60.65477752685547
3.347,-1.0097711086273193,-9.538987159729004,0.35054853558540344,-0.058337628841400146,2.1320724487304688,-0.7113525867462158,-30.298158645629883,55.758548736572266,-60.68401336669922
3.351,-0.2883351147174835,-9.081957817077637,0.2560320198535919,-0.7968736886978149,2.2991440296173096,-0.9109527468681335,-29.961999893188477,55.30546951293945,-60.75708770751953
3.357,-0.07657032459974289,-8.61176872253418,-0.09810572117567062,-0.9931141138076782,2.2064452171325684,-0.9280570149421692,-30.985092163085938,55.553932189941406,-59.96784591674805
3.367,0.37088748812675476,-7.8113694190979,-0.7214360237121582,-1.2209669351577759,1.8584047555923462,-0.9086620211601257,-30.795087814331055,55.773162841796875,-59.33937454223633
3.377,0.8614161610603333,-6.988238334655762,-1.2598210573196411,-1.1855366230010986,1.3503175973892212,-0.8596401214599609,-31.13124656677246,55.977787017822266,-58.6378288269043
3.387,0.9942178130149841,-6.522834300994873,-1.399801254272461,-0.8985827565193176,0.7212790846824646,-0.7686211466789246,-31.59894561767578,56.372406005859375,-58.345516204833984
3.406,0.9523433446884155,-6.439085483551025,-0.8374878764152527,-0.6116288304328918,0.024129178375005722,-0.6582072973251343,-32.490501403808594,55.67085647583008,-58.477054595947266
3.41,1.4656038284301758,-6.138786315917969,-0.7345964908599854,-0.5331326127052307,-0.19639316201210022,-0.624609649181366,-32.70973205566406,56.25548553466797,-57.90704345703125
3.417,1.920240044593811,-5.825326442718506,-0.4055834412574768,-0.4108068645000458,-0.5152648091316223,-0.517250120639801,-32.75358200073242,56.0800895690918,-58.053199768066406
3.427,1.8616158962249756,-5.614758491516113,-0.09810572117567062,-0.2791654169559479,-0.8732318878173828,-0.32391127943992615,-32.73896408081055,56.401634216308594,-57.556270599365234
3.437,1.7778671979904175,-5.328815937042236,0.04905286058783531,-0.16554446518421173,-1.1201741695404053,-0.09758572280406952,-33.060508728027344,56.15317153930664,-57.43934631347656
3.447,1.5086746215820312,-5.149354457855225,0.02153540402650833,-0.06505714356899261,-1.1942416429519653,0.031001411378383636,-32.59280776977539,55.91931915283203,-57.27857208251953
3.468,1.0133603811264038,-5.806183815002441,0.007178467698395252,0.06444628536701202,-0.7026477456092834,0.21991148591041565,-32.797428131103516,56.32855987548828,-56.51856231689453
3.471,0.8458627462387085,-6.088537216186523,0.15074782073497772,0.033139437437057495,-0.44837507605552673,0.26282477378845215,-33.805904388427734,55.93394088745117,-57.556270599365234
3.477,1.113858938217163,-6.163910865783691,0.20099709928035736,-0.03237585723400116,-0.1667662113904953,0.30741792917251587,-33.33820343017578,56.15317153930664,-57.746273040771484
3.487,2.231307029724121,-6.579065322875977,-0.3397807776927948,-0.11438451707363129,0.031154125928878784,0.2919935882091522,-33.13358688354492,55.89009094238281,-57.556270599365234
3.497,3.4360930919647217,-6.948756694793701,-1.3710873126983643,-0.016951510682702065,-0.06811147183179855,0.256868839263916,-33.10435485839844,56.34317398071289,-56.84010314941406
3.507,4.218545913696289,-7.347161769866943,-1.9884356260299683,0.12996158003807068,-0.0731511116027832,0.24358251690864563,-33.060508728027344,56.28471374511719,-57.08857345581055
3.526,4.262813568115234,-7.621140003204346,-2.9216363430023193,0.34315353631973267,0.49785515666007996,0.11239920556545258,-32.972816467285156,56.32855987548828,-57.117801666259766
3.53,4.18145751953125,-8.170292854309082,-4.25084924697876,0.35063666105270386,0.6197227835655212,0.040164388716220856,-32.46126937866211,56.05086135864258,-57.96550369262695
3.537,4.2281174659729,-8.6967134475708,-5.133800983428955,0.3168863356113434,1.1942416429519653,-0.06444628536701202,-32.972816467285156,56.0800895690918,-59.076290130615234
3.547,4.502095699310303,-10.219745635986328,-6.788437843322754,0.15332716703414917,1.7452419996261597,-0.1745547503232956,-32.73896408081055,55.68547058105469,-58.81321334838867
3.557,4.923232555389404,-11.593225479125977,-8.567501068115234,-0.026114489883184433,2.0987801551818848,-0.2580905556678772,-32.02280044555664,56.05086135864258,-58.76936340332031
3.567,6.070590972900391,-12.817153930664062,-9.408578872680664,-0.08048149198293686,1.9478964805603027,-0.350789338350296,-32.432037353515625,56.10932540893555,-59.12014389038086
3.586,8.39162826538086,-13.076774597167969,-7.417749881744385,0.1748601794242859,0.29764407873153687,-0.5424483418464661,-32.87050247192383,55.64162826538086,-59.12014389038086
3.59,8.453842163085938,-12.890134811401367,-7.009774208068848,0.21502456068992615,-0.10903944075107574,-0.550084114074707,-32.943580627441406,55.87547302246094,-59.54399108886719
3.597,8.09970474243164,-11.8588285446167,-5.759523868560791,0.25534167885780334,-0.5545129179954529,-0.5386304259300232,-32.75358200073242,55.802398681640625,-59.251678466796875
3.607,7.106682777404785,-10.311869621276855,-4.95792818069458,0.2695443034172058,-0.9434813261032104,-0.5186246037483215,-33.572052001953125,56.16778564453125,-58.72551727294922
3.617,6.161518096923828,-8.95274543762207,-4.091726303100586,0.20601430535316467,-1.2334896326065063,-0.484416127204895,-33.367435455322266,55.70008850097656,-59.64630126953125
3.627,5.227120876312256,-7.6558356285095215,-3.4444680213928223,0.16722436249256134,-1.442100167274475,-0.41340306401252747,-33.9082145690918,55.51008605957031,-58.79859924316406
3.646,4.2209391593933105,-6.842276096343994,-2.9730820655822754,0.2232712358236313,-1.715462327003479,-0.2736676335334778,-34.65361022949219,55.743934631347656,-59.36860275268555
3.651,3.115455150604248,-6.288337707519531,-1.8987046480178833,0.24297165870666504,-1.7779232263565063,-0.2525927722454071,-34.69745635986328,55.68547058105469,-59.41244888305664
3.657,3.012563705444336,-6.433103561401367,-1.1629117727279663,0.256868839263916,-1.8784105777740479,-0.20433442294597626,-34.87284469604492,55.02777099609375,-58.90090560913086
3.667,2.68953275680542,-6.693921089172363,-0.2787638306617737,0.24098633229732513,-2.0334177017211914,-0.09911288321018219,-35.3843879699707,55.29084777832031,-58.76936340332031
3.677,2.0446667671203613,-7.621140003204346,0.11246266216039658,0.19883663952350616,-2.0734293460845947,0.054367005825042725,-35.82286071777344,55.72931671142578,-58.6378288269043
3.687,0.8853443264961243,-9.241080284118652,-0.4007977545261383,0.16722436249256134,-1.833817481994629,0.19822576642036438,-35.545162200927734,55.48085403442383,-59.675533294677734
3.707,-1.345962643623352,-14.670394897460938,-3.390629768371582,0.32940909266471863,-0.42806383967399597,0.29565879702568054,-35.63285446166992,55.70008850097656,-59.456298828125
3.71,-1.765903115272522,-16.054643630981445,-4.096512317657471,0.41722097992897034,-0.0328340083360672,0.27779096364974976,-35.44285202026367,55.23238754272461,-59.00321578979492
3.717,-2.287538528442383,-18.083757400512695,-5.4209394454956055,0.5627596378326416,0.4046982228755951,0.2269364297389984,-35.39900588989258,55.2762336730957,-59.280914306640625
3.727,-2.0099709033966064,-19.49073600769043,-4.776073932647705,0.6603453159332275,0.565203070640564,0.14614950120449066,-35.092079162597656,55.4954719543457,-60.3770866394043
3.737,-1.8472589254379272,-15.647863388061523,-2.7361927032470703,0.5334380269050598,0.2808452844619751,-0.032681290060281754,-35.45746612548828,55.65624237060547,-59.5586051940918
3.747,0.8303093910217285,-9.80817985534668,-2.001595973968506,0.30512717366218567,0.5688682198524475,-0.1417207270860672,-35.25284957885742,55.46623992919922,-60.172462463378906
3.763,2.510071039199829,-4.96630334854126,1.8376877307891846,0.11514809727668762,0.8631526231765747,0.02275473065674305,-35.04823303222656,55.46623992919922,-60.406314849853516
3.767,2.5256240367889404,-4.774877548217773,3.0113673210144043,-0.014049900695681572,0.7780895829200745,0.11056660860776901,-34.916690826416016,55.787784576416016,-60.71324157714844
3.777,2.6189444065093994,-5.376672267913818,4.082155227661133,-0.3546072542667389,0.3859141170978546,0.33490684628486633,-35.01900100708008,55.70008850097656,-60.69862747192383
3.787,2.7397818565368652,-6.166304111480713,3.451646566390991,-0.6777549982070923,-0.2200642079114914,0.58062744140625,-35.15053939819336,55.378543853759766,-60.844783782958984
3.797,2.6464619636535645,-6.64486837387085,1.293320655822754,-0.7851145267486572,-0.7880162000656128,0.9434813261032104,-34.31745147705078,55.94855499267578,-59.63168716430664
3.807,2.8977081775665283,-7.446463584899902,-1.168893814086914,-0.4918992221355438,-0.7170030474662781,1.340238332748413,-34.419761657714844,56.313941955566406,-59.675533294677734
3.827,2.47896409034729,-9.41934585571289,-0.8721838593482971,0.20143280923366547,-0.14569135010242462,1.7466164827346802,-33.49897384643555,56.182403564453125,-59.33937454223633
3.831,2.54117751121521,-9.875179290771484,-0.7752745151519775,0.3191770911216736,-0.011301006190478802,1.6765196323394775,-32.432037353515625,55.787784576416016,-59.22244644165039
3.837,2.772084951400757,-10.193424224853516,-0.6113661527633667,0.4141666293144226,0.11392636597156525,1.5694655179977417,-31.935108184814453,56.182403564453125,-59.63168716430664
3.847,3.0556344985961914,-10.39202880859375,-0.5754737854003906,0.6143776774406433,0.45295655727386475,1.226922869682312,-31.306636810302734,56.12394332885742,-59.44168472290039
3.857,4.249652862548828,-10.680363655090332,-0.07058826088905334,0.7044803500175476,0.5396994352340698,0.9680687189102173,-30.63431739807129,56.48933029174805,-60.581703186035156
3.867,5.254638671875,-10.675577163696289,0.3888336718082428,0.6853907704353333,0.3168863356113434,0.7959573864936829,-30.57585334777832,56.09471130371094,-61.13709259033203
3.883,5.4927239418029785,-10.181459426879883,0.3361915946006775,0.6195700168609619,-0.31352660059928894,0.682641863822937,-30.137386322021484,55.773162841796875,-61.604793548583984
3.887,5.351547718048096,-9.890732765197754,-0.06819543987512589,0.6302602291107178,-0.5138903856277466,0.6391177773475647,-29.1873722076416,55.86085891723633,-62.27711486816406
3.897,5.160121917724609,-9.168099403381348,-0.8985048532485962,0.8448265790939331,-0.826195240020752,0.5187773108482361,-29.684301376342773,56.182403564453125,-61.911720275878906
3.907,4.77248477935791,-7.750351905822754,-1.7371891736984253,1.245401382446289,-0.926224410533905,0.39248090982437134,-29.34814453125,55.86085891723633,-62.9932746887207
3.917,4.640879154205322,-6.626922130584717,-1.8376877307891846,1.7652478218078613,-1.0005972385406494,0.18417586386203766,-29.28968048095703,55.90470504760742,-63.40251541137695
3.927,4.326223373413086,-6.350551128387451,-1.6390833854675293,2.2437078952789307,-1.0123564004898071,-0.08261951804161072,-29.231218338012695,55.363929748535156,-63.82636260986328
3.947,2.3258235454559326,-6.702296257019043,-1.172482967376709,2.7267496585845947,-0.5065600275993347,-0.4993823170661926,-30.590471267700195,54.85238265991211,-66.54487609863281
3.951,1.7096717357635498,-7.000202655792236,-1.0552347898483276,2.750115394592285,-0.3176499307155609,-0.5957463383674622,-30.853551864624023,55.01315689086914,-67.24642181396484
3.957,1.3794622421264648,-7.381857395172119,-1.046859860420227,2.710256338119507,-0.04199698567390442,-0.7203628420829773,-30.89739990234375,54.676998138427734,-67.10026550292969
3.967,3.449253797531128,-8.416753768920898,-1.7527425289154053,2.817004919052124,-0.3614795207977295,-0.7849618196487427,-31.920490264892578,54.15083312988281,-68.91259765625
3.977,1.624726414680481,-9.82133960723877,-0.36610186100006104,2.404059886932373,-0.7808384895324707,-0.781754732131958,-32.21280288696289,53.142356872558594,-70.34493255615234
3.987,0.6604190468788147,-10.712667465209961,-0.017946168780326843,1.785253643989563,-0.7325801253318787,-0.8576547503471375,-33.002044677734375,52.8208122253418,-72.42034912109375
4.003,2.7589244842529297,-10.813164710998535,-0.7034898400306702,0.8057312369346619,-0.4043927788734436,-0.3672827482223511,-33.32358932495117,53.06927490234375,-73.58959197998047
4.007,2.6392831802368164,-10.439885139465332,-1.1425727605819702,0.5882632732391357,-0.39843684434890747,-0.2695443034172058,-33.95206069946289,52.338497161865234,-73.7942123413086
4.017,2.4945175647735596,-9.998409271240234,-1.6235301494598389,0.24862214922904968,-0.3666718602180481,-0.18799376487731934,-33.630516052246094,51.95848846435547,-74.11575317382812
4.027,2.654836893081665,-10.01037311553955,-1.4943177700042725,-0.019089538604021072,-0.29046642780303955,-0.17989981174468994,-33.76205825805664,51.973106384277344,-73.76497650146484
4.037,3.0065815448760986,-10.272387504577637,-0.7190431356430054,-0.27977627515792847,-0.2886338233947754,-0.23396137356758118,-33.46974563598633,52.41157531738281,-74.2472915649414
4.056,3.1824538707733154,-10.417153358459473,-0.20817556977272034,-0.5589417219161987,-0.33108893036842346,-0.2741257846355438,-33.10435485839844,52.703887939453125,-73.86729431152344
4.06,2.431107759475708,-9.862017631530762,-0.3194418251514435,-0.9089674949645996,-0.3500257730484009,-0.35124751925468445,-33.425899505615234,52.937740325927734,-73.22420501708984
4.067,1.9238293170928955,-9.33320426940918,-0.647258460521698,-0.9683740735054016,-0.25045475363731384,-0.4271475076675415,-32.78281021118164,53.06927490234375,-72.90266418457031
4.077,1.4021941423416138,-8.803194046020508,-0.9116654396057129,-0.930347740650177,-0.03726277872920036,-0.5279402732849121,-33.2066650390625,53.215431213378906,-72.5080337524414
4.087,1.4883357286453247,-8.646464347839355,-0.7238287925720215,-0.8153523802757263,0.21945331990718842,-0.598953366279602,-33.440513610839844,53.05466079711914,-71.7480239868164
4.097,1.8831512928009033,-8.57946491241455,-0.13160523772239685,-0.7447974681854248,0.3854559361934662,-0.6042984127998352,-33.45513153076172,53.142356872558594,-71.73340606689453
4.107,2.26959228515625,-8.548358917236328,0.05503491684794426,-0.6661485433578491,0.55069500207901,-0.5236642360687256,-34.229759216308594,53.28851318359375,-70.65185546875
4.12,2.5495524406433105,-8.634500503540039,0.04546362906694412,-0.48640143871307373,0.7900014519691467,-0.3891211450099945,-34.156681060791016,53.449283599853516,-71.411865234375
4.127,2.5734806060791016,-8.636893272399902,0.12083754688501358,-0.3205515146255493,0.9674578309059143,-0.290313720703125,-34.09821701049805,53.0985107421875,-70.57878112792969
4.137,2.2061824798583984,-8.702695846557617,0.31106695532798767,-0.06688974052667618,1.2348641157150269,-0.20311269164085388,-33.95206069946289,53.332359313964844,-70.3156967163086
4.147,2.2157537937164307,-8.706284523010254,0.4486542344093323,0.1921171098947525,1.4482086896896362,-0.20128010213375092,-33.41128158569336,53.46390151977539,-70.4910888671875
4.157,2.3365912437438965,-8.737391471862793,0.47617167234420776,0.43508875370025635,1.5764904022216797,-0.21868975460529327,-33.46974563598633,53.025428771972656,-71.0757064819336
4.177,2.4526431560516357,-8.647661209106445,0.08374878764152527,0.5813909769058228,1.5803083181381226,-0.21380282938480377,-32.85588836669922,52.923118591308594,-71.92341613769531
4.18,2.3270199298858643,-8.642874717712402,-0.8255237936973572,0.8019133806228638,1.492190957069397,-0.1872301995754242,-33.27974319458008,53.2008171081543,-71.7480239868164
4.187,2.1535403728485107,-8.675178527832031,-1.2717852592468262,0.9508117437362671,1.3828461170196533,-0.15790866315364838,-32.78281021118164,52.80619812011719,-71.89418029785156
4.197,1.8293129205703735,-8.69791030883789,-1.6163517236709595,1.118188738822937,1.2496775388717651,-0.10430524498224258,-32.70973205566406,52.45542526245117,-72.85881042480469
4.207,1.4943177700042725,-8.889335632324219,-1.6929219961166382,1.2006556987762451,1.0749701261520386,-0.07941248267889023,-32.46126937866211,52.0169563293457,-73.1072769165039
4.217,1.6642080545425415,-9.33320426940918,-1.710868239402771,1.1539243459701538,0.958142101764679,-0.04459316283464432,-32.432037353515625,51.75387191772461,-74.11575317382812
4.227,2.275574207305908,-9.927821159362793,-1.416550874710083,0.9955576062202454,0.9179776906967163,0.06383541971445084,-31.949722290039062,51.44694519042969,-74.4665298461914
4.24,2.9802606105804443,-10.38963508605957,-0.6257230639457703,0.5792529582977295,0.9909761548042297,0.3428480923175812,-31.10201644897461,51.578487396240234,-75.21192169189453
4.247,3.0520453453063965,-10.17906665802002,-0.4582255482673645,0.2545780837535858,1.0853548049926758,0.4993823170661926,-31.04355239868164,51.0815544128418,-74.56884002685547
4.257,3.397808074951172,-9.896714210510254,-0.5096712112426758,-0.2021963894367218,1.2809842824935913,0.6397286653518677,-30.254310607910156,51.505409240722656,-75.60655212402344
4.267,3.974478244781494,-9.658628463745117,-0.46420758962631226,-0.4447098672389984,1.4225523471832275,0.6995934247970581,-29.771995544433594,51.52002716064453,-75.50423431396484
4.277,4.3788652420043945,-9.537790298461914,-0.31106695532798767,-0.5960517525672913,1.4978415966033936,0.7182247638702393,-28.83659553527832,51.33001708984375,-75.51885223388672
4.296,4.626522541046143,-9.42772102355957,-0.31824538111686707,-0.6316346526145935,1.4963144063949585,0.6887505650520325,-28.310436248779297,51.31540298461914,-75.60655212402344
4.3,4.920839786529541,-9.517451286315918,-0.2153540402650833,-0.5230533480644226,1.395827054977417,0.6157521605491638,-27.141185760498047,51.403099060058594,-75.18269348144531
4.307,5.016552448272705,-9.644271850585938,-0.09571290761232376,-0.41004326939582825,1.2764029502868652,0.5642867684364319,-26.644256591796875,51.22771453857422,-74.2472915649414
4.317,4.944767951965332,-9.78425121307373,0.04307080805301666,-0.2096794992685318,0.9993755221366882,0.4482223689556122,-26.49810028076172,51.60771560668945,-75.29962158203125
4.327,4.681557655334473,-9.883553504943848,0.010767702013254166,-0.07528913766145706,0.7733554244041443,0.3271183371543884,-26.264249801635742,51.76848602294922,-75.43115997314453
4.337,4.5583271980285645,-9.871589660644531,-0.20937196910381317,0.05406157299876213,0.6249151229858398,0.2002110779285431,-26.015785217285156,52.0169563293457,-74.1742172241211
4.357,4.749752521514893,-9.884749412536621,-0.3565305471420288,0.17959438264369965,0.5380195379257202,0.11652254313230515,-25.650394439697266,51.31540298461914,-74.65653228759766
4.361,4.722235202789307,-9.726823806762695,-0.6460620760917664,0.33826664090156555,0.4384485185146332,0.07223481684923172,-25.913476943969727,51.60771560668945,-75.35807800292969
4.367,4.721038818359375,-9.631111145019531,-0.8111668825149536,0.41294488310813904,0.4141666293144226,0.04459316283464432,-25.591930389404297,51.344635009765625,-75.57731628417969
4.377,4.567898273468018,-9.256633758544922,-1.5230315923690796,0.5648975968360901,0.4034765064716339,-0.002138028386980295,-25.577316284179688,51.4177131652832,-75.6942367553711
4.387,4.351347923278809,-9.013762474060059,-2.0817556381225586,0.7846564054489136,0.4179845154285431,-0.06398813426494598,-25.13884925842285,51.388484954833984,-75.60655212402344
4.397,4.0725836753845215,-8.980262756347656,-2.4885356426239014,1.0170906782150269,0.4369213581085205,-0.13500121235847473,-25.182693481445312,51.344635009765625,-76.52733612060547
4.416,3.902693510055542,-9.1776704788208,-2.392822504043579,1.1785117387771606,0.4514293968677521,-0.19135352969169617,-24.86115074157715,50.950016021728516,-76.13270568847656
4.42,4.364508152008057,-9.876375198364258,-1.7240287065505981,1.1218539476394653,0.4202752709388733,-0.18478672206401825,-24.84653663635254,50.350772857666016,-77.46273040771484
4.427,5.5453667640686035,-11.076375007629395,-1.3854442834854126,0.959669291973114,0.30634891986846924,-0.10323622077703476,-25.182693481445312,49.766151428222656,-78.06196594238281
4.437,7.1748785972595215,-12.78485107421875,-1.6450655460357666,0.7527386546134949,0.0630718320608139,0.09896016865968704,-25.080385208129883,49.73691940307617,-78.00350952148438
4.447,7.9896345138549805,-13.677373886108398,-2.2372889518737793,0.6429356932640076,-0.2148718386888504,0.3448334336280823,-25.021923065185547,49.54691696166992,-78.17889404296875
4.457,7.606782913208008,-13.820942878723145,-3.080759048461914,0.6562219858169556,-0.4544837474822998,0.49037206172943115,-24.96346092224121,49.4007568359375,-78.7050552368164
4.477,6.643671989440918,-13.52184009552002,-3.7399816513061523,0.7793112993240356,-0.6160575747489929,0.41462478041648865,-25.358083724975586,49.093833923339844,-79.09967803955078
4.481,4.9531426429748535,-12.150753021240234,-3.9038898944854736,0.7880162000656128,-0.7360925674438477,0.12263119220733643,-25.05115509033203,49.37152862548828,-80.18123626708984
4.487,4.470988750457764,-11.411370277404785,-3.456432342529297,0.6655376553535461,-0.8240572214126587,-0.05115996673703194,-25.562700271606445,48.611515045166016,-80.85355377197266
4.497,4.1659040451049805,-10.682756423950195,-2.5160529613494873,0.2620611786842346,-1.0227410793304443,-0.1540907472372055,-25.650394439697266,49.32768249511719,-80.45893096923828
4.507,3.644268751144409,-10.119246482849121,-1.868794322013855,-0.3197879493236542,-1.202946424484253,-0.07941248267889023,-26.045015335083008,49.10844802856445,-80.63432312011719
4.517,2.772084951400757,-9.80100154876709,-1.306481122970581,-1.0836749076843262,-1.2579243183135986,0.144622340798378,-26.60040855407715,49.663841247558594,-80.97047424316406
4.536,1.643869161605835,-9.31166934967041,-0.6735795140266418,-1.5848898887634277,-1.0612256526947021,0.2664899528026581,-27.214263916015625,50.2776985168457,-79.5235366821289
4.54,1.1413763761520386,-8.778069496154785,-0.03110669180750847,-2.0877845287323,-0.6540839672088623,0.29764407873153687,-27.769657135009766,50.61385726928711,-78.73429107666016
4.547,1.1425727605819702,-8.365307807922363,0.10887342691421509,-2.3078486919403076,-0.41493022441864014,0.2716823220252991,-27.62350082397461,51.388484954833984,-77.62350463867188
4.557,1.1976077556610107,-7.966902732849121,-0.17228323221206665,-2.4753787517547607,-0.20463986694812775,0.21960605680942535,-27.784273147583008,52.104644775390625,-76.77579498291016
4.567,1.7862420082092285,-7.95733118057251,-0.16510476171970367,-2.543184518814087,-0.2672535479068756,0.1569923609495163,-27.813507080078125,52.499271392822266,-76.27886199951172
4.577,2.7182462215423584,-8.584251403808594,0.11126624792814255,-2.562274217605591,-0.5867360830307007,0.12324206531047821,-28.412744522094727,53.18620300292969,-74.75884246826172
4.597,3.4133615493774414,-9.413363456726074,0.39003005623817444,-2.587777853012085,-1.0111346244812012,0.1598939746618271,-27.842735290527344,54.22391128540039,-72.88804626464844
4.601,4.425525665283203,-10.163514137268066,0.7884350419044495,-2.6343562602996826,-1.6765196323394775,0.31551188230514526,-29.026599884033203,56.021629333496094,-71.51417541503906
4.607,4.54636287689209,-10.498509407043457,0.8901299834251404,-2.6568057537078857,-1.8629862070083618,0.37827828526496887,-29.026599884033203,55.51008605957031,-71.52879333496094
4.617,4.341776371002197,-10.766505241394043,0.592223584651947,-2.665816068649292,-2.1981985569000244,0.43875396251678467,-29.1873722076416,56.82548904418945,-70.6957015991211
4.627,4.12642240524292,-10.668399810791016,-0.08015955239534378,-2.500729560852051,-2.347402334213257,0.3321579694747925,-30.254310607910156,57.293190002441406,-69.16106414794922
4.637,4.396811485290527,-11.35274600982666,-0.3529413342475891,-2.2479841709136963,-2.3518311977386475,0.12828169763088226,-30.91201400756836,58.243202209472656,-68.59104919433594
4.657,4.802394866943359,-11.832507133483887,-0.45942193269729614,-1.9898934364318848,-2.238668441772461,0.021838432177901268,-32.69511795043945,59.500144958496094,-66.93949127197266
4.661,5.067997932434082,-11.559725761413574,-0.38644087314605713,-1.4972307682037354,-2.048994779586792,0.12202033400535583,-32.9289665222168,59.485530853271484,-67.10026550292969
4.667,4.759324073791504,-11.377870559692383,-0.07178467512130737,-1.3202325105667114,-2.071138620376587,0.1514945775270462,-33.13358688354492,59.39783477783203,-66.00408935546875
4.677,4.260420799255371,-10.728219985961914,0.39960137009620667,-0.8947648406028748,-2.314263105392456,0.08659014105796814,-33.440513610839844,59.792457580566406,-65.21485137939453
4.687,3.838087320327759,-9.29611587524414,0.35413771867752075,-0.5746714472770691,-2.5303564071655273,-0.1514945775270462,-33.542823791503906,59.909385681152344,-63.75328826904297
4.697,4.229313850402832,-8.193024635314941,0.0406779870390892,-0.1644754558801651,-2.6736044883728027,-0.3220787048339844,-34.171295166015625,60.07015609741211,-63.2125129699707
4.717,4.467399597167969,-7.2394843101501465,0.0,0.3906483054161072,-2.8829784393310547,-0.3576616048812866,-34.6243782043457,59.485530853271484,-63.12481689453125
4.721,2.554337978363037,-8.126025199890137,0.680757999420166,0.8106181621551514,-2.2577579021453857,-0.1846340149641037,-35.16515350341797,59.997074127197266,-62.730194091796875
4.727,1.6773686408996582,-8.029115676879883,0.4666004180908203,0.7799221873283386,-1.5066990852355957,-0.23335051536560059,-35.23823165893555,59.7339973449707,-63.30020523071289
4.737,1.171286702156067,-7.70967435836792,0.07537391036748886,0.6843218207359314,-0.3423899710178375,-0.38377609848976135,-35.77901077270508,59.52937698364258,-63.080970764160156
4.747,1.1880364418029785,-7.907082557678223,0.4007977545261383,0.5676465034484863,0.5285511612892151,-0.6511823534965515,-35.910552978515625,59.36860275268555,-64.54253387451172
4.757,1.4057832956314087,-8.305486679077148,0.6448656916618347,0.40454548597335815,1.2154691219329834,-0.9301950335502625,-35.9836311340332,59.251678466796875,-64.2502212524414
4.777,1.55413818359375,-8.660820960998535,0.7022933959960938,0.2298380434513092,1.8248071670532227,-1.1418598890304565,-37.021339416503906,58.842445373535156,-65.6533203125
4.78,2.548356056213379,-8.782855033874512,0.714257538318634,0.005803219974040985,2.3461806774139404,-1.3732250928878784,-37.45980453491211,58.78398513793945,-64.65946197509766
4.787,3.2745776176452637,-8.70508861541748,0.45463627576828003,-0.08124507963657379,2.2936460971832275,-1.4535537958145142,-37.284420013427734,58.57936096191406,-65.15638732910156
4.797,4.122833251953125,-8.525627136230469,-0.014356935396790504,-0.1342376321554184,1.8713856935501099,-1.5694655179977417,-37.065185546875,59.01782989501953,-65.2733154296875
4.807,4.845465660095215,-8.203792572021484,-0.30628129839897156,-0.10170906037092209,1.1583532094955444,-1.6895004510879517,-38.4244384765625,59.032447814941406,-65.20023345947266
4.817,5.56331205368042,-7.88913631439209,-0.3230310380458832,0.0027488935738801956,0.3475823402404785,-1.7189747095108032,-39.418296813964844,59.076290130615234,-65.34638977050781
4.837,5.371886730194092,-7.77188777923584,-0.2464607208967209,0.11331550031900406,-0.6704245805740356,-1.6307047605514526,-40.11984634399414,58.053199768066406,-65.02484893798828
4.841,4.55354118347168,-7.520641326904297,-0.19381862878799438,0.19104810059070587,-1.5864169597625732,-1.4976887702941895,-41.99064636230469,57.98012161254883,-64.3379135131836
4.847,3.975674629211426,-7.29810905456543,-0.19381862878799438,0.22861631214618683,-2.0529654026031494,-1.4020884037017822,-42.53142547607422,57.45396041870117,-64.96638488769531
4.857,2.9994029998779297,-6.9930243492126465,-0.21176479756832123,0.29306259751319885,-2.5387561321258545,-1.2997685670852661,-43.86144256591797,57.293190002441406,-64.2502212524414
4.867,2.183450698852539,-6.63649320602417,-0.1782652735710144,0.3787364661693573,-2.8231136798858643,-1.2128729820251465,-44.562992095947266,57.322418212890625,-63.709442138671875
4.877,1.4727823734283447,-6.272784233093262,-0.09212366491556168,0.5180137157440186,-2.8538095951080322,-1.0667234659194946,-45.4837760925293,57.2347297668457,-64.30867767333984
4.897,0.7046862840652466,-6.171089172363281,0.3684946596622467,0.603076696395874,-2.655278444290161,-0.93095862865448,-47.281497955322266,56.88395690917969,-62.584041595458984
4.9,0.4163511395454407,-6.4008002281188965,0.8159525394439697,0.6207917928695679,-2.2620339393615723,-0.7938193678855896,-47.58842468261719,57.03010559082031,-63.475589752197266
4.907,0.6759723424911499,-6.660421848297119,0.8709874153137207,0.5896376371383667,-2.0836613178253174,-0.7238752841949463,-48.2607421875,56.05086135864258,-63.28559112548828
4.917,0.9332008361816406,-6.954739093780518,0.5682953596115112,0.5720753073692322,-1.8752036094665527,-0.6272058486938477,-48.94767761230469,56.22624588012695,-62.350189208984375
4.927,1.038485050201416,-7.15932559967041,-0.09092725813388824,0.6496551632881165,-1.5109752416610718,-0.5103778839111328,-49.093833923339844,55.91931915283203,-62.24787902832031
4.937,1.3316056728363037,-7.592426300048828,-1.1569297313690186,0.7924449443817139,-1.1288789510726929,-0.42959097027778625,-49.45922088623047,55.4954719543457,-62.45249938964844
4.956,1.5780664682388306,-8.141578674316406,-1.8604196310043335,1.0893254280090332,-0.3758348524570465,-0.34406986832618713,-50.526161193847656,55.64162826538086,-62.964046478271484
4.96,1.8269200325012207,-8.955138206481934,-2.603391170501709,1.1514809131622314,-0.1212567538022995,-0.3300199508666992,-50.584625244140625,55.51008605957031,-62.774044036865234
4.967,2.0506489276885986,-9.553343772888184,-3.122633457183838,1.188132882118225,0.3101668059825897,-0.3176499307155609,-51.154632568359375,55.173927307128906,-63.11020278930664
4.977,2.5351955890655518,-10.370492935180664,-4.097708702087402,1.1545352935791016,1.068861484527588,-0.3142901659011841,-50.65769958496094,54.867000579833984,-64.0748291015625
4.987,3.6574294567108154,-10.908878326416016,-4.880161762237549,1.0966558456420898,1.4915802478790283,-0.32131510972976685,-51.33001708984375,54.37007141113281,-65.06869506835938
4.997,5.635097026824951,-11.278569221496582,-5.050052165985107,1.053742527961731,1.6442965269088745,-0.32039880752563477,-51.54925537109375,54.73545837402344,-64.98100280761719
5.017,7.488338470458984,-11.224730491638184,-4.390829086303711,0.9737191796302795,1.4460707902908325,-0.30802878737449646,-50.93539810180664,53.829288482666016,-66.5302505493164
5.02,9.463613510131836,-10.710273742675781,-3.418147087097168,0.7226535677909851,0.4918992221355438,-0.3019201457500458,-50.62847137451172,53.99005889892578,-67.24642181396484
5.027,10.12881851196289,-10.237690925598145,-3.1728827953338623,0.6282749176025391,0.12492194026708603,-0.32268956303596497,-51.31540298461914,53.93159866333008,-67.33411407470703
5.037,10.554740905761719,-9.868000030517578,-3.231506824493408,0.49984046816825867,-0.6685919761657715,-0.40454548597335815,-51.12540054321289,53.434669494628906,-67.86027526855469
5.147,1.94297194480896,-7.657032012939453,1.9932211637496948,0.7866417169570923,-2.8487701416015625,-0.09269880503416061,-57.322418212890625,49.780765533447266,-63.43174743652344
5.157,1.743171215057373,-10.15753173828125,2.506481647491455,0.4740314185619354,-2.993239641189575,0.144622340798378,-58.18474197387695,49.649227142333984,-62.61327362060547
5.167,1.2095718383789062,-13.142578125,1.7383856773376465,0.1635591685771942,-3.0250048637390137,0.3660609722137451,-58.11166000366211,49.576148986816406,-61.341712951660156
5.177,0.3565305471420288,-15.456438064575195,-0.39840495586395264,0.058490343391895294,-2.730414867401123,0.5555819272994995,-58.345516204833984,49.780765533447266,-61.239402770996094
5.197,-1.435693621635437,-15.797414779663086,-5.654239654541016,0.7492262125015259,-1.6273449659347534,0.528245747089386,-58.345516204833984,50.08769607543945,-63.270973205566406
5.2,-1.1078768968582153,-12.44267749786377,-5.642275333404541,2.0332648754119873,-0.027030786499381065,0.1748601794242859,-58.25782012939453,49.473838806152344,-60.4940071105957
5.207,-0.2991028130054474,-11.452049255371094,-3.85483717918396,2.110539436340332,0.7832819223403931,0.1085812970995903,-57.83396911621094,49.32768249511719,-60.581703186035156
5.217,0.7118647694587708,-10.548758506774902,-3.530609607696533,1.600925087928772,1.3720033168792725,-0.049785517156124115,-58.30166244506836,49.035369873046875,-62.42327117919922
5.227,1.5278172492980957,-9.498309135437012,0.09451649338006973,0.7738135457038879,1.3295481204986572,-0.19013181328773499,-58.02397155761719,48.75767135620117,-62.978660583496094
5.237,2.495713949203491,-8.420342445373535,2.15234375,-0.2350304126739502,0.7357872128486633,-0.13026700913906097,-58.842445373535156,48.69921112060547,-63.387901306152344
5.256,3.2685956954956055,-8.62492847442627,1.25862455368042,-0.883005678653717,-1.052673578262329,0.22372940182685852,-57.8193473815918,48.20227813720703,-61.86787414550781
5.26,3.5030922889709473,-8.639286041259766,0.6197410225868225,-0.917061448097229,-1.5908458232879639,0.3689625859260559,-58.28704833984375,48.465362548828125,-62.39403533935547
5.267,3.726821184158325,-8.599804878234863,-0.02751745842397213,-0.863457977771759,-2.38100004196167,0.6059783101081848,-58.59397506713867,48.55305480957031,-60.800933837890625
5.277,3.5808589458465576,-8.560322761535645,0.1495514065027237,-0.727998673915863,-3.3089041709899902,0.8900306224822998,-58.72551727294922,48.5384407043457,-59.061676025390625
5.287,3.8213376998901367,-8.434700012207031,0.7645068168640137,-0.6708827614784241,-4.169918537139893,1.1325441598892212,-58.38935852050781,48.669979095458984,-58.667057037353516
5.297,3.940978765487671,-8.204988479614258,0.8542376756668091,-0.6710354089736938,-4.583474159240723,1.2710578441619873,-58.6962890625,49.51768493652344,-56.387020111083984
5.317,4.356133460998535,-8.289934158325195,0.607776939868927,-0.485027015209198,-4.463286876678467,1.4376713037490845,-57.16164779663086,50.233848571777344,-52.733116149902344
5.32,3.94815731048584,-8.691927909851074,0.3840480148792267,-0.44364088773727417,-4.421289920806885,1.419498085975647,-57.103187561035156,50.11692810058594,-51.505409240722656
5.327,4.1383867263793945,-8.890532493591309,0.13160523772239685,-0.3147483170032501,-4.33424186706543,1.2974777221679688,-56.810874938964844,50.3800048828125,-51.84156799316406
5.337,4.992624282836914,-9.352347373962402,-0.24765713512897491,-0.09773843735456467,-4.3644795417785645,1.018770456314087,-56.46010208129883,50.555397033691406,-50.3215446472168
5.347,5.92223596572876,-9.844072341918945,-0.6329016089439392,0.23167064785957336,-4.662734508514404,0.7951937913894653,-55.29084777832031,50.89155578613281,-48.9184455871582
5.357,5.871986389160156,-9.833304405212402,-1.3004990816116333,0.6023131012916565,-4.995045185089111,0.45494186878204346,-55.2762336730957,50.93539810180664,-47.500728607177734
5.377,5.361118793487549,-8.171488761901855,-1.2681959867477417,1.4845551252365112,-5.003597259521484,-0.5458080768585205,-54.662376403808594,50.86231994628906,-45.366851806640625
5.38,5.540580749511719,-7.783851623535156,-1.4045867919921875,1.7313448190689087,-5.003597259521484,-0.7203628420829773,-54.647762298583984,50.570011138916016,-44.79684066772461
5.387,5.936593055725098,-6.890132904052734,-1.416550874710083,1.9940167665481567,-5.003597259521484,-0.8692612051963806,-54.37007141113281,51.213096618652344,-44.19760513305664
5.397,6.496513366699219,-6.134000778198242,-1.5110673904418945,2.6424500942230225,-5.003597259521484,-1.1838568449020386,-55.188541412353516,51.05232620239258,-44.09529113769531
5.407,5.515455722808838,-5.96889591217041,-2.568694829940796,3.076622724533081,-4.763221740722656,-1.3307698965072632,-55.363929748535156,50.0584602355957,-43.86144256591797
5.417,4.925625324249268,-6.784848213195801,-2.3234305381774902,3.25850772857666,-3.922365665435791,-1.4259122610092163,-55.46623992919922,50.584625244140625,-44.24144744873047
5.436,3.613162040710449,-9.116654396057129,-1.3663017749786377,2.624277114868164,-3.6021194458007812,-1.6971362829208374,-56.416255950927734,49.7223014831543,-44.15375518798828
5.44,3.352344274520874,-9.410971641540527,-1.4428720474243164,2.4836254119873047,-3.737731695175171,-1.865124225616455,-56.372406005859375,49.69307327270508,-43.992984771728516
5.55,2.6524438858032227,-9.404989242553711,0.5383850932121277,0.00015271631127689034,1.7715091705322266,-0.5740606188774109,-56.6793327331543,44.3437614440918,-35.340545654296875
5.557,2.8905298709869385,-8.870193481445312,0.03110669180750847,0.07101307809352875,1.8646661043167114,-0.6171265840530396,-56.693946838378906,44.72376251220703,-35.20900344848633
5.567,3.263810157775879,-8.440681457519531,-0.6436693072319031,0.23884831368923187,1.7035503387451172,-0.7504479885101318,-56.72317886352539,44.70914840698242,-36.7436408996582
5.577,3.7902309894561768,-8.505288124084473,-0.98703932762146,0.5152648091316223,1.4567607641220093,-0.8162686824798584,-57.556270599365234,43.7006721496582,-36.290557861328125
5.587,3.022134780883789,-8.906085968017578,-0.5144568085670471,0.7725918292999268,1.173624873161316,-0.8472700715065002,-58.38935852050781,43.96375274658203,-37.021339416503906
5.597,2.7110679149627686,-8.937192916870117,-0.5946164131164551,1.0041097402572632,0.8170322775840759,-0.9618072509765625,-58.11166000366211,43.7006721496582,-37.635196685791016
5.616,2.2061824798583984,-8.889335632324219,0.16390834748744965,1.3628402948379517,0.7560984492301941,-0.9005680680274963,-58.88629150390625,43.48143768310547,-39.27214050292969
5.619,2.087737560272217,-9.123832702636719,0.35892340540885925,1.410029649734497,0.7686211466789246,-0.8491026759147644,-59.19321823120117,43.83221435546875,-39.60830307006836
5.627,1.753938913345337,-9.58325481414795,0.7908278107643127,1.4164437055587769,0.8118398785591125,-0.7590000629425049,-59.54399108886719,43.466819763183594,-40.19292449951172
5.637,1.6857434511184692,-9.835697174072266,0.7740780711174011,1.3165671825408936,0.840397834777832,-0.6537785530090332,-59.61707305908203,43.466819763183594,-40.83601379394531
5.647,1.5098711252212524,-9.848857879638672,0.43549370765686035,1.1549934148788452,0.7522805333137512,-0.5719225406646729,-59.51476287841797,42.838348388671875,-41.81526184082031
5.666,1.5266207456588745,-9.845268249511719,-0.3852444291114807,1.078635334968567,0.6279694437980652,-0.502436637878418,-59.95323181152344,42.85296630859375,-41.93218231201172
5.67,1.6031910181045532,-9.905089378356934,-1.0887342691421509,1.0399980545043945,0.43936482071876526,-0.3885102868080139,-59.92399978637695,42.67757797241211,-42.92604446411133
5.677,1.4847464561462402,-9.986444473266602,-1.3938192129135132,1.0493137836456299,0.34437528252601624,-0.29184088110923767,-60.099388122558594,42.56065368652344,-42.98450469970703
5.687,1.4955140352249146,-10.001997947692871,-1.6905291080474854,1.0705413818359375,0.2252565622329712,-0.1641700267791748,-60.201690673828125,42.692195892333984,-43.189125061035156
5.697,1.6474583148956299,-10.106086730957031,-1.7754743099212646,1.0743592977523804,0.16035212576389313,-0.02733621932566166,-59.982460021972656,43.11604690551758,-43.17451095581055
5.707,2.0853447914123535,-10.271190643310547,-1.4608181715011597,0.9532551765441895,0.11270463466644287,0.1996002048254013,-59.54399108886719,42.98450469970703,-44.76761245727539
5.717,2.8175485134124756,-10.271190643310547,-1.1330015659332275,0.7186830043792725,0.0659734457731247,0.42241328954696655,-59.64630126953125,43.496055603027344,-44.65068435668945
5.736,3.4671998023986816,-9.77826976776123,-0.9224331378936768,0.18738290667533875,0.14782939851284027,0.7747297883033752,-59.295528411865234,43.84682846069336,-44.358375549316406
5.74,3.5330023765563965,-9.720841407775879,-0.873380184173584,0.13240504264831543,0.1765400469303131,0.7984008193016052,-59.456298828125,43.83221435546875,-43.89067459106445
5.747,3.720839262008667,-9.619146347045898,-0.714257538318634,0.0004581489192787558,0.2681698203086853,0.8466591835021973,-59.33937454223633,43.67144012451172,-43.30604934692383
5.757,3.913461446762085,-9.403792381286621,-0.6532405614852905,-0.11530081182718277,0.4082106947898865,0.829707682132721,-58.7547492980957,43.59836196899414,-43.29143524169922
5.767,4.332205295562744,-9.237491607666016,-0.6831508874893188,-0.10323622077703476,0.46547931432724,0.7515169382095337,-58.50628662109375,44.182987213134766,-44.0806770324707
5.777,4.871786594390869,-9.242277145385742,-0.7022933959960938,-0.03176499158143997,0.407905250787735,0.6409503817558289,-58.02397155761719,44.10990905761719,-44.69453430175781
5.793,5.389832496643066,-9.274580001831055,-0.8338987231254578,0.17623461782932281,0.05910121276974678,0.44547346234321594,-57.541656494140625,43.89067459106445,-44.21221923828125
5.797,5.391029357910156,-9.219545364379883,-1.0372885465621948,0.260992169380188,-0.057421330362558365,0.39309176802635193,-57.132415771484375,43.78836441040039,-43.93452072143555
5.807,5.294119834899902,-9.059226036071777,-1.502692461013794,0.4723515212535858,-0.2460259646177292,0.27611106634140015,-57.08857345581055,43.992984771728516,-44.548377990722656
5.817,5.2414774894714355,-8.928817749023438,-1.4955140352249146,0.6604980230331421,-0.38499781489372253,0.152105450630188,-57.38088607788086,43.978370666503906,-44.256065368652344
5.827,5.419743537902832,-9.165706634521484,-1.432104229927063,0.7718282341957092,-0.46532657742500305,0.08491026610136032,-57.35165023803711,43.978370666503906,-44.59222412109375
5.837,5.667400360107422,-9.735198020935059,-1.5840485095977783,0.8040513396263123,-0.5192354321479797,0.09025533497333527,-57.43934631347656,44.19760513305664,-44.29991149902344
5.85,6.591030120849609,-11.25464153289795,-1.8783657550811768,0.8013024926185608,-0.6294966340065002,0.1924225389957428,-57.17626190185547,44.28529739379883,-44.69453430175781
5.857,7.465606689453125,-12.203394889831543,-1.7706886529922485,0.7762569785118103,-0.7596108913421631,0.27779096364974976,-56.810874938964844,44.12452697753906,-45.162235260009766
5.867,8.289934158325195,-13.086346626281738,-1.412961721420288,0.6890559792518616,-1.0028879642486572,0.403781920671463,-56.84010314941406,44.09529113769531,-45.60070037841797
5.877,7.704888343811035,-13.115060806274414,-2.018345832824707,0.6162103414535522,-1.2063060998916626,0.45326200127601624,-56.75241470336914,44.431453704833984,-45.22069549560547
5.887,6.399603843688965,-12.69033432006836,-3.022134780883789,0.683863639831543,-1.2852604389190674,0.2929098606109619,-56.0800895690918,43.91990661621094,-44.66530227661133
5.897,5.676971435546875,-11.947362899780273,-3.231506824493408,0.79213947057724,-1.3625348806381226,0.0027488935738801956,-55.65624237060547,44.548377990722656,-44.59222412109375
5.916,3.8333017826080322,-10.152746200561523,-3.592823028564453,0.7486153841018677,-1.7762433290481567,-0.4899139106273651,-55.48085403442383,44.51914596557617,-44.41683578491211
5.919,3.638286828994751,-10.04865837097168,-3.641875982284546,0.6940956115722656,-1.898569107055664,-0.5578727126121521,-55.393157958984375,44.256065368652344,-45.24992752075195
5.927,3.0412774085998535,-10.217351913452148,-3.5700912475585938,0.5858197212219238,-2.0482311248779297,-0.5839871764183044,-55.743934631347656,44.13914108276367,-44.86991882324219
5.937,2.6261227130889893,-10.977072715759277,-3.0628130435943604,0.36132678389549255,-2.154979944229126,-0.4495968222618103,-55.992401123046875,44.022212982177734,-44.548377990722656
5.947,2.0673987865448,-11.808579444885254,-2.328216314315796,0.033597588539123535,-2.119396924972534,-0.18570303916931152,-55.071617126464844,43.992984771728516,-43.34989929199219
5.966,1.5409777164459229,-12.107682228088379,-1.7742778062820435,-0.48288896679878235,-1.826945185661316,0.22876903414726257,-55.23238754272461,43.90529251098633,-43.08681869506836
5.97,1.3268201351165771,-11.351550102233887,-1.2442678213119507,-1.0752755403518677,-1.4860823154449463,0.640644907951355,-54.79391860961914,43.77375030517578,-42.03449249267578
5.977,1.392622709274292,-10.590632438659668,-1.3782658576965332,-1.3970487117767334,-1.3822352886199951,0.8706356883049011,-54.60391616821289,43.84682846069336,-42.54603958129883
5.987,1.7563318014144897,-9.570094108581543,-1.9465612173080444,-1.7006489038467407,-1.4743232727050781,1.1116219758987427,-53.93159866333008,43.61297607421875,-41.142940521240234
5.997,2.1607186794281006,-8.847461700439453,-2.493321180343628,-1.8393152952194214,-1.770134687423706,1.285413146018982,-53.332359313964844,43.86144256591797,-40.894474029541016
6.007,2.596212387084961,-8.670392990112305,-2.7038893699645996,-1.8594738245010376,-2.191478967666626,1.377806544303894,-52.689273834228516,43.422977447509766,-38.24905014038086
6.017,3.3020951747894287,-8.842676162719727,-2.7385854721069336,-1.8119789361953735,-2.693763017654419,1.3936890363693237,-51.900028228759766,44.10990905761719,-37.54750061035156
6.036,4.805984020233154,-9.482755661010742,-1.8185451030731201,-1.8397732973098755,-3.0691397190093994,1.4240795373916626,-50.3215446472168,44.15375518798828,-35.74978256225586
6.039,5.119443893432617,-9.588040351867676,-1.4895319938659668,-1.8654296398162842,-3.084869384765625,1.4274393320083618,-49.853843688964844,44.12452697753906,-34.63899612426758
6.047,5.562115669250488,-9.609575271606445,-0.9966105818748474,-1.9697349071502686,-3.1080822944641113,1.4442380666732788,-49.25460433959961,43.802982330322266,-33.89359664916992
6.057,5.973681449890137,-9.572486877441406,-0.468993216753006,-2.1511619091033936,-3.0978503227233887,1.4566080570220947,-48.041507720947266,43.393741607666016,-32.972816467285156
6.067,6.346961975097656,-9.388238906860352,-0.11964112520217896,-2.363895893096924,-3.0758590698242188,1.4143058061599731,-47.1791877746582,43.53989791870117,-31.730487823486328
6.086,6.409175395965576,-9.029315948486328,0.15672987699508667,-2.473698616027832,-3.0644054412841797,1.3074043989181519,-45.4399299621582,43.14527893066406,-29.8889217376709
6.09,6.142375469207764,-8.730213165283203,0.31345975399017334,-2.5164592266082764,-3.0521881580352783,1.0618364810943604,-44.4022216796875,43.27682113647461,-29.742765426635742
6.097,5.893521785736084,-8.628518104553223,0.26081767678260803,-2.4776694774627686,-3.0184378623962402,0.8565858006477356,-43.7006721496582,43.14527893066406,-28.69044303894043
6.107,5.7439703941345215,-8.73499870300293,-0.003589233849197626,-2.3432788848876953,-2.987589120864868,0.5207626223564148,-43.057586669921875,42.706809997558594,-28.251972198486328
6.117,6.087340831756592,-8.907281875610352,-0.38165518641471863,-2.071444034576416,-3.0978503227233887,0.04153883829712868,-42.73604202270508,43.14527893066406,-27.375036239624023
6.127,6.319444179534912,-8.979066848754883,-1.2179466485977173,-1.704161286354065,-3.2930219173431396,-0.3274237811565399,-42.76527404785156,42.98450469970703,-26.52733039855957
6.137,6.214160442352295,-9.255437850952148,-1.3962119817733765,-1.297019600868225,-3.272252321243286,-0.5203045010566711,-43.29143524169922,42.882198333740234,-25.738086700439453
6.247,4.468596458435059,-9.067601203918457,-0.8147560954093933,-0.5421428680419922,0.34315353631973267,-2.366950273513794,-43.77375030517578,39.69599533081055,-24.261911392211914
6.267,5.072783946990967,-8.58903694152832,-0.9918249249458313,-0.22663100063800812,-0.5714644193649292,-2.353205680847168,-44.22683334350586,39.155216217041016,-24.364221572875977
6.27,5.285745143890381,-8.214560508728027,-0.32662028074264526,0.1970040500164032,-1.6607898473739624,-2.1852176189422607,-44.89915466308594,38.775211334228516,-23.83806037902832
6.277,5.192424774169922,-8.297112464904785,0.14476576447486877,0.3107776939868927,-2.0610592365264893,-2.121535062789917,-45.07453918457031,38.789825439453125,-24.729610443115234
6.287,5.131407737731934,-8.172685623168945,0.20458632707595825,0.4060726761817932,-2.4393374919891357,-2.046398639678955,-44.811458587646484,38.64366912841797,-24.334989547729492
6.297,5.0117669105529785,-8.37129020690918,0.32183465361595154,0.5224425196647644,-2.7046058177948,-1.9339993000030518,-45.07453918457031,38.64366912841797,-23.370359420776367
6.307,4.199403762817383,-8.979066848754883,0.8458627462387085,0.5726861357688904,-2.91123104095459,-1.8319847583770752,-44.562992095947266,38.395206451416016,-23.01958465576172
6.326,3.3260233402252197,-9.54496955871582,1.176072359085083,0.5395467281341553,-3.009580373764038,-1.69148588180542,-44.86991882324219,38.5267448425293,-22.66880989074707
6.33,1.9800606966018677,-9.998409271240234,1.5266207456588745,0.4938845634460449,-3.1482467651367188,-1.5806137323379517,-44.29991149902344,37.78135299682617,-22.128032684326172
6.337,1.3603196144104004,-9.726823806762695,1.592423439025879,0.46532657742500305,-3.241250991821289,-1.5505287647247314,-43.59836196899414,38.07366180419922,-21.967260360717773
6.347,0.7298108339309692,-9.019744873046875,1.5517455339431763,0.4521929919719696,-3.355635404586792,-1.5121968984603882,-43.17451095581055,37.69365692138672,-21.38263702392578
6.357,-0.009571290574967861,-8.640481948852539,1.7371891736984253,0.4651738703250885,-3.410766124725342,-1.4457652568817139,-42.809120178222656,38.570594787597656,-20.30108070373535
6.367,-0.7393822073936462,-8.3629150390625,1.9597216844558716,0.4274529218673706,-3.3767104148864746,-1.3962851762771606,-42.18064880371094,38.015201568603516,-19.599531173706055
6.387,-1.0707881450653076,-7.995616436004639,1.7934205532073975,0.3426953852176666,-3.21086049079895,-1.3501648902893066,-38.11751174926758,37.708274841308594,-19.19029426574707
6.39,-1.4201401472091675,-7.3639116287231445,1.397408366203308,0.30711251497268677,-2.847701072692871,-1.2444851398468018,-40.967552185058594,37.98596954345703,-19.83338165283203
6.397,-1.3543375730514526,-7.217949390411377,1.1054840087890625,0.32391127943992615,-2.5897634029388428,-1.1785117387771606,-40.38292694091797,37.89827346801758,-18.89798355102539
6.407,-1.2801601886749268,-7.244270324707031,0.6664010882377625,0.4173736572265625,-2.274862051010132,-1.095739483833313,-39.52061080932617,37.839813232421875,-19.014907836914062
6.417,-1.2849457263946533,-7.347161769866943,0.38165518641471863,0.585667073726654,-1.9500346183776855,-1.0100656747817993,-39.35983657836914,38.30751037597656,-18.751827239990234
6.427,-1.2801601886749268,-7.527820110321045,-0.14476576447486877,0.8429940342903137,-1.512960433959961,-0.9106473326683044,-39.00905990600586,38.04443359375,-18.327974319458008
6.447,-1.856830358505249,-8.048258781433105,-1.1832507848739624,1.044274091720581,-1.1148290634155273,-0.8515461683273315,-39.63753128051758,38.08827590942383,-18.517976760864258
6.451,-2.183450698852539,-8.758926391601562,-2.5423738956451416,1.2611312866210938,-0.43997567892074585,-0.8084800839424133,-39.023677825927734,38.8629035949707,-19.117216110229492
6.457,-1.9010975360870361,-9.056833267211914,-2.8797619342803955,1.3025174140930176,-0.2102903574705124,-0.782365620136261,-38.90675354003906,38.848289489746094,-19.46799087524414
6.467,-0.8530412316322327,-9.66819953918457,-3.3655049800872803,1.3054189682006836,0.2805398404598236,-0.6275113224983215,-39.25752639770508,39.47676086425781,-19.847997665405273
6.477,1.0827522277832031,-10.37527847290039,-3.4707889556884766,1.1273517608642578,0.9992228150367737,-0.2298380434513092,-39.75445556640625,39.213680267333984,-20.491085052490234
6.487,4.183850288391113,-10.807183265686035,-3.579662799835205,0.8573493957519531,1.623374342918396,0.14156801998615265,-40.558319091796875,39.54983901977539,-20.62262535095215
6.507,6.6723856925964355,-10.272387504577637,-4.153940200805664,0.6632469296455383,2.104888916015625,0.3761402666568756,-40.44139099121094,40.309852600097656,-21.119556427001953
6.51,9.744770050048828,-9.454041481018066,-4.6432719230651855,0.7225008606910706,2.587625026702881,0.1543961763381958,-41.157554626464844,40.529083251953125,-21.981876373291016
6.517,11.422138214111328,-9.2255277633667,-4.583451747894287,0.7719809412956238,2.7369818687438965,-0.02229658141732216,-41.82987594604492,40.6021614074707,-22.259572982788086
6.527,13.345968246459961,-9.588040351867676,-4.1623148918151855,0.7991644144058228,3.0897562503814697,-0.46899178624153137,-42.41449737548828,40.6021614074707,-23.03420066833496
6.537,13.775479316711426,-10.125227928161621,-4.254438400268555,0.6479753255844116,3.202461004257202,-0.8168795108795166,-43.65682601928711,40.499855041503906,-23.9695987701416
6.547,12.388839721679688,-10.498509407043457,-5.0703911781311035,0.5487096905708313,3.0521881580352783,-1.0554224252700806,-44.84069061279297,40.90909194946289,-24.422683715820312
6.567,10.825128555297852,-11.081161499023438,-5.9437713623046875,0.5461135506629944,2.6974282264709473,-1.0517572164535522,-47.486114501953125,40.45600509643555,-24.992692947387695
6.571,9.767501831054688,-10.74855899810791,-6.439085483551025,0.6339254379272461,1.4934128522872925,-0.9159923791885376,-47.58842468261719,40.36831283569336,-25.752704620361328
6.577,9.833304405212402,-10.113264083862305,-6.056233882904053,0.669355571269989,0.5476406812667847,-0.8090909719467163,-48.289974212646484,40.82139587402344,-25.957321166992188
6.587,9.55214786529541,-8.188239097595215,-3.198007583618164,0.5679519176483154,-0.9466883540153503,-0.6449209451675415,-47.836891174316406,40.66062545776367,-26.585792541503906
6.597,7.981259346008301,-8.037490844726562,-0.769292414188385,0.34987306594848633,-2.392911672592163,-0.516333818435669,-47.69073486328125,40.98217010498047,-25.81116485595703
6.607,6.055037498474121,-10.27597713470459,0.6699903011322021,0.04337143152952194,-3.5132386684417725,-0.39965859055519104,-47.09149169921875,40.45600509643555,-25.78193473815918
6.627,4.386044025421143,-12.653244972229004,1.3986047506332397,-0.20616701245307922,-4.471380710601807,-0.2825251817703247,-47.01841354370117,40.90909194946289,-24.48114585876465
6.631,1.6701900959014893,-12.867403030395508,1.4093725681304932,-0.16569718718528748,-5.003597259521484,-0.12431107461452484,-45.33761978149414,40.35369873046875,-23.326513290405273
6.637,0.17347964644432068,-11.621939659118652,0.8709874153137207,0.048258356750011444,-5.003597259521484,-0.07208210229873657,-44.24144744873047,40.29523468017578,-22.493423461914062
6.647,-1.4488540887832642,-9.504291534423828,0.7393822073936462,0.38179075717926025,-5.003597259521484,-0.07727444916963577,-42.692195892333984,40.83601379394531,-21.455713272094727
6.657,-3.383450984954834,-7.892724990844727,0.2847459018230438,0.6270532011985779,-4.679227828979492,-0.17562375962734222,-41.712947845458984,41.42063903808594,-20.783395767211914
6.667,-4.754538536071777,-6.933203220367432,0.009571290574967861,0.712574303150177,-3.5437819957733154,-0.33658674359321594,-40.80678176879883,41.157554626464844,-20.330312728881836
6.687,-4.620540142059326,-6.472585201263428,0.5072783827781677,0.5352706909179688,-1.7776178121566772,-0.3982841372489929,-39.54983901977539,41.05524826049805,-20.403390884399414
6.691,-1.7168502807617188,-6.794419765472412,1.7910276651382446,0.15790866315364838,-0.528245747089386,-0.285121351480484,-39.564453125,40.9237060546875,-20.228002548217773
6.697,-0.680757999420166,-7.2813591957092285,1.903490424156189,-0.04138611629605293,-0.1319468915462494,-0.11957687139511108,-39.769073486328125,41.186790466308594,-19.862613677978516
6.707,0.34576284885406494,-8.277969360351562,1.6402798891067505,-0.15546520054340363,0.1748601794242859,0.1586722582578659,-39.62291717529297,40.74831771850586,-20.578777313232422
6.717,1.2203395366668701,-9.613164901733398,1.8508483171463013,-0.17287485301494598,0.20815233886241913,0.49495354294776917,-39.60830307006836,41.01139831542969,-20.418006896972656
6.727,1.9441683292388916,-10.415956497192383,2.090130567550659,-0.2099849283695221,-0.056352317333221436,0.8188648223876953,-39.69599533081055,40.499855041503906,-20.1110782623291
6.747,2.3712871074676514,-10.566704750061035,2.1786649227142334,-0.23640485107898712,-0.6484334468841553,1.1646145582199097,-39.389068603515625,41.42063903808594,-20.286466598510742
6.751,2.5902304649353027,-10.42074203491211,1.4955140352249146,-0.20922134816646576,-1.1612548828125,1.3419182300567627,-38.07366180419922,41.099090576171875,-19.0733699798584
6.757,2.445464611053467,-10.415956497192383,1.0875378847122192,-0.12431107461452484,-1.3196215629577637,1.3897184133529663,-38.11751174926758,41.65448760986328,-19.102602005004883
6.767,2.24566388130188,-10.388439178466797,0.1495514065027237,0.05360342189669609,-1.5068517923355103,1.2780828475952148,-36.90441131591797,41.40602111816406,-19.599531173706055
6.777,1.576870083808899,-10.308279037475586,-0.98703932762146,0.3280346393585205,-1.4388929605484009,1.0015136003494263,-35.99824523925781,41.43525314331055,-19.102602005004883
6.787,2.4251255989074707,-9.81535816192627,-2.796013355255127,0.9628763198852539,-1.2018773555755615,0.6015495657920837,-35.559776306152344,42.078338623046875,-19.511838912963867
6.808,3.9876389503479004,-9.375079154968262,-3.4576287269592285,1.5474743843078613,-0.9097310304641724,0.46043968200683594,-35.296695709228516,43.11604690551758,-19.862613677978516
6.812,4.144368648529053,-8.59501838684082,-2.6356940269470215,2.2041544914245605,-0.5128213763237,0.47051894664764404,-34.9459228515625,42.91142654418945,-20.213388442993164
6.817,3.600001335144043,-8.433503150939941,-2.025524377822876,2.291813611984253,-0.4115704298019409,0.4323398768901825,-35.325927734375,43.978370666503906,-20.73954963684082
6.827,2.592623233795166,-8.256434440612793,-1.0600204467773438,2.2401955127716064,-0.39767327904701233,0.1774563491344452,-35.16515350341797,44.94300079345703,-21.689563751220703
6.837,1.8616158962249756,-8.240880966186523,-0.849452018737793,1.9314031600952148,-0.5406157374382019,-0.3191770911216736,-35.74978256225586,45.8199348449707,-22.230342864990234
6.847,1.7922240495681763,-8.331808090209961,-1.6510475873947144,1.7353153228759766,-0.5882632732391357,-0.6061310172080994,-35.866703033447266,45.98070526123047,-22.94650650024414
6.866,1.8604196310043335,-8.708678245544434,-2.093719720840454,1.7052302360534668,-0.6241515278816223,-0.7571674585342407,-36.50979232788086,46.69687271118164,-25.24115753173828
6.87,2.1846470832824707,-9.613164901733398,-1.951346755027771,1.7098116874694824,-0.654542088508606,-0.7502952218055725,-36.97748947143555,46.57994842529297,-25.533470153808594
6.877,2.6356940269470215,-10.132407188415527,-1.5589239597320557,1.6728545427322388,-0.8202393054962158,-0.6779077053070068,-36.97748947143555,47.07687759399414,-25.694242477416992
6.887,3.0664021968841553,-10.455437660217285,-1.2454640865325928,1.4909693002700806,-1.3011430501937866,-0.4628831148147583,-37.0067253112793,47.471500396728516,-26.95118522644043
6.897,3.348755121231079,-10.144371032714844,-1.5960125923156738,1.280068039894104,-1.908342957496643,-0.3016147017478943,-35.9836311340332,47.8807373046875,-26.921951293945312
6.907,3.0867412090301514,-9.710074424743652,-1.9334007501602173,1.0677924156188965,-2.5167646408081055,-0.16432274878025055,-35.340545654296875,48.14381790161133,-26.834259033203125
6.928,2.840280294418335,-9.229116439819336,-1.710868239402771,0.879493236541748,-2.8901560306549072,-0.027183502912521362,-33.48435974121094,48.23151397705078,-26.79041290283203
6.932,2.3748762607574463,-9.05444049835205,-0.9619146585464478,0.6010913848876953,-2.950784683227539,0.05803219974040985,-32.51972961425781,48.33382034301758,-26.921951293945312
6.937,2.1930220127105713,-8.97547721862793,-0.8338987231254578,0.4683809280395508,-2.788752555847168,0.032070424407720566,-32.76819610595703,48.52382278442383,-27.63811683654785
6.947,1.9669002294540405,-8.658428192138672,-0.5886343717575073,0.3202460706233978,-2.3658809661865234,-0.04657847434282303,-31.423559188842773,48.69921112060547,-26.731950759887695
6.957,1.805384635925293,-8.787640571594238,-0.23569302260875702,0.18799376487731934,-1.7861698865890503,-0.17638733983039856,-30.751243591308594,48.37766647338867,-26.39579200744629
6.967,1.8831512928009033,-8.930013656616211,0.17347964644432068,0.0455094613134861,-1.1042916774749756,-0.34895676374435425,-30.985092163085938,48.14381790161133,-26.512714385986328
6.986,2.0303099155426025,-8.803194046020508,0.4618147313594818,-0.2408336102962494,0.27580565214157104,-0.5775730609893799,-31.04355239868164,47.98304748535156,-26.161941528320312
6.99,2.1882362365722656,-8.612964630126953,0.44745784997940063,-0.29077184200286865,0.5212207436561584,-0.6275113224983215,-30.955860137939453,47.71996307373047,-26.249635696411133
6.997,2.234896183013916,-8.609375,0.4127618968486786,-0.3423899710178375,0.8440630435943604,-0.6899722814559937,-31.482023239135742,48.01227569580078,-26.39579200744629
7.007,2.1272192001342773,-8.38444995880127,0.04307080805301666,-0.3309362530708313,1.2618948221206665,-0.7483099102973938,-32.00818634033203,47.03303146362305,-26.731950759887695
7.017,2.2707886695861816,-8.023134231567383,-0.6891329288482666,-0.14004085958003998,1.6639968156814575,-0.76846843957901,-32.73896408081055,47.38380432128906,-25.97193717956543
7.027,2.3641088008880615,-7.799405097961426,-0.5994020700454712,0.1843285858631134,2.0079140663146973,-0.7353289723396301,-33.32358932495117,46.930721282958984,-25.606548309326172
7.047,2.5914268493652344,-7.990830898284912,-0.12083754688501358,0.5021312236785889,2.2985329627990723,-0.6815729141235352,-35.092079162597656,47.529964447021484,-25.913476943969727
7.051,2.994617462158203,-8.583054542541504,0.2464607208967209,0.7805330157279968,2.2215640544891357,-0.6769914031028748,-35.16515350341797,47.44226837158203,-27.185035705566406
7.057,2.9790639877319336,-8.714659690856934,-0.005982056725770235,0.8564330339431763,1.9941695928573608,-0.6817256212234497,-36.21747970581055,47.63227081298828,-27.652734756469727
7.067,2.6249263286590576,-8.790033340454102,-0.8793622851371765,0.9917396903038025,1.6152803897857666,-0.6618725061416626,-36.80210494995117,48.114585876464844,-28.500438690185547
7.077,2.073380708694458,-8.846264839172363,-1.6331013441085815,1.2250901460647583,1.25929856300354,-0.6411030292510986,-37.19672393798828,48.30459213256836,-28.9096736907959
7.087,1.4656038284301758,-9.189635276794434,-2.115255117416382,1.4828753471374512,0.9529497623443604,-0.6769914031028748,-37.8251953125,49.035369873046875,-29.26045036315918
7.106,1.361515998840332,-9.803394317626953,-2.3533408641815186,1.7792977094650269,0.5965099334716797,-0.7061601877212524,-38.71674728393555,49.035369873046875,-31.05817222595215
7.11,1.2981061935424805,-10.527222633361816,-1.6689937114715576,1.7466164827346802,0.573144257068634,-0.6815729141235352,-38.87752151489258,49.10844802856445,-31.05817222595215
7.117,1.380658507347107,-10.704292297363281,-0.8255237936973572,1.5627459287643433,0.5879577994346619,-0.570853590965271,-39.1259880065918,49.12306213378906,-31.511253356933594
7.127,1.470389485359192,-10.833503723144531,0.3158525824546814,1.0697777271270752,0.6824891567230225,-0.3179553747177124,-39.31599044799805,48.9622917175293,-31.438175201416016
7.137,1.2442678213119507,-10.73300552368164,0.7776673436164856,0.432034432888031,0.8921687006950378,-0.02474004216492176,-39.53522491455078,49.95615005493164,-32.066646575927734
7.147,1.176072359085083,-10.325029373168945,0.2560320198535919,-0.18249599635601044,1.273043155670166,0.22647827863693237,-39.73984146118164,49.73691940307617,-31.292020797729492
7.167,3.087937355041504,-9.913464546203613,0.46779680252075195,-0.5551237463951111,1.5958853960037231,0.5798638463020325,-39.8859977722168,49.780765533447266,-33.162818908691406
7.17,3.4576287269592285,-9.787840843200684,0.6364907622337341,-0.5804746747016907,1.591151237487793,0.6227771043777466,-40.06138610839844,49.2984504699707,-33.367435455322266
7.177,3.796213150024414,-9.609575271606445,0.8961120247840881,-0.6304128766059875,1.5586225986480713,0.7331910133361816,-39.8421516418457,49.56153106689453,-33.031280517578125
7.187,4.012763500213623,-9.358328819274902,1.137787103652954,-0.6389650702476501,1.4918856620788574,0.8101600408554077,-40.2221565246582,49.10844802856445,-32.56357955932617
7.197,4.183850288391113,-9.304490089416504,1.1772687435150146,-0.5351179242134094,1.4309518337249756,0.794277548789978,-40.45600509643555,49.82461166381836,-33.39666748046875
7.207,4.4721856117248535,-9.352347373962402,1.0504491329193115,-0.3439171314239502,1.374904990196228,0.7211264371871948,-40.19292449951172,48.99152374267578,-33.64513397216797
7.227,4.625326156616211,-9.460023880004883,0.8422735333442688,0.24633140861988068,1.0451903343200684,0.5054909586906433,-40.134464263916016,49.56153106689453,-34.156681060791016
7.23,5.021337985992432,-9.247062683105469,0.37806597352027893,0.3254384398460388,0.9804387092590332,0.4813618063926697,-39.973690032958984,49.2984504699707,-33.29435729980469
7.237,5.139782905578613,-9.150154113769531,0.23808583617210388,0.5442808866500854,0.7872526049613953,0.42684206366539,-40.2221565246582,49.86845779418945,-33.08974075317383
7.247,5.218746185302734,-9.253045082092285,-0.02153540402650833,0.8136724829673767,0.5448917746543884,0.3628539741039276,-39.72522735595703,49.75153350830078,-33.33820343017578
