time,accel_x,accel_y,accel_z,gyro_x,gyro_y,gyro_z,mag_x,mag_y,mag_z
0.0,41.90810775756836,5.784391403198242,-72.20912170410156,-57.55589294433594,122.3062744140625,-2.131699800491333,-21.30000114440918,-13.050000190734863,-15.450000762939453
0.01,43.09563064575195,5.171475887298584,-72.4772720336914,-61.41960144042969,124.43797302246094,-1.1990811824798584,-21.30000114440918,-13.050000190734863,-15.450000762939453
0.02,42.1379508972168,6.742072105407715,-74.2394027709961,-61.01990509033203,114.17916870117188,3.4640121459960938,-21.30000114440918,-13.050000190734863,-15.450000762939453
0.03,40.03105163574219,8.312667846679688,-75.69508361816406,-72.74425506591797,124.97090148925781,6.794793128967285,-21.75,-10.350000381469727,-16.05000114440918
0.04,38.34553527832031,11.03248119354248,-74.2394027709961,-83.93567657470703,144.68911743164062,8.127105712890625,-22.200000762939453,-10.950000762939453,-16.650001525878906
0.055,35.817256927490234,13.445837020874023,-72.17081451416016,-82.6033706665039,134.5635528564453,14.255742073059082,-22.5,-11.550000190734863,-14.700000762939453
0.06,37.46446990966797,17.238252639770508,-68.1868667602539,-81.27105712890625,142.02450561523438,9.72588062286377,-22.5,-11.550000190734863,-14.700000762939453
0.07,38.422149658203125,17.966089248657227,-68.26348114013672,-83.13629150390625,146.0214385986328,4.130168437957764,-22.5,-11.550000190734863,-14.700000762939453
0.08,39.41813659667969,20.76251792907715,-68.30178833007812,-77.54058074951172,155.6140899658203,4.529861927032471,-22.80000114440918,-10.800000190734863,-13.950000762939453
0.09,40.49073791503906,21.14558982849121,-67.4973373413086,-59.55436325073242,153.21592712402344,6.9280242919921875,-23.700000762939453,-11.40000057220459,-13.350000381469727
0.109,41.86980056762695,20.532672882080078,-66.69288635253906,-58.62174606323242,164.14088439941406,-12.25727367401123,-23.55000114440918,-11.850000381469727,-12.750000953674316
0.113,42.367794036865234,21.107282638549805,-65.3138198852539,-47.56355285644531,160.41041564941406,1.3323123455047607,-25.650001525878906,-10.200000762939453,-12.300000190734863
0.12,42.1762580871582,20.072986602783203,-63.283538818359375,-52.75957107543945,169.60336303710938,-5.995405673980713,-25.650001525878906,-10.200000762939453,-12.300000190734863
0.13,44.05331039428711,19.153614044189453,-61.636329650878906,-62.618682861328125,164.67381286621094,-2.797856092453003,-25.650001525878906,-10.200000762939453,-12.300000190734863
0.14,45.279144287109375,18.157625198364258,-60.1423454284668,-74.60948944091797,172.93414306640625,-10.92496109008789,-24.900001525878906,-11.40000057220459,-11.100000381469727
0.15,47.50096130371094,18.081010818481445,-59.72096633911133,-69.01377868652344,163.6079559326172,-2.6646246910095215,-26.250001907348633,-10.050000190734863,-11.700000762939453
0.168,48.72679138183594,16.1656494140625,-59.83588790893555,-67.5482406616211,158.9448699951172,11.191424369812012,-26.250001907348633,-11.850000381469727,-10.65000057220459
0.173,50.48892593383789,14.633360862731934,-58.38021469116211,-73.0107192993164,158.27871704101562,-4.663093090057373,-28.200000762939453,-9.450000762939453,-8.25
0.18,48.88002014160156,14.518439292907715,-56.77130889892578,-78.07350158691406,165.3399658203125,-0.1332312375307083,-28.200000762939453,-9.450000762939453,-8.25
0.19,48.57356262207031,14.441824913024902,-56.15839385986328,-72.0781021118164,161.6094970703125,2.2649309635162354,-28.200000762939453,-9.450000762939453,-8.25
0.2,50.029239654541016,13.407529830932617,-54.85594940185547,-76.87442779541016,158.67840576171875,-1.4655436277389526,-28.950000762939453,-9.450000762939453,-7.500000476837158
0.21,48.99494171142578,14.288596153259277,-53.09381866455078,-85.53445434570312,161.47625732421875,6.794793128967285,-27.000001907348633,-9.450000762939453,-7.800000190734863
0.229,48.61186981201172,14.67166805267334,-52.71074295043945,-76.74119567871094,149.61868286132812,8.260336875915527,-29.250001907348633,-10.050000190734863,-6.600000381469727
0.233,48.88002014160156,14.901511192321777,-51.063533782958984,-80.20520782470703,150.95098876953125,4.796324729919434,-29.250001907348633,-10.050000190734863,-6.600000381469727
0.24,48.07556915283203,17.00840950012207,-51.21676254272461,-92.86217498779297,152.949462890625,8.660030364990234,-29.250001907348633,-10.050000190734863,-6.600000381469727
0.25,49.64616775512695,17.50640296936035,-51.44660568237305,-98.59111785888672,151.48391723632812,6.395099639892578,-28.80000114440918,-8.40000057220459,-4.650000095367432
0.26,50.60384750366211,18.923770904541016,-51.59983444213867,-94.59417724609375,139.89280700683594,17.586523056030273,-28.650001525878906,-9.450000762939453,-4.5
0.27,51.676448822021484,19.038692474365234,-52.63412857055664,-93.52832794189453,138.02755737304688,15.188361167907715,-28.80000114440918,-9.600000381469727,-3.9000000953674316
0.288,51.255069732666016,20.724210739135742,-50.79538345336914,-99.25727081298828,142.02450561523438,16.520673751831055,-29.400001525878906,-9.450000762939453,-2.700000047683716
0.292,52.44259262084961,19.07699966430664,-48.765098571777344,-105.25267791748047,131.0995330810547,5.8621745109558105,-29.400001525878906,-9.450000762939453,-2.700000047683716
0.3,53.09381866455078,18.617311477661133,-48.4969482421875,-106.31852722167969,127.36906433105469,17.453292846679688,-28.200000762939453,-9.75,-2.700000047683716
0.31,53.170433044433594,18.272546768188477,-47.76911163330078,-119.64165496826172,131.0995330810547,11.724349021911621,-29.55000114440918,-8.100000381469727,-2.5500001907348633
0.32,53.8216552734375,18.464082717895508,-47.57757568359375,-126.96936798095703,133.89739990234375,13.189892768859863,-29.55000114440918,-10.350000381469727,-1.0500000715255737
0.33,53.43858337402344,20.264522552490234,-47.424346923828125,-130.43338012695312,121.90658569335938,14.788667678833008,-30.150001525878906,-9.0,-1.2000000476837158
0.35,53.859962463378906,20.83913230895996,-46.88804626464844,-145.0888214111328,132.83154296875,1.7320060729980469,-30.30000114440918,-8.850000381469727,-1.0500000715255737
0.353,55.0474853515625,21.87342643737793,-44.35976791381836,-151.084228515625,132.43185424804688,-0.1332312375307083,-30.30000114440918,-8.850000381469727,-1.0500000715255737
0.36,57.95883560180664,25.435998916625977,-41.29519271850586,-149.21897888183594,117.9096450805664,19.85145378112793,-30.150001525878906,-10.5,-0.45000001788139343
0.37,58.38021469116211,26.66183090209961,-41.29519271850586,-150.6845245361328,119.37519073486328,24.914241790771484,-30.450000762939453,-8.700000762939453,-0.45000001788139343
0.38,59.452816009521484,28.883649826049805,-41.754878997802734,-149.08575439453125,125.63705444335938,16.12097930908203,-28.650001525878906,-8.700000762939453,1.6500000953674316
0.39,60.065731048583984,30.645782470703125,-42.061336517333984,-147.62020874023438,125.63705444335938,32.5084228515625,-30.450000762939453,-9.0,1.2000000476837158
0.41,63.092002868652344,32.484527587890625,-40.41412353515625,-136.56201171875,126.30321502685547,42.90045928955078,-30.450000762939453,-9.0,1.2000000476837158
0.414,63.51338195800781,32.10145568847656,-39.68628692626953,-106.31852722167969,113.24655151367188,43.03369140625,-30.450000762939453,-9.0,1.2000000476837158
0.42,65.50535583496094,28.309040069580078,-38.000770568847656,-103.12097930908203,119.5084228515625,36.905052185058594,-31.80000114440918,-8.40000057220459,3.6000001430511475
0.43,65.3138198852539,27.619510650634766,-37.15800857543945,-72.87748718261719,108.58345794677734,48.62940216064453,-31.650001525878906,-9.75,2.25
0.44,65.9267349243164,24.631547927856445,-40.107666015625,-70.61255645751953,118.44257354736328,37.57120895385742,-30.900001525878906,-11.700000762939453,3.0
0.45,63.896453857421875,25.89568519592285,-40.41412353515625,-77.54058074951172,116.9770278930664,39.70290756225586,-29.400001525878906,-9.450000762939453,3.0
0.469,65.16059112548828,25.51261329650879,-39.68628692626953,-76.20826721191406,117.64318084716797,47.830013275146484,-29.400001525878906,-9.450000762939453,3.0
0.473,63.74322509765625,25.70414924621582,-37.311241149902344,-95.9264907836914,127.90198516845703,46.63093185424805,-31.650001525878906,-10.950000762939453,3.750000238418579
0.48,62.977081298828125,25.972299575805664,-32.790985107421875,-98.05818939208984,126.30321502685547,45.96477508544922,-32.400001525878906,-11.40000057220459,4.950000286102295
0.49,63.51338195800781,23.712173461914062,-31.29700469970703,-94.59417724609375,117.64318084716797,51.4272575378418,-32.55000305175781,-10.350000381469727,5.850000381469727
0.5,64.16460418701172,23.3291015625,-28.002582550048828,-97.65850067138672,120.04134368896484,65.41653442382812,-31.650001525878906,-11.40000057220459,6.0
0.51,63.62830352783203,23.3291015625,-29.496564865112305,-90.06431579589844,111.91423797607422,62.21898651123047,-31.650001525878906,-10.950000762939453,5.700000286102295
0.53,64.0496826171875,25.052927017211914,-32.71437072753906,-86.3338394165039,111.91423797607422,70.21286010742188,-31.650001525878906,-10.950000762939453,5.700000286102295
0.534,66.00334930419922,23.903709411621094,-35.77894973754883,-81.13782501220703,100.58958435058594,71.2787094116211,-31.950000762939453,-12.15000057220459,6.300000190734863
0.548,67.68887329101562,23.367408752441406,-37.15800857543945,-73.81010437011719,118.04287719726562,56.62327575683594,-33.30000305175781,-12.300000190734863,8.700000762939453
0.552,69.02962493896484,24.938005447387695,-30.37763023376465,-66.34915924072266,109.11638641357422,56.09035110473633,-33.30000305175781,-12.300000190734863,8.700000762939453
0.56,68.34009552001953,24.554933547973633,-28.653806686401367,-55.15773391723633,104.7197494506836,67.814697265625,-32.70000076293945,-12.450000762939453,7.800000190734863
0.57,68.1485595703125,23.405715942382812,-25.51261329650879,-55.29096221923828,101.2557373046875,65.016845703125,-32.70000076293945,-12.450000762939453,7.800000190734863
0.58,69.18285369873047,22.448034286499023,-24.89969825744629,-59.02143859863281,100.45635223388672,51.693721771240234,-32.70000076293945,-12.450000762939453,7.800000190734863
0.59,68.64655303955078,22.141576766967773,-27.313053131103516,-70.61255645751953,106.31852722167969,57.55589294433594,-33.75,-12.750000953674316,8.700000762939453
0.603,67.03765106201172,22.83110809326172,-30.37763023376465,-79.53904724121094,107.11791229248047,45.03215789794922,-32.70000076293945,-11.40000057220459,9.75
0.61,67.99533081054688,23.175872802734375,-31.182083129882812,-92.3292465209961,105.65237426757812,60.62021255493164,-34.20000076293945,-12.15000057220459,11.100000381469727
0.62,68.53163146972656,22.60126495361328,-31.52684783935547,-95.66002655029297,108.983154296875,62.085758209228516,-32.70000076293945,-12.15000057220459,9.75
0.63,69.18285369873047,22.103269577026367,-27.657817840576172,-75.94180297851562,106.18529510498047,72.74425506591797,-32.70000076293945,-12.15000057220459,9.75
0.64,73.12849426269531,21.107282638549805,-27.236438751220703,-55.4241943359375,109.11638641357422,62.485450744628906,-34.20000076293945,-12.15000057220459,11.550000190734863
0.65,73.20510864257812,22.48634147644043,-26.54690933227539,-46.497703552246094,120.57427215576172,62.618682861328125,-32.70000076293945,-12.450000762939453,11.550000190734863
0.669,74.62248229980469,23.02264404296875,-25.550920486450195,-50.09494400024414,106.71822357177734,52.093414306640625,-33.30000305175781,-11.850000381469727,12.750000953674316
0.672,76.61445617675781,23.865402221679688,-21.796812057495117,-40.102603912353516,101.2557373046875,60.62021255493164,-33.30000305175781,-11.850000381469727,12.750000953674316
0.68,77.91690063476562,22.333112716674805,-22.409727096557617,-45.16539001464844,97.65850067138672,55.4241943359375,-33.0,-12.300000190734863,13.200000762939453
0.69,75.15878295898438,21.14558982849121,-22.103269577026367,-59.55436325073242,93.2618637084961,44.63246536254883,-33.0,-12.300000190734863,13.200000762939453
0.7,74.50755310058594,19.038692474365234,-20.877439498901367,-52.226646423339844,80.60489654541016,50.36140823364258,-33.150001525878906,-13.65000057220459,13.050000190734863
0.718,72.36235046386719,17.42978858947754,-21.528661727905273,-35.17304611206055,79.0061264038086,33.97396469116211,-33.30000305175781,-14.250000953674316,13.950000762939453
0.722,72.01758575439453,16.970102310180664,-22.37141990661621,-41.568145751953125,87.53292083740234,20.650842666625977,-33.45000076293945,-14.100000381469727,14.850000381469727
0.73,71.02159881591797,20.072986602783203,-24.018630981445312,-44.76569747924805,88.19908142089844,30.24349021911621,-32.55000305175781,-13.500000953674316,13.950000762939453
0.74,70.71514129638672,19.230228424072266,-25.129541397094727,-24.781009674072266,80.20520782470703,25.846860885620117,-31.500001907348633,-12.750000953674316,14.700000762939453
0.75,74.20109558105469,18.310853958129883,-20.64759635925293,1.3323123455047607,71.01225280761719,44.23276901245117,-31.500001907348633,-12.750000953674316,14.700000762939453
0.76,76.88260650634766,19.19192123413086,-15.284584045410156,19.98468589782715,56.49004364013672,11.990811347961426,-32.400001525878906,-14.40000057220459,15.15000057220459
0.77,78.10843658447266,19.421764373779297,-10.15141487121582,53.42572784423828,40.36906433105469,37.17151641845703,-31.650001525878906,-15.15000057220459,15.600000381469727
0.786,76.99752807617188,19.460071563720703,-8.465897560119629,96.45941925048828,32.77488327026367,35.705970764160156,-31.950000762939453,-14.40000057220459,14.40000057220459
0.79,76.19307708740234,20.034679412841797,-9.959878921508789,104.85298156738281,34.24042892456055,13.456355094909668,-31.950000762939453,-14.40000057220459,14.40000057220459
1.047,67.65056610107422,29.15180015563965,-7.201758861541748,-25.04747200012207,-73.0107192993164,-33.57427215576172,-30.30000114440918,-12.750000953674316,19.80000114440918
1.057,68.22517395019531,24.05693817138672,-14.901511192321777,-4.663093090057373,-64.48391723632812,-39.30321502685547,-31.05000114440918,-12.300000190734863,17.25
1.067,66.65457153320312,21.605276107788086,-14.748282432556152,7.194486618041992,-42.633995056152344,-48.49617004394531,-30.900001525878906,-12.90000057220459,18.900001525878906
1.087,66.27149963378906,21.911733627319336,-16.625335693359375,14.655436515808105,-24.51454734802246,-57.955589294433594,-30.150001525878906,-12.90000057220459,18.450000762939453
1.09,66.80780792236328,21.14558982849121,-16.47210693359375,15.055130004882812,1.8652373552322388,-58.08882141113281,-31.200000762939453,-12.450000762939453,18.450000762939453
1.097,69.45100402832031,19.153614044189453,-15.399505615234375,1.3323123455047607,24.11485481262207,-71.01225280761719,-31.200000762939453,-12.450000762939453,18.450000762939453
1.107,69.45100402832031,19.68991470336914,-15.361198425292969,-45.96477508544922,53.29249572753906,-63.28483963012695,-30.150001525878906,-12.450000762939453,19.650001525878906
1.117,71.71112823486328,22.2948055267334,-15.054739952087402,-79.40581512451172,70.47932434082031,-47.0306282043457,-30.900001525878906,-11.700000762939453,18.150001525878906
1.127,73.51156616210938,23.367408752441406,-13.139378547668457,-112.31393432617188,96.32618713378906,-31.975496292114258,-31.200000762939453,-12.90000057220459,17.100000381469727
1.146,75.31201171875,22.409727096557617,-10.074800491333008,-140.1592559814453,113.51301574707031,-57.689125061035156,-31.200000762939453,-13.200000762939453,18.450000762939453
1.151,75.46524047851562,17.583017349243164,-10.72602367401123,-121.50688934326172,131.49923706054688,-48.49617004394531,-29.55000114440918,-13.800000190734863,19.5
1.157,73.58818054199219,19.19192123413086,-17.73624610900879,-125.90351867675781,137.22817993164062,-37.4379768371582,-29.55000114440918,-13.800000190734863,19.5
1.167,70.14053344726562,16.012420654296875,-18.962078094482422,-136.82847595214844,152.28330993652344,-38.10413360595703,-28.950000762939453,-12.15000057220459,19.950000762939453
1.177,68.99131774902344,15.705963134765625,-13.867216110229492,-116.57733154296875,128.43490600585938,-9.459418296813965,-28.950000762939453,-12.90000057220459,19.950000762939453
1.187,65.8501205444336,18.081010818481445,-5.822698593139648,-108.58345794677734,88.73200225830078,21.716691970825195,-28.950000762939453,-12.90000057220459,19.950000762939453
1.207,64.54767608642578,19.536685943603516,-3.8307228088378906,-135.22970581054688,54.091880798339844,28.378253936767578,-28.950000762939453,-12.90000057220459,19.950000762939453
1.211,65.54366302490234,21.720197677612305,-10.228029251098633,-176.53138732910156,39.16998291015625,43.96630859375,-30.30000114440918,-13.500000953674316,22.350000381469727
1.217,70.44699096679688,24.9763126373291,-13.637372970581055,-195.050537109375,28.511484146118164,46.897396087646484,-29.400001525878906,-14.100000381469727,22.5
1.227,73.28172302246094,24.708162307739258,-11.224017143249512,-204.37672424316406,19.052066802978516,45.298622131347656,-30.000001907348633,-14.550000190734863,22.05000114440918
1.237,78.56812286376953,21.911733627319336,-11.453861236572266,-192.11944580078125,12.523736000061035,25.846860885620117,-29.700000762939453,-15.15000057220459,22.200000762939453
1.247,82.97345733642578,20.456058502197266,-11.760318756103516,-157.74578857421875,8.926492691040039,25.18070411682129,-29.700000762939453,-15.15000057220459,22.200000762939453
1.267,80.7899398803711,20.456058502197266,-13.10107135772705,-131.63246154785156,18.652372360229492,36.63859176635742,-30.30000114440918,-15.000000953674316,22.05000114440918
1.271,75.42693328857422,23.63555908203125,-3.485957622528076,-99.12403869628906,13.189892768859863,46.63093185424805,-29.55000114440918,-16.5,21.30000114440918
1.277,76.34630584716797,25.09123420715332,-2.3750481605529785,-97.65850067138672,-0.9326186776161194,58.888206481933594,-29.55000114440918,-16.5,22.350000381469727
1.287,73.20510864257812,25.167848587036133,1.1109095811843872,-97.25880432128906,-16.387441635131836,63.81776428222656,-30.150001525878906,-15.90000057220459,21.75
1.297,68.83808898925781,28.61549949645996,4.175487995147705,-121.24042510986328,-41.701377868652344,70.87902069091797,-28.650001525878906,-16.350000381469727,21.150001525878906
1.307,68.22517395019531,30.530860900878906,5.20978307723999,-157.4793243408203,-28.77794647216797,63.950992584228516,-28.650001525878906,-16.350000381469727,21.150001525878906
1.326,66.69288635253906,30.37763023376465,5.1331682205200195,-174.66615295410156,-31.44257164001465,60.75344467163086,-29.250001907348633,-17.700000762939453,20.850000381469727
1.33,67.84210205078125,33.7869758605957,1.2641384601593018,-171.7350616455078,-24.381317138671875,52.093414306640625,-29.250001907348633,-18.150001525878906,22.350000381469727
1.337,70.5619125366211,33.71036148071289,1.455674648284912,-170.53598022460938,-3.0643184185028076,51.027565002441406,-28.650001525878906,-18.30000114440918,19.200000762939453
1.347,74.92893981933594,35.66402816772461,-0.38307225704193115,-154.0153045654297,10.258805274963379,47.430320739746094,-29.250001907348633,-18.900001525878906,20.55000114440918
1.357,82.39884948730469,35.31926345825195,-3.869029998779297,-131.36599731445312,33.84073257446289,23.715160369873047,-29.250001907348633,-18.900001525878906,20.55000114440918
1.367,88.87276458740234,35.089420318603516,-6.818686485290527,-101.52220153808594,65.28330993652344,5.196018218994141,-29.250001907348633,-18.900001525878906,20.55000114440918
1.386,88.83445739746094,33.672054290771484,-7.4316020011901855,-44.49923324584961,99.12403869628906,4.529861927032471,-28.500001907348633,-19.650001525878906,20.55000114440918
1.39,81.28793334960938,30.26270866394043,-12.258312225341797,-44.49923324584961,119.5084228515625,3.4640121459960938,-28.500001907348633,-19.650001525878906,20.55000114440918
1.397,80.02379608154297,29.305028915405273,-12.832921028137207,-42.500762939453125,122.9724349975586,-4.130168437957764,-29.55000114440918,-20.400001525878906,21.30000114440918
1.407,76.11646270751953,30.91393280029297,-13.062764167785645,-52.89280319213867,131.63246154785156,7.460949420928955,-28.950000762939453,-21.0,21.75
1.417,71.28974914550781,31.22039031982422,-8.810662269592285,-67.01531219482422,111.5145492553711,17.719755172729492,-28.950000762939453,-21.0,21.75
1.427,72.82203674316406,34.897884368896484,-3.6391866207122803,-70.47932434082031,68.4808578491211,29.444103240966797,-27.900001525878906,-19.5,21.75
1.446,73.39664459228516,38.38384246826172,0.038307227194309235,-83.80245208740234,33.4410400390625,59.02143859863281,-27.900001525878906,-19.5,22.5
1.45,88.41307830810547,48.11387634277344,-1.9919757843017578,-89.66461944580078,17.053598403930664,75.94180297851562,-28.200000762939453,-20.25,22.950000762939453
1.457,92.97164154052734,50.948612213134766,-1.3024457693099976,-77.4073486328125,18.91883659362793,78.20673370361328,-27.900001525878906,-21.0,22.5
1.467,96.91728210449219,51.59983444213867,-1.37906014919281,-62.085758209228516,24.11485481262207,81.13782501220703,-27.900001525878906,-21.75,21.75
1.477,97.53019714355469,48.037261962890625,-8.848969459533691,-45.43185043334961,56.49004364013672,48.76263427734375,-27.900001525878906,-21.75,21.75
1.487,95.04022979736328,42.1379508972168,-17.161638259887695,-14.92189884185791,87.0,3.9969370365142822,-27.900001525878906,-22.5,22.200000762939453
1.506,89.90705871582031,34.591426849365234,-22.524648666381836,39.70290756225586,169.73660278320312,-82.33690643310547,-27.150001525878906,-23.700000762939453,22.200000762939453
1.51,79.06611633300781,26.163835525512695,-31.182083129882812,45.43185043334961,188.65542602539062,-84.86830139160156,-27.150001525878906,-23.700000762939453,22.200000762939453
1.517,77.22737121582031,25.052927017211914,-29.917943954467773,66.08269500732422,201.84532165527344,-110.71515655517578,-26.400001525878906,-23.25,24.450000762939453
1.527,77.57213592529297,26.85336685180664,-27.696125030517578,86.86676788330078,212.37059020996094,-107.11791229248047,-27.750001907348633,-20.850000381469727,24.900001525878906
1.537,80.67501831054688,28.38565444946289,-18.54069709777832,79.9387435913086,191.32005310058594,-113.24655151367188,-27.750001907348633,-20.850000381469727,24.900001525878906
1.556,86.91909790039062,35.93217849731445,-12.449849128723145,67.68146514892578,144.2894287109375,-83.5359878540039,-26.700000762939453,-21.0,26.55000114440918
1.559,89.94536590576172,31.986534118652344,-10.228029251098633,26.64624786376953,73.14395141601562,-26.64624786376953,-25.500001907348633,-21.600000381469727,26.100000381469727
1.567,91.28612518310547,24.66985511779785,-10.113107681274414,-13.722817420959473,32.5084228515625,-48.22970962524414,-27.000001907348633,-19.650001525878906,27.150001525878906
1.577,91.01797485351562,22.639572143554688,-11.453861236572266,-47.0306282043457,-28.77794647216797,-22.51607894897461,-27.450000762939453,-21.0,26.250001907348633
1.587,89.217529296875,20.64759635925293,-13.752294540405273,-49.42878723144531,-91.3966293334961,-22.915773391723633,-27.450000762939453,-21.0,26.250001907348633
1.597,86.99571228027344,17.8128604888916,-14.135366439819336,-7.194486618041992,-151.88360595703125,2.531393527984619,-27.450000762939453,-21.0,26.250001907348633
1.607,81.67100524902344,14.595053672790527,-17.12333106994629,29.7105655670166,-201.84532165527344,8.660030364990234,-27.900001525878906,-21.0,25.500001907348633
1.62,78.4148941040039,15.169661521911621,-20.76251792907715,57.955589294433594,-249.6753387451172,33.17457962036133,-27.750001907348633,-21.150001525878906,26.850000381469727
1.627,75.19709014892578,19.38345718383789,-17.391481399536133,83.80245208740234,-281.7840576171875,51.82695007324219,-27.900001525878906,-19.80000114440918,26.55000114440918
1.637,73.77971649169922,21.298818588256836,-12.60307788848877,119.5084228515625,-330.54669189453125,62.085758209228516,-27.750001907348633,-20.100000381469727,25.650001525878906
1.647,70.98329162597656,24.095245361328125,-9.691728591918945,150.41806030273438,-366.9188232421875,61.552833557128906,-27.750001907348633,-20.100000381469727,25.650001525878906
1.657,70.5619125366211,24.286781311035156,-7.469909191131592,164.5405731201172,-379.5758056640625,58.888206481933594,-27.900001525878906,-20.55000114440918,25.500001907348633
1.677,70.44699096679688,25.321077346801758,-6.167463779449463,176.13169860839844,-393.83154296875,63.28483963012695,-29.250001907348633,-21.150001525878906,23.850000381469727
1.68,71.97927856445312,24.823083877563477,-4.098873138427734,162.40887451171875,-380.9081115722656,51.027565002441406,-29.55000114440918,-21.600000381469727,22.80000114440918
1.687,74.16278839111328,20.456058502197266,-1.2258312702178955,143.3568115234375,-358.7917175292969,28.644716262817383,-29.55000114440918,-21.150001525878906,21.30000114440918
1.697,74.6607894897461,20.187908172607422,1.1875240802764893,124.8376693725586,-345.8682861328125,19.185298919677734,-27.450000762939453,-22.200000762939453,20.400001525878906
1.707,75.81000518798828,20.034679412841797,2.2218191623687744,127.90198516845703,-319.7549743652344,-0.1332312375307083,-27.450000762939453,-22.200000762939453,20.400001525878906
1.717,80.44517517089844,21.413740158081055,3.2561142444610596,115.77794647216797,-288.9785461425781,-7.860642910003662,-29.700000762939453,-22.200000762939453,19.650001525878906
1.736,85.46342468261719,22.218191146850586,3.600879430770874,117.64318084716797,-267.5283203125,5.196018218994141,-31.80000114440918,-21.900001525878906,18.30000114440918
1.74,93.12487030029297,23.405715942382812,1.3407529592514038,109.38284301757812,-232.0888214111328,9.859111785888672,-31.80000114440918,-21.900001525878906,17.55000114440918
1.747,94.35070037841797,21.605276107788086,-4.558559894561768,99.65696716308594,-210.63858032226562,15.45482349395752,-31.80000114440918,-21.900001525878906,17.55000114440918
1.757,95.23176574707031,19.536685943603516,-6.282385349273682,88.46553802490234,-176.53138732910156,18.519142150878906,-31.80000114440918,-21.900001525878906,17.55000114440918
1.767,91.63088989257812,22.06496238708496,-8.580819129943848,87.79938507080078,-153.7488555908203,20.517610549926758,-31.80000114440918,-21.900001525878906,17.55000114440918
1.777,85.61665344238281,24.631547927856445,-8.925583839416504,80.20520782470703,-134.83001708984375,16.387441635131836,-30.750001907348633,-20.100000381469727,16.05000114440918
1.797,77.03583526611328,26.96828842163086,-10.496180534362793,71.67840576171875,-106.58499145507812,18.652372360229492,-31.950000762939453,-20.55000114440918,14.40000057220459
1.801,70.71514129638672,24.861391067504883,-8.734047889709473,99.92343139648438,-87.26646423339844,12.656967163085938,-31.650001525878906,-19.80000114440918,14.850000381469727
1.807,63.05369567871094,24.59324073791504,-9.346963882446289,128.03521728515625,-59.15467071533203,26.912710189819336,-31.650001525878906,-19.80000114440918,14.850000381469727
1.817,61.78955841064453,22.2948055267334,-7.967903137207031,142.69065856933594,-14.788667678833008,25.447166442871094,-31.650001525878906,-19.80000114440918,14.850000381469727
1.827,61.559715270996094,21.911733627319336,-6.665457725524902,135.0964813232422,9.992342948913574,-7.460949420928955,-32.25,-20.400001525878906,14.700000762939453
1.837,64.50936889648438,18.732234954833984,-3.7924153804779053,81.93721008300781,5.462480545043945,-19.185298919677734,-30.900001525878906,-19.80000114440918,15.600000381469727
1.857,64.85413360595703,18.732234954833984,-5.899312973022461,4.796324729919434,6.5283308029174805,-36.905052185058594,-31.80000114440918,-20.400001525878906,16.05000114440918
1.86,67.72718048095703,16.625335693359375,-4.520252704620361,-83.5359878540039,3.7304747104644775,-86.3338394165039,-31.80000114440918,-19.200000762939453,15.750000953674316
1.867,68.7231674194336,14.250288963317871,-2.8347349166870117,-127.36906433105469,-6.661561965942383,-106.58499145507812,-31.80000114440918,-19.200000762939453,15.750000953674316
1.877,68.56993865966797,14.403517723083496,-1.6855180263519287,-170.8024444580078,-13.989279747009277,-124.30474090576172,-31.80000114440918,-19.200000762939453,15.750000953674316
1.887,69.9873046875,11.492168426513672,-3.754108190536499,-194.51760864257812,-13.456355094909668,-143.09034729003906,-32.25,-18.150001525878906,15.750000953674316
1.897,67.03765106201172,11.109095573425293,-4.63517427444458,-181.59417724609375,-25.447166442871094,-158.0122528076172,-33.30000305175781,-16.5,16.05000114440918
1.917,66.5013427734375,9.27034854888916,-7.1251444816589355,-131.89892578125,-42.76722717285156,-145.35528564453125,-33.45000076293945,-16.350000381469727,15.600000381469727
1.92,64.96905517578125,9.615114212036133,-11.262324333190918,-64.084228515625,-38.37059783935547,-144.55589294433594,-33.900001525878906,-17.100000381469727,14.850000381469727
1.927,63.896453857421875,8.96389102935791,-12.22000503540039,-36.5053596496582,-34.64012145996094,-142.82388305664062,-33.900001525878906,-17.100000381469727,14.850000381469727
1.937,62.172630310058594,9.346963882446289,-12.986149787902832,5.728943347930908,-34.10719680786133,-118.44257354736328,-33.900001525878906,-17.100000381469727,14.850000381469727
1.947,60.44880294799805,10.457873344421387,-14.709975242614746,32.77488327026367,-18.385910034179688,-94.32771301269531,-34.650001525878906,-13.65000057220459,14.100000381469727
1.957,54.97087097167969,11.492168426513672,-16.395492553710938,57.822357177734375,13.856048583984375,-94.72740936279297,-33.75,-15.750000953674316,14.700000762939453
1.977,48.88002014160156,13.445837020874023,-15.131354331970215,67.68146514892578,21.716691970825195,-63.418067932128906,-34.20000076293945,-14.100000381469727,14.100000381469727
1.981,43.287166595458984,13.21599292755127,-12.717999458312988,44.89892578125,34.64012145996094,-40.76875686645508,-34.20000076293945,-14.100000381469727,14.100000381469727
1.987,39.68628692626953,9.346963882446289,-9.040505409240723,26.113323211669922,37.17151641845703,-42.23430252075195,-34.20000076293945,-14.100000381469727,14.100000381469727
1.997,39.87782287597656,9.040505409240723,-9.385271072387695,19.052066802978516,45.56508255004883,-25.18070411682129,-33.900001525878906,-13.65000057220459,14.100000381469727
2.007,41.639957427978516,10.5344877243042,-10.879252433776855,23.581928253173828,49.02909469604492,-11.591117858886719,-33.900001525878906,-12.15000057220459,15.600000381469727
2.017,46.658203125,15.591041564941406,-11.72201156616211,13.189892768859863,54.89126968383789,15.854516983032227,-33.45000076293945,-12.90000057220459,14.850000381469727
2.037,51.676448822021484,17.31486701965332,-15.552734375,-6.794793128967285,69.4134750366211,16.520673751831055,-33.30000305175781,-13.800000190734863,16.5
2.04,58.112064361572266,17.62132453918457,-23.175872802734375,-49.96171569824219,67.5482406616211,18.2526798248291,-33.30000305175781,-13.800000190734863,16.5
2.047,69.4126968383789,19.230228424072266,-32.40791320800781,-79.13935852050781,61.68606185913086,2.531393527984619,-33.900001525878906,-14.40000057220459,15.600000381469727
2.057,76.23138427734375,19.38345718383789,-40.682273864746094,-138.02755737304688,50.62786865234375,24.781009674072266,-35.25,-13.500000953674316,17.25
2.067,85.61665344238281,20.609289169311523,-52.02121353149414,-172.00152587890625,16.387441635131836,7.9938740730285645,-34.05000305175781,-12.750000953674316,17.55000114440918
2.077,95.42330169677734,25.014619827270508,-61.90447998046875,-163.87442016601562,-16.12097930908203,29.7105655670166,-34.20000076293945,-13.200000762939453,16.350000381469727
2.097,100.02017211914062,31.52684783935547,-70.52360534667969,-114.71209716796875,8.127105712890625,16.920366287231445,-34.20000076293945,-13.65000057220459,18.150001525878906
2.101,99.48387145996094,39.533058166503906,-65.65858459472656,-36.5053596496582,36.905052185058594,-6.661561965942383,-34.20000076293945,-13.65000057220459,18.150001525878906
2.107,93.66117095947266,49.76108932495117,-42.061336517333984,-4.130168437957764,32.5084228515625,-11.191424369812012,-34.20000076293945,-13.65000057220459,15.90000057220459
2.117,87.11063385009766,49.9143180847168,-35.28095626831055,21.316997528076172,22.51607894897461,-24.51454734802246,-35.70000076293945,-13.200000762939453,15.15000057220459
2.127,79.29595947265625,47.845726013183594,-28.19411849975586,15.055130004882812,18.385910034179688,-42.76722717285156,-33.150001525878906,-14.100000381469727,17.400001525878906
2.137,71.32805633544922,40.95042419433594,-25.09123420715332,33.30780792236328,2.398162364959717,-51.4272575378418,-34.650001525878906,-12.450000762939453,17.400001525878906
2.156,65.81181335449219,34.476505279541016,-24.861391067504883,59.82082748413086,-5.8621745109558105,-49.69525146484375,-34.650001525878906,-12.450000762939453,17.400001525878906
2.16,61.78955841064453,31.986534118652344,-25.70414924621582,118.8422622680664,3.9969370365142822,-47.163856506347656,-34.650001525878906,-12.450000762939453,17.400001525878906
2.167,62.32585906982422,32.56114196777344,-24.746469497680664,158.67840576171875,6.5283308029174805,-46.497703552246094,-34.5,-11.850000381469727,16.80000114440918
2.177,65.00736236572266,30.569168090820312,-21.98834800720215,212.1041259765625,7.860642910003662,-24.64777946472168,-33.45000076293945,-10.950000762939453,18.150001525878906
2.187,66.00334930419922,28.347347259521484,-23.290794372558594,242.6140899658203,16.78713607788086,-33.04134750366211,-35.400001525878906,-12.15000057220459,17.400001525878906
2.197,67.99533081054688,24.66985511779785,-24.554933547973633,236.61868286132812,32.5084228515625,-33.04134750366211,-35.25,-11.100000381469727,18.0
2.217,72.4772720336914,21.528661727905273,-27.811046600341797,199.713623046875,29.577335357666016,-15.588054656982422,-35.25,-11.100000381469727,18.0
2.221,83.93113708496094,18.579004287719727,-37.54108428955078,138.42726135253906,46.63093185424805,-18.519142150878906,-34.20000076293945,-10.950000762939453,18.450000762939453
2.227,111.24418640136719,20.264522552490234,-48.57356262207031,114.84532928466797,60.48698043823242,-14.255742073059082,-35.70000076293945,-10.950000762939453,17.700000762939453
2.237,120.01654052734375,30.032865524291992,-40.03105163574219,99.92343139648438,67.01531219482422,14.388973236083984,-35.25,-10.350000381469727,18.0
2.247,126.33723449707031,42.02302932739258,-12.717999458312988,116.84379577636719,36.905052185058594,42.90045928955078,-36.45000076293945,-10.5,16.650001525878906
2.257,119.36531829833984,35.35757064819336,1.8387469053268433,106.58499145507812,33.17457962036133,22.249616622924805,-33.900001525878906,-9.0,18.450000762939453
2.277,87.3404769897461,29.381643295288086,-9.500192642211914,28.511484146118164,62.618682861328125,-3.86370587348938,-33.900001525878906,-9.0,18.450000762939453
2.28,55.35394287109375,25.550920486450195,-11.951854705810547,-39.30321502685547,56.356815338134766,-43.30015182495117,-34.20000076293945,-9.75,18.900001525878906
2.287,32.44622039794922,18.4257755279541,-6.89530086517334,-37.83767318725586,48.8958625793457,-47.430320739746094,-33.900001525878906,-8.700000762939453,19.650001525878906
2.297,29.22841453552246,11.990161895751953,-2.030282974243164,-4.263399600982666,56.62327575683594,-59.68759536743164,-34.95000076293945,-9.75,19.650001525878906
2.307,28.692113876342773,2.9496564865112305,3.754108190536499,66.74884796142578,57.15620040893555,-50.36140823364258,-34.80000305175781,-9.15000057220459,19.5
2.317,40.83550262451172,6.129156112670898,7.2783732414245605,99.25727081298828,35.03981399536133,-3.86370587348938,-34.80000305175781,-9.15000057220459,19.5
2.337,54.97087097167969,7.010222434997559,2.7964274883270264,91.3966293334961,47.830013275146484,39.70290756225586,-34.80000305175781,-9.15000057220459,19.5
2.341,68.60824584960938,1.9536685943603516,-6.818686485290527,34.373661041259766,56.22358322143555,100.58958435058594,-33.45000076293945,-9.0,20.400001525878906
2.347,86.26787567138672,0.07661445438861847,-13.675680160522461,6.661561965942383,68.61408996582031,118.57579803466797,-35.25,-9.600000381469727,20.100000381469727
2.357,92.7417984008789,-4.711789131164551,-11.72201156616211,-23.98162269592285,79.0061264038086,139.89280700683594,-34.20000076293945,-9.0,21.150001525878906
2.367,97.26204681396484,-4.596867084503174,-8.810662269592285,-41.168453216552734,79.67227935791016,113.51301574707031,-34.650001525878906,-9.0,19.200000762939453
2.377,100.28832244873047,-5.822698593139648,-5.669469833374023,-63.418067932128906,66.34915924072266,114.04593658447266,-34.650001525878906,-9.0,19.200000762939453
2.397,95.00192260742188,8.848969459533691,0.15322890877723694,-108.71669006347656,51.027565002441406,130.03369140625,-34.80000305175781,-8.850000381469727,21.30000114440918
2.401,84.12267303466797,26.54690933227539,2.873042106628418,-149.3522186279297,22.116384506225586,163.0750274658203,-34.95000076293945,-10.200000762939453,20.700000762939453
2.407,76.00154113769531,29.573179244995117,6.627150535583496,-150.55130004882812,21.45022964477539,164.94027709960938,-33.0,-11.550000190734863,22.05000114440918
2.417,71.02159881591797,28.692113876342773,3.754108190536499,-97.12557220458984,-4.796324729919434,155.88055419921875,-35.25,-12.750000953674316,21.30000114440918
2.427,67.80379486083984,27.964275360107422,-1.4173674583435059,-56.49004364013672,9.059723854064941,136.9617156982422,-34.20000076293945,-12.450000762939453,21.150001525878906
2.437,66.11827087402344,32.178070068359375,-7.163451671600342,-12.790199279785156,43.30015182495117,133.23123168945312,-34.20000076293945,-12.450000762939453,21.150001525878906
2.457,66.5396499633789,34.13174057006836,-12.334927558898926,30.37672233581543,86.3338394165039,120.17457580566406,-33.150001525878906,-14.100000381469727,21.150001525878906
2.46,70.37037658691406,33.097442626953125,-15.399505615234375,84.33537292480469,137.22817993164062,75.27565002441406,-33.900001525878906,-14.100000381469727,20.700000762939453
2.467,73.664794921875,32.982521057128906,-14.326903343200684,90.33078002929688,173.0673828125,46.364471435546875,-33.900001525878906,-14.100000381469727,20.700000762939453
2.477,75.15878295898438,37.96246337890625,-14.863204002380371,106.71822357177734,204.11026000976562,21.050535202026367,-34.05000305175781,-14.250000953674316,22.05000114440918
2.487,76.46122741699219,40.95042419433594,-12.02846908569336,116.17764282226562,212.63705444335938,19.31852912902832,-32.400001525878906,-14.40000057220459,23.25
2.497,76.19307708740234,41.41011428833008,-10.304644584655762,122.70597076416016,223.82847595214844,-3.0643184185028076,-32.400001525878906,-14.40000057220459,23.25
2.516,72.93695831298828,27.58120346069336,-10.304644584655762,129.36753845214844,234.8866729736328,-46.764163970947266,-33.75,-13.050000190734863,23.850000381469727
2.52,71.213134765625,12.22000503540039,-15.093047142028809,145.2220458984375,221.03062438964844,-85.26799011230469,-31.650001525878906,-12.15000057220459,26.55000114440918
2.527,70.6385269165039,12.181697845458984,-13.292608261108398,140.1592559814453,202.511474609375,-103.12097930908203,-31.650001525878906,-12.15000057220459,26.55000114440918
2.537,70.5619125366211,14.786589622497559,-11.530475616455078,129.36753845214844,180.66156005859375,-96.19295501708984,-31.200000762939453,-12.90000057220459,28.80000114440918
2.547,70.5619125366211,18.157625198364258,-10.496180534362793,125.90351867675781,125.63705444335938,-54.22511291503906,-31.200000762939453,-12.90000057220459,28.80000114440918
2.557,70.14053344726562,17.468095779418945,-7.6997528076171875,109.51607513427734,78.47319793701172,-44.89892578125,-32.25,-12.300000190734863,28.950000762939453
2.572,70.10222625732422,14.480132102966309,-6.856993675231934,93.2618637084961,6.128636837005615,-75.40888214111328,-33.0,-10.350000381469727,30.150001525878906
2.577,69.48931121826172,18.004396438598633,-6.588842868804932,108.3169937133789,-10.92496109008789,-26.113323211669922,-33.0,-10.350000381469727,30.150001525878906
2.587,69.56592559814453,18.962078094482422,-7.086836814880371,113.91270446777344,-44.36600112915039,-47.163856506347656,-31.950000762939453,-11.40000057220459,29.850000381469727
2.597,70.71514129638672,19.38345718383789,-5.2480902671813965,127.36906433105469,-71.54517364501953,-45.43185043334961,-30.150001525878906,-11.700000762939453,29.850000381469727
2.607,69.06793212890625,22.103269577026367,-4.63517427444458,121.90658569335938,-75.8085708618164,-36.238895416259766,-30.150001525878906,-11.700000762939453,29.850000381469727
2.617,67.80379486083984,24.171859741210938,-5.822698593139648,105.11944580078125,-72.74425506591797,-44.23276901245117,-31.650001525878906,-10.200000762939453,29.850000381469727
2.637,67.42072296142578,26.393678665161133,-6.627150535583496,99.92343139648438,-56.09035110473633,-41.434913635253906,-32.25,-9.15000057220459,27.450000762939453
2.641,70.17884063720703,27.121517181396484,-0.5746083855628967,63.418067932128906,-35.439510345458984,-48.22970962524414,-33.0,-10.800000190734863,27.900001525878906
2.647,70.25545501708984,26.2021427154541,-0.2298433631658554,41.168453216552734,-36.372127532958984,-47.430320739746094,-33.0,-10.800000190734863,27.900001525878906
2.657,70.40868377685547,23.712173461914062,1.2641384601593018,-12.390504837036133,-36.372127532958984,-26.246553421020508,-34.20000076293945,-9.0,27.750001907348633
2.667,69.45100402832031,25.167848587036133,-0.19153612852096558,-56.49004364013672,-18.2526798248291,-56.09035110473633,-34.20000076293945,-9.0,27.750001907348633
2.677,68.07194519042969,26.815059661865234,0.689530074596405,-120.4410400390625,24.914241790771484,-78.60643005371094,-33.45000076293945,-9.0,26.55000114440918
2.695,68.7231674194336,23.788787841796875,3.026270866394043,-178.39662170410156,41.035221099853516,-78.87289428710938,-33.150001525878906,-8.25,28.05000114440918
2.699,72.09420013427734,21.490354537963867,0.49799394607543945,-191.4532928466797,57.55589294433594,-78.20673370361328,-33.0,-9.600000381469727,28.650001525878906
2.707,72.74542236328125,19.19192123413086,-0.9576807022094727,-208.64012145996094,63.018375396728516,-83.26952362060547,-33.0,-9.600000381469727,28.650001525878906
2.717,74.6607894897461,18.847156524658203,-7.201758861541748,-239.81622314453125,98.99080657958984,-102.8545150756836,-33.0,-9.600000381469727,28.650001525878906
2.727,75.84831237792969,15.705963134765625,-13.828908920288086,-241.814697265625,124.03828430175781,-92.19601440429688,-32.25,-8.40000057220459,28.200000762939453
2.737,75.58016204833984,14.173673629760742,-18.23423957824707,-233.9540557861328,141.35833740234375,-90.86370086669922,-31.80000114440918,-8.40000057220459,28.650001525878906
2.75,75.8866195678711,10.687716484069824,-16.931795120239258,-176.53138732910156,138.56048583984375,-72.47779083251953,-31.200000762939453,-7.800000190734863,31.05000114440918
2.757,76.69107055664062,11.262324333190918,-14.748282432556152,-163.20826721191406,132.43185424804688,-77.94027709960938,-31.950000762939453,-8.700000762939453,31.05000114440918
2.767,76.03984832763672,11.453861236572266,-15.284584045410156,-141.4915771484375,112.4471664428711,-38.63705825805664,-31.950000762939453,-8.700000762939453,31.05000114440918
2.777,77.41890716552734,15.054739952087402,-15.054739952087402,-142.4241943359375,93.12863159179688,-12.923430442810059,-30.450000762939453,-9.0,32.85000228881836
2.787,76.99752807617188,14.326903343200684,-9.84495735168457,-135.36293029785156,55.15773391723633,15.854516983032227,-31.650001525878906,-7.500000476837158,31.80000114440918
2.806,74.08617401123047,17.851167678833008,-8.274360656738281,-140.6921844482422,10.658498764038086,45.96477508544922,-29.700000762939453,-9.0,31.80000114440918
2.81,71.1748275756836,19.230228424072266,-10.228029251098633,-158.545166015625,-17.719755172729492,53.42572784423828,-30.450000762939453,-9.0,33.30000305175781
2.817,74.20109558105469,20.41775131225586,-10.611102104187012,-160.94332885742188,-29.444103240966797,60.62021255493164,-30.900001525878906,-9.450000762939453,32.85000228881836
2.827,75.58016204833984,23.597251892089844,-8.504204750061035,-162.5421142578125,-52.75957107543945,79.13935852050781,-30.900001525878906,-9.450000762939453,32.85000228881836
2.837,76.03984832763672,27.849353790283203,-3.7158010005950928,-161.6094970703125,-63.28483963012695,102.32159423828125,-31.500001907348633,-11.550000190734863,32.25
2.847,76.15476989746094,30.68408966064453,0.2298433631658554,-161.7427215576172,-62.485450744628906,92.3292465209961,-32.25,-11.550000190734863,31.200000762939453
2.867,75.00555419921875,32.02484130859375,1.072602391242981,-164.27410888671875,-41.434913635253906,90.06431579589844,-32.25,-12.750000953674316,31.500001907348633
2.87,75.9249267578125,29.84132957458496,0.1149216815829277,-149.88514709472656,-12.523736000061035,66.74884796142578,-31.650001525878906,-12.90000057220459,31.80000114440918
2.877,77.38059997558594,31.22039031982422,-2.873042106628418,-145.48851013183594,2.797856092453003,53.42572784423828,-31.650001525878906,-12.90000057220459,31.80000114440918
2.887,76.537841796875,32.82929229736328,-3.5242648124694824,-128.7013702392578,32.108726501464844,43.96630859375,-31.650001525878906,-12.90000057220459,31.80000114440918
2.897,77.99351501464844,34.55311965942383,-3.869029998779297,-111.38131713867188,41.30168533325195,48.76263427734375,-31.80000114440918,-13.050000190734863,32.25
2.907,77.26567840576172,38.76691436767578,-4.520252704620361,-99.65696716308594,47.696781158447266,42.90045928955078,-31.650001525878906,-14.850000381469727,31.80000114440918
2.926,75.73339080810547,39.37982940673828,-5.094861030578613,-104.7197494506836,54.091880798339844,53.82542037963867,-30.900001525878906,-14.850000381469727,30.30000114440918
2.93,75.58016204833984,39.60967254638672,-6.742072105407715,-126.7029037475586,65.68299865722656,26.246553421020508,-30.750001907348633,-15.750000953674316,30.450000762939453
2.937,75.81000518798828,37.00477981567383,-9.53849983215332,-119.7748794555664,65.54976654052734,21.983154296875,-30.750001907348633,-15.750000953674316,30.450000762939453
2.947,76.99752807617188,36.69832229614258,-11.377246856689453,-120.97396087646484,73.9433364868164,7.72741174697876,-31.80000114440918,-16.200000762939453,32.70000076293945
2.957,79.79395294189453,35.395877838134766,-9.84495735168457,-113.11331939697266,88.59877014160156,-7.327718257904053,-30.450000762939453,-15.600000381469727,32.10000228881836
2.967,81.13470458984375,39.18829345703125,-9.768342971801758,-96.32618713378906,79.0061264038086,9.059723854064941,-30.150001525878906,-16.350000381469727,33.60000228881836
2.987,86.1529541015625,45.24083709716797,-8.044517517089844,-85.53445434570312,92.06278228759766,23.581928253173828,-30.450000762939453,-15.15000057220459,33.60000228881836
2.99,94.73377227783203,52.289363861083984,-8.542511940002441,-73.27718353271484,112.71363067626953,35.705970764160156,-30.900001525878906,-15.90000057220459,33.60000228881836
2.997,99.2157211303711,52.289363861083984,-14.36521053314209,-59.68759536743164,131.49923706054688,20.38437843322754,-30.900001525878906,-15.90000057220459,33.60000228881836
3.007,98.37296295166016,47.69249725341797,-19.651607513427734,-41.168453216552734,158.81163024902344,-7.460949420928955,-31.80000114440918,-16.5,35.55000305175781
3.017,97.83665466308594,37.46446990966797,-29.95625114440918,-16.520673751831055,201.31239318847656,-56.09035110473633,-29.55000114440918,-15.750000953674316,34.95000076293945
3.027,95.88298797607422,29.803022384643555,-34.51481246948242,22.915773391723633,204.50994873046875,-119.10872650146484,-29.250001907348633,-15.750000953674316,35.25
3.046,92.35872650146484,30.032865524291992,-30.301015853881836,74.47626495361328,179.4624786376953,-142.5574188232422,-30.150001525878906,-15.90000057220459,35.85000228881836
3.051,90.36675262451172,27.389667510986328,-26.355371475219727,80.47166442871094,122.43950653076172,-116.71056365966797,-28.05000114440918,-15.000000953674316,36.75
3.057,89.67721557617188,28.270732879638672,-23.252487182617188,45.298622131347656,79.40581512451172,-116.0444107055664,-28.05000114440918,-15.000000953674316,36.75
3.067,91.09458923339844,26.700138092041016,-20.570980072021484,12.790199279785156,-10.658498764038086,-49.69525146484375,-28.200000762939453,-12.90000057220459,37.95000076293945
3.077,90.59659576416016,21.183897018432617,-13.79060173034668,-37.4379768371582,-113.77947998046875,-4.529861927032471,-28.950000762939453,-12.15000057220459,36.900001525878906
3.087,87.83847045898438,17.085023880004883,-2.3750481605529785,-66.08269500732422,-209.03981018066406,5.329249382019043,-29.400001525878906,-13.200000762939453,37.95000076293945
3.107,81.78592681884766,16.089035034179688,4.098873138427734,-56.62327575683594,-281.91729736328125,22.782541275024414,-29.250001907348633,-13.050000190734863,37.5
3.11,76.92091369628906,11.990161895751953,-0.8044517636299133,-18.91883659362793,-320.95404052734375,29.7105655670166,-29.250001907348633,-13.050000190734863,37.5
3.117,71.90266418457031,9.500192642211914,-6.780379295349121,-0.7993874549865723,-314.0260314941406,37.70444107055664,-29.250001907348633,-13.050000190734863,37.5
3.127,71.02159881591797,12.181697845458984,-6.473921298980713,46.63093185424805,-312.8269348144531,40.9019889831543,-31.650001525878906,-12.90000057220459,33.900001525878906
3.137,69.64253997802734,9.730035781860352,-6.588842868804932,100.45635223388672,-317.49005126953125,45.96477508544922,-31.500001907348633,-13.050000190734863,33.45000076293945
3.147,69.75746154785156,12.756306648254395,-4.9799394607543945,137.76109313964844,-310.8284912109375,30.24349021911621,-30.900001525878906,-12.90000057220459,30.600000381469727
3.168,73.16680145263672,20.187908172607422,-2.873042106628418,156.14700317382812,-311.49462890625,35.439510345458984,-32.55000305175781,-13.050000190734863,31.200000762939453
3.171,75.9632339477539,26.393678665161133,-0.8810662031173706,173.0673828125,-334.27716064453125,63.018375396728516,-31.950000762939453,-11.700000762939453,30.30000114440918
3.177,78.989501953125,30.837318420410156,3.485957622528076,164.80703735351562,-334.6768798828125,67.14854431152344,-31.950000762939453,-11.700000762939453,30.30000114440918
3.187,79.37257385253906,29.419950485229492,2.3750481605529785,149.61868286132812,-325.4839172363281,43.56661605834961,-34.650001525878906,-12.15000057220459,27.000001907348633
3.197,83.6629867553711,25.972299575805664,1.1492167711257935,129.50076293945312,-320.6875915527344,35.17304611206055,-33.45000076293945,-12.15000057220459,27.750001907348633
3.207,86.34449005126953,21.98834800720215,-1.2258312702178955,115.11178588867188,-310.0290832519531,11.591117858886719,-33.45000076293945,-12.450000762939453,24.750001907348633
3.227,91.36273956298828,20.76251792907715,-6.01423454284668,99.92343139648438,-279.6523742675781,0.39969372749328613,-34.650001525878906,-12.450000762939453,25.200000762939453
3.23,93.2780990600586,21.643583297729492,-8.197746276855469,72.21133422851562,-241.9479217529297,-23.182235717773438,-35.25,-11.850000381469727,25.200000762939453
3.237,96.9555892944336,23.597251892089844,-8.312667846679688,64.21745300292969,-222.76263427734375,-32.24195861816406,-35.25,-11.850000381469727,23.850000381469727
3.247,97.68342590332031,27.083209991455078,-7.5848307609558105,37.97090148925781,-206.77488708496094,-35.705970764160156,-35.25,-11.850000381469727,22.350000381469727
3.257,97.41527557373047,26.278757095336914,-5.784391403198242,10.791729927062988,-185.72434997558594,-27.978559494018555,-36.0,-9.15000057220459,22.350000381469727
3.267,91.55427551269531,21.796812057495117,-4.941632270812988,53.026031494140625,-134.83001708984375,-17.852985382080078,-34.80000305175781,-8.850000381469727,20.850000381469727
3.287,80.52178955078125,20.609289169311523,-11.951854705810547,214.90199279785156,-8.926492691040039,-19.98468589782715,-35.55000305175781,-8.40000057220459,20.55000114440918
3.291,75.46524047851562,16.203956604003906,-7.891288757324219,302.16845703125,96.32618713378906,-16.25421142578125,-36.30000305175781,-9.15000057220459,19.5
3.297,72.17081451416016,15.782577514648438,7.010222434997559,242.48085021972656,113.64624786376953,-20.38437843322754,-36.30000305175781,-9.15000057220459,19.5
3.307,72.51557922363281,16.242263793945312,7.508216381072998,108.050537109375,89.7978515625,-12.390504837036133,-36.150001525878906,-9.75,19.200000762939453
3.317,72.74542236328125,13.292608261108398,2.3367409706115723,-45.298622131347656,75.8085708618164,-29.177640914916992,-35.25,-9.15000057220459,19.80000114440918
3.327,72.32404327392578,5.056553840637207,-1.4939818382263184,-193.58499145507812,38.63705825805664,-67.01531219482422,-35.25,-9.15000057220459,19.5
3.347,71.48128509521484,-1.4173674583435059,-1.2641384601593018,-275.6554260253906,-7.594180583953857,-96.19295501708984,-35.25,-9.15000057220459,19.5
3.351,70.67683410644531,-4.022258758544922,3.869029998779297,-287.3797912597656,-107.3843765258789,-109.24961853027344,-35.55000305175781,-8.40000057220459,19.05000114440918
3.357,67.53564453125,-5.1331682205200195,0.19153612852096558,-270.0597229003906,-129.50076293945312,-117.77641296386719,-35.55000305175781,-8.40000057220459,19.05000114440918
3.367,64.43275451660156,-5.171475887298584,-3.026270866394043,-223.4287872314453,-150.6845245361328,-111.38131713867188,-36.45000076293945,-7.500000476837158,19.950000762939453
3.377,60.48711013793945,-4.213795185089111,-9.921571731567383,-143.62327575683594,-146.68759155273438,-100.18988800048828,-36.30000305175781,-7.200000286102295,20.55000114440918
3.387,56.426544189453125,-0.6512228846549988,-13.713987350463867,-84.86830139160156,-115.51148223876953,-90.33078002929688,-36.0,-8.40000057220459,19.5
3.406,53.476890563964844,1.3407529592514038,-13.713987350463867,-34.50688934326172,-83.93567657470703,-97.12557220458984,-36.0,-8.40000057220459,19.5
3.41,53.40027618408203,1.6855180263519287,-7.967903137207031,32.24195861816406,-66.48238372802734,-60.48698043823242,-36.45000076293945,-7.800000190734863,17.400001525878906
3.417,50.22077560424805,6.933608055114746,-7.201758861541748,75.8085708618164,-50.62786865234375,-55.95711898803711,-36.45000076293945,-7.800000190734863,17.400001525878906
3.427,48.88002014160156,10.074800491333008,-4.63517427444458,116.57733154296875,-25.447166442871094,-39.9693717956543,-35.400001525878906,-7.500000476837158,17.700000762939453
3.437,46.083595275878906,10.649409294128418,-2.1068975925445557,134.43031311035156,-17.986217498779297,-11.457886695861816,-35.70000076293945,-6.300000190734863,18.450000762939453
3.447,43.32547378540039,10.879252433776855,-1.800439715385437,141.89126586914062,-5.995405673980713,-1.5987749099731445,-35.70000076293945,-6.300000190734863,18.450000762939453
3.468,43.01901626586914,10.15141487121582,-1.5705963373184204,118.30934143066406,6.794793128967285,1.1990811824798584,-35.70000076293945,-6.300000190734863,18.450000762939453
3.471,47.15619659423828,12.22000503540039,-2.6815059185028076,44.36600112915039,-1.1990811824798584,29.444103240966797,-35.70000076293945,-5.550000190734863,17.100000381469727
3.477,47.424346923828125,11.683704376220703,0.5363011956214905,6.9280242919921875,-9.459418296813965,33.17457962036133,-35.400001525878906,-5.850000381469727,17.400001525878906
3.487,49.531246185302734,13.330915451049805,-0.15322890877723694,-5.462480545043945,-19.584991455078125,38.50382614135742,-36.0,-6.450000286102295,18.75
3.497,55.200714111328125,19.460071563720703,-7.929595947265625,5.196018218994141,5.728943347930908,34.50688934326172,-36.75,-6.450000286102295,18.0
3.507,58.3036003112793,26.2021427154541,-14.135366439819336,1.7320060729980469,28.24502182006836,35.439510345458984,-36.75,-6.450000286102295,18.0
3.526,61.21495056152344,34.43819808959961,-21.643583297729492,-19.31852912902832,43.43338394165039,22.51607894897461,-37.20000076293945,-7.500000476837158,17.400001525878906
3.53,63.092002868652344,36.315250396728516,-28.61549949645996,-100.85604858398438,36.771820068359375,6.261868000030518,-36.30000305175781,-6.150000095367432,18.75
3.537,67.30580139160156,38.728607177734375,-40.988731384277344,-164.14088439941406,40.635528564453125,-6.661561965942383,-35.55000305175781,-7.650000095367432,18.0
3.547,70.94498443603516,38.843528747558594,-46.88804626464844,-226.49310302734375,21.84992218017578,-15.055130004882812,-35.70000076293945,-7.800000190734863,18.900001525878906
3.557,80.8282470703125,39.80120849609375,-58.99312973022461,-267.5283203125,-8.39356803894043,-34.906585693359375,-36.150001525878906,-7.050000190734863,19.650001525878906
3.567,93.69947814941406,38.537071228027344,-74.85232543945312,-227.82540893554688,-8.526799201965332,-36.771820068359375,-36.150001525878906,-7.050000190734863,19.650001525878906
3.586,106.26425170898438,39.80120849609375,-79.48749542236328,-123.37212371826172,13.856048583984375,-75.14241790771484,-35.55000305175781,-6.900000095367432,19.05000114440918
3.59,105.61302185058594,55.928550720214844,-60.02742385864258,17.986217498779297,33.30780792236328,-70.87902069091797,-34.650001525878906,-6.750000476837158,18.450000762939453
3.597,100.78631591796875,56.46485137939453,-55.35394287109375,72.87748718261719,34.50688934326172,-76.87442779541016,-34.95000076293945,-7.050000190734863,19.950000762939453
3.607,91.36273956298828,54.894256591796875,-47.922340393066406,114.97856140136719,32.37519073486328,-64.61714935302734,-37.20000076293945,-5.100000381469727,19.650001525878906
3.617,79.90887451171875,50.144161224365234,-41.41011428833008,164.67381286621094,16.78713607788086,-65.016845703125,-35.55000305175781,-4.950000286102295,19.80000114440918
3.627,68.56993865966797,43.05732345581055,-34.20835494995117,185.72434997558594,16.78713607788086,-38.77029037475586,-35.55000305175781,-4.950000286102295,19.80000114440918
3.646,59.60604476928711,36.04710006713867,-29.266721725463867,194.91729736328125,25.447166442871094,-46.63093185424805,-34.20000076293945,-5.550000190734863,19.650001525878906
3.651,53.974884033203125,28.807035446166992,-23.175872802734375,218.36599731445312,32.90811538696289,-37.70444107055664,-35.70000076293945,-3.6000001430511475,18.900001525878906
3.657,50.48892593383789,20.800825119018555,-15.629348754882812,244.34608459472656,27.84532928466797,-15.188361167907715,-35.25,-4.200000286102295,19.5
3.667,50.48892593383789,20.456058502197266,-10.611102104187012,250.20826721191406,31.176109313964844,-18.2526798248291,-36.0,-4.200000286102295,19.5
3.677,53.859962463378906,18.081010818481445,-1.9919757843017578,247.94332885742188,26.912710189819336,6.5283308029174805,-33.45000076293945,-3.1500000953674316,19.200000762939453
3.687,63.01538848876953,15.974113464355469,-1.647210717201233,210.2388916015625,17.586523056030273,36.238895416259766,-33.45000076293945,-3.1500000953674316,19.200000762939453
3.707,80.36856079101562,7.354987621307373,-10.074800491333008,113.11331939697266,42.633995056152344,30.776416778564453,-36.30000305175781,-3.0,20.55000114440918
3.71,127.33322143554688,-6.282385349273682,-35.395877838134766,-10.258805274963379,53.29249572753906,52.626338958740234,-36.150001525878906,-4.350000381469727,18.450000762939453
3.717,138.48062133789062,-9.959878921508789,-39.07337188720703,-67.5482406616211,70.07962799072266,5.8621745109558105,-34.95000076293945,-3.1500000953674316,19.200000762939453
3.727,151.46678161621094,-19.536685943603516,-48.841712951660156,-64.21745300292969,79.0061264038086,24.248085021972656,-35.25,-4.5,18.75
3.737,152.92245483398438,-23.44402313232422,-35.6257209777832,-37.70444107055664,57.15620040893555,-13.456355094909668,-35.25,-4.5,18.75
3.747,106.49409484863281,-9.117119789123535,-19.919757843017578,-75.94180297851562,33.97396469116211,4.130168437957764,-35.25,-4.5,18.75
3.763,64.81582641601562,16.35718536376953,-16.318878173828125,-100.18988800048828,3.0643184185028076,10.92496109008789,-36.150001525878906,-4.800000190734863,20.700000762939453
3.767,35.47249221801758,16.89348793029785,19.728221893310547,-91.66309356689453,-11.724349021911621,22.382848739624023,-34.80000305175781,-4.950000286102295,21.30000114440918
3.777,34.32327651977539,15.399505615234375,26.163835525512695,-35.839202880859375,-55.69065856933594,55.69065856933594,-35.400001525878906,-3.1500000953674316,22.950000762939453
3.787,40.33750915527344,13.292608261108398,32.676063537597656,52.493106842041016,-102.05513000488281,88.33231353759766,-37.5,-2.700000047683716,22.350000381469727
3.797,48.42033386230469,14.211980819702148,23.290794372558594,99.25727081298828,-99.79019927978516,127.63552856445312,-37.5,-2.700000047683716,22.350000381469727
3.807,57.95883560180664,19.574993133544922,-0.7661445140838623,77.67381286621094,-48.62940216064453,167.73812866210938,-36.45000076293945,-4.800000190734863,20.700000762939453
3.827,66.4630355834961,26.163835525512695,-14.403517723083496,42.90045928955078,4.929555892944336,215.83460998535156,-36.150001525878906,-5.550000190734863,21.450000762939453
3.831,81.70931243896484,21.26051139831543,-9.883264541625977,2.6646246910095215,45.56508255004883,210.50535583496094,-35.70000076293945,-7.050000190734863,20.700000762939453
3.837,83.93113708496094,23.13756561279297,-8.197746276855469,-30.90964698791504,67.14854431152344,188.2557373046875,-36.0,-6.900000095367432,20.850000381469727
3.847,84.2759017944336,23.712173461914062,-7.7763671875,-55.82388687133789,82.20367431640625,154.41500854492188,-35.55000305175781,-8.40000057220459,20.850000381469727
3.857,85.69326782226562,27.121517181396484,-7.6997528076171875,-66.61561584472656,86.46707153320312,115.51148223876953,-35.55000305175781,-8.40000057220459,20.850000381469727
3.867,85.88480377197266,30.68408966064453,-2.7964274883270264,-35.306278228759766,90.99693298339844,90.59724426269531,-36.30000305175781,-9.600000381469727,20.100000381469727
3.883,84.85050964355469,36.8132438659668,0.4596867263317108,47.9632453918457,77.67381286621094,67.94792938232422,-36.900001525878906,-9.75,23.25
3.887,80.63671112060547,35.31926345825195,-0.8810662031173706,77.80704498291016,78.47319793701172,59.15467071533203,-36.900001525878906,-9.75,23.25
3.897,80.40686798095703,35.89387130737305,-5.056553840637207,111.5145492553711,122.17304229736328,59.55436325073242,-36.0,-10.050000190734863,21.600000381469727
3.907,75.12047576904297,36.8515510559082,-14.326903343200684,112.18070220947266,174.26646423339844,36.10566711425781,-35.400001525878906,-9.450000762939453,21.75
3.917,67.11426544189453,35.35757064819336,-20.264522552490234,117.9096450805664,232.75497436523438,17.053598403930664,-35.400001525878906,-9.450000762939453,21.75
3.927,59.18466567993164,33.82528305053711,-20.800825119018555,125.7702865600586,289.9111633300781,-22.116384506225586,-36.150001525878906,-9.450000762939453,24.450000762939453
3.947,55.73701477050781,33.59543991088867,-17.046716690063477,89.39816284179688,331.74578857421875,-61.9525260925293,-35.25,-9.15000057220459,25.350000381469727
3.951,54.81764221191406,16.778566360473633,-12.334927558898926,30.24349021911621,342.4042663574219,-108.58345794677734,-34.20000076293945,-7.500000476837158,27.750001907348633
3.957,56.50315856933594,15.016432762145996,-10.764330863952637,8.39356803894043,332.1454772949219,-99.12403869628906,-34.20000076293945,-7.500000476837158,27.750001907348633
3.967,57.920528411865234,11.568782806396484,-24.44001007080078,61.552833557128906,345.8682861328125,-106.4517593383789,-34.20000076293945,-7.500000476837158,27.750001907348633
3.977,66.34811401367188,20.685903549194336,-12.449849128723145,101.2557373046875,283.3828430175781,-112.58039855957031,-34.80000305175781,-8.100000381469727,30.150001525878906
3.987,71.44297790527344,4.63517427444458,-2.1068975925445557,73.9433364868164,202.77793884277344,-109.38284301757812,-33.45000076293945,-6.750000476837158,30.600000381469727
4.003,79.25765228271484,11.990161895751953,-0.6129156351089478,49.42878723144531,88.33231353759766,-44.09954071044922,-33.150001525878906,-5.100000381469727,32.85000228881836
4.007,80.56009674072266,21.413740158081055,-7.929595947265625,37.17151641845703,68.61408996582031,-33.17457962036133,-33.150001525878906,-5.100000381469727,32.85000228881836
4.017,78.83627319335938,19.958065032958984,-11.492168426513672,36.238895416259766,28.511484146118164,-40.502296447753906,-34.5,-6.450000286102295,32.25
4.027,77.1890640258789,19.460071563720703,-13.943830490112305,36.5053596496582,-8.793261528015137,-55.15773391723633,-34.5,-6.450000286102295,32.25
4.037,77.7253646850586,19.80483627319336,-12.334927558898926,36.905052185058594,-47.0306282043457,-23.04900360107422,-33.30000305175781,-6.150000095367432,34.5
4.056,79.41088104248047,22.639572143554688,-6.3973069190979,34.906585693359375,-75.8085708618164,-47.830013275146484,-31.200000762939453,-5.850000381469727,33.30000305175781
4.06,79.41088104248047,24.05693817138672,-2.030282974243164,33.4410400390625,-121.50688934326172,-39.83613967895508,-33.45000076293945,-5.850000381469727,33.30000305175781
4.067,77.38059997558594,17.353174209594727,-4.558559894561768,24.381317138671875,-123.37212371826172,-65.28330993652344,-33.45000076293945,-5.850000381469727,33.30000305175781
4.077,73.54987335205078,13.943830490112305,-8.006210327148438,-11.191424369812012,-108.45022583007812,-70.47932434082031,-33.900001525878906,-6.300000190734863,32.85000228881836
4.087,72.05589294433594,12.02846908569336,-9.730035781860352,-29.84379768371582,-89.5313949584961,-73.14395141601562,-33.900001525878906,-6.300000190734863,32.85000228881836
4.097,70.6385269165039,14.09705924987793,-6.89530086517334,-52.626338958740234,-90.33078002929688,-85.4012222290039,-31.950000762939453,-5.550000190734863,31.350000381469727
4.107,69.60423278808594,16.28057098388672,-2.9879636764526367,-79.80551147460938,-77.67381286621094,-86.20060729980469,-33.0,-5.400000095367432,31.500001907348633
4.12,70.40868377685547,19.881450653076172,-2.451662540435791,-108.84992218017578,-50.09494400024414,-59.82082748413086,-33.150001525878906,-5.100000381469727,30.600000381469727
4.127,72.09420013427734,21.337125778198242,-2.451662540435791,-128.56814575195312,-33.4410400390625,-35.306278228759766,-33.150001525878906,-5.100000381469727,30.600000381469727
4.137,72.4006576538086,22.218191146850586,-0.8427590131759644,-162.27565002441406,-3.0643184185028076,-22.116384506225586,-33.150001525878906,-5.100000381469727,30.600000381469727
4.147,73.43495178222656,18.387468338012695,-0.4596867263317108,-187.05665588378906,41.434913635253906,-13.856048583984375,-33.150001525878906,-5.100000381469727,30.600000381469727
4.157,73.24341583251953,17.966089248657227,0.5746083855628967,-196.1163787841797,61.41960144042969,-37.17151641845703,-34.95000076293945,-4.800000190734863,29.850000381469727
4.177,71.05990600585938,18.579004287719727,0.689530074596405,-197.44869995117188,76.87442779541016,-27.978559494018555,-33.0,-4.5,30.450000762939453
4.18,70.6385269165039,17.62132453918457,-3.869029998779297,-181.59417724609375,110.848388671875,-26.513015747070312,-31.500001907348633,-5.700000286102295,32.25
4.187,72.20912170410156,15.820884704589844,-10.687716484069824,-174.66615295410156,125.10413360595703,-15.321592330932617,-31.500001907348633,-5.700000286102295,32.25
4.197,71.97927856445312,12.411541938781738,-14.556746482849121,-148.28636169433594,149.88514709472656,-9.192955017089844,-31.500001907348633,-5.700000286102295,32.25
4.207,70.06391906738281,10.5344877243042,-16.66364288330078,-135.22970581054688,152.41653442382812,-15.188361167907715,-30.750001907348633,-6.450000286102295,33.0
4.217,71.55789947509766,8.121131896972656,-15.705963134765625,-118.57579803466797,146.1546630859375,-8.526799201965332,-33.0,-6.450000286102295,34.95000076293945
4.227,73.6264877319336,10.994174003601074,-16.66364288330078,-114.71209716796875,118.30934143066406,17.719755172729492,-31.05000114440918,-6.900000095367432,33.75
4.24,77.8019790649414,19.306842803955078,-11.951854705810547,-121.90658569335938,61.9525260925293,47.297088623046875,-31.200000762939453,-8.700000762939453,34.650001525878906
4.247,78.989501953125,23.44402313232422,-5.056553840637207,-146.9540557861328,22.915773391723633,61.81929397583008,-31.200000762939453,-8.700000762939453,34.650001525878906
4.257,76.76768493652344,25.70414924621582,-5.592854976654053,-162.5421142578125,-22.51607894897461,78.73966217041016,-32.25,-8.100000381469727,35.55000305175781
4.267,76.11646270751953,27.657817840576172,-6.320692539215088,-174.53292846679688,-58.888206481933594,87.9326171875,-31.05000114440918,-8.850000381469727,35.55000305175781
4.277,74.92893981933594,32.599449157714844,-6.129156112670898,-186.5237274169922,-80.47166442871094,97.65850067138672,-30.900001525878906,-9.75,34.650001525878906
4.296,74.77571105957031,34.13174057006836,-4.788403511047363,-191.58651733398438,-67.814697265625,82.33690643310547,-30.450000762939453,-10.950000762939453,33.900001525878906
4.3,77.03583526611328,35.0128059387207,-4.750096321105957,-172.53445434570312,-48.8958625793457,72.0781021118164,-31.200000762939453,-10.200000762939453,35.400001525878906
4.307,78.87458038330078,35.77894973754883,-5.056553840637207,-149.21897888183594,-43.30015182495117,71.81163787841797,-31.200000762939453,-10.200000762939453,35.400001525878906
4.317,80.06210327148438,34.32327651977539,-3.141192674636841,-128.96783447265625,-15.188361167907715,55.82388687133789,-32.400001525878906,-13.200000762939453,36.150001525878906
4.327,81.28793334960938,34.591426849365234,-2.4133553504943848,-92.06278228759766,-2.398162364959717,26.113323211669922,-32.400001525878906,-13.65000057220459,34.35000228881836
4.337,81.13470458984375,32.331298828125,-2.1068975925445557,-73.67687225341797,11.857580184936523,26.113323211669922,-30.900001525878906,-13.65000057220459,33.60000228881836
4.357,81.36454772949219,33.978511810302734,-4.9799394607543945,-71.14547729492188,34.373661041259766,1.0658499002456665,-31.80000114440918,-11.850000381469727,35.55000305175781
4.361,80.36856079101562,35.54910659790039,-6.282385349273682,-51.960182189941406,41.434913635253906,23.182235717773438,-31.80000114440918,-11.850000381469727,35.55000305175781
4.367,79.52580261230469,35.16603469848633,-8.504204750061035,-47.430320739746094,51.29402542114258,7.860642910003662,-30.750001907348633,-13.500000953674316,36.0
4.377,78.26166534423828,36.008792877197266,-11.530475616455078,-42.90045928955078,72.34455871582031,-15.45482349395752,-32.55000305175781,-14.550000190734863,34.5
4.387,76.4995346069336,35.12772750854492,-16.318878173828125,-61.28636932373047,114.17916870117188,-23.715160369873047,-30.900001525878906,-13.65000057220459,35.10000228881836
4.397,75.3503189086914,31.641769409179688,-20.64759635925293,-55.95711898803711,138.42726135253906,-21.183767318725586,-33.0,-13.500000953674316,35.55000305175781
4.416,74.50755310058594,29.76471519470215,-23.75048065185547,-53.82542037963867,146.1546630859375,-22.51607894897461,-30.450000762939453,-14.100000381469727,36.900001525878906
4.42,75.31201171875,30.14778709411621,-21.14558982849121,-46.364471435546875,135.0964813232422,-15.055130004882812,-30.450000762939453,-14.100000381469727,36.900001525878906
4.427,79.0278091430664,34.55311965942383,-14.441824913024902,-38.77029037475586,125.50382232666016,-12.124042510986328,-30.150001525878906,-16.350000381469727,38.400001525878906
4.437,89.2558364868164,42.367794036865234,-13.445837020874023,-1.8652373552322388,86.46707153320312,24.64777946472168,-30.900001525878906,-13.200000762939453,37.650001525878906
4.447,102.9315185546875,55.622093200683594,-16.548721313476562,33.04134750366211,72.61102294921875,56.09035110473633,-29.250001907348633,-13.800000190734863,37.5
4.457,110.82280731201172,59.37620162963867,-22.90772247314453,54.22511291503906,86.0673828125,62.485450744628906,-30.000001907348633,-13.500000953674316,38.55000305175781
4.477,110.93772888183594,54.97087097167969,-30.26270866394043,79.9387435913086,97.12557220458984,45.16539001464844,-30.900001525878906,-14.100000381469727,38.70000076293945
4.481,106.72393798828125,46.46666717529297,-33.94020462036133,94.32771301269531,89.13169860839844,13.323123931884766,-30.900001525878906,-14.100000381469727,38.70000076293945
4.487,93.66117095947266,33.02082824707031,-33.05913543701172,103.7871322631836,75.40888214111328,-13.58958625793457,-29.250001907348633,-15.000000953674316,39.0
4.497,86.88079071044922,30.68408966064453,-27.313053131103516,128.3016815185547,15.321592330932617,-28.378253936767578,-29.700000762939453,-12.90000057220459,39.150001525878906
4.507,77.41890716552734,28.61549949645996,-18.579004287719727,151.084228515625,-75.27565002441406,-3.597243309020996,-29.700000762939453,-12.450000762939453,39.900001525878906
4.517,73.81802368164062,24.938005447387695,-11.875240325927734,149.7519073486328,-146.1546630859375,43.56661605834961,-28.80000114440918,-12.750000953674316,39.30000305175781
4.536,71.13652038574219,19.421764373779297,-10.687716484069824,128.03521728515625,-201.71209716796875,20.117916107177734,-28.80000114440918,-12.750000953674316,39.30000305175781
4.54,67.99533081054688,13.713987350463867,-7.048529624938965,73.81010437011719,-256.3369140625,17.32006072998047,-28.80000114440918,-12.750000953674316,39.30000305175781
4.547,64.96905517578125,10.879252433776855,-1.6089035272598267,46.231239318847656,-289.9111633300781,56.22358322143555,-31.200000762939453,-10.950000762939453,38.400001525878906
4.557,63.896453857421875,9.078812599182129,-1.3024457693099976,14.788667678833008,-305.09954833984375,34.773353576660156,-31.05000114440918,-10.350000381469727,38.55000305175781
4.567,62.74723815917969,9.998186111450195,-3.9456443786621094,28.511484146118164,-315.7580261230469,13.189892768859863,-32.70000076293945,-10.5,36.900001525878906
4.577,63.74322509765625,9.806650161743164,-4.098873138427734,70.87902069091797,-322.9525146484375,20.650842666625977,-33.150001525878906,-9.0,36.150001525878906
4.597,68.83808898925781,16.58702850341797,-1.455674648284912,126.30321502685547,-317.7565002441406,18.385910034179688,-33.150001525878906,-9.0,36.150001525878906
4.601,75.8866195678711,20.264522552490234,0.038307227194309235,211.70443725585938,-335.47625732421875,39.43644714355469,-34.80000305175781,-10.350000381469727,34.5
4.607,82.82022857666016,30.26270866394043,3.7924153804779053,241.14854431152344,-341.2052001953125,52.75957107543945,-35.25,-10.800000190734863,31.950000762939453
4.617,85.08035278320312,30.91393280029297,3.7158010005950928,268.59417724609375,-334.1439514160156,54.22511291503906,-37.5,-9.15000057220459,31.500001907348633
4.627,87.3404769897461,30.14778709411621,-0.9193734526634216,283.5160827636719,-307.63092041015625,40.502296447753906,-36.900001525878906,-9.450000762939453,30.30000114440918
4.637,89.8304443359375,29.419950485229492,-5.1331682205200195,282.5834655761719,-275.7886657714844,7.460949420928955,-37.5,-8.850000381469727,29.400001525878906
4.657,94.77207946777344,34.9744987487793,-7.546523571014404,266.1960144042969,-240.882080078125,5.062787055969238,-37.5,-8.850000381469727,29.400001525878906
4.661,98.6028060913086,40.260894775390625,-8.619126319885254,249.6753387451172,-185.0581817626953,22.249616622924805,-39.45000076293945,-7.800000190734863,25.80000114440918
4.667,97.18543243408203,37.88584899902344,-7.240066051483154,255.1378173828125,-154.41500854492188,11.857580184936523,-40.95000076293945,-7.500000476837158,25.80000114440918
4.677,94.00593566894531,33.557132720947266,-4.290409564971924,285.1148376464844,-114.84532928466797,9.992342948913574,-39.150001525878906,-6.300000190734863,26.250001907348633
4.687,87.18724822998047,27.619510650634766,0.26815059781074524,316.15771484375,-77.27411651611328,-33.84073257446289,-39.75,-6.150000095367432,24.600000381469727
4.697,78.10843658447266,26.355371475219727,-1.7621324062347412,331.47930908203125,-3.4640121459960938,-45.69831466674805,-40.05000305175781,-6.150000095367432,24.600000381469727
4.717,70.79175567626953,30.032865524291992,-4.9799394607543945,355.7274169921875,62.75191116333008,-42.500762939453125,-40.05000305175781,-6.150000095367432,24.600000381469727
4.721,63.93476104736328,35.93217849731445,-4.175487995147705,253.2725830078125,102.58805084228516,-25.18070411682129,-38.55000305175781,-4.200000286102295,23.100000381469727
4.727,65.65858459472656,27.044902801513672,1.7621324062347412,162.94180297851562,97.92495727539062,-39.16998291015625,-38.55000305175781,-4.200000286102295,23.100000381469727
4.737,61.5980224609375,23.788787841796875,-0.9576807022094727,13.056661605834961,87.0,-57.55589294433594,-39.900001525878906,-4.050000190734863,23.25
4.747,61.29156494140625,18.962078094482422,-1.3024457693099976,-91.3966293334961,73.41041564941406,-99.52373504638672,-39.150001525878906,-5.550000190734863,24.0
4.757,63.436767578125,15.284584045410156,1.5322890281677246,-170.26951599121094,44.23276901245117,-124.30474090576172,-39.900001525878906,-4.050000190734863,23.25
4.777,65.46704864501953,16.970102310180664,3.907337188720703,-253.93873596191406,26.246553421020508,-144.02296447753906,-39.900001525878906,-4.050000190734863,23.25
4.78,68.64655303955078,16.433799743652344,3.2561142444610596,-289.37823486328125,-1.8652373552322388,-170.66921997070312,-38.400001525878906,-1.6500000953674316,25.500001907348633
4.787,68.761474609375,19.115306854248047,3.332728862762451,-272.9908142089844,-15.721285820007324,-173.73353576660156,-38.400001525878906,-1.6500000953674316,25.500001907348633
4.797,68.60824584960938,21.605276107788086,0.727837324142456,-220.36447143554688,-10.258805274963379,-191.8529815673828,-38.25,-2.25,25.350000381469727
4.807,68.91470336914062,23.405715942382812,-3.5242648124694824,-125.23736572265625,-7.460949420928955,-219.56507873535156,-37.95000076293945,-0.9000000357627869,25.200000762939453
4.817,66.4630355834961,28.462270736694336,-5.286397457122803,-10.125574111938477,2.2649309635162354,-209.83920288085938,-37.95000076293945,-0.9000000357627869,25.200000762939453
4.837,63.66661071777344,32.905906677246094,-4.9799394607543945,91.66309356689453,15.188361167907715,-212.77027893066406,-37.95000076293945,-0.9000000357627869,25.200000762939453
4.841,62.40247344970703,31.028854370117188,-4.137180328369141,218.89892578125,15.854516983032227,-182.6600341796875,-37.650001525878906,1.350000023841858,24.0
4.847,61.329872131347656,27.006595611572266,-4.558559894561768,269.52679443359375,24.914241790771484,-182.92648315429688,-37.650001525878906,1.350000023841858,24.0
4.857,58.61005783081055,22.103269577026367,-5.2480902671813965,332.67840576171875,29.044410705566406,-156.28024291992188,-38.400001525878906,3.6000001430511475,25.200000762939453
4.867,55.73701477050781,17.31486701965332,-4.481945514678955,353.595703125,48.49617004394531,-153.48239135742188,-36.0,5.400000095367432,24.900001525878906
4.877,53.208740234375,13.10107135772705,-4.252102375030518,348.0,63.950992584228516,-129.10107421875,-36.0,5.400000095367432,24.900001525878906
4.897,50.757076263427734,10.113107681274414,-2.75812029838562,319.8882141113281,70.74578857421875,-124.30474090576172,-36.0,5.400000095367432,24.900001525878906
4.9,49.49293899536133,7.2783732414245605,-0.689530074596405,264.9969177246094,77.54058074951172,-98.19142150878906,-35.70000076293945,8.700000762939453,23.700000762939453
4.907,50.5655403137207,5.324704647064209,4.022258758544922,249.40887451171875,74.34303283691406,-92.46247863769531,-35.70000076293945,8.700000762939453,23.700000762939453
4.917,53.8216552734375,7.163451671600342,3.9456443786621094,219.83154296875,67.68146514892578,-77.67381286621094,-34.80000305175781,10.350000381469727,24.0
4.927,57.38422775268555,9.385271072387695,0.3064578175544739,184.92495727539062,75.27565002441406,-50.76110076904297,-34.80000305175781,10.350000381469727,22.80000114440918
4.937,60.065731048583984,12.02846908569336,-5.51624059677124,127.76875305175781,98.85757446289062,-64.48391723632812,-34.80000305175781,10.350000381469727,22.80000114440918
4.956,64.66259765625,13.905523300170898,-12.947842597961426,76.74119567871094,120.17457580566406,-33.97396469116211,-35.400001525878906,10.200000762939453,22.950000762939453
4.96,67.88040924072266,17.391481399536133,-19.153614044189453,-3.4640121459960938,145.88819885253906,-37.57120895385742,-35.25,11.850000381469727,21.600000381469727
4.967,73.7031021118164,20.64759635925293,-25.39769172668457,-67.41500854492188,152.1500701904297,-48.362937927246094,-34.650001525878906,11.40000057220459,24.0
4.977,77.1890640258789,21.75850486755371,-29.266721725463867,-144.2894287109375,148.8192901611328,-35.839202880859375,-33.45000076293945,10.200000762939453,24.750001907348633
4.987,84.314208984375,26.929981231689453,-38.843528747558594,-190.65390014648438,136.82847595214844,-36.238895416259766,-33.45000076293945,10.200000762939453,24.750001907348633
4.997,88.94937896728516,34.284969329833984,-45.04929733276367,-205.30934143066406,132.9647674560547,-38.90352249145508,-33.150001525878906,11.700000762939453,25.200000762939453
5.017,89.8304443359375,45.20252990722656,-43.63193130493164,-170.8024444580078,124.03828430175781,-47.297088623046875,-32.55000305175781,12.300000190734863,27.900001525878906
5.02,88.45138549804688,55.73701477050781,-36.008792877197266,-45.56508255004883,95.26033782958984,-30.643184661865234,-32.55000305175781,10.800000190734863,28.650001525878906
5.027,81.86254119873047,67.22918701171875,-28.232425689697266,10.392036437988281,69.28024291992188,-45.16539001464844,-31.650001525878906,10.200000762939453,28.05000114440918
5.037,79.75564575195312,71.8643569946289,-27.389667510986328,83.26952362060547,67.68146514892578,-54.091880798339844,-33.30000305175781,11.850000381469727,27.450000762939453
5.147,52.97889709472656,11.41555404663086,9.078812599182129,349.5987548828125,92.19601440429688,-18.78560447692871,-28.500001907348633,18.900001525878906,23.100000381469727
5.157,61.138336181640625,13.177685737609863,15.284584045410156,375.3124084472656,39.16998291015625,27.17917251586914,-28.200000762939453,19.05000114440918,23.25
5.167,82.0157699584961,11.1474027633667,17.468095779418945,366.252685546875,6.661561965942383,42.36753463745117,-28.200000762939453,19.05000114440918,23.25
5.177,109.21390533447266,9.423578262329102,7.738059997558594,304.96630859375,12.790199279785156,62.485450744628906,-28.500001907348633,21.150001525878906,22.80000114440918
5.197,131.8534698486328,7.393294811248779,-17.62132453918457,186.5237274169922,107.51760864257812,71.94486999511719,-27.900001525878906,20.55000114440918,20.700000762939453
5.2,137.29310607910156,-4.520252704620361,-69.91069030761719,-27.578866958618164,268.59417724609375,11.724349021911621,-27.750001907348633,18.900001525878906,21.30000114440918
5.207,98.98587799072266,5.784391403198242,-42.980709075927734,-116.84379577636719,266.9953918457031,-9.326186180114746,-28.500001907348633,20.100000381469727,22.05000114440918
5.217,85.69326782226562,5.2480902671813965,-32.676063537597656,-173.86676025390625,183.7258758544922,-16.520673751831055,-28.05000114440918,20.850000381469727,22.05000114440918
5.227,73.39664459228516,6.665457725524902,-23.482330322265625,-154.28176879882812,59.4211311340332,-20.517610549926758,-28.05000114440918,20.850000381469727,22.05000114440918
5.237,62.2109375,9.308655738830566,10.649409294128418,-87.13323211669922,-30.110260009765625,-16.12097930908203,-28.200000762939453,19.05000114440918,22.5
5.256,59.83588790893555,10.41956615447998,20.609289169311523,39.70290756225586,-94.59417724609375,12.523736000061035,-27.150001525878906,18.30000114440918,24.450000762939453
5.26,68.83808898925781,13.292608261108398,6.473921298980713,220.49769592285156,-112.18070220947266,39.83613967895508,-26.250001907348633,20.100000381469727,22.80000114440918
5.267,69.87238311767578,14.786589622497559,0.5363011956214905,326.4165344238281,-113.24655151367188,83.00305938720703,-28.80000114440918,19.650001525878906,22.350000381469727
5.277,70.40868377685547,17.161638259887695,-3.9456443786621094,431.13629150390625,-88.46553802490234,114.44563293457031,-28.80000114440918,19.650001525878906,22.350000381469727
5.287,70.44699096679688,18.808849334716797,-1.1875240802764893,519.3353881835938,-84.33537292480469,132.0321502685547,-28.80000114440918,19.650001525878906,22.350000381469727
5.297,67.07595825195312,23.252487182617188,2.6431987285614014,569.69677734375,-92.86217498779297,159.21133422851562,-27.900001525878906,19.80000114440918,18.450000762939453
5.317,67.11426544189453,28.692113876342773,1.3407529592514038,555.4410400390625,-72.87748718261719,157.0796356201172,-29.400001525878906,19.5,17.100000381469727
5.32,68.49332427978516,33.94020462036133,-1.0342950820922852,534.2572631835938,-56.62327575683594,185.72434997558594,-28.80000114440918,18.900001525878906,15.450000762939453
5.327,73.28172302246094,29.84132957458496,-2.2601263523101807,539.320068359375,-39.43644714355469,155.88055419921875,-27.150001525878906,18.75,14.100000381469727
5.337,75.77169799804688,30.99054718017578,-4.175487995147705,546.248046875,-14.255742073059082,131.7657012939453,-27.150001525878906,18.75,14.100000381469727
5.347,80.75163269042969,37.311241149902344,-8.197746276855469,577.4241943359375,36.771820068359375,107.51760864257812,-27.150001525878906,18.75,14.100000381469727
5.357,84.46743774414062,41.79318618774414,-13.292608261108398,639.1102294921875,81.53751373291016,46.63093185424805,-30.30000114440918,16.200000762939453,9.450000762939453
5.377,83.50975799560547,37.42616271972656,-16.58702850341797,681.6110229492188,139.89280700683594,-27.71209716796875,-29.700000762939453,15.600000381469727,6.300000190734863
5.38,68.56993865966797,45.04929733276367,-19.919757843017578,686.5405883789062,198.38131713867188,-148.4196014404297,-29.700000762939453,15.600000381469727,6.300000190734863
5.387,64.73921203613281,46.12190246582031,-20.30282974243164,663.22509765625,275.6554260253906,-103.92036437988281,-29.250001907348633,16.5,6.150000095367432
5.397,58.49513626098633,47.69249725341797,-21.14558982849121,619.5252685546875,339.6064147949219,-224.49462890625,-29.250001907348633,16.5,6.150000095367432
5.407,53.247047424316406,52.05952072143555,-25.359384536743164,577.690673828125,381.7074890136719,-165.60643005371094,-29.250001907348633,17.400001525878906,3.6000001430511475
5.417,51.369991302490234,51.063533782958984,-28.53888511657715,470.43951416015625,399.29400634765625,-153.7488555908203,-30.000001907348633,16.950000762939453,3.6000001430511475
5.436,55.23902130126953,45.93036651611328,-23.175872802734375,418.2128601074219,363.8545227050781,-195.84991455078125,-28.500001907348633,17.400001525878906,3.9000000953674316
5.44,66.76950073242188,17.085023880004883,-14.480132102966309,480.1653747558594,283.5160827636719,-252.60643005371094,-27.900001525878906,16.350000381469727,6.300000190734863
5.55,79.18103790283203,26.776752471923828,2.3367409706115723,-236.88514709472656,1.8652373552322388,14.92189884185791,-21.900001525878906,17.850000381469727,-4.5
5.557,75.19709014892578,23.13756561279297,-0.4213795065879822,-222.09646606445312,19.31852912902832,-44.09954071044922,-21.900001525878906,17.850000381469727,-4.5
5.567,72.82203674316406,19.268535614013672,-2.911349296569824,-204.11026000976562,18.385910034179688,-86.46707153320312,-21.900001525878906,17.850000381469727,-4.200000286102295
5.577,71.36636352539062,21.490354537963867,-9.615114212036133,-168.40428161621094,87.0,-81.93721008300781,-21.900001525878906,17.850000381469727,-4.200000286102295
5.587,73.35833740234375,23.82709503173828,-10.342951774597168,-146.28790283203125,103.12097930908203,-125.90351867675781,-22.80000114440918,19.200000762939453,-3.9000000953674316
5.597,73.664794921875,15.935806274414062,-5.861005783081055,-111.781005859375,120.97396087646484,-139.35987854003906,-24.0,18.900001525878906,-1.350000023841858
5.616,74.6607894897461,15.897499084472656,-7.623138427734375,-99.3905029296875,154.6814727783203,-179.0627899169922,-21.900001525878906,20.25,-0.9000000357627869
5.619,73.28172302246094,16.433799743652344,0.689530074596405,-110.18223571777344,191.8529815673828,-87.66615295410156,-22.5,21.150001525878906,-0.30000001192092896
5.627,74.16278839111328,18.195932388305664,1.2641384601593018,-100.72281646728516,188.2557373046875,-70.87902069091797,-22.5,21.150001525878906,-0.30000001192092896
5.637,76.84429931640625,12.258312225341797,4.367023944854736,-98.19142150878906,159.74424743652344,-68.74732208251953,-22.5,21.150001525878906,-0.30000001192092896
5.647,77.8019790649414,11.492168426513672,2.7964274883270264,-101.78866577148438,153.61561584472656,-54.091880798339844,-22.650001525878906,20.55000114440918,0.9000000357627869
5.666,77.22737121582031,10.113107681274414,0.2298433631658554,-69.81317138671875,140.42572021484375,-29.84379768371582,-20.700000762939453,22.350000381469727,0.30000001192092896
5.67,79.79395294189453,8.695740699768066,-5.20978307723999,-41.434913635253906,136.0290985107422,-19.31852912902832,-21.150001525878906,22.200000762939453,2.700000047683716
5.677,78.4148941040039,10.649409294128418,-12.29662036895752,-37.57120895385742,134.5635528564453,-37.70444107055664,-21.900001525878906,21.0,2.700000047683716
5.687,79.25765228271484,9.27034854888916,-14.633360862731934,-24.51454734802246,131.7657012939453,-16.920366287231445,-21.900001525878906,21.0,2.700000047683716
5.697,80.75163269042969,9.002198219299316,-16.778566360473633,-23.182235717773438,141.4915771484375,-2.2649309635162354,-21.450000762939453,21.75,3.750000238418579
5.707,80.48348236083984,13.599065780639648,-15.974113464355469,-11.724349021911621,110.71515655517578,32.37519073486328,-19.950000762939453,22.200000762939453,3.450000047683716
5.717,80.2536392211914,17.085023880004883,-11.798625946044922,-8.526799201965332,91.3966293334961,45.56508255004883,-21.150001525878906,20.55000114440918,4.5
5.736,78.18505096435547,22.17988395690918,-11.185709953308105,-19.185298919677734,16.12097930908203,106.05206298828125,-22.80000114440918,21.900001525878906,4.650000095367432
5.74,76.11646270751953,27.734432220458984,-8.772355079650879,-26.246553421020508,12.923430442810059,104.32006072998047,-22.80000114440918,21.900001525878906,4.650000095367432
5.747,75.84831237792969,28.347347259521484,-8.236053466796875,-41.30168533325195,-7.06125545501709,110.18223571777344,-22.80000114440918,21.900001525878906,4.650000095367432
5.757,75.54185485839844,29.879636764526367,-7.6997528076171875,-59.15467071533203,-7.860642910003662,101.52220153808594,-21.150001525878906,20.55000114440918,4.200000286102295
5.767,73.93294525146484,30.722396850585938,-7.2783732414245605,-58.4885139465332,-10.92496109008789,96.99234008789062,-21.150001525878906,20.25,4.200000286102295
5.777,75.08216857910156,32.86759948730469,-8.542511940002441,-43.69984436035156,-0.6661561727523804,73.9433364868164,-22.05000114440918,18.900001525878906,3.6000001430511475
5.793,76.11646270751953,35.6257209777832,-8.121131896972656,-9.992342948913574,28.511484146118164,49.16232681274414,-22.650001525878906,21.450000762939453,4.950000286102295
5.797,77.26567840576172,38.613685607910156,-11.109095573425293,5.062787055969238,38.63705825805664,48.76263427734375,-22.650001525878906,21.450000762939453,4.950000286102295
5.807,75.65677642822266,37.809234619140625,-12.02846908569336,29.177640914916992,68.34762573242188,29.177640914916992,-21.900001525878906,20.25,4.5
5.817,75.08216857910156,37.502777099609375,-15.399505615234375,46.231239318847656,90.59724426269531,11.191424369812012,-22.650001525878906,19.5,6.0
5.827,73.58818054199219,38.920143127441406,-14.480132102966309,49.02909469604492,102.72128295898438,7.9938740730285645,-22.05000114440918,20.100000381469727,6.150000095367432
5.837,75.00555419921875,41.10365295410156,-14.211980819702148,65.016845703125,95.39356231689453,11.990811347961426,-23.400001525878906,18.75,5.25
5.85,80.13871765136719,43.93838882446289,-16.28057098388672,79.80551147460938,99.52373504638672,25.980091094970703,-22.200000762939453,17.850000381469727,5.25
5.857,93.8910140991211,52.4042854309082,-18.579004287719727,91.92955017089844,97.92495727539062,29.84379768371582,-22.200000762939453,17.850000381469727,5.25
5.867,100.05847930908203,58.61005783081055,-15.399505615234375,124.8376693725586,91.3966293334961,59.4211311340332,-23.700000762939453,17.100000381469727,4.5
5.877,104.61703491210938,61.48310089111328,-14.709975242614746,154.14854431152344,69.28024291992188,58.888206481933594,-22.950000762939453,18.75,4.950000286102295
5.887,105.99610137939453,56.08177947998047,-22.103269577026367,156.5467071533203,93.92802429199219,22.116384506225586,-23.25,16.950000762939453,6.600000381469727
5.897,102.08876037597656,45.24083709716797,-29.53487205505371,169.33689880371094,99.25727081298828,-9.859111785888672,-21.900001525878906,17.100000381469727,5.700000286102295
5.916,94.08255004882812,38.57537841796875,-29.419950485229492,220.23123168945312,93.79479217529297,-66.74884796142578,-24.450000762939453,16.80000114440918,6.0
5.919,79.18103790283203,22.83110809326172,-31.450233459472656,239.016845703125,89.26493072509766,-73.27718353271484,-24.450000762939453,16.80000114440918,6.0
5.927,78.68304443359375,22.524648666381836,-32.40791320800781,251.67381286621094,64.21745300292969,-70.87902069091797,-23.55000114440918,16.950000762939453,5.400000095367432
5.937,80.06210327148438,20.800825119018555,-29.95625114440918,268.9938659667969,25.980091094970703,-44.89892578125,-23.25,17.700000762939453,3.9000000953674316
5.947,85.00373840332031,19.843143463134766,-25.742456436157227,249.00918579101562,-10.791729927062988,-28.644716262817383,-22.80000114440918,16.5,3.9000000953674316
5.966,91.55427551269531,16.58702850341797,-17.774553298950195,211.30474853515625,-63.81776428222656,31.842266082763672,-22.05000114440918,16.200000762939453,4.650000095367432
5.97,91.70750427246094,14.36521053314209,-13.407529830932617,174.79937744140625,-147.75344848632812,91.66309356689453,-22.05000114440918,16.200000762939453,4.650000095367432
5.977,84.39082336425781,12.717999458312988,-10.917559623718262,174.39968872070312,-194.2511444091797,125.50382232666016,-22.200000762939453,16.80000114440918,1.2000000476837158
5.987,78.68304443359375,9.998186111450195,-13.369222640991211,187.05665588378906,-223.82847595214844,141.4915771484375,-21.30000114440918,15.450000762939453,1.350000023841858
5.997,71.94097137451172,9.691728591918945,-18.923770904541016,228.75804138183594,-228.89126586914062,155.21438598632812,-22.80000114440918,16.200000762939453,1.8000000715255737
6.007,70.6002197265625,10.84094524383545,-23.252487182617188,290.57733154296875,-239.68299865722656,172.00152587890625,-22.80000114440918,15.000000953674316,0.30000001192092896
6.017,70.86837005615234,14.556746482849121,-25.167848587036133,337.7411804199219,-232.35528564453125,171.46859741210938,-21.450000762939453,13.200000762939453,-0.9000000357627869
6.036,71.8643569946289,23.673866271972656,-25.052927017211914,382.107177734375,-230.09034729003906,175.33230590820312,-22.05000114440918,11.100000381469727,-3.6000001430511475
6.039,75.50354766845703,35.97048568725586,-16.127342224121094,380.241943359375,-244.612548828125,176.53138732910156,-22.05000114440918,11.100000381469727,-3.6000001430511475
6.047,76.15476989746094,39.91613006591797,-14.326903343200684,382.50689697265625,-258.7350769042969,176.9310760498047,-22.650001525878906,10.5,-4.950000286102295
6.057,75.69508361816406,43.55531692504883,-10.611102104187012,384.9050598144531,-282.7166748046875,188.92189025878906,-21.75,10.050000190734863,-6.600000381469727
6.067,74.89063262939453,46.27513122558594,-5.784391403198242,367.71820068359375,-301.9019775390625,168.27105712890625,-21.450000762939453,9.450000762939453,-6.750000476837158
6.086,74.20109558105469,48.26710510253906,-2.9879636764526367,371.71514892578125,-318.42266845703125,162.1424102783203,-21.75,8.100000381469727,-7.950000286102295
6.09,70.98329162597656,48.07556915283203,-2.873042106628418,376.64471435546875,-325.6171569824219,130.1669158935547,-21.75,8.100000381469727,-7.950000286102295
6.097,70.5619125366211,45.85375213623047,-1.9153614044189453,365.18682861328125,-310.42877197265625,107.65084075927734,-20.400001525878906,6.750000476837158,-10.800000190734863
6.107,71.2514419555664,43.05732345581055,-3.5625722408294678,366.6523742675781,-283.78253173828125,44.63246536254883,-20.25,4.5,-12.0
6.117,73.74140930175781,42.980709075927734,-6.01423454284668,381.7074890136719,-260.0673828125,-9.859111785888672,-21.30000114440918,3.450000047683716,-13.500000953674316
6.127,75.58016204833984,44.55130386352539,-10.113107681274414,398.8943176269531,-202.24502563476562,-34.373661041259766,-21.150001525878906,2.4000000953674316,-12.600000381469727
6.137,77.68705749511719,47.99895477294922,-16.931795120239258,389.8345947265625,-142.15773010253906,-78.73966217041016,-21.150001525878906,2.4000000953674316,-12.600000381469727
6.247,79.52580261230469,19.881450653076172,-5.2480902671813965,-16.25421142578125,-64.21745300292969,-269.9264831542969,-19.5,5.400000095367432,-16.05000114440918
6.267,75.38862609863281,23.44402313232422,-10.802638053894043,101.38896942138672,-25.7136287689209,-288.0459289550781,-19.5,5.400000095367432,-16.05000114440918
6.27,71.44297790527344,31.258697509765625,-12.832921028137207,210.37213134765625,30.90964698791504,-272.59112548828125,-17.400001525878906,7.050000190734863,-14.850000381469727
6.277,68.1485595703125,34.3998908996582,-4.520252704620361,256.3369140625,34.906585693359375,-273.3905029296875,-17.400001525878906,7.050000190734863,-14.850000381469727
6.287,68.1102523803711,35.47249221801758,-2.3750481605529785,304.03369140625,49.02909469604492,-255.67074584960938,-15.90000057220459,6.300000190734863,-15.600000381469727
6.297,66.9610366821289,36.2386360168457,-2.5282769203186035,343.6033630371094,56.22358322143555,-237.41806030273438,-18.0,5.700000286102295,-16.05000114440918
6.307,68.37840270996094,34.591426849365234,-0.8810662031173706,353.46246337890625,69.01377868652344,-239.68299865722656,-17.55000114440918,6.150000095367432,-15.450000762939453
6.326,73.0135726928711,29.22841453552246,5.094861030578613,373.58038330078125,59.68759536743164,-209.70596313476562,-17.55000114440918,6.150000095367432,-15.450000762939453
6.33,76.5761489868164,21.950040817260742,6.627150535583496,383.5727233886719,59.4211311340332,-212.5038299560547,-16.05000114440918,4.5,-16.80000114440918
6.337,79.14273071289062,11.760318756103516,9.576807022094727,396.76263427734375,57.289432525634766,-195.84991455078125,-16.05000114440918,4.5,-16.80000114440918
6.347,76.5761489868164,6.627150535583496,9.193734169006348,416.88055419921875,47.830013275146484,-191.32005310058594,-16.650001525878906,5.850000381469727,-17.400001525878906
6.357,71.51959228515625,2.6431987285614014,9.308655738830566,422.8759460449219,48.8958625793457,-176.9310760498047,-15.90000057220459,3.1500000953674316,-17.400001525878906
6.367,67.53564453125,-3.44765043258667,12.29662036895752,402.6247863769531,53.82542037963867,-200.37977600097656,-15.90000057220459,3.1500000953674316,-17.400001525878906
6.387,63.475074768066406,-7.393294811248779,12.373234748840332,388.5022888183594,39.70290756225586,-184.25880432128906,-15.450000762939453,3.6000001430511475,-18.150001525878906
6.39,61.21495056152344,-8.044517517089844,10.649409294128418,333.8774719238281,35.839202880859375,-155.08116149902344,-15.300000190734863,2.700000047683716,-19.05000114440918
6.397,59.452816009521484,-8.389283180236816,8.35097599029541,308.9632263183594,29.84379768371582,-138.2940216064453,-15.300000190734863,2.700000047683716,-19.05000114440918
6.407,57.7289924621582,-8.159439086914062,4.520252704620361,262.4655456542969,60.35375213623047,-143.88973999023438,-15.300000190734863,2.700000047683716,-21.30000114440918
6.417,59.87419509887695,-8.159439086914062,1.2258312702178955,227.42572021484375,75.27565002441406,-117.11026000976562,-15.300000190734863,2.700000047683716,-21.30000114440918
6.427,62.172630310058594,-6.205770969390869,-0.8810662031173706,186.5237274169922,101.2557373046875,-93.79479217529297,-15.300000190734863,2.700000047683716,-21.30000114440918
6.447,63.05369567871094,-7.929595947265625,-5.822698593139648,124.8376693725586,138.2940216064453,-114.57886505126953,-15.000000953674316,1.8000000715255737,-20.100000381469727
6.451,66.4630355834961,-12.334927558898926,-14.326903343200684,36.5053596496582,163.34149169921875,-110.04900360107422,-15.90000057220459,0.9000000357627869,-19.200000762939453
6.457,71.44297790527344,-13.943830490112305,-24.44001007080078,2.2649309635162354,167.87135314941406,-104.45329284667969,-16.80000114440918,1.5,-18.30000114440918
6.467,74.04786682128906,-8.504204750061035,-27.313053131103516,-58.222049713134766,167.73812866210938,-62.21898651123047,-16.950000762939453,0.9000000357627869,-18.150001525878906
6.477,78.29997253417969,2.030282974243164,-30.0711727142334,-131.49923706054688,144.68911743164062,-24.381317138671875,-16.950000762939453,0.9000000357627869,-18.150001525878906
6.487,80.8282470703125,22.2948055267334,-30.032865524291992,-210.63858032226562,98.32465362548828,33.70750427246094,-19.80000114440918,0.75,-18.75
6.507,81.21131896972656,41.5250358581543,-33.02082824707031,-262.73199462890625,83.40275573730469,77.00765228271484,-18.0,2.25,-19.05000114440918
6.51,80.52178955078125,58.839900970458984,-38.38384246826172,-325.4839172363281,99.25727081298828,14.92189884185791,-17.25,2.700000047683716,-17.25
6.517,74.00955963134766,84.65897369384766,-41.67826461791992,-355.1944885253906,110.71515655517578,-25.18070411682129,-18.30000114440918,3.450000047683716,-16.80000114440918
6.527,76.11646270751953,99.79032897949219,-40.41412353515625,-382.6401062011719,95.26033782958984,-93.39509582519531,-18.30000114440918,3.450000047683716,-16.80000114440918
6.537,78.03182220458984,108.9074478149414,-36.928165435791016,-391.03369140625,92.59571075439453,-119.24195861816406,-18.30000114440918,3.450000047683716,-16.80000114440918
6.547,80.02379608154297,105.99610137939453,-39.37982940673828,-375.0459289550781,66.48238372802734,-112.31393432617188,-19.200000762939453,6.300000190734863,-14.850000381469727
6.567,85.38681030273438,90.63490295410156,-46.926353454589844,-321.0872802734375,62.8851432800293,-101.9218978881836,-17.700000762939453,5.850000381469727,-13.350000381469727
6.571,91.05628204345703,75.12047576904297,-52.63412857055664,-164.4073486328125,81.93721008300781,-108.050537109375,-18.150001525878906,8.700000762939453,-13.050000190734863
6.577,85.34850311279297,61.253257751464844,-54.54949188232422,-52.89280319213867,87.39968872070312,-101.9218978881836,-17.700000762939453,8.25,-11.550000190734863
6.587,77.1507568359375,60.02742385864258,-47.232810974121094,141.35833740234375,69.4134750366211,-84.73506927490234,-17.700000762939453,8.25,-11.550000190734863
6.597,61.71294403076172,54.281341552734375,-23.290794372558594,326.6829833984375,29.177640914916992,-54.62480926513672,-19.200000762939453,10.200000762939453,-13.050000190734863
6.607,63.51338195800781,45.20252990722656,-4.290409564971924,459.781005859375,-11.324655532836914,-44.36600112915039,-19.05000114440918,9.15000057220459,-12.750000953674316
6.627,83.7012939453125,31.22039031982422,4.558559894561768,613.3966064453125,-42.23430252075195,10.525267601013184,-18.450000762939453,8.25,-13.050000190734863
6.631,103.69766235351562,18.579004287719727,8.389283180236816,685.4747314453125,-16.387441635131836,-36.5053596496582,-19.200000762939453,8.25,-14.100000381469727
6.637,104.50211334228516,5.746084213256836,2.604891538619995,691.4700927734375,0.2664624750614166,-12.390504837036133,-17.700000762939453,7.800000190734863,-14.850000381469727
6.647,96.3809814453125,-2.451662540435791,-1.1492167711257935,657.3629150390625,47.696781158447266,-10.258805274963379,-17.700000762939453,7.800000190734863,-14.850000381469727
6.657,77.03583526611328,-10.228029251098633,-1.6089035272598267,546.5145263671875,69.28024291992188,-12.25727367401123,-19.200000762939453,4.050000190734863,-17.100000381469727
6.667,61.82786560058594,-22.333112716674805,-3.9839515686035156,390.7672119140625,82.47013854980469,-9.992342948913574,-18.900001525878906,2.4000000953674316,-16.350000381469727
6.687,51.71475601196289,-22.946029663085938,-3.332728862762451,198.51454162597656,62.485450744628906,-50.76110076904297,-19.5,3.0,-18.0
6.691,47.845726013183594,-19.80483627319336,5.4013190269470215,48.362937927246094,3.9969370365142822,-21.183767318725586,-18.75,0.75,-18.75
6.697,51.63814163208008,-4.596867084503174,14.97812557220459,7.194486618041992,-13.989279747009277,-10.258805274963379,-18.75,0.75,-18.75
6.707,58.533443450927734,-0.9193734526634216,13.560758590698242,-33.97396469116211,-14.522205352783203,49.96171569824219,-18.75,0.75,-18.75
6.717,67.42072296142578,5.592854976654053,11.03248119354248,-23.04900360107422,-18.119447708129883,75.14241790771484,-19.80000114440918,1.5,-18.0
6.727,79.29595947265625,7.546523571014404,13.982137680053711,26.912710189819336,-31.975496292114258,120.30780792236328,-19.200000762939453,2.1000001430511475,-17.700000762939453
6.747,84.3525161743164,13.10107135772705,14.901511192321777,90.4640121459961,-38.50382614135742,164.80703735351562,-20.400001525878906,2.1000001430511475,-18.900001525878906
6.751,84.65897369384766,11.568782806396484,15.322891235351562,156.28024291992188,-22.782541275024414,174.9326171875,-19.200000762939453,2.4000000953674316,-18.150001525878906
6.757,85.5783462524414,15.591041564941406,7.5848307609558105,163.20826721191406,-12.656967163085938,177.33078002929688,-19.200000762939453,2.4000000953674316,-18.150001525878906
6.767,87.11063385009766,14.824896812438965,3.907337188720703,193.7182159423828,3.597243309020996,154.14854431152344,-19.80000114440918,-1.5,-18.30000114440918
6.777,87.18724822998047,13.560758590698242,-4.6734819412231445,167.73812866210938,67.5482406616211,130.96630859375,-19.650001525878906,-1.350000023841858,-18.900001525878906
6.787,85.65496063232422,14.288596153259277,-18.502389907836914,140.95864868164062,151.6171417236328,71.81163787841797,-20.400001525878906,-3.1500000953674316,-19.200000762939453
6.808,84.12267303466797,23.75048065185547,-29.496564865112305,109.24961853027344,188.78866577148438,35.705970764160156,-19.05000114440918,-2.700000047683716,-18.30000114440918
6.812,82.4754638671875,34.20835494995117,-31.794998168945312,60.88667678833008,281.5176086425781,61.28636932373047,-20.55000114440918,-1.8000000715255737,-19.5
6.817,70.6002197265625,31.948226928710938,-24.24847412109375,58.62174606323242,287.9126892089844,56.889739990234375,-20.55000114440918,-1.8000000715255737,-19.5
6.827,66.34811401367188,24.554933547973633,-16.548721313476562,56.09035110473633,269.2603454589844,-3.4640121459960938,-22.950000762939453,-5.100000381469727,-17.700000762939453
6.837,63.85814666748047,13.177685737609863,-9.078812599182129,72.21133422851562,232.35528564453125,-32.108726501464844,-23.700000762939453,-2.4000000953674316,-16.650001525878906
6.847,63.24523162841797,10.5344877243042,-9.53849983215332,67.14854431152344,216.50076293945312,-68.4808578491211,-24.750001907348633,-2.700000047683716,-15.000000953674316
6.866,65.69689178466797,11.760318756103516,-16.012420654296875,69.67993927001953,211.83766174316406,-103.52066802978516,-25.80000114440918,-3.0,-15.750000953674316
6.87,71.55789947509766,12.258312225341797,-19.919757843017578,88.33231353759766,207.70750427246094,-87.0,-26.700000762939453,-0.45000001788139343,-14.100000381469727
6.877,79.10442352294922,15.131354331970215,-17.391481399536133,117.9096450805664,205.1761016845703,-70.3460922241211,-26.700000762939453,-0.45000001788139343,-14.100000381469727
6.887,80.44517517089844,16.548721313476562,-13.330915451049805,168.0045928955078,180.12863159179688,-46.09800720214844,-26.250001907348633,-2.700000047683716,-12.450000762939453
6.897,80.52178955078125,16.012420654296875,-11.683704376220703,254.2052001953125,153.48239135742188,-29.31087303161621,-25.650001525878906,-2.1000001430511475,-12.300000190734863
6.907,78.60643005371094,17.391481399536133,-16.127342224121094,332.41192626953125,121.10719299316406,8.793261528015137,-25.650001525878906,-3.6000001430511475,-11.100000381469727
6.928,75.61846923828125,17.851167678833008,-18.310853958129883,365.7197570800781,105.91883087158203,19.052066802978516,-27.150001525878906,-3.6000001430511475,-11.850000381469727
6.932,70.90667724609375,17.966089248657227,-15.169661521911621,348.79937744140625,69.01377868652344,-13.323123931884766,-27.150001525878906,-3.6000001430511475,-11.850000381469727
6.937,69.75746154785156,18.88546371459961,-9.193734169006348,330.1470031738281,57.289432525634766,11.058192253112793,-27.150001525878906,-3.6000001430511475,-11.850000381469727
6.947,68.1485595703125,19.19192123413086,-8.121131896972656,279.9188232421875,37.304744720458984,-17.986217498779297,-28.05000114440918,-6.150000095367432,-12.0
6.957,67.30580139160156,19.843143463134766,-6.933608055114746,203.8437957763672,19.052066802978516,-23.98162269592285,-27.30000114440918,-7.200000286102295,-12.0
6.967,69.64253997802734,19.766529083251953,-3.2561142444610596,104.98621368408203,-2.9310872554779053,-73.0107192993164,-28.200000762939453,-7.500000476837158,-11.100000381469727
6.986,70.0256118774414,22.984336853027344,1.2641384601593018,14.522205352783203,-20.117916107177734,-63.151607513427734,-27.30000114440918,-8.850000381469727,-12.0
6.99,69.64253997802734,22.946029663085938,1.6089035272598267,-72.21133422851562,-42.633995056152344,-80.47166442871094,-24.30000114440918,-6.450000286102295,-12.0
6.997,67.61225891113281,20.95405387878418,1.3407529592514038,-117.11026000976562,-39.70290756225586,-104.85298156738281,-24.30000114440918,-6.450000286102295,-12.450000762939453
7.007,68.761474609375,21.030668258666992,0.9959878921508789,-160.8101043701172,-42.23430252075195,-107.3843765258789,-26.400001525878906,-7.500000476837158,-13.350000381469727
7.017,68.95301055908203,20.11129379272461,-4.9799394607543945,-211.5712127685547,2.2649309635162354,-81.67074584960938,-26.400001525878906,-5.850000381469727,-12.300000190734863
7.027,68.37840270996094,19.919757843017578,-10.572794914245605,-274.3231201171875,49.69525146484375,-77.00765228271484,-25.500001907348633,-4.950000286102295,-12.750000953674316
7.047,67.42072296142578,21.37543296813965,-8.580819129943848,-277.387451171875,65.81623077392578,-78.87289428710938,-26.250001907348633,-5.700000286102295,-10.950000762939453
7.051,67.5739517211914,20.379444122314453,-3.485957622528076,-268.8606262207031,104.32006072998047,-81.93721008300781,-26.400001525878906,-2.8500001430511475,-11.850000381469727
7.057,69.75746154785156,18.195932388305664,-1.3024457693099976,-237.15159606933594,117.9096450805664,-74.07656860351562,-26.400001525878906,-2.8500001430511475,-11.850000381469727
7.067,71.90266418457031,16.970102310180664,-4.558559894561768,-187.4563446044922,131.0995330810547,-72.61102294921875,-26.700000762939453,-1.6500000953674316,-12.300000190734863
7.077,73.51156616210938,13.177685737609863,-12.411541938781738,-135.89585876464844,159.3445587158203,-59.68759536743164,-27.30000114440918,-1.8000000715255737,-11.700000762939453
7.087,73.43495178222656,8.542511940002441,-17.583017349243164,-111.38131713867188,202.24502563476562,-87.0,-25.950000762939453,-0.45000001788139343,-11.100000381469727
7.106,78.45320129394531,5.899312973022461,-20.83913230895996,-82.86982727050781,225.69371032714844,-93.66156005859375,-25.950000762939453,-0.45000001788139343,-9.300000190734863
7.11,81.36454772949219,6.320692539215088,-22.2948055267334,-73.27718353271484,217.96630859375,-94.0612564086914,-27.000001907348633,-1.0500000715255737,-8.40000057220459
7.117,83.01176452636719,9.53849983215332,-13.828908920288086,-71.67840576171875,180.9280242919922,-69.67993927001953,-27.000001907348633,-1.0500000715255737,-8.40000057220459
7.127,80.36856079101562,11.30063247680664,-5.286397457122803,-97.39203643798828,116.17764282226562,-34.24042892456055,-27.750001907348633,0.30000001192092896,-6.600000381469727
7.137,78.56812286376953,12.832921028137207,4.9799394607543945,-118.97549438476562,28.511484146118164,26.64624786376953,-27.000001907348633,1.0500000715255737,-6.150000095367432
7.147,77.64875030517578,11.798625946044922,5.094861030578613,-159.3445587158203,-31.309341430664062,29.577335357666016,-27.450000762939453,0.45000001788139343,-6.300000190734863
7.167,79.0278091430664,13.292608261108398,-0.6512228846549988,-198.51454162597656,-56.22358322143555,50.76110076904297,-27.450000762939453,0.45000001788139343,-6.300000190734863
7.17,77.34229278564453,25.780763626098633,3.1028854846954346,-204.6431884765625,-65.949462890625,87.13323211669922,-27.900001525878906,-0.15000000596046448,-7.500000476837158
7.177,77.95520782470703,26.96828842163086,3.869029998779297,-189.1883544921875,-83.66921997070312,108.3169937133789,-26.700000762939453,1.6500000953674316,-6.0
7.187,75.54185485839844,28.53888511657715,5.20978307723999,-188.1225128173828,-72.47779083251953,105.11944580078125,-26.700000762939453,1.350000023841858,-5.700000286102295
7.197,75.84831237792969,30.4925537109375,6.588842868804932,-179.9954071044922,-56.756507873535156,88.19908142089844,-27.900001525878906,0.9000000357627869,-6.0
7.207,76.03984832763672,31.565155029296875,5.937620162963867,-165.73965454101562,-42.633995056152344,96.59264373779297,-27.900001525878906,0.9000000357627869,-6.0
7.227,78.52981567382812,31.871612548828125,5.477933406829834,-147.22052001953125,-0.39969372749328613,71.94486999511719,-28.05000114440918,-0.75,-6.900000095367432
7.23,80.06210327148438,33.63374710083008,2.6815059185028076,-106.85145568847656,52.75957107543945,56.22358322143555,-27.000001907348633,0.30000001192092896,-6.900000095367432
7.237,76.80599212646484,35.35757064819336,-1.2258312702178955,-88.73200225830078,77.54058074951172,56.09035110473633,-27.150001525878906,1.6500000953674316,-6.750000476837158
7.247,75.9632339477539,36.928165435791016,-2.030282974243164,-67.94792938232422,105.11944580078125,40.76875686645508,-28.05000114440918,0.0,-4.350000381469727
7.257,78.07012939453125,38.15399932861328,-4.137180328369141,-64.084228515625,126.16998291015625,28.911178588867188,-29.55000114440918,1.5,-4.350000381469727
7.267,80.1770248413086,39.035064697265625,-7.623138427734375,-78.07350158691406,147.8866729736328,30.37672233581543,-29.55000114440918,1.5,-4.350000381469727
7.287,82.4754638671875,41.448421478271484,-9.346963882446289,-88.59877014160156,138.96017456054688,26.779478073120117,-28.950000762939453,1.350000023841858,-4.5
7.291,91.13289642333984,48.19049072265625,-7.048529624938965,-117.9096450805664,120.57427215576172,22.249616622924805,-27.150001525878906,0.9000000357627869,-4.950000286102295
7.297,94.77207946777344,49.79939651489258,-6.971915245056152,-140.5589599609375,117.37671661376953,35.439510345458984,-30.150001525878906,1.6500000953674316,-2.700000047683716
7.307,99.9052505493164,54.281341552734375,-7.354987621307373,-144.55589294433594,91.3966293334961,48.362937927246094,-28.500001907348633,1.5,-2.5500001907348633
7.317,104.1573486328125,58.724979400634766,-10.687716484069824,-152.68299865722656,97.39203643798828,33.30780792236328,-28.500001907348633,1.5,-2.5500001907348633
7.327,105.4214859008789,55.315635681152344,-19.421764373779297,-148.95252990722656,117.77641296386719,3.4640121459960938,-28.500001907348633,1.5,-2.5500001907348633
7.346,102.70167541503906,47.38603973388672,-28.155811309814453,-96.99234008789062,136.69525146484375,-40.76875686645508,-29.400001525878906,2.1000001430511475,-0.15000000596046448
7.351,92.93333435058594,34.170047760009766,-36.08540725708008,-9.992342948913574,134.5635528564453,-116.9770278930664,-30.150001525878906,0.9000000357627869,-0.15000000596046448
7.357,90.48167419433594,33.63374710083008,-36.621707916259766,20.117916107177734,135.4961700439453,-150.55130004882812,-29.400001525878906,2.1000001430511475,1.2000000476837158
7.367,88.33646392822266,31.258697509765625,-33.7869758605957,55.29096221923828,91.92955017089844,-109.38284301757812,-28.950000762939453,2.8500001430511475,0.45000001788139343
7.377,89.217529296875,29.95625114440918,-29.994558334350586,65.949462890625,29.177640914916992,-97.12557220458984,-28.950000762939453,2.8500001430511475,0.45000001788139343
7.387,90.63490295410156,27.811046600341797,-21.950040817260742,11.457886695861816,-56.09035110473633,-29.84379768371582,-28.80000114440918,4.200000286102295,0.30000001192092896
7.406,90.2901382446289,17.468095779418945,-13.905523300170898,-120.17457580566406,-224.49462890625,-44.49923324584961,-30.150001525878906,4.350000381469727,1.2000000476837158
7.41,86.88079071044922,5.746084213256836,-11.30063247680664,-133.6309356689453,-237.55130004882812,-13.722817420959473,-30.150001525878906,4.350000381469727,1.2000000476837158
7.417,84.39082336425781,8.695740699768066,-11.1474027633667,-124.97090148925781,-282.5834655761719,-18.78560447692871,-28.950000762939453,3.6000001430511475,0.45000001788139343
7.427,80.40686798095703,11.568782806396484,-14.173673629760742,-93.92802429199219,-314.6921691894531,16.920366287231445,-29.250001907348633,3.0,0.6000000238418579
7.437,74.81401824951172,9.385271072387695,-15.361198425292969,-39.83613967895508,-339.6064147949219,5.728943347930908,-29.250001907348633,3.0,0.6000000238418579
7.447,72.4772720336914,5.51624059677124,-16.510414123535156,38.63705825805664,-363.05511474609375,24.781009674072266,-28.500001907348633,4.200000286102295,-1.8000000715255737
7.459,69.75746154785156,8.389283180236816,-13.522451400756836,85.53445434570312,-401.6921691894531,16.387441635131836,-28.200000762939453,5.100000381469727,-2.700000047683716
7.467,70.14053344726562,18.4257755279541,-7.2783732414245605,119.5084228515625,-425.5405578613281,24.914241790771484,-27.000001907348633,4.5,-3.6000001430511475
7.477,70.14053344726562,21.835119247436523,-2.183511972427368,165.60643005371094,-461.3797607421875,41.568145751953125,-26.700000762939453,4.050000190734863,-4.950000286102295
7.487,72.97526550292969,24.823083877563477,3.2561142444610596,207.17457580566406,-467.7748718261719,42.36753463745117,-25.80000114440918,3.750000238418579,-5.100000381469727
7.497,76.80599212646484,29.190107345581055,2.7964274883270264,229.15773010253906,-437.66461181640625,18.2526798248291,-25.80000114440918,3.750000238418579,-5.100000381469727
7.507,77.763671875,30.837318420410156,2.2601263523101807,271.39202880859375,-388.3690490722656,11.324655532836914,-25.80000114440918,6.150000095367432,-8.700000762939453
7.522,79.48749542236328,32.82929229736328,-1.7621324062347412,288.0459289550781,-282.5834655761719,9.326186180114746,-24.30000114440918,4.950000286102295,-10.200000762939453
7.527,99.56048583984375,36.39186477661133,-4.290409564971924,277.7871398925781,-246.74424743652344,13.189892768859863,-23.700000762939453,3.6000001430511475,-10.350000381469727
7.537,102.58675384521484,29.879636764526367,-7.8529815673828125,259.8009033203125,-145.75497436523438,10.658498764038086,-23.25,4.200000286102295,-12.450000762939453
7.648,60.678646087646484,5.363011837005615,2.2601263523101807,-149.7519073486328,-124.43797302246094,-111.64777374267578,-19.200000762939453,4.050000190734863,-17.100000381469727
7.657,60.678646087646484,4.941632270812988,1.800439715385437,-121.3736572265625,-132.9647674560547,-105.38591003417969,-19.650001525878906,4.050000190734863,-15.600000381469727
7.667,58.80159378051758,3.9456443786621094,-1.1875240802764893,-105.11944580078125,-110.58192443847656,-120.30780792236328,-19.650001525878906,4.050000190734863,-15.600000381469727
7.677,59.29958724975586,5.286397457122803,-4.6734819412231445,-69.94640350341797,-80.8713607788086,-132.9647674560547,-18.0,5.700000286102295,-17.25
7.696,58.64836502075195,7.5848307609558105,-7.010222434997559,-28.24502182006836,-46.364471435546875,-134.96324157714844,-19.80000114440918,6.900000095367432,-17.25
7.7,56.46485137939453,11.492168426513672,-5.5545477867126465,10.791729927062988,2.9310872554779053,-151.084228515625,-19.05000114440918,8.100000381469727,-16.80000114440918
7.707,52.480899810791016,13.713987350463867,-1.6855180263519287,34.64012145996094,13.056661605834961,-142.29095458984375,-18.0,6.450000286102295,-16.80000114440918
