time,accel_x,accel_y,accel_z,gyro_x,gyro_y,gyro_z,mag_x,mag_y,mag_z
0.0,2.480160713195801,-8.438288688659668,-4.17427921295166,-0.10308350622653961,0.2396118938922882,0.11545352637767792,-18.839519500732422,35.559776306152344,-21.674949645996094
0.01,2.616551399230957,-8.221738815307617,-3.992424488067627,-0.08170322328805923,0.2678644061088562,0.0858265683054924,-18.795673370361328,35.77901077270508,-21.748027801513672
0.02,2.757727861404419,-8.376075744628906,-3.662214994430542,-0.07696902006864548,0.2698497176170349,0.05864306166768074,-18.985675811767578,35.76439666748047,-21.718795776367188
0.04,2.7672994136810303,-8.520841598510742,-3.5736804008483887,-0.11392636597156525,0.28420504927635193,0.004886921960860491,-19.131834030151367,35.61824035644531,-21.806488037109375
0.043,2.8486552238464355,-8.49452018737793,-3.957728624343872,-0.11881328374147415,0.2919935882091522,-0.010079275816679,-18.985675811767578,35.852088928222656,-21.879568099975586
0.05,3.0233314037323,-8.475377082824707,-4.00917387008667,-0.12919799983501434,0.31031954288482666,-0.01710422709584236,-18.664133071899414,35.88132095336914,-22.128032684326172
0.06,3.603590726852417,-8.423932075500488,-4.346562385559082,-0.14233160018920898,0.2588541507720947,-0.050243668258190155,-18.678749084472656,35.80824279785156,-21.967260360717773
0.07,3.875175952911377,-8.652446746826172,-3.88594388961792,-0.12751811742782593,0.12782354652881622,-0.04948008432984352,-19.26337242126465,35.77901077270508,-21.38263702392578
0.08,3.7698919773101807,-8.6033935546875,-4.116851329803467,-0.17379117012023926,-0.011759155429899693,-0.03649919852614403,-19.27798843383789,35.99824523925781,-21.48494529724121
0.1,3.5533413887023926,-8.443074226379395,-4.511667251586914,-0.182648703455925,-0.12858712673187256,-0.055283304303884506,-18.72259521484375,36.07132339477539,-21.66033363342285
0.104,3.3260233402252197,-8.057829856872559,-4.632504463195801,-0.11850785464048386,-0.19822576642036438,-0.05467243865132332,-19.08798599243164,35.852088928222656,-21.20724868774414
0.11,3.177668571472168,-7.994420051574707,-4.506881237030029,-0.09514226019382477,-0.21395555138587952,-0.054367005825042725,-18.927213668823242,35.82286071777344,-21.28032684326172
0.12,2.775674343109131,-8.051847457885742,-4.082155227661133,-0.05115996673703194,-0.22128592431545258,-0.04459316283464432,-18.985675811767578,35.82286071777344,-21.908798217773438
0.13,2.3736801147460938,-8.173882484436035,-3.954139232635498,-0.02825251594185829,-0.15546520054340363,-0.06230825185775757,-19.380298614501953,35.74978256225586,-22.04033851623535
0.14,2.2995026111602783,-8.155935287475586,-4.025923728942871,-0.015271631069481373,-0.05665775015950203,-0.08032877743244171,-19.044137954711914,36.275943756103516,-22.20111083984375
0.159,2.606980323791504,-8.142775535583496,-4.102494239807129,0.0,0.07819075137376785,-0.08643742650747299,-19.05875587463379,35.296695709228516,-21.338788986206055
0.163,3.0508487224578857,-8.306683540344238,-4.122833251953125,0.0,0.08628471195697784,-0.0809396430850029,-19.482608795166016,35.48670196533203,-21.514177322387695
0.17,3.160918712615967,-8.282755851745605,-4.194617748260498,0.006719517521560192,0.08628471195697784,-0.06750060617923737,-19.117216110229492,35.720550537109375,-22.259572982788086
0.18,3.293720245361328,-8.336593627929688,-4.1144585609436035,0.01618792861700058,0.03756821155548096,-0.06001751124858856,-19.24875831604004,35.63285446166992,-21.76264190673828
0.19,3.2231318950653076,-8.411967277526855,-4.104887008666992,0.012828170321881771,-0.008399397134780884,-0.052381694316864014,-19.131834030151367,36.12978744506836,-21.616485595703125
0.2,3.1692936420440674,-8.444271087646484,-4.041477203369141,0.0044287727214396,-0.029474247246980667,-0.04581489413976669,-19.52645492553711,36.0859375,-22.361881256103516
0.219,3.0927231311798096,-8.408378601074219,-4.034298896789551,-0.009621127508580685,-0.031154125928878784,-0.009162978269159794,-19.55568504333496,35.42823791503906,-20.564163208007812
0.223,3.064009428024292,-8.398807525634766,-3.9732820987701416,-0.010842857882380486,-0.03848451003432274,-0.009773843921720982,-19.672609329223633,35.41362380981445,-20.944168090820312
0.23,2.93001127243042,-8.446663856506348,-3.913461446762085,-0.023060161620378494,-0.0555887334048748,-0.021532999351620674,-19.74568748474121,35.77901077270508,-20.388774871826172
0.24,3.0305097103118896,-8.398807525634766,-4.018745422363281,-0.028099801391363144,-0.06215553730726242,-0.028710665181279182,-19.117216110229492,35.559776306152344,-21.967260360717773
0.25,3.0005996227264404,-8.34018325805664,-4.033102512359619,-0.021380282938480377,-0.06230825185775757,-0.02122756652534008,-19.05875587463379,36.07132339477539,-21.733409881591797
0.26,2.867797613143921,-8.203792572021484,-4.179064750671387,-0.010537425056099892,-0.06032294034957886,-0.01863138936460018,-19.08798599243164,35.3843879699707,-21.324174880981445
0.279,2.7768707275390625,-8.195417404174805,-4.065405368804932,0.02932153083384037,-0.041691552847623825,-0.042302414774894714,-19.102602005004883,35.9836311340332,-21.514177322387695
0.283,2.7672994136810303,-8.224130630493164,-3.975674629211426,0.041233401745557785,-0.04398229718208313,-0.04932736977934837,-19.409530639648438,36.0859375,-21.411867141723633
0.29,2.864208459854126,-8.373682022094727,-3.7567315101623535,0.052839841693639755,-0.03787364438176155,-0.053297992795705795,-19.24875831604004,35.45746612548828,-21.19263458251953
0.3,2.9383859634399414,-8.538786888122559,-3.8356947898864746,0.042302414774894714,0.0018325956771150231,-0.025045473128557205,-19.380298614501953,35.77901077270508,-21.441099166870117
0.31,2.880958318710327,-8.520841598510742,-4.01754903793335,0.02367102913558483,0.03726277872920036,-0.024129178375005722,-19.54106903076172,35.83747482299805,-21.601871490478516
0.32,2.8223342895507812,-8.513663291931152,-3.9014973640441895,0.0074830991216003895,0.06414084881544113,-0.0036651913542300463,-18.985675811767578,36.04209518432617,-20.768781661987305
0.339,2.5603203773498535,-8.431110382080078,-3.847658634185791,-0.04108068719506264,0.11407908797264099,-0.023518310859799385,-19.131834030151367,36.31978988647461,-21.704179763793945
0.343,2.6225335597991943,-8.373682022094727,-3.9385857582092285,-0.04505131021142006,0.12095130980014801,-0.036193765699863434,-19.014907836914062,36.20286560058594,-20.35954475402832
0.35,2.794816732406616,-8.227720260620117,-4.163511276245117,-0.041691552847623825,0.128434419631958,-0.05619960278272629,-19.33645248413086,36.18824768066406,-21.236480712890625
0.36,3.0233314037323,-7.964509963989258,-4.147957801818848,0.022449297830462456,0.18066339194774628,-0.0685696229338646,-19.62876319885254,35.852088928222656,-20.841859817504883
0.371,2.915654182434082,-8.63210678100586,-4.00917387008667,-0.00427605677396059,0.16035212576389313,-0.026419920846819878,-19.672609329223633,36.17363357543945,-21.353404998779297
0.38,3.2027928829193115,-8.264808654785156,-4.183850288391113,0.01114829070866108,0.12278390675783157,-0.05115996673703194,-19.35106658935547,35.6036262512207,-21.704179763793945
0.4,3.184846878051758,-8.030312538146973,-3.8703906536102295,0.03222314268350601,0.07987063378095627,-0.03451388329267502,-19.672609329223633,35.95439910888672,-21.36802101135254
0.404,3.0233314037323,-8.422735214233398,-3.772284984588623,0.026114489883184433,-0.006566801108419895,-0.03649919852614403,-19.292604446411133,36.115169525146484,-21.119556427001953
0.41,3.064009428024292,-8.5160551071167,-4.018745422363281,0.006108652334660292,-0.04108068719506264,-0.05253440886735916,-19.7310733795166,36.275943756103516,-21.324174880981445
0.42,3.3020951747894287,-8.404788970947266,-4.092923164367676,0.010537425056099892,-0.06230825185775757,-0.05253440886735916,-19.424144744873047,35.895938873291016,-21.528793334960938
0.43,3.180061101913452,-8.330612182617188,-3.7734811305999756,0.008399397134780884,-0.0607810914516449,-0.01863138936460018,-19.862613677978516,35.61824035644531,-21.353404998779297
0.44,3.28773832321167,-8.547162055969238,-3.686143398284912,-0.027030786499381065,-0.1359175145626068,-0.03420845419168472,-19.789535522460938,35.58900833129883,-20.958784103393555
0.459,3.4755747318267822,-8.556733131408691,-3.981656551361084,-0.050854530185461044,-0.22372940182685852,0.0007635815418325365,-19.74568748474121,35.355159759521484,-21.046478271484375
0.463,3.0831520557403564,-8.37846851348877,-3.9529428482055664,-0.05009094625711441,-0.22586742043495178,0.009926560334861279,-19.979537963867188,35.45746612548828,-21.324174880981445
0.47,2.647658109664917,-8.335397720336914,-3.786641836166382,-0.05161811038851738,-0.19104810059070587,0.027183502912521362,-19.584917068481445,35.57439422607422,-20.73954963684082
0.48,2.688336133956909,-8.328218460083008,-3.830909013748169,-0.06719517707824707,-0.1771509051322937,-0.003359758760780096,-19.17568016052246,35.866703033447266,-21.8503360748291
0.49,2.9694929122924805,-8.405985832214355,-3.87876558303833,-0.07422012835741043,-0.13011428713798523,-0.01572977937757969,-19.584917068481445,36.0274772644043,-21.631101608276367
0.5,3.098705291748047,-8.376075744628906,-3.882354736328125,-0.07757988572120667,-0.08048149198293686,0.02229658141732216,-19.029523849487305,36.0274772644043,-20.958784103393555
0.52,3.400200843811035,-8.512466430664062,-3.7256245613098145,-0.09544768929481506,-0.14966197311878204,0.00015271631127689034,-18.401052474975586,35.472084045410156,-21.441099166870117
0.523,3.3332018852233887,-8.482555389404297,-3.7184462547302246,-0.11133018881082535,-0.17363843321800232,0.00427605677396059,-18.824905395507812,35.48670196533203,-21.36802101135254
0.53,3.5916268825531006,-8.701499938964844,-4.011567115783691,-0.14523321390151978,-0.21044306457042694,0.01114829070866108,-19.234142303466797,35.67670440673828,-21.616485595703125
0.54,3.912264823913574,-8.5160551071167,-4.392025947570801,-0.14706581830978394,-0.39477166533470154,0.03390302136540413,-18.751827239990234,35.530548095703125,-20.578777313232422
0.55,2.9826531410217285,-8.073383331298828,-4.482953071594238,-0.1492038369178772,-0.4528038501739502,0.044287726283073425,-18.43028450012207,35.2674674987793,-20.564163208007812
0.56,3.242274522781372,-8.137989044189453,-4.5475592613220215,-0.13041973114013672,-0.4550946056842804,0.015271631069481373,-18.649517059326172,35.41362380981445,-21.324174880981445
0.58,3.1142585277557373,-8.096115112304688,-4.6061835289001465,-0.04657847434282303,-0.2664899528026581,0.09636398404836655,-18.401052474975586,35.530548095703125,-21.163402557373047
0.583,2.74337100982666,-7.341179370880127,-4.789234161376953,0.013591751456260681,-0.2102903574705124,0.10995574295520782,-18.605670928955078,35.369773864746094,-20.549545288085938
0.59,2.423929214477539,-7.325625896453857,-4.254438400268555,0.0835358202457428,-0.1036943718791008,0.13286319375038147,-19.08798599243164,35.472084045410156,-20.98801612854004
0.6,2.3784656524658203,-7.808976650238037,-4.122833251953125,0.1316414624452591,-0.0044287727214396,0.11881328374147415,-18.5325927734375,35.530548095703125,-20.505699157714844
0.61,2.7900309562683105,-8.201398849487305,-3.915853977203369,0.1641700267791748,-0.0025961773935705423,0.07987063378095627,-18.327974319458008,35.88132095336914,-20.695703506469727
0.62,2.6261227130889893,-8.276773452758789,-3.88594388961792,0.1543961763381958,0.03329215571284294,0.08460482954978943,-18.6933650970459,35.77901077270508,-20.8126277923584
0.639,3.183650493621826,-8.048258781433105,-4.456632137298584,0.14263702929019928,0.06352998316287994,0.008399397134780884,-18.196434020996094,35.866703033447266,-21.82110595703125
0.643,3.2709884643554688,-8.002795219421387,-4.487738609313965,0.146913081407547,0.06505714356899261,0.014049900695681572,-18.269512176513672,35.895938873291016,-21.309558868408203
0.65,3.2063820362091064,-8.038687705993652,-4.6301116943359375,0.1440114825963974,0.07513642311096191,0.020922133699059486,-18.868751525878906,35.83747482299805,-21.046478271484375
0.66,3.3990042209625244,-8.055437088012695,-4.7126641273498535,0.16401731967926025,0.08750644326210022,0.003359758760780096,-18.327974319458008,35.852088928222656,-21.046478271484375
0.67,3.348755121231079,-8.154739379882812,-4.649254322052002,0.17440202832221985,0.13545936346054077,0.01710422709584236,-18.44489860534668,36.3636360168457,-20.973400115966797
0.68,3.500699520111084,-8.039883613586426,-4.528416633605957,0.19837848842144012,0.14263702929019928,-0.018936822190880775,-18.43028450012207,35.939781188964844,-21.426483154296875
0.699,3.940978765487671,-8.749356269836426,-3.8524441719055176,0.17150041460990906,0.08032877743244171,-0.008246680721640587,-17.9918155670166,36.01285934448242,-21.455713272094727
0.704,4.004388809204102,-8.805586814880371,-3.8249268531799316,0.15073098242282867,0.02367102913558483,-0.028710665181279182,-18.43028450012207,35.969017028808594,-21.163402557373047
0.71,3.9349966049194336,-8.871389389038086,-3.69930362701416,0.1160643994808197,-0.0455094613134861,-0.03955352306365967,-18.576440811157227,36.3636360168457,-21.09032440185547
0.72,3.242274522781372,-8.609375,-3.6909286975860596,0.04718933627009392,-0.06933320313692093,-0.05574145168066025,-18.35720443725586,35.866703033447266,-21.76264190673828
0.73,3.0376882553100586,-8.421539306640625,-4.00199556350708,-0.027183502912521362,-0.04382958263158798,-0.09651671350002289,-18.547208786010742,36.05670928955078,-21.616485595703125
0.74,3.095116138458252,-8.216952323913574,-4.127618789672852,-0.06933320313692093,-0.019394971430301666,-0.13530665636062622,-18.72259521484375,35.80824279785156,-22.420345306396484
0.76,3.0975089073181152,-7.893921375274658,-4.55354118347168,-0.10995574295520782,0.1589776873588562,-0.16065755486488342,-18.664133071899414,35.80824279785156,-22.11341667175293
0.763,3.253042459487915,-7.919046401977539,-4.5607194900512695,-0.10476338863372803,0.17898350954055786,-0.16065755486488342,-19.234142303466797,36.20286560058594,-20.871089935302734
0.77,3.345165967941284,-7.946564197540283,-4.621737003326416,-0.10354165732860565,0.23915374279022217,-0.13820825517177582,-19.05875587463379,36.20286560058594,-21.01724624633789
0.78,3.6323046684265137,-7.838886737823486,-4.694717884063721,-0.08521570265293121,0.299018532037735,-0.11621711403131485,-19.00029182434082,35.82286071777344,-21.36802101135254
0.79,4.016352653503418,-7.969295978546143,-4.426721572875977,-0.05910121276974678,0.29168814420700073,-0.0985020250082016,-19.409530639648438,35.895938873291016,-20.724933624267578
0.8,4.088137149810791,-8.068597793579102,-4.403989791870117,-0.05955936014652252,0.2522873282432556,-0.08155050873756409,-19.27798843383789,35.735164642333984,-21.353404998779297
0.815,4.383650779724121,-8.015955924987793,-4.535595417022705,-0.047800205647945404,0.10491610318422318,-0.11911872029304504,-19.54106903076172,35.720550537109375,-20.958784103393555
0.821,4.2616167068481445,-7.977670669555664,-4.570291042327881,-0.04153883829712868,0.07254024595022202,-0.12370020896196365,-19.511838912963867,36.01285934448242,-20.856473922729492
0.83,4.023531436920166,-7.971688270568848,-4.533202171325684,-0.035582900047302246,0.022143863141536713,-0.14966197311878204,-19.394912719726562,35.355159759521484,-21.36802101135254
0.84,4.11924409866333,-8.032705307006836,-4.5200419425964355,-0.030543262138962746,-0.013286319561302662,-0.1915062516927719,-19.54106903076172,35.51593017578125,-20.754165649414062
0.85,4.095315933227539,-7.87358283996582,-4.660021781921387,-0.04184426739811897,-0.06520986557006836,-0.2460259646177292,-19.33645248413086,35.95439910888672,-21.148786544799805
0.86,4.01754903793335,-7.801797866821289,-4.722235202789307,-0.038026362657547,-0.09468411654233932,-0.28237244486808777,-19.52645492553711,35.925167083740234,-21.01724624633789
0.88,3.645465135574341,-7.917849540710449,-4.6540398597717285,-0.05100724473595619,-0.06734789162874222,-0.35735616087913513,-19.71645736694336,35.44285202026367,-21.10494041442871
0.884,3.62153697013855,-7.925028324127197,-4.505684852600098,-0.04948008432984352,-0.04398229718208313,-0.3764457106590271,-19.657995223999023,35.63285446166992,-21.01724624633789
0.89,3.783052444458008,-8.03390121459961,-4.417150497436523,-0.04932736977934837,-0.024434609338641167,-0.39507707953453064,-19.81876564025879,35.9836311340332,-20.871089935302734
0.9,4.077369689941406,-8.191827774047852,-4.409972190856934,-0.07223481684923172,0.007788531482219696,-0.407905250787735,-19.847997665405273,35.88132095336914,-20.798011779785156
0.91,4.238884925842285,-8.072187423706055,-4.381258010864258,-0.08277223259210587,-0.006261368282139301,-0.41722097992897034,-19.99415397644043,35.58900833129883,-20.37415885925293
0.92,4.2592244148254395,-8.10568618774414,-4.319044589996338,-0.09896016865968704,-0.03039054572582245,-0.4105014503002167,-19.862613677978516,35.7059326171875,-20.71031951904297
0.933,4.323830604553223,-8.091329574584961,-4.377668857574463,-0.1316414624452591,-0.08750644326210022,-0.4082106947898865,-20.564163208007812,36.31978988647461,-21.36802101135254
0.94,4.381258010864258,-8.09970474243164,-4.334598064422607,-0.1443169116973877,-0.13973543047904968,-0.40225476026535034,-20.008769989013672,36.33440399169922,-20.447237014770508
0.95,4.164707660675049,-8.01954460144043,-4.2963128089904785,-0.17852537333965302,-0.21868975460529327,-0.38927385210990906,-20.286466598510742,36.115169525146484,-20.608009338378906
0.96,4.01037073135376,-7.964509963989258,-4.48414945602417,-0.20051652193069458,-0.27580565214157104,-0.3839287757873535,-19.950305938720703,36.12978744506836,-20.008769989013672
0.97,3.785445213317871,-7.747959613800049,-4.564309120178223,-0.20387627184391022,-0.270766019821167,-0.36453381180763245,-20.09646224975586,36.07132339477539,-20.491085052490234
0.98,3.493520736694336,-7.7252278327941895,-4.377668857574463,-0.19914206862449646,-0.23182335495948792,-0.3393356204032898,-20.65185546875,36.0274772644043,-20.476469039916992
1.0,2.7972095012664795,-7.503891468048096,-4.350151538848877,-0.18906280398368835,-0.11591167747974396,-0.35781431198120117,-20.63724136352539,35.58900833129883,-19.71645736694336
1.004,2.882154941558838,-7.4045891761779785,-4.315455436706543,-0.18555031716823578,-0.08933904021978378,-0.38469237089157104,-20.403390884399414,35.866703033447266,-19.789535522460938
1.01,3.102294445037842,-7.353143692016602,-4.132404327392578,-0.17150041460990906,-0.050243668258190155,-0.4118758738040924,-21.10494041442871,35.9836311340332,-19.760305404663086
1.02,3.424129009246826,-7.636693477630615,-3.7974092960357666,-0.18310685455799103,-0.004886921960860491,-0.42577308416366577,-20.388774871826172,35.79362487792969,-19.482608795166016
1.03,3.805784225463867,-7.8113694190979,-3.768695592880249,-0.23869559168815613,-0.024129178375005722,-0.42577308416366577,-20.666471481323242,35.88132095336914,-20.154926300048828
1.04,3.724428415298462,-7.600800514221191,-4.112065315246582,-0.2811506986618042,-0.04948008432984352,-0.4101960062980652,-20.768781661987305,35.63285446166992,-20.067232131958008
1.053,3.5952160358428955,-7.196413993835449,-4.591826438903809,-0.2820670008659363,-0.118660569190979,-0.41691553592681885,-21.29494285583496,35.79362487792969,-20.02338409423828
1.06,3.728017568588257,-7.334001064300537,-4.661218643188477,-0.26404649019241333,-0.194713294506073,-0.4179845154285431,-21.046478271484375,35.355159759521484,-19.52645492553711
1.07,4.054637908935547,-7.799405097961426,-4.679164409637451,-0.2203696370124817,-0.2866485118865967,-0.38637226819992065,-21.00263023376465,35.530548095703125,-19.760305404663086
1.08,3.9038898944854736,-8.09850788116455,-4.651647090911865,-0.16203199326992035,-0.40454548597335815,-0.35124751925468445,-20.973400115966797,34.726688385009766,-19.321834564208984
1.09,3.548555612564087,-8.350950241088867,-4.596611976623535,-0.10934487730264664,-0.4969388544559479,-0.31612274050712585,-21.046478271484375,35.6036262512207,-18.678749084472656
1.11,3.235095977783203,-8.585447311401367,-4.5200419425964355,-0.056352317333221436,-0.5685628056526184,-0.28619036078453064,-21.119556427001953,35.15053939819336,-19.92107582092285
1.113,2.6979076862335205,-8.870193481445312,-4.35972261428833,-0.04306599870324135,-0.5991060733795166,-0.26740625500679016,-21.061092376708984,35.45746612548828,-19.409530639648438
1.12,2.1846470832824707,-8.782855033874512,-4.301098346710205,-0.0481056347489357,-0.5535966157913208,-0.24724771082401276,-20.783395767211914,34.84361267089844,-20.1110782623291
1.13,1.6630116701126099,-8.614161491394043,-4.085744380950928,-0.0659734457731247,-0.4743368625640869,-0.2574796974658966,-20.90032196044922,35.48670196533203,-19.62876319885254
1.14,1.6977075338363647,-8.561518669128418,-3.912264823913574,-0.09987646341323853,-0.39324450492858887,-0.27351492643356323,-20.90032196044922,35.092079162597656,-19.52645492553711
1.15,1.8628122806549072,-8.405985832214355,-4.074976921081543,-0.13484850525856018,-0.2987130880355835,-0.23945917189121246,-21.031862258911133,35.48670196533203,-19.014907836914062
1.16,1.8795621395111084,-7.982456207275391,-4.383650779724121,-0.13057243824005127,-0.2428189367055893,-0.19074267148971558,-21.046478271484375,35.07746124267578,-19.584917068481445
1.176,1.6857434511184692,-7.607979774475098,-4.423132419586182,-0.06994406878948212,-0.19486600160598755,-0.10293079167604446,-21.528793334960938,35.106693267822266,-19.90645980834961
1.18,1.6701900959014893,-7.646264553070068,-4.303491592407227,-0.04795292019844055,-0.18096882104873657,-0.0705549344420433,-21.601871490478516,35.19438934326172,-20.067232131958008
1.19,1.7084753513336182,-7.822136878967285,-3.9254255294799805,-0.006261368282139301,-0.15561792254447937,0.007024950347840786,-21.163402557373047,34.93130874633789,-18.28412628173828
1.2,1.4811570644378662,-7.939384937286377,-3.783052444458008,0.014966198243200779,-0.10567968338727951,0.1088867262005806,-20.973400115966797,35.16515350341797,-19.029523849487305
1.21,1.1497513055801392,-7.758727073669434,-3.844069242477417,0.030695976689457893,-0.0018325956771150231,0.2255619913339615,-21.36802101135254,35.44285202026367,-19.62876319885254
1.229,1.046859860420227,-7.566104888916016,-3.9050865173339844,0.06627887487411499,0.09117163717746735,0.30604347586631775,-21.031862258911133,35.355159759521484,-19.044137954711914
1.233,1.1569297313690186,-7.610372066497803,-3.972085475921631,0.1085812970995903,0.22128592431545258,0.40164390206336975,-20.92955207824707,35.45746612548828,-20.067232131958008
1.24,1.4009976387023926,-7.713263511657715,-3.858426570892334,0.14004085958003998,0.2845104932785034,0.44684794545173645,-20.520315170288086,35.82286071777344,-18.89798355102539
1.25,1.6546367406845093,-7.946564197540283,-3.6705896854400635,0.15256358683109283,0.31871894001960754,0.508087158203125,-20.564163208007812,35.83747482299805,-19.0733699798584
1.26,2.029113531112671,-8.169095993041992,-3.6263227462768555,0.15271630883216858,0.34437528252601624,0.6004804968833923,-20.549545288085938,35.58900833129883,-19.029523849487305
1.27,2.2025930881500244,-8.043473243713379,-4.127618789672852,0.15256358683109283,0.3649919927120209,0.6789767146110535,-20.666471481323242,35.6474723815918,-18.97106170654297
1.28,2.1810576915740967,-7.783851623535156,-4.322634220123291,0.19944749772548676,0.3839287757873535,0.7550293803215027,-20.228002548217773,35.3843879699707,-19.05875587463379
1.299,1.9405790567398071,-7.823333263397217,-4.295116424560547,0.30283644795417786,0.4179845154285431,0.8707883954048157,-20.63724136352539,35.311309814453125,-20.067232131958008
1.303,1.8089739084243774,-7.793423175811768,-4.308277130126953,0.3173445165157318,0.4285219609737396,0.8796459436416626,-20.754165649414062,35.80824279785156,-19.55568504333496
1.31,1.7515461444854736,-7.770691394805908,-4.238884925842285,0.3845396637916565,0.4764748811721802,0.8976664543151855,-20.73954963684082,35.76439666748047,-19.979537963867188
1.32,2.251646041870117,-8.041080474853516,-4.18145751953125,0.4311181306838989,0.4931209683418274,0.9193521738052368,-20.008769989013672,35.3843879699707,-19.26337242126465
1.33,2.54117751121521,-8.257630348205566,-4.2245283126831055,0.46731188893318176,0.485027015209198,0.959058403968811,-20.169540405273438,35.735164642333984,-19.45337677001953
1.349,2.623729705810547,-8.279166221618652,-4.146761417388916,0.5062545537948608,0.45753806829452515,0.9998337030410767,-20.067232131958008,35.57439422607422,-19.847997665405273
1.353,2.504088878631592,-8.34855842590332,-3.8524441719055176,0.521984338760376,0.4030183255672455,1.0305296182632446,-19.877227783203125,35.7059326171875,-19.789535522460938
1.36,2.2325034141540527,-8.409575462341309,-3.7674992084503174,0.5140430927276611,0.37980544567108154,1.0210611820220947,-19.599531173706055,35.23823165893555,-20.62262535095215
1.37,2.30069899559021,-8.38564682006836,-3.998406410217285,0.4922046661376953,0.3533855378627777,1.00502610206604,-19.27798843383789,35.88132095336914,-20.008769989013672
1.38,2.554337978363037,-8.00518798828125,-4.232903003692627,0.49846601486206055,0.3338378667831421,1.0155634880065918,-18.415668487548828,35.77901077270508,-20.91493797302246
1.39,2.592623233795166,-7.899903297424316,-4.3477582931518555,0.5236642360687256,0.2968805134296417,1.0251846313476562,-18.664133071899414,36.21747970581055,-20.447237014770508
1.41,2.5399811267852783,-7.947760105133057,-4.443471431732178,0.554818332195282,0.2704605758190155,1.0343475341796875,-18.576440811157227,36.290557861328125,-19.789535522460938
1.413,2.4083759784698486,-8.02791976928711,-4.408775806427002,0.6317873597145081,0.24434609711170197,1.0290025472640991,-18.649517059326172,36.50979232788086,-20.695703506469727
1.42,2.4083759784698486,-8.166703224182129,-4.432703971862793,0.6644686460494995,0.2506074607372284,1.0309878587722778,-18.605670928955078,36.01285934448242,-20.505699157714844
1.43,2.2791635990142822,-8.413164138793945,-4.371686935424805,0.70692378282547,0.2825251817703247,1.0403034687042236,-18.28412628173828,36.3636360168457,-20.447237014770508
1.44,2.2803597450256348,-8.383254051208496,-4.374079704284668,0.7509061098098755,0.33826664090156555,1.0335839986801147,-17.53873062133789,36.67056655883789,-20.608009338378906
1.45,2.6464619636535645,-8.63330364227295,-4.211367607116699,0.7814493775367737,0.3376557528972626,1.0083857774734497,-17.553346633911133,36.64133071899414,-21.236480712890625
1.46,2.8522443771362305,-8.980262756347656,-4.115654468536377,0.7826710939407349,0.3205515146255493,1.0147998332977295,-17.43642234802246,36.6851806640625,-21.36802101135254
1.472,3.2027928829193115,-8.964709281921387,-4.396811485290527,0.7533495426177979,0.23029619455337524,0.9996809363365173,-17.012569427490234,36.7436408996582,-21.908798217773438
1.48,3.5186455249786377,-8.81396198272705,-4.649254322052002,0.7382306456565857,0.1644754558801651,1.0082330703735352,-16.96872329711914,36.50979232788086,-22.464191436767578
1.49,3.5808589458465576,-8.567501068115234,-5.115854740142822,0.7435756921768188,0.06872233748435974,1.0224356651306152,-16.559486389160156,37.474422454833984,-21.57263946533203
1.5,3.4193434715270996,-8.34855842590332,-5.096712112426758,0.7893905639648438,0.012217304669320583,1.0462594032287598,-16.267173767089844,36.81671905517578,-22.332651138305664
1.51,2.9132614135742188,-8.133204460144043,-5.151747226715088,0.8416195511817932,-0.00855211354792118,1.0551170110702515,-15.741011619567871,37.31365203857422,-23.151124954223633
1.53,2.2995026111602783,-8.092525482177734,-5.337190628051758,0.9425650835037231,0.10002917796373367,1.0334312915802002,-15.551008224487305,37.25518798828125,-22.814966201782227
1.533,2.4083759784698486,-8.547162055969238,-4.388436794281006,0.9969320297241211,0.1511891484260559,0.9914342761039734,-15.375621795654297,37.62057876586914,-23.69190216064453
1.54,2.7840490341186523,-9.026923179626465,-3.7698919773101807,1.013272762298584,0.17119498550891876,0.9757044911384583,-14.995615005493164,37.51826858520508,-23.77959632873535
1.55,3.221935510635376,-10.092926025390625,-3.174079179763794,0.9468411207199097,0.1258382350206375,0.9676104784011841,-14.995615005493164,37.53288269042969,-23.194971084594727
1.56,3.4025938510894775,-10.487741470336914,-3.919443368911743,0.7800748944282532,0.12721268832683563,0.9535605907440186,-14.498684883117676,37.95673751831055,-22.990352630615234
1.57,3.702892780303955,-10.108478546142578,-4.575077056884766,0.6172793507575989,0.09972374886274338,0.901637077331543,-14.191757202148438,37.98596954345703,-23.925752639770508
1.58,3.6119656562805176,-9.696913719177246,-4.901697158813477,0.5048801302909851,0.05955936014652252,0.8797986507415771,-13.694826126098633,38.24905014038086,-23.545745849609375
1.592,3.2781667709350586,-9.56770133972168,-5.423332214355469,0.4486805200576782,0.12339477986097336,0.8390233516693115,-13.767904281616211,38.62905502319336,-24.334989547729492
1.6,3.3535408973693848,-9.346364974975586,-5.5788655281066895,0.4356996417045593,0.19975292682647705,0.7994698882102966,-13.44636058807373,37.649810791015625,-24.071908950805664
1.61,3.689732551574707,-9.016155242919922,-5.935396194458008,0.45295655727386475,0.23869559168815613,0.7447974681854248,-13.680211067199707,37.95673751831055,-23.794212341308594
1.62,3.9912281036376953,-9.07119083404541,-6.022734642028809,0.5227479338645935,0.22418753802776337,0.6742424964904785,-13.344051361083984,38.1467399597168,-24.94884490966797
1.63,4.298705577850342,-9.476773262023926,-5.807380199432373,0.5519167184829712,0.17928895354270935,0.6079636812210083,-13.066354751586914,38.263668060302734,-25.007307052612305
1.65,4.668396949768066,-9.859625816345215,-5.675775051116943,0.5435173511505127,0.09224064648151398,0.5467243790626526,-13.095585823059082,38.219818115234375,-25.32884979248047
1.653,5.0117669105529785,-9.760323524475098,-5.660221576690674,0.5106833577156067,-0.11438451707363129,0.44516804814338684,-13.154048919677734,38.54136276245117,-24.627302169799805
1.66,4.825126647949219,-9.79262638092041,-5.635097026824951,0.470671683549881,-0.17531833052635193,0.4300491213798523,-12.861736297607422,38.32212829589844,-25.05115509033203
1.67,4.728217601776123,-9.57368278503418,-5.846861839294434,0.41584649682044983,-0.2678644061088562,0.3451388478279114,-12.642502784729004,38.43905258178711,-24.40806770324707
1.68,3.9050865173339844,-9.343972206115723,-5.37786865234375,0.3727805018424988,-0.2617557644844055,0.30726519227027893,-12.42326831817627,37.88365936279297,-25.723472595214844
1.69,3.235095977783203,-8.9850492477417,-5.3587260246276855,0.3150537610054016,-0.24174991250038147,0.18600846827030182,-12.189417839050293,38.04443359375,-25.650394439697266
1.71,2.651247262954712,-9.10110092163086,-4.920839786529541,0.25045475363731384,-0.215482696890831,0.04566217586398125,-12.291727066040039,38.33674621582031,-25.89885902404785
1.713,2.5746772289276123,-8.849854469299316,-5.282155990600586,0.12247847765684128,-0.07971791177988052,-0.1774563491344452,-12.437883377075195,38.833675384521484,-25.372699737548828
1.72,2.9551358222961426,-8.772088050842285,-5.285745143890381,0.09407324343919754,-0.04306599870324135,-0.2675589621067047,-12.218649864196777,38.89213943481445,-25.650394439697266
1.73,3.5676984786987305,-8.780462265014648,-5.349154949188232,0.023365594446659088,-0.04581489413976669,-0.3384193181991577,-12.832504272460938,39.09675598144531,-26.147327423095703
1.74,3.9385857582092285,-9.037691116333008,-5.450850009918213,-0.02122756652534008,-0.11667525768280029,-0.3995058536529541,-12.540192604064941,39.11137008666992,-25.957321166992188
1.75,4.179064750671387,-9.30927562713623,-5.394618511199951,-0.0731511116027832,-0.2428189367055893,-0.46181410551071167,-13.431745529174805,39.403682708740234,-25.855012893676758
1.769,4.366901397705078,-9.444470405578613,-5.550151824951172,-0.13179416954517365,-0.37659841775894165,-0.5062545537948608,-12.964046478271484,38.51213073730469,-25.12423324584961
1.773,4.293920040130615,-9.373882293701172,-5.466403484344482,-0.17241671681404114,-0.5867360830307007,-0.5543602108955383,-13.534053802490234,38.848289489746094,-25.43115997314453
1.78,4.040280818939209,-9.363115310668945,-5.373082637786865,-0.2203696370124817,-0.6407976150512695,-0.5552765130996704,-13.387897491455078,38.848289489746094,-25.372699737548828
1.79,3.290131092071533,-9.122635841369629,-5.168496608734131,-0.27580565214157104,-0.6650795340538025,-0.5908593535423279,-13.475592613220215,38.8629035949707,-25.84039878845215
1.8,3.0245277881622314,-8.768498420715332,-5.12901496887207,-0.3280346393585205,-0.6409503817558289,-0.6598871946334839,-13.329436302185059,38.950599670410156,-25.562700271606445
1.81,3.2004001140594482,-8.431110382080078,-5.014159679412842,-0.3712533414363861,-0.5958990454673767,-0.726471483707428,-14.206372261047363,39.447532653808594,-24.904998779296875
1.83,3.480360507965088,-8.282755851745605,-4.886143684387207,-0.4202752709388733,-0.5907067060470581,-0.7880162000656128,-14.104063987731934,39.09675598144531,-24.56884002685547
1.834,3.5509486198425293,-8.1224365234375,-4.709074974060059,-0.5160284042358398,-0.6499606370925903,-0.8701775074005127,-14.162525177001953,39.30137634277344,-24.890382766723633
1.84,3.5700912475585938,-8.175078392028809,-4.596611976623535,-0.5638285875320435,-0.7122688889503479,-0.9337075352668762,-14.323297500610352,39.47676086425781,-24.554224014282227
1.85,3.542573928833008,-8.292326927185059,-4.467399597167969,-0.6412557363510132,-0.797179102897644,-1.0125091075897217,-14.513299942016602,39.62291717529297,-24.378835678100586
1.86,3.5198421478271484,-8.490930557250977,-4.3549370765686035,-0.7238752841949463,-0.8739954233169556,-1.0861183404922485,-14.484068870544434,39.4621467590332,-23.253435134887695
1.87,3.5126636028289795,-8.608179092407227,-4.336990833282471,-0.8103127479553223,-0.9379835724830627,-1.1473575830459595,-14.703303337097168,39.43291473388672,-23.677288055419922
1.889,3.5712878704071045,-8.831908226013184,-4.234099388122559,-0.9143125414848328,-0.9958630204200745,-1.2000447511672974,-14.937153816223145,38.90675354003906,-23.092662811279297
1.893,3.6370902061462402,-9.523433685302734,-3.920639753341675,-1.0221302509307861,-1.0430524349212646,-1.2166907787322998,-15.4633150100708,38.30751037597656,-22.288803100585938
1.9,3.5341989994049072,-9.93140983581543,-3.7495527267456055,-1.0997101068496704,-1.052673578262329,-1.2107349634170532,-15.404851913452148,38.658287048339844,-23.01958465576172
1.91,3.291327476501465,-10.460224151611328,-3.7459635734558105,-1.2154691219329834,-1.0381654500961304,-1.2113457918167114,-15.960245132446289,38.89213943481445,-22.74188804626465
1.92,3.194417953491211,-10.650453567504883,-3.8572299480438232,-1.3182471990585327,-0.9750936627388,-1.2169963121414185,-16.6325626373291,38.029815673828125,-21.996492385864258
1.93,3.180061101913452,-10.925627708435059,-3.829712390899658,-1.409724235534668,-0.8480336666107178,-1.2090550661087036,-16.559486389160156,38.71674728393555,-21.09032440185547
1.95,2.9132614135742188,-11.258230209350586,-3.658625841140747,-1.4610369205474854,-0.6904304623603821,-1.1942416429519653,-17.027183532714844,38.278282165527344,-21.411867141723633
1.953,2.6356940269470215,-11.416156768798828,-3.5330023765563965,-1.5146403312683105,-0.39324450492858887,-1.2006556987762451,-16.778718948364258,38.33674621582031,-20.841859817504883
1.96,2.5423738956451416,-11.363513946533203,-3.4372897148132324,-1.534035325050354,-0.19089537858963013,-1.2218831777572632,-17.187957763671875,37.8251953125,-20.505699157714844
1.97,2.526820659637451,-11.160123825073242,-3.2781667709350586,-1.5471688508987427,0.05726861581206322,-1.2731958627700806,-17.670272827148438,37.57673263549805,-20.228002548217773
1.98,2.585444688796997,-11.01894760131836,-3.074777126312256,-1.5509867668151855,0.3393356204032898,-1.3797918558120728,-17.87489128112793,36.87518310546875,-19.45337677001953
1.99,3.102294445037842,-10.823932647705078,-2.9072792530059814,-1.5428929328918457,0.47219884395599365,-1.4935654401779175,-18.751827239990234,36.58287048339844,-18.18181800842285
2.01,3.4755747318267822,-10.636096000671387,-2.7361927032470703,-1.5406020879745483,0.541532039642334,-1.5934419631958008,-19.511838912963867,36.0859375,-18.868751525878906
2.014,3.497110366821289,-10.372885704040527,-2.7696919441223145,-1.5486960411071777,0.5190827250480652,-1.7675385475158691,-20.213388442993164,36.0859375,-18.517976760864258
2.02,3.4396824836730957,-10.173084259033203,-2.7493531703948975,-1.549154281616211,0.4986187517642975,-1.8289304971694946,-20.198772430419922,35.559776306152344,-18.108739852905273
2.03,3.359522819519043,-9.990034103393555,-2.7349960803985596,-1.5512923002243042,0.4346306025981903,-1.9726365804672241,-21.28032684326172,35.720550537109375,-17.26103401184082
2.04,3.342773199081421,-9.627521514892578,-2.9108684062957764,-1.5320500135421753,0.41431936621665955,-2.0645718574523926,-22.11341667175293,35.25284957885742,-17.071033477783203
2.05,3.442075490951538,-9.482755661010742,-2.9443681240081787,-1.5042556524276733,0.3871358335018158,-2.12397837638855,-22.990352630615234,34.33206558227539,-16.413330078125
2.07,3.5676984786987305,-9.355936050415039,-3.0628130435943604,-1.4645494222640991,0.3471241593360901,-2.1627683639526367,-23.370359420776367,33.615901947021484,-15.85793685913086
2.073,3.6873395442962646,-9.226723670959473,-2.7637100219726562,-1.3881912231445312,0.26404649019241333,-2.169335126876831,-23.911136627197266,33.13358688354492,-15.609471321105957
2.08,3.6945178508758545,-9.113064765930176,-2.8187451362609863,-1.3755158185958862,0.2422080636024475,-2.152078151702881,-24.40806770324707,32.63665771484375,-14.498684883117676
2.09,3.4755747318267822,-8.766105651855469,-2.8378875255584717,-1.3277156352996826,0.18249599635601044,-2.1229093074798584,-25.562700271606445,32.66588592529297,-14.73253345489502
2.1,3.22552490234375,-8.483752250671387,-2.7804598808288574,-1.292285442352295,0.15073098242282867,-2.0984747409820557,-26.33732795715332,32.02280044555664,-13.797135353088379
2.11,3.2614171504974365,-8.390432357788086,-2.946760892868042,-1.25929856300354,0.1368338167667389,-2.054797887802124,-26.99502944946289,31.730487823486328,-13.855597496032715
2.13,3.1573293209075928,-8.041080474853516,-3.2231318950653076,-1.2037099599838257,0.1212567538022995,-2.0053179264068604,-27.915815353393555,30.809703826904297,-13.314821243286133
2.133,2.943171739578247,-7.646264553070068,-3.3164520263671875,-1.1078040599822998,0.12828169763088226,-1.9187276363372803,-28.368898391723633,30.35662078857422,-12.832504272460938
2.14,2.985046148300171,-7.587640285491943,-3.2374887466430664,-1.0490082502365112,0.15103644132614136,-1.8748981952667236,-28.968137741088867,30.108156204223633,-12.803274154663086
2.15,3.3966116905212402,-7.704888343811035,-3.205185890197754,-0.9952521920204163,0.17363843321800232,-1.7931948900222778,-29.36275863647461,30.064308166503906,-12.335575103759766
2.16,3.6801609992980957,-7.448856830596924,-3.3607192039489746,-0.9291260242462158,0.17150041460990906,-1.6890424489974976,-29.91815185546875,29.1873722076416,-13.080970764160156
2.17,3.5880372524261475,-7.18086051940918,-3.4265217781066895,-0.8648324608802795,0.13316862285137177,-1.5888605117797852,-29.97661590576172,28.485822677612305,-13.154048919677734
2.19,3.6526436805725098,-6.990631103515625,-3.7184462547302246,-0.7929030656814575,0.1014036312699318,-1.4876095056533813,-30.882781982421875,28.295820236206055,-12.262495994567871
2.194,3.7292141914367676,-6.649653911590576,-3.7363924980163574,-0.6698136925697327,0.021380282938480377,-1.326035737991333,-30.488161087036133,27.462730407714844,-12.496346473693848
2.2,3.6119656562805176,-6.5898332595825195,-3.841676712036133,-0.6221662163734436,-0.023365594446659088,-1.238071084022522,-30.83893585205078,27.316574096679688,-12.37942123413086
2.21,3.4169507026672363,-6.459424018859863,-3.9493536949157715,-0.5629122853279114,-0.06994406878948212,-1.142012596130371,-31.277402877807617,27.331188201904297,-11.210172653198242
2.22,3.286541700363159,-6.315855503082275,-3.829712390899658,-0.49907687306404114,-0.11255192011594772,-1.061072826385498,-31.262788772583008,26.23501968383789,-11.254019737243652
2.23,2.957528829574585,-6.000002861022949,-3.9625141620635986,-0.44837507605552673,-0.12568552792072296,-0.9746354818344116,-31.13124656677246,25.97193717956543,-11.224788665771484
2.25,2.7936203479766846,-5.715256690979004,-3.820141077041626,-0.3683517277240753,-0.10919215530157089,-0.8952229619026184,-31.438175201416016,25.7088565826416,-11.122478485107422
2.254,3.0376882553100586,-5.54895544052124,-3.844069242477417,-0.3145955801010132,-0.046273037791252136,-0.7831292152404785,-31.701257705688477,25.694242477416992,-11.634024620056152
2.26,3.1202404499053955,-5.3383870124816895,-3.996013641357422,-0.26939156651496887,-0.018936822190880775,-0.7092145085334778,-31.847414016723633,25.41654396057129,-11.385560035705566
2.27,3.1214370727539062,-5.01296329498291,-4.109673023223877,-0.2093740552663803,-0.01114829070866108,-0.6155994534492493,-32.183570861816406,25.548086166381836,-11.429407119750977
2.28,3.458824872970581,-4.820341110229492,-4.2209391593933105,-0.14019358158111572,-0.03237585723400116,-0.527634859085083,-32.066646575927734,25.372699737548828,-10.567085266113281
2.29,3.596412181854248,-4.742574214935303,-4.065405368804932,-0.042760565876960754,-0.11102475225925446,-0.3975205719470978,-32.35895919799805,25.358083724975586,-11.312481880187988
2.311,3.5258240699768066,-4.852643966674805,-3.8943188190460205,0.015271631069481373,-0.20402897894382477,-0.3023782968521118,-31.6281795501709,25.168079376220703,-10.625548362731934
2.314,3.4444680213928223,-5.008177757263184,-4.041477203369141,0.0659734457731247,-0.31963521242141724,-0.15943582355976105,-32.183570861816406,25.15346336364746,-10.567085266113281
2.32,3.322434186935425,-5.062016010284424,-4.12642240524292,0.07422012835741043,-0.3575088679790497,-0.1137736514210701,-31.891260147094727,25.007307052612305,-10.932476043701172
2.33,3.2279176712036133,-5.014159679412842,-4.408775806427002,0.09147706627845764,-0.4407392740249634,-0.032070424407720566,-32.1689567565918,25.021923065185547,-10.96170711517334
2.34,3.1202404499053955,-4.89691162109375,-4.682753562927246,0.14233160018920898,-0.528245747089386,0.06780604273080826,-31.379714965820312,25.05115509033203,-11.23940372467041
2.35,2.853440999984741,-4.791627407073975,-4.828715801239014,0.19608773291110992,-0.5467243790626526,0.15913039445877075,-31.4674072265625,24.84653663635254,-10.114001274108887
2.37,2.7278177738189697,-4.803591251373291,-4.900500774383545,0.2597704529762268,-0.5140430927276611,0.25106561183929443,-31.350481033325195,24.86115074157715,-11.47325325012207
2.373,2.968296527862549,-5.032105922698975,-5.1457648277282715,0.34574970602989197,-0.4349360466003418,0.3753766715526581,-30.955860137939453,25.445777893066406,-10.523239135742188
2.38,3.0819554328918457,-5.229514122009277,-5.181657314300537,0.413555771112442,-0.3672827482223511,0.48579058051109314,-31.08740234375,24.992692947387695,-10.274772644042969
2.39,3.06999135017395,-5.770291805267334,-5.0572309494018555,0.5424483418464661,-0.23671028017997742,0.7105889916419983,-30.985092163085938,25.387313842773438,-10.786319732666016
2.4,3.2027928829193115,-6.602993965148926,-4.902893543243408,0.6618725061416626,-0.1788308024406433,0.8846855759620667,-30.34200668334961,25.67962646484375,-11.122478485107422
2.41,3.451646566390991,-7.513463020324707,-4.922036170959473,0.7496843934059143,-0.08292495459318161,1.048397421836853,-30.239694595336914,25.475008010864258,-10.903244018554688
2.43,3.555734395980835,-7.623532772064209,-4.752145767211914,0.8159632682800293,-0.014966198243200779,1.1937834024429321,-30.210464477539062,25.752704620361328,-10.903244018554688
2.433,3.7316067218780518,-7.42133903503418,-4.293920040130615,0.8924740552902222,0.012522736564278603,1.3547463417053223,-29.859689712524414,26.42502212524414,-10.464776039123535
2.44,3.524627685546875,-7.519444942474365,-3.981656551361084,0.8851436972618103,0.02977968007326126,1.4132367372512817,-29.26045036315918,26.103479385375977,-11.487869262695312
2.45,3.3403801918029785,-7.507480621337891,-4.169493198394775,0.84574294090271,0.09957103431224823,1.514487624168396,-29.406606674194336,27.141185760498047,-10.830166816711426
2.46,3.291327476501465,-7.77188777923584,-4.182653903961182,0.827111542224884,0.11804971098899841,1.5680910348892212,-29.625839233398438,27.842735290527344,-11.180940628051758
2.47,3.239881753921509,-7.9788665771484375,-4.650450706481934,0.7980954647064209,0.12736541032791138,1.6194038391113281,-28.79275131225586,27.813507080078125,-11.955568313598633
2.49,3.3499515056610107,-8.066205024719238,-4.9435715675354,0.8168795108795166,0.1638645976781845,1.6739234924316406,-28.778135299682617,28.398128509521484,-11.955568313598633
2.493,3.5186455249786377,-8.37846851348877,-5.117051124572754,0.8950702548027039,0.1869247555732727,1.7513506412506104,-28.515052795410156,29.011985778808594,-11.590178489685059
2.5,3.6227335929870605,-8.46341323852539,-5.132604598999023,0.9450085163116455,0.17592918872833252,1.782504677772522,-28.73428726196289,29.46506690979004,-11.502485275268555
2.51,3.717249870300293,-8.634500503540039,-5.1218366622924805,1.018770456314087,0.18616119027137756,1.8455766439437866,-28.04735565185547,30.166616439819336,-11.838644027709961
2.52,4.152743339538574,-8.932406425476074,-4.938785552978516,1.0948232412338257,0.16111570596694946,1.891544222831726,-27.813507080078125,29.538145065307617,-12.028646469116211
2.53,4.29033088684082,-9.378667831420898,-4.624129772186279,1.141554355621338,0.09575312584638596,1.9811886548995972,-27.594270706176758,29.97661590576172,-12.262495994567871
2.55,4.120440483093262,-9.639486312866211,-4.681557655334473,1.1592694520950317,0.026572639122605324,2.051896333694458,-27.345806121826172,30.502779006958008,-13.21251106262207
2.553,4.102494239807129,-9.77707290649414,-4.644468784332275,1.1600329875946045,-0.09712757170200348,2.093282461166382,-26.717334747314453,31.233558654785156,-12.087108612060547
2.56,3.8189449310302734,-9.68255615234375,-4.473381996154785,1.1478157043457031,-0.14004085958003998,2.1094703674316406,-26.23501968383789,31.6281795501709,-12.744811058044434
2.57,3.480360507965088,-9.521040916442871,-4.59302282333374,1.1220066547393799,-0.18646661937236786,2.0890064239501953,-26.045015335083008,32.052032470703125,-13.21251106262207
2.58,3.324826955795288,-9.373882293701172,-4.310669898986816,1.1230758428573608,-0.21823160350322723,2.0389153957366943,-25.182693481445312,32.402809143066406,-13.139432907104492
2.59,2.633301258087158,-9.265008926391602,-4.176671981811523,1.0870347023010254,-0.13347405195236206,2.026545524597168,-24.46653175354004,32.95820236206055,-13.680211067199707
2.61,2.117647886276245,-9.022137641906738,-4.388436794281006,1.0775662660598755,0.036651913076639175,1.9372063875198364,-22.858814239501953,33.5282096862793,-13.987138748168945
2.614,2.045863151550293,-9.035297393798828,-4.153940200805664,1.0775662660598755,0.27030786871910095,1.8570303916931152,-22.975738525390625,33.235897064208984,-14.104063987731934
2.62,2.084148406982422,-9.20758056640625,-4.2137603759765625,1.0731375217437744,0.4101960062980652,1.8197674751281738,-22.464191436767578,33.5282096862793,-14.747150421142578
2.63,2.2983059883117676,-9.443273544311523,-4.370490550994873,1.067945122718811,0.5768095254898071,1.7605136632919312,-22.814966201782227,34.08360290527344,-14.893306732177734
2.64,2.754138708114624,-9.6526460647583,-4.3549370765686035,1.065043568611145,0.6765332818031311,1.6995798349380493,-22.04033851623535,34.6243782043457,-15.404851913452148
2.65,3.1645078659057617,-9.943374633789062,-4.277170181274414,1.0428996086120605,0.7380779385566711,1.6442965269088745,-21.967260360717773,34.682838439941406,-14.542531967163086
2.67,3.449253797531128,-10.436296463012695,-4.194617748260498,1.0071640014648438,0.7382306456565857,1.5987870693206787,-21.631101608276367,34.741302490234375,-15.901782989501953
2.674,3.6287152767181396,-10.841878890991211,-4.234099388122559,0.9317222237586975,0.6721044778823853,1.5120441913604736,-21.54340934753418,35.20900344848633,-15.56562328338623
2.68,3.5952160358428955,-10.86461067199707,-4.336990833282471,0.8801040649414062,0.6186537742614746,1.450499415397644,-21.411867141723633,35.530548095703125,-16.15024757385254
2.691,3.4947173595428467,-10.752148628234863,-4.411168098449707,0.8112290501594543,0.5586362481117249,1.3730722665786743,-21.046478271484375,35.74978256225586,-16.2525577545166
2.7,3.2231318950653076,-10.53799057006836,-4.436293125152588,0.7402159571647644,0.5328271985054016,1.2777773141860962,-21.10494041442871,35.895938873291016,-16.179479598999023
2.71,3.1824538707733154,-10.339385986328125,-4.317848205566406,0.6916521787643433,0.5103778839111328,1.1972957849502563,-21.061092376708984,36.33440399169922,-16.311019897460938
2.731,2.9455647468566895,-10.126425743103027,-4.286741733551025,0.6575964689254761,0.5435173511505127,1.14705228805542,-20.856473922729492,36.33440399169922,-16.720256805419922
2.735,2.575873613357544,-9.742377281188965,-4.299902439117432,0.631481945514679,0.6206390857696533,1.0502300262451172,-20.344928741455078,36.20286560058594,-16.457176208496094
2.74,2.5423738956451416,-9.595218658447266,-4.273581027984619,0.6247624158859253,0.6514877676963806,1.0155634880065918,-20.564163208007812,36.729026794433594,-16.661794662475586
2.75,2.5531415939331055,-9.263812065124512,-4.295116424560547,0.6241515278816223,0.7072292566299438,0.9399688839912415,-20.388774871826172,36.37825393676758,-17.363344192504883
2.76,2.434696912765503,-8.95394229888916,-4.29033088684082,0.6352998614311218,0.7422012686729431,0.8530732989311218,-19.935691833496094,36.480560302734375,-17.26103401184082
2.77,2.3808584213256836,-8.648857116699219,-4.179064750671387,0.6433938145637512,0.7509061098098755,0.7748825550079346,-20.242618560791016,37.0067253112793,-17.553346633911133
2.79,2.400001049041748,-8.410771369934082,-4.080958843231201,0.6352998614311218,0.7475463151931763,0.6973026394844055,-20.125694274902344,36.97748947143555,-17.582576751708984
2.793,2.5974087715148926,-8.199006080627441,-4.186243057250977,0.6351471543312073,0.7072292566299438,0.6033821702003479,-20.228002548217773,37.065185546875,-17.52411651611328
2.8,2.809173583984375,-8.200202941894531,-4.348955154418945,0.6317873597145081,0.6801984310150146,0.584139883518219,-20.37415885925293,37.109031677246094,-17.772581100463867
2.81,2.93001127243042,-8.236095428466797,-4.325026512145996,0.631481945514679,0.589790403842926,0.5537493228912354,-20.213388442993164,37.3867301940918,-18.576440811157227
2.82,2.904886484146118,-8.50887680053711,-4.176671981811523,0.6111707091331482,0.5097670555114746,0.5401575565338135,-20.344928741455078,37.401344299316406,-18.327974319458008
2.83,2.9419755935668945,-8.72064208984375,-3.9792640209198,0.5746714472770691,0.42042800784111023,0.5325217843055725,-19.847997665405273,38.1467399597168,-18.737211227416992
2.85,3.022134780883789,-8.738588333129883,-4.085744380950928,0.535881519317627,0.34437528252601624,0.5334380269050598,-20.213388442993164,37.56211853027344,-18.6933650970459
2.853,2.65842604637146,-8.639286041259766,-4.179064750671387,0.502436637878418,0.2376265674829483,0.5595525503158569,-20.242618560791016,37.78135299682617,-18.43028450012207
2.86,2.4011974334716797,-8.623732566833496,-4.284348964691162,0.4996877610683441,0.23121249675750732,0.5713117122650146,-20.315698623657227,38.015201568603516,-19.292604446411133
2.87,1.9633108377456665,-8.58784008026123,-4.302295207977295,0.5143485069274902,0.23671028017997742,0.5526803135871887,-20.213388442993164,38.07366180419922,-18.09412384033203
2.88,1.975274920463562,-8.58784008026123,-4.18983268737793,0.5207626223564148,0.27320948243141174,0.5386304259300232,-19.760305404663086,38.1028938293457,-18.137971878051758
2.89,2.079362630844116,-8.539983749389648,-4.107280254364014,0.5361869931221008,0.30726519227027893,0.5311473608016968,-19.847997665405273,38.395206451416016,-18.108739852905273
2.909,2.0135602951049805,-8.58784008026123,-3.8811581134796143,0.5206099152565002,0.34636056423187256,0.5148066878318787,-19.71645736694336,38.789825439453125,-19.24875831604004
2.913,2.035095691680908,-8.417949676513672,-4.0319061279296875,0.5151121020317078,0.3475823402404785,0.5027421116828918,-19.81876564025879,38.43905258178711,-19.394912719726562
2.92,2.1810576915740967,-8.055437088012695,-4.176671981811523,0.5126686692237854,0.33735033869743347,0.4915938079357147,-19.614147186279297,38.68751907348633,-19.614147186279297
2.93,2.121237277984619,-7.93459939956665,-4.120440483093262,0.5152648091316223,0.3136793076992035,0.4755585789680481,-19.71645736694336,39.330604553222656,-19.234142303466797
2.94,2.049452543258667,-7.969295978546143,-4.144368648529053,0.5041165351867676,0.2915354371070862,0.4456261694431305,-19.55568504333496,38.8629035949707,-20.008769989013672
2.95,2.2995026111602783,-7.893921375274658,-4.194617748260498,0.5042692422866821,0.22540926933288574,0.3978259861469269,-19.24875831604004,39.023677825927734,-19.7310733795166
2.97,2.462214469909668,-7.970492362976074,-4.206582069396973,0.5035056471824646,0.1088867262005806,0.3718641996383667,-19.511838912963867,38.819061279296875,-19.774919509887695
2.974,2.4741785526275635,-8.305486679077148,-4.314259052276611,0.4769330322742462,-0.005803219974040985,0.3306308090686798,-18.97106170654297,38.73136520385742,-19.687227249145508
2.98,2.555534601211548,-8.37846851348877,-4.192224979400635,0.4645630121231079,-0.07681629806756973,0.31123584508895874,-19.102602005004883,39.11137008666992,-20.1110782623291
2.99,2.4765713214874268,-8.672784805297852,-3.8871400356292725,0.4260784983634949,-0.14126259088516235,0.3113885521888733,-19.08798599243164,39.00905990600586,-20.052616119384766
3.0,2.091326951980591,-8.57348346710205,-4.242474555969238,0.3764457106590271,-0.14156801998615265,0.32268956303596497,-18.576440811157227,39.140602111816406,-19.672609329223633
3.01,1.7264214754104614,-8.365307807922363,-4.322634220123291,0.3575088679790497,-0.07941248267889023,0.30604347586631775,-19.16106414794922,39.038291931152344,-20.038002014160156
3.029,1.7862420082092285,-8.271987915039062,-4.2592244148254395,0.35323283076286316,0.0010690141934901476,0.26603180170059204,-18.459514617919922,39.49137496948242,-20.30108070373535
3.033,1.8293129205703735,-8.476573944091797,-4.406383037567139,0.34636056423187256,0.030543262138962746,0.2587014436721802,-18.678749084472656,39.27214050292969,-20.549545288085938
3.04,1.8532410860061646,-8.408378601074219,-4.460221290588379,0.3428480923175812,0.06185010448098183,0.23808471858501434,-18.737211227416992,39.593685150146484,-21.221864700317383
3.05,1.856830358505249,-8.47059154510498,-4.335794448852539,0.33536502718925476,0.11224649101495743,0.22342397272586823,-18.795673370361328,39.8421516418457,-20.02338409423828
3.06,2.0123636722564697,-8.73499870300293,-4.164707660675049,0.31383201479911804,0.1560760736465454,0.20662516355514526,-18.81028938293457,39.4621467590332,-20.18415641784668
3.07,2.059023857116699,-9.042476654052734,-3.9182469844818115,0.25335633754730225,0.2002110779285431,0.20402897894382477,-18.62028694152832,39.82753372192383,-21.046478271484375
3.09,2.011167287826538,-9.10708236694336,-4.035495281219482,0.18066339194774628,0.25931230187416077,0.19654588401317596,-18.766441345214844,39.91522979736328,-21.733409881591797
3.094,2.7361927032470703,-8.97667407989502,-4.205385684967041,0.12293662130832672,0.2551889419555664,0.16569718718528748,-18.91259765625,40.23677444458008,-20.856473922729492
3.1,2.9108684062957764,-8.973084449768066,-4.4614176750183105,0.1014036312699318,0.2353358417749405,0.18539761006832123,-18.78105926513672,40.134464263916016,-21.38263702392578
3.11,3.06999135017395,-8.943174362182617,-4.6432719230651855,0.10430524498224258,0.21120664477348328,0.20173825323581696,-18.824905395507812,40.07600402832031,-20.169540405273438
3.12,3.1106693744659424,-8.920442581176758,-4.6540398597717285,0.13240504264831543,0.14278973639011383,0.20784689486026764,-19.16106414794922,40.134464263916016,-20.476469039916992
3.13,2.915654182434082,-8.947959899902344,-5.230710506439209,0.1635591685771942,0.0809396430850029,0.19883663952350616,-18.737211227416992,40.07600402832031,-20.724933624267578
3.149,2.7086751461029053,-9.213563919067383,-5.278566360473633,0.26221391558647156,-0.009468411095440388,0.11224649101495743,-18.854137420654297,40.149078369140625,-20.344928741455078
3.153,2.210968017578125,-9.966106414794922,-4.884947299957275,0.2695443034172058,0.0050396379083395,0.10308350622653961,-19.0733699798584,40.28062057495117,-20.63724136352539
3.16,2.045863151550293,-10.457830429077148,-4.12642240524292,0.2741257846355438,0.01191187184303999,0.06139195337891579,-19.204912185668945,40.017539978027344,-20.30108070373535
3.17,2.0518453121185303,-11.313264846801758,-3.284149169921875,0.16508632898330688,0.06765332818031311,-0.0024434609804302454,-19.935691833496094,40.42677688598633,-20.052616119384766
3.18,2.4717857837677,-12.264412879943848,-3.2303104400634766,-0.04214970022439957,0.19517144560813904,-0.007941247895359993,-19.219526290893555,40.29523468017578,-20.388774871826172
3.19,2.9718856811523438,-12.229716300964355,-3.779463291168213,-0.206777885556221,0.29275718331336975,-0.01114829070866108,-19.599531173706055,40.558319091796875,-19.80415153503418
3.209,3.0544381141662598,-11.977273941040039,-4.858626365661621,-0.39416077733039856,0.33047807216644287,-0.053908854722976685,-20.125694274902344,40.03215408325195,-19.54106903076172
3.213,3.13938307762146,-12.001201629638672,-5.002195358276367,-0.40653079748153687,0.3173445165157318,-0.08414668589830399,-19.935691833496094,40.11984634399414,-19.17568016052246
3.22,3.3236305713653564,-12.105289459228516,-5.280959129333496,-0.4021020233631134,0.27718010544776917,-0.12858712673187256,-20.695703506469727,39.68138122558594,-18.6933650970459
3.23,3.6801609992980957,-11.929417610168457,-5.650650501251221,-0.34697145223617554,0.23716843128204346,-0.1788308024406433,-20.593395233154297,39.8859977722168,-18.298744201660156
3.24,3.662214994430542,-11.801400184631348,-5.587240695953369,-0.2716823220252991,0.21166479587554932,-0.20311269164085388,-20.90032196044922,39.79830551147461,-18.152587890625
3.25,3.7663025856018066,-11.891131401062012,-5.499902248382568,-0.20616701245307922,0.1463022232055664,-0.24877485632896423,-21.119556427001953,40.10523223876953,-18.211048126220703
3.269,4.098905086517334,-12.082557678222656,-5.173282623291016,-0.1791362315416336,-0.06185010448098183,-0.37110063433647156,-21.981876373291016,39.579071044921875,-17.567962646484375
3.273,3.998406410217285,-12.313465118408203,-4.7952165603637695,-0.18509215116500854,-0.11942415684461594,-0.41034871339797974,-21.791873931884766,40.06138610839844,-17.50950050354004
3.28,3.572484016418457,-12.220145225524902,-4.695914268493652,-0.24953843653202057,-0.15454889833927155,-0.47571131587028503,-21.92341423034668,39.564453125,-17.71411895751953
3.29,3.513859748840332,-11.587244033813477,-4.789234161376953,-0.3126102685928345,-0.1817324161529541,-0.5893322229385376,-22.084184646606445,39.52061080932617,-17.290266036987305
3.3,3.290131092071533,-11.272586822509766,-3.87876558303833,-0.3988949954509735,-0.15622878074645996,-0.682641863822937,-22.93189239501953,39.47676086425781,-16.588716506958008
3.31,3.1334011554718018,-10.622936248779297,-3.9529428482055664,-0.5021312236785889,-0.08491026610136032,-0.7809911966323853,-23.516515731811523,39.5059928894043,-15.960245132446289
3.33,2.6703901290893555,-9.55095100402832,-3.4480574131011963,-0.658970832824707,0.12064588069915771,-1.0545060634613037,-24.21806526184082,38.67290496826172,-15.448699951171875
3.334,2.8043882846832275,-9.298508644104004,-3.473181962966919,-0.665232241153717,0.13545936346054077,-1.0954340696334839,-24.554224014282227,38.51213073730469,-15.536393165588379
3.34,3.0376882553100586,-8.950352668762207,-3.476771354675293,-0.6598871946334839,0.18631389737129211,-1.1921035051345825,-25.12423324584961,38.760597229003906,-15.302543640136719
3.35,3.562912940979004,-8.745766639709473,-3.5294132232666016,-0.6229298114776611,0.20311269164085388,-1.309389591217041,-26.088863372802734,38.395206451416016,-14.016368865966797
3.36,4.027120590209961,-8.987441062927246,-3.6047871112823486,-0.5618432760238647,0.10980302840471268,-1.4214833974838257,-26.775794982910156,37.95673751831055,-13.110200881958008
3.37,4.295116424560547,-9.336793899536133,-3.493520736694336,-0.49266281723976135,-0.1007927656173706,-1.567785620689392,-28.120431900024414,37.56211853027344,-13.154048919677734
3.389,4.887340068817139,-10.06421184539795,-3.159722089767456,-0.5047274231910706,-0.5684100985527039,-1.7570010423660278,-29.771995544433594,37.1236457824707,-10.581701278686523
3.393,5.267798900604248,-10.832307815551758,-2.785245418548584,-0.5316054821014404,-0.7165449261665344,-1.7907514572143555,-30.35662078857422,36.290557861328125,-10.49400806427002
3.4,5.042873382568359,-11.075179100036621,-2.733799695968628,-0.5861251950263977,-0.9095783829689026,-1.8251125812530518,-30.824321746826172,36.05670928955078,-9.675533294677734
3.41,4.3657050132751465,-11.145767211914062,-2.6524438858032227,-0.6568328738212585,-1.0749701261520386,-1.8663458824157715,-31.613563537597656,35.82286071777344,-9.207834243774414
3.42,3.750749349594116,-11.084750175476074,-2.647658109664917,-0.7287622690200806,-1.1468994617462158,-1.9225455522537231,-31.905874252319336,34.59514617919922,-6.913183689117432
3.43,3.3750762939453125,-10.868200302124023,-2.785245418548584,-0.776715099811554,-1.1000155210494995,-1.9653061628341675,-32.38819122314453,33.93744659423828,-4.793920040130615
3.451,3.4923245906829834,-10.724631309509277,-2.8869404792785645,-0.7719809412956238,-0.9410378932952881,-1.996002197265625,-34.156681060791016,31.335866928100586,-1.4030985832214355
3.454,3.3583264350891113,-10.75813102722168,-2.7936203479766846,-0.7675521969795227,-0.8930849432945251,-1.994780421257019,-34.09821701049805,30.955860137939453,-0.30692780017852783
3.46,3.308077335357666,-10.779664993286133,-2.693121910095215,-0.763428807258606,-0.8411614298820496,-1.9981402158737183,-34.142066955566406,30.093538284301758,1.6369482278823853
3.47,3.4169507026672363,-10.98185920715332,-2.537588357925415,-0.7652614116668701,-0.7438811659812927,-2.0004308223724365,-34.682838439941406,28.383514404296875,4.896229267120361
3.48,3.7531421184539795,-11.197213172912598,-2.4538395404815674,-0.7997753024101257,-0.6572909951210022,-1.9813413619995117,-34.229759216308594,26.68810272216797,8.257820129394531
3.49,3.717249870300293,-10.968698501586914,-2.581855535507202,-0.8478809595108032,-0.6247624158859253,-1.9562959671020508,-33.27974319458008,25.13884925842285,11.853259086608887
3.509,2.9455647468566895,-10.350153923034668,-2.4873390197753906,-0.9361509680747986,-0.5543602108955383,-1.9546160697937012,-28.83659553527832,22.09880256652832,21.996492385864258
3.513,2.904886484146118,-10.262815475463867,-2.462214469909668,-0.9479101300239563,-0.5300782918930054,-1.9533942937850952,-27.287343978881836,21.83572006225586,23.472667694091797
3.52,2.7625136375427246,-10.000802040100098,-2.4981067180633545,-0.9801332950592041,-0.45982882380485535,-1.9559904336929321,-24.32037353515625,21.20724868774414,26.936567306518555
3.53,2.7361927032470703,-9.629914283752441,-2.386840581893921,-1.000749945640564,-0.31963521242141724,-1.940566062927246,-18.576440811157227,21.528793334960938,31.365097045898438
3.54,2.5495524406433105,-9.235098838806152,-2.242074728012085,-1.015868902206421,-0.18997909128665924,-1.91093909740448,-10.96170711517334,23.677288055419922,32.78281021118164
3.55,2.5471596717834473,-8.785247802734375,-2.4849462509155273,-1.000749945640564,-0.07712173461914062,-1.884671926498413,-3.800058364868164,26.805028915405273,33.48435974121094
3.569,2.7146570682525635,-8.001599311828613,-2.289931058883667,-0.8735372424125671,0.11209376901388168,-1.836719036102295,5.904706001281738,34.03975296020508,25.50423812866211
3.573,2.74337100982666,-7.953742504119873,-2.2743778228759766,-0.8491026759147644,0.10613783448934555,-1.8486309051513672,6.679333686828613,34.87284469604492,23.823442459106445
3.58,2.8689942359924316,-7.77906608581543,-2.368894338607788,-0.8213083148002625,0.08368853479623795,-1.8752036094665527,7.307804584503174,36.99210739135742,20.476469039916992
3.59,3.1621150970458984,-7.466803073883057,-2.225324869155884,-0.782365620136261,-0.009468411095440388,-1.906510353088379,6.547792911529541,38.68751907348633,14.805611610412598
3.6,3.3535408973693848,-7.39860725402832,-2.1272192001342773,-0.7987062931060791,-0.17699819803237915,-1.9242254495620728,5.363928318023682,39.53522491455078,10.96170711517334
3.61,3.3032915592193604,-7.280162334442139,-2.163111686706543,-0.8400924205780029,-0.3361286222934723,-1.9233092069625854,2.937737464904785,39.75445556640625,7.527039051055908
3.626,2.4263219833374023,-6.752545356750488,-2.080559253692627,-0.8770498037338257,-0.48808133602142334,-1.8646661043167114,-1.2277112007141113,38.5267448425293,3.4054369926452637
3.63,2.3330020904541016,-6.6759748458862305,-2.1583259105682373,-0.887739896774292,-0.47448956966400146,-1.8390097618103027,-2.1631100177764893,38.40982437133789,3.2738964557647705
3.64,1.8831512928009033,-6.180660724639893,-2.5112671852111816,-0.84574294090271,-0.3764457106590271,-1.7774651050567627,-4.238526821136475,37.591346740722656,1.2423267364501953
3.65,1.8185451030731201,-5.90668249130249,-2.4119651317596436,-0.7768678665161133,-0.21930061280727386,-1.6997324228286743,-5.846243858337402,37.41596221923828,0.3800058364868164
3.66,2.093719720840454,-5.90668249130249,-2.3976082801818848,-0.6997461318969727,-0.0933096632361412,-1.6256651878356934,-8.184741020202637,36.524410247802734,0.23384974896907806
3.67,2.5160529613494873,-5.942574977874756,-2.3473589420318604,-0.6278167366981506,0.0013744467869400978,-1.5334244966506958,-9.295527458190918,35.852088928222656,0.33615902066230774
3.69,2.9132614135742188,-5.809772968292236,-2.1774685382843018,-0.5108360648155212,-0.036193765699863434,-1.3622294664382935,-11.765565872192383,35.530548095703125,-0.4823150932788849
3.694,2.96111798286438,-5.746363162994385,-2.30069899559021,-0.4915938079357147,-0.09453140199184418,-1.352913737297058,-12.525577545166016,35.472084045410156,0.10230926424264908
3.7,2.785245418548584,-5.670989513397217,-2.4335005283355713,-0.47769662737846375,-0.18631389737129211,-1.3295481204986572,-12.949429512023926,35.559776306152344,-0.4092370569705963
3.71,2.6356940269470215,-5.863611698150635,-2.4945175647735596,-0.4772384762763977,-0.29504790902137756,-1.3135130405426025,-14.045600891113281,35.50131607055664,-1.1692488193511963
3.72,2.5710878372192383,-6.163910865783691,-2.6297121047973633,-0.5093088746070862,-0.35185837745666504,-1.2930489778518677,-14.39637565612793,35.2674674987793,-0.7015492916107178
3.73,2.6632113456726074,-6.178267955780029,-2.8247268199920654,-0.5360342264175415,-0.3275764584541321,-1.2060006856918335,-15.434082984924316,35.340545654296875,-0.891552209854126
3.749,2.2815563678741455,-5.654239654541016,-2.830709218978882,-0.4964807331562042,-0.1088867262005806,-0.9807441234588623,-16.13563346862793,35.22361755371094,-0.745396077632904
3.753,2.2336997985839844,-5.576473236083984,-2.778066873550415,-0.4732678234577179,-0.02932153083384037,-0.914923369884491,-16.486408233642578,34.93130874633789,-1.7100263833999634
3.76,2.4155545234680176,-5.467599391937256,-2.8247268199920654,-0.4297436773777008,0.07651086896657944,-0.8251261711120605,-16.837182998657227,35.282081604003906,-1.9146448373794556
3.77,2.641676187515259,-5.225924491882324,-3.1573293209075928,-0.34773504734039307,0.20830504596233368,-0.6957755088806152,-18.035661697387695,34.59514617919922,-1.2861735820770264
3.78,3.449253797531128,-5.19960355758667,-3.3092734813690186,-0.23884831368923187,0.2541199326515198,-0.5862779021263123,-18.25489616394043,34.6682243347168,-2.2069568634033203
3.79,4.315455436706543,-5.535795211791992,-2.7672994136810303,-0.12064588069915771,0.17409659922122955,-0.3880521357059479,-18.737211227416992,35.13592529296875,-1.4323296546936035
3.803,3.906282901763916,-5.928217887878418,-2.431107759475708,-0.09010262042284012,0.04886921867728233,-0.19562958180904388,-18.576440811157227,35.16515350341797,-1.739257574081421
3.81,3.504288673400879,-5.889932632446289,-2.6081764698028564,-0.08521570265293121,-0.037110064178705215,-0.13820825517177582,-19.36568260192871,34.975154876708984,-2.660040855407715
3.82,3.542573928833008,-5.7918267250061035,-3.064009428024292,-0.0682641938328743,-0.10659598559141159,-0.07696902006864548,-18.956445693969727,35.58900833129883,-2.4261913299560547
3.83,3.785445213317871,-5.697310447692871,-3.400200843811035,-0.015577062964439392,-0.18814648687839508,0.0088575454428792,-19.74568748474121,35.12131118774414,-2.1192634105682373
3.84,3.741178274154663,-5.607579708099365,-3.7184462547302246,0.10186177492141724,-0.27122417092323303,0.15470163524150848,-19.26337242126465,34.916690826416016,-3.493130683898926
3.85,3.3822548389434814,-6.051447868347168,-3.596412181854248,0.22403483092784882,-0.29764407873153687,0.2820670008659363,-20.257234573364258,35.23823165893555,-3.551593065261841
3.87,3.720839262008667,-7.548158645629883,-2.854637384414673,0.37598752975463867,-0.29794952273368835,0.5100724697113037,-19.497222900390625,35.925167083740234,-3.3908214569091797
3.873,3.8632121086120605,-7.670192718505859,-2.9958138465881348,0.3911064863204956,-0.30436357855796814,0.5807800889015198,-19.146448135375977,36.20286560058594,-3.4054369926452637
3.88,4.183850288391113,-7.946564197540283,-3.4444680213928223,0.4118758738040924,-0.33979377150535583,0.6490443348884583,-19.05875587463379,36.3636360168457,-3.1862027645111084
3.89,4.4410786628723145,-8.325825691223145,-3.9553356170654297,0.48884493112564087,-0.4440990090370178,0.8373435139656067,-19.292604446411133,36.75825881958008,-3.3177430629730225
3.9,4.321437358856201,-8.997013092041016,-4.158725261688232,0.5539020299911499,-0.5077817440032959,1.0175487995147705,-18.81028938293457,36.78749084472656,-4.413913726806641
3.91,3.999603033065796,-9.243474006652832,-4.411168098449707,0.6175847053527832,-0.5542075037956238,1.1568260192871094,-18.35720443725586,37.25518798828125,-3.66851806640625
3.922,3.803391456604004,-9.696913719177246,-4.612165451049805,0.7247915863990784,-0.578489363193512,1.3083206415176392,-17.684886932373047,37.649810791015625,-5.1300787925720215
3.93,3.779463291168213,-9.913464546203613,-4.999802589416504,0.7872526049613953,-0.5755877494812012,1.3849842548370361,-17.15872573852539,37.37211227416992,-5.013154029846191
3.94,3.7459635734558105,-10.271190643310547,-5.383850574493408,0.9243918061256409,-0.5491678714752197,1.505019187927246,-16.574100494384766,37.37211227416992,-4.852382659912109
3.95,4.2281174659729,-11.309675216674805,-5.55733060836792,1.044274091720581,-0.5117523670196533,1.6007723808288574,-15.931015014648438,37.43057632446289,-5.1300787925720215
3.96,4.60857629776001,-12.283554077148438,-5.659025192260742,1.1468994617462158,-0.527634859085083,1.737758994102478,-14.980999946594238,38.234432220458984,-5.393159866333008
3.97,4.537988185882568,-12.866207122802734,-5.904289722442627,1.253800868988037,-0.5401575565338135,1.8739817142486572,-14.527915000915527,38.61444091796875,-7.015492916107178
3.99,4.061816215515137,-13.548161506652832,-5.621936798095703,1.4779884815216064,-0.6148358583450317,2.1006128787994385,-12.642502784729004,39.05290985107422,-7.0301079750061035
3.993,3.9792640209198,-13.802997589111328,-5.662614822387695,1.4943290948867798,-0.6096435189247131,2.155285120010376,-11.677871704101562,39.16983413696289,-7.497807502746582
4.0,3.9397823810577393,-14.22293758392334,-5.528616905212402,1.5280793905258179,-0.6195700168609619,2.2069034576416016,-11.51710033416748,39.30137634277344,-8.140894889831543
4.01,3.5533413887023926,-14.677574157714844,-4.996213436126709,1.5205962657928467,-0.5653557777404785,2.2992968559265137,-10.844781875610352,39.140602111816406,-8.827827453613281
4.02,3.3643083572387695,-14.377273559570312,-4.96630334854126,1.4621058702468872,-0.4479169249534607,2.3773345947265625,-9.295527458190918,39.49137496948242,-8.491668701171875
4.03,3.404986619949341,-13.826925277709961,-5.0811591148376465,1.404226541519165,-0.3029891550540924,2.450944185256958,-8.725519180297852,38.7459831237793,-9.003214836120605
4.043,2.988635540008545,-12.805190086364746,-5.071587562561035,1.316261887550354,-0.08781187981367111,2.5227205753326416,-7.234726905822754,38.819061279296875,-10.230926513671875
4.05,2.499303102493286,-11.856435775756836,-4.9435715675354,1.2687671184539795,0.030695976689457893,2.504241943359375,-6.328558921813965,39.05290985107422,-9.646302223205566
4.06,2.310270071029663,-10.956734657287598,-4.759324073791504,1.2157745361328125,0.21380282938480377,2.451249361038208,-5.437006950378418,38.71674728393555,-9.880152702331543
4.07,2.1810576915740967,-10.191031455993652,-4.5714874267578125,1.1800389289855957,0.41523563861846924,2.3933701515197754,-4.516223430633545,38.190589904785156,-9.792458534240723
4.08,2.11405873298645,-9.68973445892334,-4.398007869720459,1.1381946802139282,0.6207917928695679,2.3238840103149414,-3.66851806640625,38.205204010009766,-10.391697883605957
4.09,2.2683956623077393,-9.354740142822266,-4.398007869720459,1.0919215679168701,0.8170322775840759,2.217288017272949,-3.493130683898926,37.649810791015625,-9.529377937316895
4.104,2.4813568592071533,-9.148957252502441,-4.2616167068481445,1.020297646522522,0.9057604670524597,2.097100257873535,-2.2800350189208984,36.655948638916016,-9.339374542236328
4.11,2.3784656524658203,-9.214759826660156,-3.9397823810577393,0.9743300676345825,0.9078984260559082,2.0173823833465576,-2.3677287101745605,36.845951080322266,-9.22244930267334
4.12,2.2600209712982178,-9.395418167114258,-3.8739798069000244,0.8993463516235352,0.8836165070533752,1.8777996301651,-1.5638701915740967,36.05670928955078,-8.564746856689453
4.13,2.434696912765503,-9.77707290649414,-3.6909286975860596,0.811687171459198,0.891252338886261,1.742034912109375,-1.5638701915740967,35.2674674987793,-8.783981323242188
4.14,2.867797613143921,-9.93140983581543,-3.895514965057373,0.7211264371871948,0.8828530311584473,1.6409367322921753,-0.950014591217041,33.572052001953125,-8.213972091674805
4.15,3.0831520557403564,-9.933802604675293,-3.9218363761901855,0.6476698517799377,0.8422304391860962,1.5709927082061768,-0.4823150932788849,33.45513153076172,-7.073955059051514
4.163,2.8797619342803955,-9.722038269042969,-4.065405368804932,0.6094907522201538,0.8309293985366821,1.5322027206420898,-0.7746273279190063,31.55510139465332,-6.606255531311035
4.17,2.7565317153930664,-9.713663101196289,-3.8979079723358154,0.6107125282287598,0.8196284174919128,1.5037974119186401,-1.0815550088882446,31.218942642211914,-6.138556003570557
4.18,2.7589244842529297,-9.66102123260498,-3.662214994430542,0.6194173693656921,0.8266533613204956,1.4695889949798584,-0.9792458415031433,29.771995544433594,-6.430868148803711
4.19,2.6847469806671143,-9.588040351867676,-3.4612178802490234,0.6433938145637512,0.8582656383514404,1.4598151445388794,-1.7977200746536255,28.485822677612305,-5.948553085327148
4.2,2.647658109664917,-9.591629981994629,-3.2374887466430664,0.664315938949585,0.9158397316932678,1.458593487739563,-1.0961706638336182,27.52119255065918,-6.650102138519287
4.22,2.8151557445526123,-9.65384292602539,-2.974278450012207,0.6582072973251343,0.9188940525054932,1.4358388185501099,-1.783104419708252,26.848873138427734,-5.8900909423828125
4.223,2.8378875255584717,-9.31047248840332,-3.1274189949035645,0.624609649181366,0.9130908250808716,1.409724235534668,-3.2885122299194336,24.627302169799805,-6.109324932098389
4.23,2.737389087677002,-8.912067413330078,-3.146561861038208,0.6015495657920837,0.9092729091644287,1.3849842548370361,-3.566208839416504,24.39345359802246,-7.05933952331543
4.24,2.7182462215423584,-8.306683540344238,-3.291327476501465,0.5754350423812866,0.8741481304168701,1.3167200088500977,-4.574686050415039,22.961122512817383,-6.650102138519287
4.25,2.7278177738189697,-7.816154956817627,-3.2159535884857178,0.53328537940979,0.826500654220581,1.2249374389648438,-5.773165702819824,22.39111328125,-6.971645355224609
4.26,2.748156785964966,-7.178467750549316,-3.0616164207458496,0.498924195766449,0.7990117073059082,1.1672108173370361,-7.103186130523682,21.733409881591797,-7.8339667320251465
4.279,2.7182462215423584,-6.811169624328613,-2.7385854721069336,0.47311511635780334,0.7805330157279968,1.1087204217910767,-7.424729347229004,21.26571273803711,-8.067816734313965
4.283,2.4562323093414307,-6.370890140533447,-2.8869404792785645,0.4101960062980652,0.7973318696022034,1.0824532508850098,-9.339374542236328,20.71031951904297,-8.608593940734863
4.29,2.231307029724121,-6.076572895050049,-2.9240291118621826,0.38606685400009155,0.8205447196960449,1.0563386678695679,-10.289388656616211,20.169540405273438,-9.719380378723145
4.3,2.0829520225524902,-5.728416919708252,-2.827119827270508,0.3390301764011383,0.8303185701370239,0.9721919894218445,-11.078632354736328,20.198772430419922,-11.268634796142578
4.31,2.6141586303710938,-5.461617469787598,-3.414557933807373,0.350789338350296,0.7999280095100403,0.9301950335502625,-12.277112007141113,20.388774871826172,-11.634024620056152
4.32,2.9312076568603516,-5.200799465179443,-2.9419755935668945,0.42241328954696655,0.6707300543785095,0.8762862086296082,-12.525577545166016,20.418006896972656,-11.648640632629395
4.34,2.2408783435821533,-5.276174068450928,-2.551945447921753,0.44028112292289734,0.6172793507575989,0.8782715201377869,-13.21251106262207,20.534931182861328,-12.598654747009277
4.344,2.094916343688965,-5.395815372467041,-2.6691935062408447,0.4677700698375702,0.5916229486465454,0.8084800839424133,-14.001753807067871,20.958784103393555,-11.897106170654297
4.35,2.2648065090179443,-5.662614822387695,-2.530409812927246,0.4639521539211273,0.5400048494338989,0.7687739133834839,-13.7240571975708,20.90032196044922,-12.744811058044434
4.36,2.3126630783081055,-5.799005508422852,-2.8187451362609863,0.46547931432724,0.5145012736320496,0.7319692969322205,-13.899443626403809,21.309558868408203,-12.569424629211426
4.37,2.2636101245880127,-6.215356349945068,-2.647658109664917,0.47082436084747314,0.4366159439086914,0.6913467645645142,-14.440221786499023,21.54340934753418,-13.417129516601562
4.38,2.3461625576019287,-6.86979341506958,-2.5938196182250977,0.44058653712272644,0.3455969989299774,0.628885805606842,-14.060215950012207,21.704179763793945,-13.899443626403809
4.399,2.480160713195801,-7.6558356285095215,-2.5328028202056885,0.38209620118141174,0.275347501039505,0.6010913848876953,-14.95176887512207,22.09880256652832,-13.7240571975708
4.404,2.306680917739868,-8.443074226379395,-2.273181438446045,0.26740625500679016,0.2762638032436371,0.6203336119651794,-14.747150421142578,21.616485595703125,-14.294065475463867
4.41,2.104487419128418,-8.419146537780762,-2.4023938179016113,0.1970040500164032,0.32681289315223694,0.6430883407592773,-14.600994110107422,22.025724411010742,-14.659457206726074
4.421,1.8460626602172852,-8.12841796875,-2.6560330390930176,0.13973543047904968,0.4433354437351227,0.682641863822937,-14.878690719604492,21.777257919311523,-14.615609169006348
4.43,1.6546367406845093,-7.788637638092041,-2.8666014671325684,0.12965615093708038,0.5558873414993286,0.7221954464912415,-15.887167930603027,22.230342864990234,-13.694826126098633
4.44,1.643869161605835,-7.660621643066406,-2.9587249755859375,0.1537853181362152,0.6180429458618164,0.7342600226402283,-15.4633150100708,21.441099166870117,-13.914060592651367
4.46,1.6342978477478027,-7.721638202667236,-3.377469062805176,0.20586158335208893,0.645073652267456,0.7292203903198242,-15.580240249633789,22.186494827270508,-13.870213508605957
4.464,1.8412768840789795,-8.250452041625977,-3.377469062805176,0.3055853545665741,0.6942483186721802,0.7321219444274902,-16.07716941833496,21.4703311920166,-13.460975646972656
4.47,1.8472589254379272,-8.422735214233398,-3.2482566833496094,0.3491095006465912,0.6743952035903931,0.7137960195541382,-15.79947280883789,21.938030242919922,-14.016368865966797
4.48,1.7168502807617188,-8.38564682006836,-3.4265217781066895,0.388357549905777,0.674089789390564,0.6916521787643433,-15.916398048400879,22.537269592285156,-13.621747970581055
4.496,1.9573287963867188,-8.155935287475586,-3.682553768157959,0.48899760842323303,0.6777549982070923,0.6447682976722717,-15.624086380004883,22.537269592285156,-14.089447021484375
4.5,2.0446667671203613,-8.093722343444824,-3.792623519897461,0.5025893449783325,0.6747006773948669,0.6433938145637512,-16.033323287963867,22.683425903320312,-13.972522735595703
4.51,2.3808584213256836,-8.244470596313477,-3.5126636028289795,0.5679519176483154,0.5844453573226929,0.6291911602020264,-15.784857749938965,22.66880989074707,-13.519438743591309
4.52,2.9168508052825928,-8.932406425476074,-2.6261227130889893,0.582001805305481,0.43905937671661377,0.6140722632408142,-15.945630073547363,22.37649917602539,-13.972522735595703
4.53,3.1968109607696533,-10.04985523223877,-2.2325034141540527,0.46700647473335266,0.3084869384765625,0.637132465839386,-16.04793930053711,22.434959411621094,-14.162525177001953
4.55,3.012563705444336,-10.443473815917969,-3.064009428024292,0.2889392673969269,0.20693059265613556,0.6574437022209167,-16.091785430908203,22.858814239501953,-13.16866397857666
4.553,2.7876384258270264,-10.201799392700195,-4.262813568115234,0.11071932315826416,0.08460482954978943,0.5874996781349182,-16.23794174194336,22.902660369873047,-13.344051361083984
4.56,2.5112671852111816,-10.021141052246094,-4.518845558166504,0.055436018854379654,0.04871650040149689,0.5407684445381165,-15.726396560668945,22.37649917602539,-14.001753807067871
4.57,2.104487419128418,-9.609575271606445,-4.892125606536865,0.0328340083360672,-0.032070424407720566,0.42806383967399597,-15.667933464050293,22.610347747802734,-13.329436302185059
4.58,1.8257235288619995,-9.253045082092285,-5.247459411621094,0.04566217586398125,-0.06627887487411499,0.3214678466320038,-15.843321800231934,22.508039474487305,-13.314821243286133
4.59,2.087737560272217,-8.965906143188477,-5.130211353302002,0.12308934330940247,-0.05604688450694084,0.23350323736667633,-14.95176887512207,22.771120071411133,-12.218649864196777
4.61,1.9417754411697388,-9.141778945922852,-5.077569484710693,0.22250765562057495,-0.014355332590639591,0.20601430535316467,-15.346389770507812,22.259572982788086,-13.183279037475586
4.614,2.0063817501068115,-9.870392799377441,-4.7988057136535645,0.3588833212852478,0.05268712714314461,0.11255192011594772,-14.484068870544434,22.420345306396484,-12.291727066040039
4.62,2.0231313705444336,-10.705488204956055,-4.1383867263793945,0.38377609848976135,0.0656680166721344,0.06582073122262955,-14.73253345489502,22.74188804626465,-11.444022178649902
4.63,2.091326951980591,-11.639884948730469,-4.265206336975098,0.32589662075042725,0.06750060617923737,-0.01191187184303999,-14.937153816223145,23.268049240112305,-11.297865867614746
4.64,2.8558335304260254,-12.614960670471191,-4.319044589996338,0.2635883390903473,-0.12538009881973267,-0.18539761006832123,-14.586379051208496,23.253435134887695,-11.166325569152832
4.65,3.4648072719573975,-13.497912406921387,-4.698307037353516,0.1485929638147354,-0.25244006514549255,-0.2370157092809677,-14.07483196258545,23.50189971923828,-11.6047945022583
4.669,3.5054850578308105,-14.006386756896973,-5.328815937042236,0.014660765416920185,-0.3926336169242859,-0.2742784917354584,-13.957907676696777,23.355743408203125,-11.429407119750977
4.673,3.111865520477295,-14.32941722869873,-5.291727066040039,-0.06291911751031876,-0.5022839307785034,-0.34406986832618713,-14.35252857208252,23.092662811279297,-10.552470207214355
4.68,2.720639228820801,-14.397613525390625,-5.101497650146484,-0.11789698898792267,-0.5106833577156067,-0.3877466917037964,-13.300204277038574,23.69190216064453,-9.719380378723145
4.69,2.3880369663238525,-14.358132362365723,-4.790431022644043,-0.17104226350784302,-0.4615086615085602,-0.4590652287006378,-13.154048919677734,23.66267204284668,-9.660917282104492
4.7,2.379662036895752,-14.307883262634277,-4.711467742919922,-0.21853703260421753,-0.3904955983161926,-0.5343543291091919,-13.197896003723145,23.10727882385254,-9.368605613708496
4.71,2.499303102493286,-13.990833282470703,-4.713860511779785,-0.2742784917354584,-0.29336804151535034,-0.655458390712738,-12.320959091186523,23.925752639770508,-8.827827453613281
4.73,2.99222469329834,-13.355539321899414,-4.709074974060059,-0.30940327048301697,-0.26083946228027344,-0.780380368232727,-12.671732902526855,23.925752639770508,-8.257820129394531
4.733,3.3583264350891113,-12.45703411102295,-4.566701889038086,-0.39797869324684143,-0.32238414883613586,-0.9117163419723511,-12.320959091186523,23.794212341308594,-7.161648750305176
4.74,3.260220766067505,-11.723634719848633,-4.419543266296387,-0.45585817098617554,-0.39813143014907837,-0.9926559925079346,-11.809412002563477,24.042678833007812,-7.8047356605529785
4.75,2.9958138465881348,-10.61934757232666,-4.185046672821045,-0.5393940210342407,-0.4505131244659424,-1.104138970375061,-11.926337242126465,23.954984664916992,-6.401637077331543
4.76,2.8103702068328857,-9.678967475891113,-3.8213376998901367,-0.6131559610366821,-0.5149593949317932,-1.263116478919983,-10.859397888183594,23.77959632873535,-6.606255531311035
4.77,2.2133607864379883,-8.677571296691895,-4.068994522094727,-0.6598871946334839,-0.49586984515190125,-1.3956743478775024,-10.552470207214355,24.188833236694336,-5.583162784576416
4.789,2.413161516189575,-7.787441253662109,-4.051048755645752,-0.6409503817558289,-0.47998735308647156,-1.5856534242630005,-10.084770202636719,24.247295379638672,-4.998538494110107
4.793,3.6873395442962646,-7.981259346008301,-3.841676712036133,-0.6026185750961304,-0.708450973033905,-1.797623634338379,-9.368605613708496,24.77345848083496,-4.516223430633545
4.8,4.2795634269714355,-8.434700012207031,-4.000799655914307,-0.6075054407119751,-0.9356928467750549,-1.8741345405578613,-8.652440071105957,24.831920623779297,-3.78544282913208
4.81,4.820341110229492,-8.842676162719727,-4.356133460998535,-0.582001805305481,-1.272737741470337,-1.952478051185608,-7.863198280334473,26.05963134765625,-3.814674139022827
4.82,4.590630054473877,-9.401399612426758,-4.2484564781188965,-0.5688682198524475,-1.6925548315048218,-1.9882136583328247,-6.664718151092529,26.132709503173828,-3.1862027645111084
4.83,3.867997646331787,-10.347761154174805,-3.895514965057373,-0.6013968586921692,-1.9561432600021362,-2.0114264488220215,-5.290850639343262,27.433500289916992,-3.66851806640625
4.85,3.750749349594116,-11.468798637390137,-3.0759735107421875,-0.667828381061554,-2.1041252613067627,-1.9966130256652832,-3.78544282913208,28.748903274536133,-2.937737464904785
4.853,3.0903303623199463,-12.0993070602417,-3.1130621433258057,-0.8790351152420044,-1.9775234460830688,-1.8807013034820557,-1.943876028060913,30.517393112182617,-2.1192634105682373
4.86,2.7565317153930664,-11.868399620056152,-3.2997024059295654,-0.9306531548500061,-1.8894060850143433,-1.8493945598602295,-0.9353989958763123,31.891260147094727,-2.718503475189209
4.87,2.5399811267852783,-11.871988296508789,-3.1932218074798584,-1.059698462486267,-1.600925087928772,-1.7499761581420898,-0.5553931593894958,33.177433013916016,-3.536977529525757
4.88,2.031506299972534,-12.088539123535156,-3.2578277587890625,-1.154077172279358,-1.2373075485229492,-1.652390480041504,0.8477053642272949,35.07746124267578,-2.660040855407715
4.89,1.4943177700042725,-11.947362899780273,-3.119044303894043,-1.1951578855514526,-0.8315402865409851,-1.5975652933120728,0.5553931593894958,36.64133071899414,-2.0900321006774902
4.91,1.1892328262329102,-11.71286678314209,-2.8701906204223633,-1.2189815044403076,-0.4352414906024933,-1.6102408170700073,1.6515638828277588,38.33674621582031,-2.5431160926818848
4.913,1.7802599668502808,-11.648260116577148,-2.524427890777588,-1.2542589902877808,-0.025045473128557205,-1.7571537494659424,0.9353989958763123,40.23677444458008,-2.923121929168701
4.92,2.0673987865448,-11.529815673828125,-2.5878376960754395,-1.275792121887207,0.13744467496871948,-1.8278615474700928,0.8038585186004639,42.20988082885742,-2.1923413276672363
4.93,2.898904800415039,-10.914859771728516,-2.633301258087158,-1.2872458696365356,0.2638937830924988,-1.9179641008377075,-0.5115463137626648,43.83221435546875,-2.850043773651123
4.94,3.3475589752197266,-10.64447021484375,-2.5328028202056885,-1.2893837690353394,0.3159700334072113,-1.96133553981781,-1.4323296546936035,44.94300079345703,-2.5431160926818848
4.95,3.704089403152466,-10.529616355895996,-2.304288148880005,-1.3124439716339111,0.2974913716316223,-2.0056233406066895,-2.3677287101745605,46.21455764770508,-2.031569719314575
4.97,3.9589247703552246,-10.249655723571777,-2.376072883605957,-1.356884479522705,0.24694228172302246,-2.0225749015808105,-3.2300498485565186,47.427650451660156,-2.616194009780884
4.974,3.1860432624816895,-9.214759826660156,-2.3952155113220215,-1.3784173727035522,0.1235474944114685,-2.0612120628356934,-5.1446943283081055,48.90382766723633,-2.1923413276672363
4.98,2.915654182434082,-8.971887588500977,-2.2408783435821533,-1.390329360961914,0.07651086896657944,-2.0986275672912598,-6.284712314605713,49.42999267578125,-2.3677287101745605
4.99,2.5148565769195557,-8.423932075500488,-2.076970100402832,-1.3849842548370361,0.05711590126156807,-2.138486623764038,-7.950891494750977,50.21923065185547,-2.1192634105682373
5.0,2.1738791465759277,-7.722835063934326,-2.1272192001342773,-1.3535245656967163,0.04581489413976669,-2.1931588649749756,-9.485530853271484,50.3800048828125,-1.3154048919677734
5.01,1.9764714241027832,-7.113861083984375,-2.073380708694458,-1.300837516784668,0.055894169956445694,-2.2343924045562744,-11.370944023132324,50.93539810180664,-1.5200233459472656
5.03,1.872383713722229,-6.693921089172363,-2.0614166259765625,-1.211498498916626,0.04703662171959877,-2.2734875679016113,-13.650979042053223,50.48231506347656,-0.10230926424264908
5.033,2.122433662414551,-6.882954120635986,-1.5828521251678467,-1.1537716388702393,0.018478674814105034,-2.288759231567383,-16.793336868286133,50.30692672729492,0.6284711956977844
5.04,2.4670000076293945,-6.933203220367432,-1.8257235288619995,-1.144914150238037,-0.0044287727214396,-2.283108711242676,-17.97719955444336,49.89768981933594,0.49693071842193604
5.05,2.8666014671325684,-6.884150981903076,-1.9860427379608154,-1.1233811378479004,-0.0913243517279625,-2.2379047870635986,-19.35106658935547,49.07921600341797,2.1777257919311523
5.06,2.874976396560669,-6.770491600036621,-2.342573404312134,-1.1162035465240479,-0.20754145085811615,-2.15543794631958,-20.213388442993164,48.33382034301758,3.726980447769165
5.07,2.7290141582489014,-6.905685901641846,-2.2085752487182617,-1.0968085527420044,-0.327729195356369,-2.024407386779785,-19.570301055908203,47.51534652709961,5.305466175079346
5.09,2.427518606185913,-7.039684295654297,-2.2947168350219727,-1.1094839572906494,-0.4004221558570862,-1.916284203529358,-18.25489616394043,47.79304122924805,6.606255531311035
5.093,1.9549360275268555,-6.8303117752075195,-2.3401803970336914,-1.0749701261520386,-0.4109595715999603,-1.7805194854736328,-16.69102668762207,49.91230773925781,5.52470064163208
5.1,1.6115659475326538,-6.678368091583252,-2.361715793609619,-1.0448850393295288,-0.35842517018318176,-1.7001906633377075,-16.179479598999023,50.774627685546875,5.583162784576416
5.11,1.4380862712860107,-6.695117950439453,-2.183450698852539,-0.9711230397224426,-0.2646573483943939,-1.6125315427780151,-16.413330078125,53.72698211669922,3.624671220779419
5.12,1.3196415901184082,-6.850651264190674,-2.035095691680908,-0.9069821834564209,-0.11163561791181564,-1.5238033533096313,-18.123355865478516,54.691612243652344,1.2277112007141113
5.13,1.4572290182113647,-6.979863166809082,-1.8735800981521606,-0.8432994484901428,0.07590001076459885,-1.4298827648162842,-19.511838912963867,55.90470504760742,0.6577024459838867
5.15,2.087737560272217,-6.936792850494385,-2.3018951416015625,-0.8199338316917419,0.10995574295520782,-1.3744467496871948,-21.908798217773438,55.72931671142578,-0.4823150932788849
5.153,2.5423738956451416,-6.604190349578857,-2.922832727432251,-0.7704537510871887,0.06475171446800232,-1.2962559461593628,-23.998830795288086,55.90470504760742,-1.9877228736877441
5.16,2.7086751461029053,-6.63649320602417,-3.0173492431640625,-0.7418957948684692,-0.023976460099220276,-1.2545644044876099,-25.358083724975586,55.23238754272461,-3.0546624660491943
5.17,2.939582586288452,-6.88534688949585,-2.9204399585723877,-0.7276932001113892,-0.12507465481758118,-1.1609493494033813,-26.98041534423828,54.954689025878906,-3.9023678302764893
5.18,2.8833510875701904,-6.87697172164917,-3.049652338027954,-0.6910412907600403,-0.19303342700004578,-1.005178689956665,-28.325050354003906,54.867000579833984,-5.32008171081543
5.19,2.392822504043579,-6.401997089385986,-3.5581271648406982,-0.6157521605491638,-0.17409659922122955,-0.8768970370292664,-29.494300842285156,53.37620544433594,-4.457760810852051
5.21,2.2959132194519043,-5.9545392990112305,-3.655036449432373,-0.4755585789680481,-0.10002917796373367,-0.7512114644050598,-31.540485382080078,52.8792724609375,-5.057000637054443
5.213,2.4335005283355713,-6.287140846252441,-2.682354211807251,-0.19608773291110992,-0.04963279888033867,-0.5357288122177124,-31.67202377319336,53.04004669189453,-5.1446943283081055
5.22,2.297109603881836,-6.539583683013916,-2.4323041439056396,-0.1342376321554184,-0.060933806002140045,-0.4437935948371887,-32.812042236328125,52.733116149902344,-4.881613731384277
5.23,2.249253273010254,-7.216752529144287,-1.1868400573730469,-0.005192354787141085,-0.10873401165008545,-0.25335633754730225,-32.70973205566406,51.82695388793945,-5.334697246551514
5.24,1.9573287963867188,-8.059026718139648,-1.4608181715011597,-0.019547687843441963,-0.19792033731937408,-0.11316278576850891,-33.22127914428711,51.52002716064453,-5.173925876617432
5.25,2.221735715866089,-8.650053024291992,-1.8963117599487305,-0.04993823170661926,-0.2119702398777008,-0.033597588539123535,-33.586673736572266,51.05232620239258,-6.357789993286133
5.27,2.8893332481384277,-8.553144454956055,-3.3068807125091553,-0.06658431142568588,-0.20372354984283447,0.0529925599694252,-34.156681060791016,50.540775299072266,-6.255480766296387
5.274,3.506681442260742,-8.37966537475586,-3.867997646331787,0.041233401745557785,-0.2519819140434265,0.2623666226863861,-33.67436599731445,49.6784553527832,-6.577024459838867
5.28,3.4851462841033936,-8.461020469665527,-3.8117663860321045,0.10873401165008545,-0.3149010241031647,0.3738495111465454,-33.425899505615234,50.233848571777344,-7.293189525604248
5.29,2.9180471897125244,-8.860621452331543,-3.7435710430145264,0.18646661937236786,-0.3387247622013092,0.5396994352340698,-33.601287841796875,49.86845779418945,-6.547792911529541
5.3,2.636890411376953,-8.994619369506836,-3.658625841140747,0.3013092875480652,-0.32330042123794556,0.6496551632881165,-33.30897521972656,49.663841247558594,-6.723180294036865
5.31,2.413161516189575,-9.031708717346191,-3.9948172569274902,0.4392121136188507,-0.2961169183254242,0.7533495426177979,-33.41128158569336,49.6199951171875,-7.3370361328125
5.33,2.8977081775665283,-9.438488960266113,-3.961317777633667,0.6145303845405579,-0.2330450862646103,0.8689557909965515,-32.622039794921875,49.780765533447266,-7.775504112243652
5.333,3.6358938217163086,-10.613364219665527,-4.253242015838623,0.8662069439888,-0.22800545394420624,1.1572842597961426,-32.19818878173828,50.19000244140625,-8.228588104248047
5.34,3.796213150024414,-10.955538749694824,-4.686342716217041,0.9908233880996704,-0.27259859442710876,1.2977831363677979,-31.920490264892578,50.13154220581055,-8.03858470916748
5.35,3.9361932277679443,-11.59681510925293,-4.524827480316162,1.1681270599365234,-0.42562034726142883,1.4492777585983276,-31.072786331176758,50.365386962890625,-7.921660900115967
5.36,3.940978765487671,-12.019147872924805,-4.408775806427002,1.2725850343704224,-0.5493205189704895,1.6146694421768188,-29.91815185546875,50.80385971069336,-9.237065315246582
5.37,3.785445213317871,-12.605388641357422,-3.696910858154297,1.3501648902893066,-0.7024950385093689,1.7765488624572754,-28.763521194458008,51.53464126586914,-9.54399299621582
5.39,3.3571300506591797,-12.848259925842285,-3.772284984588623,1.3251194953918457,-0.7535022497177124,1.9912679195404053,-27.52119255065918,52.104644775390625,-9.675533294677734
5.393,2.455035924911499,-11.971291542053223,-4.223331928253174,1.2976304292678833,-0.7063129544258118,2.1618521213531494,-25.50423812866211,52.937740325927734,-10.347851753234863
5.4,2.210968017578125,-11.429317474365234,-4.498506546020508,1.3089314699172974,-0.6514877676963806,2.222480535507202,-24.59807014465332,53.39081954956055,-10.800935745239258
5.41,1.9812570810317993,-11.096714973449707,-4.738985061645508,1.3351987600326538,-0.5293146967887878,2.3212878704071045,-22.624963760375977,52.99620056152344,-11.487869262695312
5.42,1.7395819425582886,-10.73539924621582,-5.052444934844971,1.38070809841156,-0.35094207525253296,2.397645950317383,-20.82724380493164,53.61005783081055,-11.23940372467041
5.43,1.730010747909546,-10.29870891571045,-5.0392842292785645,1.4637858867645264,-0.16462817788124084,2.445751667022705,-19.482608795166016,54.15083312988281,-11.56094741821289
5.45,1.5254243612289429,-10.04148006439209,-4.90408992767334,1.5047138929367065,0.005955935921519995,2.481792688369751,-15.945630073547363,54.98392105102539,-12.335575103759766
5.454,1.384247899055481,-10.326226234436035,-4.383650779724121,1.508684515953064,0.12308934330940247,2.465146541595459,-15.273311614990234,54.9400749206543,-11.838644027709961
5.46,1.2406784296035767,-10.516454696655273,-4.110869407653809,1.4758503437042236,0.21884246170520782,2.4526238441467285,-14.367143630981445,55.02777099609375,-12.715579986572266
5.47,0.9918249249458313,-10.64447021484375,-4.120440483093262,1.4094188213348389,0.36682456731796265,2.4243714809417725,-12.408652305603027,54.969303131103516,-12.262495994567871
5.48,1.038485050201416,-10.838289260864258,-4.140779495239258,1.309389591217041,0.5138903856277466,2.3657283782958984,-10.201695442199707,55.188541412353516,-12.920199394226074
5.49,1.377069354057312,-11.150553703308105,-4.278366565704346,1.1856893301010132,0.6591235995292664,2.305405378341675,-8.155509948730469,55.13007736206055,-12.554807662963867
5.51,1.2526426315307617,-10.889735221862793,-4.7018961906433105,1.0981829166412354,0.7648032903671265,2.246609687805176,-5.87547492980957,54.6185302734375,-11.356328010559082
5.513,1.5074782371520996,-10.992627143859863,-4.596611976623535,1.0444267988204956,0.8932376503944397,2.1500930786132812,-5.1154632568359375,54.32621765136719,-11.020169258117676
5.52,1.710868239402771,-11.046465873718262,-4.697110652923584,1.0111346244812012,0.9613491296768188,2.1036672592163086,-4.209295749664307,54.238529205322266,-9.880152702331543
5.53,1.9190436601638794,-11.164910316467285,-4.624129772186279,0.9747881889343262,0.9989173412322998,2.024101972579956,-2.4115755558013916,53.80005645751953,-9.061677932739258
5.54,2.2923240661621094,-11.241480827331543,-4.755734920501709,0.9553932547569275,0.9860891699790955,1.9158260822296143,-0.9792458415031433,52.55773162841797,-7.322420120239258
5.55,2.950350046157837,-11.042876243591309,-4.8191447257995605,0.9002626538276672,0.9375254511833191,1.818698525428772,0.8038585186004639,51.31540298461914,-4.764688968658447
5.57,3.4301111698150635,-10.791630744934082,-4.8562331199646,0.9004153609275818,0.8219191431999207,1.7276794910430908,3.0108156204223633,49.35691452026367,-2.952353000640869
5.573,3.4301111698150635,-10.01037311553955,-5.006981372833252,0.9231700897216797,0.7237226366996765,1.6992744207382202,2.4846534729003906,48.479976654052734,-1.9292603731155396
5.58,3.3367910385131836,-9.609575271606445,-5.018945217132568,0.9430232048034668,0.6592763066291809,1.6751452684402466,2.4846534729003906,47.427650451660156,-0.7307804822921753
5.59,3.427718162536621,-9.635896682739258,-4.718646049499512,0.9604328870773315,0.39965859055519104,1.5587753057479858,2.5431160926818848,46.346099853515625,0.9353989958763123
5.6,3.600001335144043,-9.591629981994629,-4.724628448486328,0.978606104850769,0.1814269870519638,1.486693263053894,2.4700381755828857,45.03069305419922,2.1777257919311523
5.61,3.0927231311798096,-8.957530975341797,-4.917250633239746,1.0002918243408203,0.04413501173257828,1.432326316833496,1.446945309638977,43.14527893066406,3.66851806640625
5.629,2.596212387084961,-8.059026718139648,-4.955535411834717,1.0852020978927612,-0.06414084881544113,1.2974777221679688,0.029231218621134758,41.888336181640625,4.793920040130615
5.633,2.2983059883117676,-7.817351341247559,-4.5475592613220215,1.0955867767333984,-0.0507018156349659,1.2873984575271606,-3.741595983505249,40.8652458190918,4.355451583862305
5.64,2.3018951416015625,-7.8484578132629395,-4.252045631408691,1.0574077367782593,-0.032681290060281754,1.231046199798584,-0.5700087547302246,40.499855041503906,4.647763729095459
5.65,2.2564315795898438,-7.082754611968994,-4.341776371002197,1.0458012819290161,-0.028710665181279182,1.129337191581726,-1.900029182434082,39.81291961669922,5.422390937805176
5.66,1.939382791519165,-6.623332977294922,-3.750749349594116,1.0746647119522095,-0.009468411095440388,1.0358747243881226,-2.660040855407715,38.96521759033203,4.881613731384277
5.67,1.6187443733215332,-6.67717170715332,-2.904886484146118,1.047023057937622,0.05574145168066025,0.9769262671470642,-3.653902292251587,39.25752639770508,3.9754457473754883
5.69,1.6067804098129272,-6.893721580505371,-2.761317014694214,0.9572258591651917,0.19639316201210022,0.9453139305114746,-6.0508623123168945,38.62905502319336,3.1862027645111084
5.694,1.8735800981521606,-6.850651264190674,-2.8833510875701904,0.8014551401138306,0.3449861407279968,0.8666650652885437,-6.737796306610107,38.33674621582031,3.3031277656555176
5.7,1.9669002294540405,-6.7178497314453125,-2.616551399230957,0.7461718320846558,0.3856086730957031,0.8232936263084412,-7.395498275756836,38.35136032104492,2.1923413276672363
5.711,2.255235195159912,-6.553940773010254,-3.008974552154541,0.6522513628005981,0.37950003147125244,0.7574729323387146,-7.877813339233398,38.45366668701172,2.3823444843292236
5.72,2.480160713195801,-6.56829833984375,-3.190828800201416,0.5655084848403931,0.27290403842926025,0.6876814961433411,-8.842443466186523,38.1467399597168,1.2715580463409424
5.73,2.1990039348602295,-6.704688549041748,-3.071187734603882,0.4792237877845764,0.22311851382255554,0.663705050945282,-9.237065315246582,38.51213073730469,0.26308098435401917
5.75,1.5182459354400635,-6.947559833526611,-2.740978240966797,0.3700316250324249,0.3124575614929199,0.6734789609909058,-9.953229904174805,38.32212829589844,-0.39462143182754517
5.754,0.7250252366065979,-7.422535419464111,-2.304288148880005,0.22892174124717712,0.5852088928222656,0.6798930168151855,-10.128617286682129,38.029815673828125,-0.6430867910385132
5.76,0.8327022790908813,-7.518248558044434,-2.3916261196136475,0.1615738421678543,0.7980954647064209,0.6817256212234497,-10.610932350158691,37.854427337646484,0.014615609310567379
5.77,1.179661512374878,-7.496713161468506,-2.5531415939331055,0.10491610318422318,1.037096381187439,0.6963863968849182,-11.444022178649902,37.95673751831055,0.24846535921096802
5.78,1.506281852722168,-7.055237293243408,-3.0963122844696045,0.07712173461914062,1.2260066270828247,0.716697633266449,-12.014030456542969,37.25518798828125,-1.0084770917892456
5.79,2.0135602951049805,-6.9750776290893555,-3.1549363136291504,0.11942415684461594,1.3116803169250488,0.7444919943809509,-12.350189208984375,37.75211715698242,-1.0084770917892456
5.81,2.4670000076293945,-7.257430553436279,-3.102294445037842,0.22082778811454773,1.2255483865737915,0.7611380815505981,-13.738672256469727,37.7667350769043,-1.0377082824707031
5.813,2.7457637786865234,-7.4811601638793945,-3.4301111698150635,0.25045475363731384,1.15178644657135,0.7525859475135803,-13.504822731018066,38.029815673828125,-1.3738672733306885
5.82,2.5902304649353027,-7.318447589874268,-3.616751194000244,0.3126102685928345,1.0415252447128296,0.7325801253318787,-13.972522735595703,38.11751174926758,-1.8123356103897095
5.83,2.379662036895752,-7.204788684844971,-3.5844480991363525,0.4285219609737396,0.88987797498703,0.6962336897850037,-14.235603332519531,37.73750305175781,-1.8123356103897095
5.84,2.1308083534240723,-7.35194730758667,-3.383450984954834,0.5346598029136658,0.7713701128959656,0.6759223937988281,-14.86407470703125,37.16749572753906,-1.3592517375946045
5.85,1.7132608890533447,-7.4835524559021,-2.9419755935668945,0.6661485433578491,0.7192938327789307,0.6756169199943542,-14.250219345092773,38.1467399597168,-2.3969600200653076
5.871,1.6797614097595215,-7.89631462097168,-2.4358932971954346,0.7177666425704956,0.7293730974197388,0.6872233748435974,-15.039462089538574,38.33674621582031,-2.733119010925293
5.875,2.4287149906158447,-8.47896671295166,-2.770888566970825,0.7154759168624878,0.7347181439399719,0.7522805333137512,-15.28792667388916,38.13212585449219,-3.1862027645111084
5.88,2.693121910095215,-8.769694328308105,-2.5459630489349365,0.7163922190666199,0.696539044380188,0.7857254147529602,-14.966383934020996,38.38058853149414,-2.586962938308716
5.89,2.849851608276367,-9.244669914245605,-2.4849462509155273,0.6708827614784241,0.56810462474823,0.8489499688148499,-14.834843635559082,39.4621467590332,-3.0254311561584473
5.9,2.6560330390930176,-9.31166934967041,-2.874976396560669,0.6070473194122314,0.34865131974220276,0.8891143798828125,-15.536393165588379,39.374454498291016,-2.835428237915039
5.91,1.8999011516571045,-9.075976371765137,-3.504288673400879,0.5972734689712524,0.11224649101495743,0.840397834777832,-14.937153816223145,39.330604553222656,-3.595440149307251
5.929,1.454836130142212,-9.175277709960938,-3.5784661769866943,0.6155994534492493,0.003359758760780096,0.7102835774421692,-14.498684883117676,39.73984146118164,-3.493130683898926
5.933,1.0229315757751465,-9.184849739074707,-3.9625141620635986,0.6126978397369385,0.04184426739811897,0.6901249885559082,-14.35252857208252,39.79830551147461,-7.293189525604248
5.94,1.392622709274292,-9.205188751220703,-4.169493198394775,0.59803706407547,0.13576479256153107,0.6104071140289307,-13.987138748168945,39.28675842285156,-3.712364673614502
5.95,2.2683956623077393,-9.328418731689453,-4.065405368804932,0.6154467463493347,0.12538009881973267,0.5190827250480652,-13.943290710449219,40.309852600097656,-2.689272165298462
5.96,2.6500511169433594,-9.473184585571289,-4.060619831085205,0.6470589637756348,0.03833179175853729,0.4911356270313263,-13.314821243286133,40.324466705322266,-3.9169833660125732
5.97,2.5806589126586914,-9.766304969787598,-4.298705577850342,0.7105889916419983,-0.10155634582042694,0.4352414906024933,-13.358667373657227,41.142940521240234,-2.9669687747955322
5.99,2.531606435775757,-10.438688278198242,-3.8225340843200684,0.7365507483482361,-0.27000242471694946,0.3672827482223511,-12.350189208984375,41.23063278198242,-3.478515148162842
5.994,2.3569302558898926,-12.100502967834473,-3.342773199081421,0.7153232097625732,-0.5451971888542175,0.2825251817703247,-12.61327075958252,41.59602355957031,-3.4054369926452637
6.0,2.1643080711364746,-12.692727088928223,-3.370290756225586,0.6340781450271606,-0.6302602291107178,0.24465152621269226,-11.999415397644043,41.449867248535156,-3.3615901470184326
6.01,1.6905291080474854,-13.880763053894043,-3.686143398284912,0.4792237877845764,-0.6423248052597046,0.1586722582578659,-11.166325569152832,42.48757553100586,-3.0108156204223633
6.02,1.5254243612289429,-14.59382438659668,-3.638286828994751,0.3061962127685547,-0.5904012322425842,0.07406741380691528,-10.333235740661621,41.93218231201172,-2.4700381755828857
6.03,1.3196415901184082,-14.816357612609863,-3.7220354080200195,0.09346237778663635,-0.4456261694431305,0.021074850112199783,-9.529377937316895,42.38526916503906,-0.7161648273468018
6.049,1.5122638940811157,-14.731411933898926,-3.8392839431762695,-0.09743300080299377,-0.2808452844619751,-0.05696318298578262,-7.351651668548584,42.48757553100586,2.2654194831848145
6.053,1.998006820678711,-14.668002128601074,-4.260420799255371,-0.31154128909111023,-0.07895433157682419,-0.16340644657611847,-7.278573513031006,42.15141677856445,2.5577316284179688
6.06,2.365305185317993,-14.604592323303223,-4.475774765014648,-0.38988474011421204,0.009773843921720982,-0.2278527319431305,-6.708564758300781,42.10757064819336,3.800058364868164
6.07,2.827119827270508,-14.163116455078125,-4.65523624420166,-0.45265114307403564,0.10567968338727951,-0.34025195240974426,-4.881613731384277,41.727561950683594,5.159310340881348
6.08,3.0592236518859863,-13.26580810546875,-4.773681163787842,-0.4784601926803589,0.14446963369846344,-0.46547931432724,-3.1423561573028564,40.894474029541016,6.577024459838867
6.09,3.152543783187866,-12.250054359436035,-4.6301116943359375,-0.4818199574947357,0.10949759185314178,-0.6085745096206665,-0.4384683072566986,40.48523712158203,7.512423515319824
6.109,2.455035924911499,-10.791630744934082,-3.888336658477783,-0.4818199574947357,0.0354301817715168,-1.0004445314407349,5.437006950378418,39.593685150146484,8.067816734313965
6.113,2.465803623199463,-10.49970531463623,-3.775874137878418,-0.48380523920059204,0.046273037791252136,-1.1068878173828125,6.708564758300781,39.31599044799805,8.170125961303711
6.12,2.6428725719451904,-10.14317512512207,-3.6251261234283447,-0.4836525619029999,0.05054909735918045,-1.2687671184539795,8.47705364227295,39.08213806152344,6.810873985290527
6.13,3.239881753921509,-9.820143699645996,-3.7734811305999756,-0.4928155243396759,-0.022907447069883347,-1.4706579446792603,10.698626518249512,39.87138366699219,4.779304027557373
6.14,3.750749349594116,-9.77109146118164,-3.6981072425842285,-0.4986187517642975,-0.19196438789367676,-1.64719820022583,11.838644027709961,40.572933197021484,2.1338791847229004
6.15,3.943371534347534,-10.108478546142578,-3.531806230545044,-0.5267185568809509,-0.44058653712272644,-1.7765488624572754,12.554807662963867,41.186790466308594,-1.2277112007141113
6.17,3.7256245613098145,-10.600204467773438,-3.4265217781066895,-0.6117815375328064,-0.7489207983016968,-1.9084956645965576,10.976323127746582,42.58988571166992,-6.620871067047119
6.173,3.4229326248168945,-11.258230209350586,-3.0352954864501953,-0.7559457421302795,-0.9847147464752197,-2.010662794113159,10.128617286682129,43.04296875,-7.541654109954834
6.18,3.3104701042175293,-11.288141250610352,-3.0867412090301514,-0.8570439219474792,-1.071763038635254,-2.0413589477539062,8.959368705749512,43.96375274658203,-8.930137634277344
6.19,3.0448665618896484,-11.230712890625,-2.9599215984344482,-0.9772316217422485,-1.1473575830459595,-2.0473148822784424,7.395498275756836,44.562992095947266,-9.383220672607422
6.2,2.644068956375122,-11.00459098815918,-3.129812002182007,-1.0775662660598755,-1.1496484279632568,-2.030057907104492,5.80239725112915,45.26454162597656,-10.362466812133789
6.21,2.337787628173828,-10.930414199829102,-3.1513471603393555,-1.149037480354309,-1.1136072874069214,-2.016160726547241,4.530838966369629,45.60070037841797,-9.953229904174805
6.229,2.128415822982788,-11.175678253173828,-2.904886484146118,-1.214552879333496,-0.9773843884468079,-1.9492709636688232,3.0546624660491943,46.1414794921875,-9.397836685180664
6.233,1.9860427379608154,-11.157731056213379,-2.9216363430023193,-1.2212722301483154,-0.9250026345252991,-1.9442312717437744,2.76235032081604,46.50687026977539,-8.930137634277344
6.24,1.8161523342132568,-11.178071022033691,-2.7661027908325195,-1.2165380716323853,-0.8402451872825623,-1.9416351318359375,2.4261913299560547,47.281497955322266,-9.280911445617676
6.25,1.8269200325012207,-11.386245727539062,-2.6835503578186035,-1.222646713256836,-0.735634446144104,-1.954463243484497,1.5054078102111816,48.39228439331055,-9.17860221862793
6.26,2.1475582122802734,-11.672188758850098,-2.695514678955078,-1.2376130819320679,-0.6354525089263916,-1.9776761531829834,0.4823150932788849,49.19614028930664,-8.31628131866455
6.27,2.589033842086792,-11.956934928894043,-2.5746772289276123,-1.246623158454895,-0.6003278493881226,-1.9769126176834106,0.3507746458053589,49.86845779418945,-8.842443466186523
6.29,2.715853691101074,-12.037094116210938,-2.6763720512390137,-1.2599095106124878,-0.5734497308731079,-1.9685131311416626,-1.5054078102111816,50.71616744995117,-7.541654109954834
6.293,2.8007986545562744,-12.0335054397583,-2.561516523361206,-1.266170859336853,-0.5426010489463806,-1.9581284523010254,-1.6369482278823853,50.760013580322266,-8.783981323242188
6.3,2.7661027908325195,-11.782258987426758,-2.575873613357544,-1.2753338813781738,-0.5119050741195679,-1.9472856521606445,-1.8854135274887085,51.286170959472656,-7.965507507324219
6.31,2.644068956375122,-11.108678817749023,-2.5902304649353027,-1.2735012769699097,-0.4625777006149292,-1.9382753372192383,-3.0692780017852783,51.85618591308594,-7.45396089553833
6.32,2.3018951416015625,-10.37527847290039,-2.3090739250183105,-1.2625057697296143,-0.41584649682044983,-1.9404133558273315,-3.887752056121826,51.286170959472656,-7.658579349517822
6.33,2.087737560272217,-9.90269660949707,-2.228914260864258,-1.2690725326538086,-0.3413209319114685,-1.9677497148513794,-4.3262200355529785,51.85618591308594,-8.140894889831543
6.35,2.094916343688965,-9.449256896972656,-2.045863151550293,-1.2793045043945312,-0.26190847158432007,-2.063502788543701,-6.197018623352051,52.499271392822266,-7.64396333694458
6.354,2.0853447914123535,-8.585447311401367,-2.032702684402466,-1.2841914892196655,-0.26053401827812195,-2.0946569442749023,-6.767026901245117,52.104644775390625,-7.410114288330078
6.36,2.0362918376922607,-8.270791053771973,-2.0614166259765625,-1.2817480564117432,-0.2770273983478546,-2.1568124294281006,-7.0008769035339355,51.973106384277344,-7.717041492462158
6.37,2.121237277984619,-7.613961696624756,-2.0709879398345947,-1.2573133707046509,-0.3727805018424988,-2.2372939586639404,-8.360128402709961,52.265419006347656,-6.8985676765441895
6.38,2.1343977451324463,-7.355536937713623,-1.998006820678711,-1.2415835857391357,-0.4870122969150543,-2.319149971008301,-8.98859977722168,52.14849853515625,-7.877813339233398
6.39,2.359323024749756,-7.494320392608643,-1.9680966138839722,-1.238071084022522,-0.5748242139816284,-2.367560863494873,-9.324758529663086,51.75387191772461,-7.9801225662231445
6.41,2.4921247959136963,-7.599604606628418,-2.056631088256836,-1.2431107759475708,-0.623235285282135,-2.311208724975586,-11.926337242126465,51.27155685424805,-8.389359474182129
6.413,2.4765713214874268,-7.5565338134765625,-2.1846470832824707,-1.2385293245315552,-0.6243042945861816,-2.281428813934326,-11.765565872192383,51.3592529296875,-8.769365310668945
6.42,2.414357900619507,-7.440481662750244,-2.306680917739868,-1.2313514947891235,-0.624609649181366,-2.2348504066467285,-12.861736297607422,51.06694030761719,-8.79859733581543
6.431,2.3150558471679688,-7.350750923156738,-2.3473589420318604,-1.2040153741836548,-0.6337726712226868,-2.1676552295684814,-14.045600891113281,50.49692916870117,-9.280911445617676
6.44,2.1678972244262695,-7.593622207641602,-1.9369899034500122,-1.1911872625350952,-0.6307183504104614,-2.084730386734009,-14.410990715026855,50.07307434082031,-9.047061920166016
6.45,1.9525432586669922,-7.763513088226318,-1.8735800981521606,-1.206153392791748,-0.5937610268592834,-1.994780421257019,-15.52177619934082,49.663841247558594,-9.923998832702637
6.469,1.8352948427200317,-7.70249605178833,-1.743171215057373,-1.216843605041504,-0.4369213581085205,-1.8164077997207642,-17.553346633911133,48.596900939941406,-9.8655366897583
6.473,1.7862420082092285,-7.536194801330566,-1.920240044593811,-1.2148581743240356,-0.39385536313056946,-1.7699819803237915,-17.71411895751953,48.62613296508789,-9.982461929321289
6.48,1.8125630617141724,-7.5146589279174805,-2.104487419128418,-1.19912850856781,-0.34605515003204346,-1.7134770154953003,-18.16720199584961,47.95381546020508,-9.617071151733398
6.49,1.9226329326629639,-7.464410305023193,-2.2564315795898438,-1.1665998697280884,-0.3087923526763916,-1.6548339128494263,-19.760305404663086,47.80765914916992,-9.660917282104492
6.5,2.1846470832824707,-7.572086811065674,-2.183450698852539,-1.119715929031372,-0.30024024844169617,-1.5929837226867676,-20.534931182861328,46.667640686035156,-9.31014347076416
6.51,2.2301106452941895,-7.574480056762695,-2.366501569747925,-1.0868819952011108,-0.30543261766433716,-1.5117387771606445,-20.8126277923584,46.19994354248047,-9.397836685180664
6.53,1.9920247793197632,-7.29691219329834,-2.3700907230377197,-0.9598219990730286,-0.2727513313293457,-1.3382529020309448,-21.455713272094727,45.24992752075195,-9.748611450195312
6.533,1.8293129205703735,-7.299305438995361,-2.2229323387145996,-0.9454666376113892,-0.2646573483943939,-1.3145819902420044,-21.791873931884766,44.7822265625,-9.529377937316895
6.54,1.5002998113632202,-7.265805721282959,-2.1930220127105713,-0.9162978529930115,-0.20387627184391022,-1.2426526546478271,-22.65419578552246,44.91376876831055,-9.35399055480957
6.55,1.4009976387023926,-7.007380962371826,-2.289931058883667,-0.8843801021575928,-0.06185010448098183,-1.1539243459701538,-24.174217224121094,43.96375274658203,-9.617071151733398
6.56,1.4895319938659668,-6.6652069091796875,-2.413161516189575,-0.8327620029449463,0.0861319974064827,-1.0438159704208374,-23.750364303588867,43.422977447509766,-9.82168960571289
6.57,1.5242280960083008,-6.378068447113037,-2.383251190185547,-0.7414376735687256,0.26114487648010254,-0.8849909901618958,-24.97807502746582,43.23297119140625,-10.026308059692383
6.589,1.6402798891067505,-6.2668023109436035,-2.4095723628997803,-0.5830708742141724,0.40912699699401855,-0.6916521787643433,-26.293479919433594,42.0052604675293,-9.35399055480957
6.593,2.334198474884033,-6.3529438972473145,-2.5938196182250977,-0.5300782918930054,0.4260784983634949,-0.634994387626648,-26.86349105834961,41.9614143371582,-9.251681327819824
6.6,2.8043882846832275,-6.392425537109375,-2.5974087715148926,-0.44257184863090515,0.42439863085746765,-0.5279402732849121,-26.936567306518555,42.15141677856445,-9.207834243774414
6.61,3.049652338027954,-6.26440954208374,-3.06999135017395,-0.3116939663887024,0.33292156457901,-0.38408151268959045,-27.024263381958008,42.078338623046875,-9.383220672607422
6.62,3.1896326541900635,-6.183053970336914,-3.4612178802490234,-0.09743300080299377,0.1518000215291977,-0.25244006514549255,-27.798887252807617,41.873722076416016,-9.748611450195312
6.63,3.366701364517212,-6.235695838928223,-3.596412181854248,0.09422595798969269,-0.057879481464624405,-0.17760907113552094,-28.105815887451172,41.888336181640625,-9.982461929321289
6.649,3.2039895057678223,-6.739384651184082,-2.2911276817321777,0.47219884395599365,-0.42898011207580566,0.051770828664302826,-28.865829467773438,41.9029541015625,-9.938613891601562
6.653,3.276970386505127,-7.183253765106201,-1.7132608890533447,0.4946480989456177,-0.4764748811721802,0.0913243517279625,-28.544286727905273,42.22449493408203,-10.01169204711914
6.66,2.792423963546753,-7.579265117645264,-1.636690616607666,0.5218316316604614,-0.5855143666267395,0.222965806722641,-28.865829467773438,42.18064880371094,-10.713241577148438
6.67,2.407179594039917,-7.966902732849121,-1.9992032051086426,0.5543602108955383,-0.6728680729866028,0.3738495111465454,-28.427358627319336,42.39988327026367,-10.727856636047363
6.68,2.049452543258667,-8.232505798339844,-2.3126630783081055,0.5908593535423279,-0.6801984310150146,0.4931209683418274,-27.930429458618164,42.502193450927734,-10.976323127746582
6.69,2.084148406982422,-8.525627136230469,-2.6536402702331543,0.6322454810142517,-0.6499606370925903,0.6250678896903992,-27.375036239624023,42.502193450927734,-10.654779434204102
6.709,2.396411657333374,-9.657431602478027,-3.476771354675293,0.7831292152404785,-0.6866125464439392,0.9726501107215881,-27.404266357421875,42.896812438964844,-11.853259086608887
