time,accel_x,accel_y,accel_z,gyro_x,gyro_y,gyro_z,mag_x,mag_y,mag_z
0.0,-0.3433700203895569,-9.68973445892334,-1.4333007335662842,0.006719517521560192,0.025961771607398987,-0.005192354787141085,-46.60917663574219,48.9184455871582,-35.95439910888672
0.02,-0.33858439326286316,-9.634699821472168,-1.4464612007141113,0.017409659922122955,0.023060161620378494,0.013744467869400978,-46.550716400146484,48.81613540649414,-35.6474723815918
0.023,-0.3230310380458832,-9.726823806762695,-1.4596216678619385,0.016951510682702065,0.022143863141536713,0.01725694164633751,-46.170711517333984,48.845367431640625,-36.275943756103516
0.03,-0.3230310380458832,-9.795019149780273,-1.470389485359192,0.014202617108821869,0.014813481830060482,0.020616700872778893,-45.98070526123047,48.81613540649414,-36.3636360168457
0.04,-0.332602322101593,-9.811769485473633,-1.4093725681304932,0.003359758760780096,0.013591751456260681,0.020158551633358,-46.375328063964844,49.00613784790039,-36.115169525146484
0.05,-0.3529413342475891,-9.773483276367188,-1.444068431854248,-0.0088575454428792,0.012522736564278603,0.019547687843441963,-46.15609359741211,48.8599853515625,-36.88979721069336
0.06,-0.31106695532798767,-9.719645500183105,-1.4500504732131958,-0.011301006190478802,0.01038470957428217,0.012217304669320583,-46.25840377807617,48.62613296508789,-37.16749572753906
0.08,-0.23808583617210388,-9.674181938171387,-1.4213366508483887,-0.010995574295520782,-0.0012217304902151227,0.006261368282139301,-45.90762710571289,48.421512603759766,-36.480560302734375
0.083,-0.19621144235134125,-9.645467758178711,-1.3639088869094849,-0.0019853119738399982,-0.01664607785642147,0.010842857882380486,-46.03916931152344,48.713829040527344,-36.831336975097656
0.09,-0.2667997181415558,-9.65982437133789,-1.3782658576965332,-0.00015271631127689034,-0.018936822190880775,0.01710422709584236,-46.38994216918945,49.07921600341797,-36.87518310546875
0.1,-0.33858439326286316,-9.674181938171387,-1.4141581058502197,0.006108652334660292,-0.020922133699059486,0.019547687843441963,-45.68839645385742,48.80152130126953,-36.61210250854492
0.11,-0.35054853558540344,-9.700502395629883,-1.4404791593551636,0.010690141469240189,-0.017562376335263252,0.021838432177901268,-46.05378341674805,49.020755767822266,-36.495174407958984
0.12,-0.4223332107067108,-9.7064847946167,-1.452443242073059,0.0138971833512187,-0.010842857882380486,0.024892758578062057,-46.50687026977539,48.845367431640625,-36.275943756103516
0.14,-0.45463627576828003,-9.756733894348145,-1.439282774925232,0.020311269909143448,-0.0022907445672899485,0.02519819140434265,-46.59456253051758,48.56766891479492,-36.67056655883789
0.143,-0.47018963098526,-9.751948356628418,-1.415354609489441,0.01970040239393711,0.00931569468230009,0.01924225501716137,-46.112247467041016,48.74305725097656,-36.90441131591797
0.15,-0.4414757788181305,-9.749555587768555,-1.4309078454971313,0.01878410577774048,0.01542434748262167,0.016493361443281174,-46.24378967285156,48.479976654052734,-36.58287048339844
0.16,-0.41994035243988037,-9.735198020935059,-1.4093725681304932,0.013286319561302662,0.017562376335263252,0.010842857882380486,-46.667640686035156,49.12306213378906,-36.23209762573242
0.17,-0.3397807776927948,-9.67537784576416,-1.4237295389175415,0.006872233934700489,0.017562376335263252,0.005650503095239401,-46.360713958740234,49.06460189819336,-36.18824768066406
0.18,-0.30508488416671753,-9.678967475891113,-1.4428720474243164,0.00015271631127689034,0.00809396430850029,0.0073303827084600925,-46.112247467041016,49.13768005371094,-36.78749084472656
0.2,-0.2883351147174835,-9.65384292602539,-1.447657585144043,-0.0006108652451075613,0.0010690141934901476,0.014813481830060482,-46.316864013671875,48.684593200683594,-37.050567626953125
0.204,-0.30508488416671753,-9.641878128051758,-1.4488540887832642,0.004734205547720194,-0.01038470957428217,0.030085112899541855,-46.03916931152344,49.00613784790039,-36.34901809692383
0.21,-0.35054853558540344,-9.640682220458984,-1.452443242073059,0.006108652334660292,-0.013591751456260681,0.033597588539123535,-45.84916687011719,48.976905822753906,-36.01285934448242
0.22,-0.4055834412574768,-9.634699821472168,-1.444068431854248,0.010842857882380486,-0.016951510682702065,0.037110064178705215,-46.185325622558594,49.13768005371094,-36.24671173095703
0.23,-0.5216353535652161,-9.6466646194458,-1.4117653369903564,0.012675453908741474,-0.01618792861700058,0.032681290060281754,-45.995323181152344,49.239986419677734,-36.20286560058594
0.24,-0.6221339106559753,-9.693324089050293,-1.3794622421264648,0.014355332590639591,-0.004581489134579897,0.024892758578062057,-46.24378967285156,49.15229415893555,-36.77287292480469
0.26,-0.6364907622337341,-9.732806205749512,-1.3782658576965332,0.015577062964439392,0.016493361443281174,0.015882495790719986,-46.25840377807617,49.15229415893555,-37.021339416503906
0.263,-0.5228317379951477,-9.702895164489746,-1.416550874710083,0.01970040239393711,0.03756821155548096,0.008399397134780884,-46.40456008911133,49.10844802856445,-35.9836311340332
0.27,-0.48574298620224,-9.708877563476562,-1.4105688333511353,0.020616700872778893,0.04642575979232788,0.0073303827084600925,-45.89301300048828,49.19614028930664,-36.18824768066406
0.28,-0.349352091550827,-9.743573188781738,-1.4021941423416138,0.02275473065674305,0.04993823170661926,0.009010262787342072,-46.02455520629883,48.52382278442383,-35.9836311340332
0.29,-0.23210379481315613,-9.774680137634277,-1.408176064491272,0.021380282938480377,0.0429132841527462,0.01160643994808197,-46.60917663574219,48.90382766723633,-36.21747970581055
0.3,-0.18783655762672424,-9.79142951965332,-1.4009976387023926,0.014202617108821869,0.026572639122605324,0.018325956538319588,-46.19994354248047,48.976905822753906,-35.866703033447266
0.32,-0.21176479756832123,-9.797411918640137,-1.4297115802764893,0.005650503095239401,0.014355332590639591,0.023976460099220276,-46.22917175292969,48.99152374267578,-36.451332092285156
0.324,-0.2883351147174835,-9.744770050048828,-1.454836130142212,-0.002138028386980295,0.0022907445672899485,0.030543262138962746,-46.59456253051758,49.283836364746094,-36.59748840332031
0.33,-0.3206382095813751,-9.725627899169922,-1.451246976852417,-0.003054326167330146,-0.004123340360820293,0.029932396486401558,-46.50687026977539,49.42999267578125,-36.62671661376953
0.34,-0.3397807776927948,-9.664609909057617,-1.4488540887832642,-0.001527163083665073,-0.009926560334861279,0.03481931984424591,-45.995323181152344,49.19614028930664,-36.24671173095703
0.35,-0.37926235795021057,-9.665806770324707,-1.4333007335662842,0.0018325956771150231,-0.010842857882380486,0.04092797264456749,-46.06840133666992,49.41537857055664,-36.34901809692383
0.36,-0.40677982568740845,-9.615557670593262,-1.435693621635437,0.007788531482219696,-0.010079275816679,0.04642575979232788,-45.98070526123047,48.8599853515625,-36.99210739135742
0.381,-0.436690092086792,-9.609575271606445,-1.4093725681304932,0.013744467869400978,-0.0073303827084600925,0.04734205827116966,-46.38994216918945,49.63460922241211,-36.75825881958008
0.384,-0.47617167234420776,-9.596414566040039,-1.3866406679153442,0.01817324012517929,-0.0044287727214396,0.043676864355802536,-45.70301055908203,49.26921844482422,-36.01285934448242
0.39,-0.5108676552772522,-9.590433120727539,-1.3758729696273804,0.016340645030140877,-0.0012217304902151227,0.040317103266716,-45.732242584228516,49.25460433959961,-35.79362487792969
0.4,-0.5431707501411438,-9.605986595153809,-1.397408366203308,0.01618792861700058,0.005955935921519995,0.03375030308961868,-45.45454788208008,49.093833923339844,-36.81671905517578
0.41,-0.5371886491775513,-9.611968040466309,-1.3854442834854126,0.018478674814105034,0.016340645030140877,0.03145955875515938,-45.89301300048828,49.13768005371094,-35.83747482299805
0.42,-0.5312066078186035,-9.613164901733398,-1.377069354057312,0.019853120669722557,0.026419920846819878,0.02977968007326126,-45.86378479003906,49.41537857055664,-36.6851806640625
0.44,-0.503689169883728,-9.626324653625488,-1.368694543838501,0.0177150908857584,0.040164388716220856,0.03237585723400116,-46.126861572265625,49.41537857055664,-36.62671661376953
0.444,-0.4666004180908203,-9.580862045288086,-1.4189437627792358,0.01710422709584236,0.05726861581206322,0.040164388716220856,-45.732242584228516,49.18152618408203,-35.76439666748047
0.45,-0.436690092086792,-9.620343208312988,-1.4069796800613403,0.0177150908857584,0.06414084881544113,0.04688390716910362,-45.65916442871094,48.80152130126953,-36.3636360168457
0.46,-0.38644087314605713,-9.67657470703125,-1.4141581058502197,0.016951510682702065,0.07406741380691528,0.06276640295982361,-45.995323181152344,49.210758209228516,-36.275943756103516
0.47,-0.34217363595962524,-9.7124662399292,-1.416550874710083,0.012217304669320583,0.08338310569524765,0.08720101416110992,-45.556854248046875,49.37152862548828,-36.37825393676758
0.48,-0.38165518641471863,-9.70528793334961,-1.4069796800613403,0.006108652334660292,0.09376781433820724,0.1082758679986,-45.90762710571289,49.093833923339844,-35.472084045410156
0.499,-0.45583271980285645,-9.729216575622559,-1.4560325145721436,-0.001679879380390048,0.10735956579446793,0.12751811742782593,-45.68839645385742,48.406898498535156,-36.0274772644043
0.504,-0.4977070689201355,-9.69930648803711,-1.5864413976669312,0.0004581489192787558,0.11835514008998871,0.13118331134319305,-45.118385314941406,49.32768249511719,-36.75825881958008
0.51,-0.5383850932121277,-9.7064847946167,-1.612762451171875,0.009773843921720982,0.12797626852989197,0.12782354652881622,-45.65916442871094,48.90382766723633,-36.55363845825195
0.52,-0.5108676552772522,-9.749555587768555,-1.590030550956726,0.02382374368607998,0.14905111491680145,0.12507465481758118,-45.29377365112305,48.9622917175293,-36.7436408996582
0.53,-0.35054853558540344,-9.82971477508545,-1.5038889646530151,0.03237585723400116,0.17058412730693817,0.13530665636062622,-45.3814697265625,49.32768249511719,-36.14440155029297
0.54,-0.1627119481563568,-9.958927154541016,-1.4596216678619385,0.022602012380957603,0.1817324161529541,0.1667662113904953,-45.22069549560547,48.94767761230469,-37.050567626953125
0.56,0.06699903309345245,-9.962516784667969,-1.454836130142212,0.011301006190478802,0.18188512325286865,0.2177734524011612,-45.206077575683594,49.38614273071289,-36.4074821472168
0.564,0.02871387079358101,-9.796216011047363,-1.5601202249526978,-0.013744467869400978,0.18081609904766083,0.2909245789051056,-44.94300079345703,49.473838806152344,-36.655948638916016
0.571,-0.08733802288770676,-9.702895164489746,-1.6414762735366821,-0.023976460099220276,0.1748601794242859,0.32528576254844666,-45.30839157104492,49.56153106689453,-36.39286804199219
0.58,-0.2991028130054474,-9.584450721740723,-1.7335999011993408,-0.02977968007326126,0.17073683440685272,0.36560285091400146,-44.95761489868164,49.63460922241211,-36.04209518432617
0.59,-0.50129634141922,-9.492326736450195,-1.727617859840393,-0.025656340643763542,0.1690569519996643,0.3891211450099945,-44.6799201965332,49.56153106689453,-36.495174407958984
0.6,-0.745364248752594,-9.507880210876465,-1.7324036359786987,-0.014660765416920185,0.18768833577632904,0.41034871339797974,-44.29991149902344,49.80999755859375,-36.58287048339844
0.62,-0.8554341197013855,-9.547362327575684,-1.7024933099746704,-0.007788531482219696,0.22372940182685852,0.42042800784111023,-43.91990661621094,49.649227142333984,-37.065185546875
0.623,-0.7968099117279053,-9.625128746032715,-1.7407783269882202,-0.0006108652451075613,0.28527405858039856,0.4153883457183838,-44.051448822021484,50.07307434082031,-36.831336975097656
0.63,-0.7106683254241943,-9.665806770324707,-1.7802599668502808,0.0022907445672899485,0.3202460706233978,0.4092797338962555,-44.27068328857422,49.70768737792969,-36.0274772644043
0.64,-0.44386857748031616,-9.78544807434082,-1.746760368347168,0.007635815534740686,0.3591887652873993,0.40882155299186707,-43.72990417480469,49.94153594970703,-37.48904037475586
0.65,-0.2667997181415558,-9.903892517089844,-1.7012969255447388,-0.006108652334660292,0.39354991912841797,0.4349360466003418,-44.09529113769531,50.160770416259766,-36.18824768066406
0.66,-0.1172483041882515,-9.948159217834473,-1.8340984582901,-0.0177150908857584,0.40194934606552124,0.45662176609039307,-43.96375274658203,50.48231506347656,-36.75825881958008
0.68,-0.03469592705368996,-9.90867805480957,-1.9298113584518433,-0.02321287989616394,0.398589551448822,0.4792237877845764,-44.41683578491211,50.30692672729492,-36.93364715576172
0.684,0.038285162299871445,-9.78544807434082,-2.062613010406494,-0.02168571576476097,0.36483925580978394,0.5051855444908142,-43.53989791870117,50.3800048828125,-36.77287292480469
0.69,0.08374878764152527,-9.719645500183105,-2.1068801879882812,-0.014966198243200779,0.3514002561569214,0.5138903856277466,-43.627593994140625,50.42385482788086,-37.050567626953125
0.7,0.07058826088905334,-9.69810962677002,-2.062613010406494,0.0013744467869400978,0.314442902803421,0.5340489149093628,-43.23297119140625,50.73078155517578,-36.34901809692383
0.71,-0.037088751792907715,-9.744770050048828,-2.0063817501068115,0.001527163083665073,0.289702832698822,0.5477933883666992,-43.40835952758789,50.49692916870117,-37.065185546875
0.72,-0.12083754688501358,-9.750751495361328,-1.998006820678711,-0.0032070425804704428,0.2718350291252136,0.5564982295036316,-42.67757797241211,50.30692672729492,-36.21747970581055
0.74,-0.20578275620937347,-9.714859962463379,-2.008774518966675,-0.007024950347840786,0.2632829248905182,0.5661193132400513,-42.76527404785156,50.19000244140625,-36.94826126098633
0.743,-0.38165518641471863,-9.701699256896973,-1.9573287963867188,-0.015118913725018501,0.2646573483943939,0.5757404565811157,-42.45834732055664,50.80385971069336,-36.495174407958984
0.75,-0.43190446496009827,-9.69930648803711,-1.9549360275268555,-0.020311269909143448,0.27382034063339233,0.5768095254898071,-42.12218475341797,50.70154571533203,-37.13826370239258
0.76,-0.5024927258491516,-9.670592308044434,-1.9824535846710205,-0.02275473065674305,0.29626965522766113,0.5804746747016907,-42.282955169677734,50.5992431640625,-37.37211227416992
0.77,-0.4737788736820221,-9.634699821472168,-2.084148406982422,-0.021991148591041565,0.32650747895240784,0.5907067060470581,-41.698333740234375,51.0815544128418,-37.664424896240234
0.78,-0.41156551241874695,-9.597611427307129,-2.146361827850342,-0.01114829070866108,0.3459024429321289,0.602465808391571,-41.59602355957031,51.03771209716797,-37.86904525756836
0.8,-0.2991028130054474,-9.578468322753906,-2.1643080711364746,0.0018325956771150231,0.3527746796607971,0.6143776774406433,-41.3037109375,50.90616989135742,-37.41596221923828
0.804,-0.04785645380616188,-9.554540634155273,-2.1678972244262695,0.014813481830060482,0.3326161205768585,0.6411030292510986,-40.90909194946289,51.286170959472656,-37.16749572753906
0.81,0.05144568905234337,-9.527023315429688,-2.1774685382843018,0.017409659922122955,0.30863967537879944,0.6591235995292664,-40.777549743652344,51.7392578125,-37.95673751831055
0.82,0.11126624792814255,-9.519845008850098,-2.1678972244262695,0.0177150908857584,0.26481008529663086,0.6843218207359314,-40.689857482910156,51.81233215332031,-37.86904525756836
0.83,0.06939185410737991,-9.469594955444336,-2.1882362365722656,0.008399397134780884,0.2168571650981903,0.7035639882087708,-40.2221565246582,51.0815544128418,-37.109031677246094
0.84,-0.07417750358581543,-9.327221870422363,-2.2301106452941895,0.001679879380390048,0.1667662113904953,0.7205155491828918,-40.572933197021484,51.3592529296875,-37.7228889465332
0.86,-0.234496608376503,-9.165706634521484,-2.2564315795898438,0.0018325956771150231,0.1082758679986,0.7275404930114746,-39.8859977722168,51.695411682128906,-38.96521759033203
0.863,-0.5120640397071838,-8.934799194335938,-2.2408783435821533,0.003512475173920393,0.06230825185775757,0.717308521270752,-39.53522491455078,51.54925537109375,-37.78135299682617
0.87,-0.5970092415809631,-8.833104133605957,-2.2205393314361572,0.0024434609804302454,0.0455094613134861,0.7098253965377808,-38.92136764526367,51.84156799316406,-38.570594787597656
0.88,-0.6376872062683105,-8.668000221252441,-2.1475582122802734,0.00427605677396059,0.023060161620378494,0.6947064995765686,-39.11137008666992,52.13387680053711,-38.24905014038086
0.89,-0.5778666734695435,-8.544769287109375,-2.0781664848327637,0.007635815534740686,-0.004734205547720194,0.6786712408065796,-38.38058853149414,52.002342224121094,-38.32212829589844
0.9,-0.49172505736351013,-8.465806007385254,-2.001595973968506,0.0064140851609408855,-0.05696318298578262,0.6516404747962952,-38.395206451416016,51.92926025390625,-37.43057632446289
0.92,-0.4127618968486786,-8.38444995880127,-2.018345832824707,0.0027488935738801956,-0.11133018881082535,0.6391177773475647,-37.37211227416992,52.83543014526367,-38.1467399597168
0.924,-0.4989035129547119,-8.311469078063965,-2.076970100402832,0.007177666295319796,-0.16371189057826996,0.6368269920349121,-37.4451904296875,52.44080352783203,-37.7228889465332
0.936,-0.6759723424911499,-8.196614265441895,-2.042273998260498,0.0007635815418325365,-0.19746218621730804,0.6546947956085205,-37.35749816894531,52.0608024597168,-37.88365936279297
0.94,-0.7465606331825256,-8.081757545471191,-1.978864312171936,0.0018325956771150231,-0.21410825848579407,0.6580545902252197,-37.035953521728516,52.338497161865234,-37.43057632446289
0.95,-0.8207381367683411,-7.887939453125,-1.781456470489502,0.011453723534941673,-0.25213462114334106,0.6540839672088623,-37.079803466796875,52.77696990966797,-38.1028938293457
0.96,-0.865005373954773,-7.646264553070068,-1.5457634925842285,0.039706241339445114,-0.28420504927635193,0.6304128766059875,-36.96287536621094,52.66004180908203,-37.679039001464844
0.97,-0.7704888582229614,-7.495516777038574,-1.2873386144638062,0.06612616032361984,-0.28817567229270935,0.6032294034957886,-36.290557861328125,52.543113708496094,-38.234432220458984
0.98,-0.6496513485908508,-7.501498699188232,-1.1473584175109863,0.08918632566928864,-0.2843577563762665,0.5751296281814575,-35.355159759521484,52.952354431152344,-37.89827346801758
0.999,-0.09690931439399719,-7.7898335456848145,-0.8195416927337646,0.1111774668097496,-0.294437050819397,0.5065600275993347,-35.42823791503906,52.923118591308594,-37.79596710205078
1.004,0.04905286058783531,-7.974081039428711,-0.784845769405365,0.10476338863372803,-0.31123584508895874,0.4918992221355438,-35.0043830871582,53.23004913330078,-38.33674621582031
1.01,0.2141576111316681,-8.23011302947998,-0.7824530005455017,0.0959058403968811,-0.34544429183006287,0.469449907541275,-34.682838439941406,52.80619812011719,-37.95673751831055
1.02,0.62931227684021,-8.94676399230957,-0.9296115636825562,0.07773260027170181,-0.4274529218673706,0.43218716979026794,-34.682838439941406,52.74773406982422,-37.62057876586914
1.03,0.8566304445266724,-9.461220741271973,-1.148554801940918,0.06139195337891579,-0.5519167184829712,0.38759398460388184,-34.69745635986328,52.25080108642578,-37.591346740722656
1.04,0.8255237936973572,-9.751948356628418,-1.368694543838501,0.04382958263158798,-0.7102835774421692,0.3358231484889984,-34.112831115722656,52.77696990966797,-37.3867301940918
1.059,0.09810572117567062,-9.896714210510254,-1.5553346872329712,0.04413501173257828,-1.017701506614685,0.1820378452539444,-34.01052474975586,53.05466079711914,-37.51826858520508
1.062,0.014356935396790504,-9.950552940368652,-1.5409777164459229,0.04566217586398125,-1.0462594032287598,0.16096298396587372,-34.112831115722656,52.8208122253418,-37.22595977783203
1.07,-0.4654039740562439,-10.28195858001709,-1.4811570644378662,0.04764748737215996,-1.1258245706558228,0.07635815441608429,-33.08974075317383,53.127742767333984,-37.48904037475586
1.08,-0.6592226028442383,-10.882556915283203,-1.2514461278915405,0.04917465150356293,-1.1727086305618286,-0.028557950630784035,-32.78281021118164,52.44080352783203,-37.35749816894531
1.09,-0.6173481941223145,-11.589635848999023,-1.0755738019943237,0.014202617108821869,-1.187522053718567,-0.1333213448524475,-33.060508728027344,52.8792724609375,-37.474422454833984
1.109,-0.5228317379951477,-12.205788612365723,-1.0456634759902954,-0.03833179175853729,-1.156978726387024,-0.23365594446659088,-32.9289665222168,52.64542770385742,-37.86904525756836
1.113,-0.363709032535553,-12.824332237243652,-1.0947163105010986,-0.11804971098899841,-1.0939068794250488,-0.3585779070854187,-33.30897521972656,52.893890380859375,-37.065185546875
1.12,-0.22971096634864807,-13.117453575134277,-1.2047861814498901,-0.15790866315364838,-1.0812314748764038,-0.41431936621665955,-32.30049514770508,52.733116149902344,-37.8251953125
1.13,-0.14715859293937683,-13.305289268493652,-1.3004990816116333,-0.19944749772548676,-1.094059705734253,-0.48716503381729126,-32.78281021118164,52.689273834228516,-37.51826858520508
1.14,-0.06221338361501694,-13.361520767211914,-1.3710873126983643,-0.23426681756973267,-1.1287262439727783,-0.555429220199585,-33.2651252746582,52.499271392822266,-37.79596710205078
1.15,-0.0263210479170084,-13.25862979888916,-1.3734800815582275,-0.26481008529663086,-1.173624873161316,-0.621097207069397,-33.031280517578125,52.44080352783203,-36.94826126098633
1.16,-0.0203389935195446,-12.993026733398438,-1.3627125024795532,-0.3020728826522827,-1.2400565147399902,-0.7066183686256409,-32.82666015625,52.25080108642578,-36.77287292480469
1.179,-0.24765713512897491,-12.620943069458008,-1.1162517070770264,-0.3581197261810303,-1.3240504264831543,-0.8390233516693115,-32.95820236206055,52.703887939453125,-35.3843879699707
1.183,-0.32662028074264526,-12.508480072021484,-1.0277173519134521,-0.38209620118141174,-1.3353514671325684,-0.8724682927131653,-33.2651252746582,52.323883056640625,-35.95439910888672
1.19,-0.4414757788181305,-12.425928115844727,-0.9092725515365601,-0.4219551682472229,-1.3335187435150146,-0.9202684760093689,-33.250511169433594,52.16311264038086,-36.26132583618164
1.2,-0.6149553656578064,-12.275178909301758,-0.7465606331825256,-0.4775438904762268,-1.3101532459259033,-0.9816604256629944,-33.64513397216797,51.900028228759766,-36.480560302734375
1.21,-0.7405785322189331,-12.238090515136719,-0.6029912829399109,-0.5352706909179688,-1.2641856670379639,-1.0567967891693115,-33.77667236328125,52.280033111572266,-36.07132339477539
1.22,-0.9236294627189636,-12.227322578430176,-0.4139583110809326,-0.5914702415466309,-1.2090550661087036,-1.1107057332992554,-33.805904388427734,51.85618591308594,-35.969017028808594
1.233,-0.94037926197052,-12.345767974853516,-0.3002992272377014,-0.623235285282135,-1.1481212377548218,-1.1838568449020386,-34.419761657714844,51.695411682128906,-34.43437576293945
1.24,-0.9726824164390564,-12.497712135314941,-0.2548356056213379,-0.6293439269065857,-1.1207849979400635,-1.2344058752059937,-34.799766540527344,51.81233215332031,-34.27360534667969
1.25,-1.0193424224853516,-12.751351356506348,-0.24167509377002716,-0.6221662163734436,-1.0844385623931885,-1.3019065856933594,-34.785152435302734,51.65156173706055,-34.536685943603516
1.26,-1.0516455173492432,-12.93799114227295,-0.363709032535553,-0.5984951853752136,-1.0377073287963867,-1.3617713451385498,-36.0859375,51.06694030761719,-33.9666748046875
1.27,-1.0289136171340942,-12.965509414672852,-0.6161518096923828,-0.5199990272521973,-0.9611964225769043,-1.4023938179016113,-36.4074821472168,50.90616989135742,-34.44898986816406
1.28,-0.7668996453285217,-13.13420295715332,-0.5371886491775513,-0.43417245149612427,-0.8764389157295227,-1.36650550365448,-36.87518310546875,50.80385971069336,-33.64513397216797
1.3,-0.015553345903754234,-13.057633399963379,-0.29790639877319336,-0.39477166533470154,-0.594524621963501,-1.119715929031372,-37.53288269042969,50.789241790771484,-33.542823791503906
1.305,0.22492532432079315,-12.79322624206543,-0.6125625967979431,-0.3920227587223053,-0.5613851547241211,-1.0575604438781738,-37.86904525756836,50.745399475097656,-32.373573303222656
1.31,0.3086740970611572,-12.459427833557129,-0.9272187352180481,-0.38041630387306213,-0.5633704662322998,-1.0042624473571777,-38.33674621582031,50.51154327392578,-33.10435485839844
1.32,0.22492532432079315,-11.925827980041504,-1.34476637840271,-0.3052798807621002,-0.6583600044250488,-0.8965974450111389,-38.395206451416016,50.43846893310547,-32.812042236328125
1.33,-0.41515469551086426,-11.635100364685059,-1.4572290182113647,-0.2545780837535858,-0.7295258641242981,-0.7976372241973877,-38.8629035949707,50.71616744995117,-32.88512420654297
1.34,-1.0516455173492432,-11.235498428344727,-1.4955140352249146,-0.2513710558414459,-0.7522805333137512,-0.6939429044723511,-38.67290496826172,50.3800048828125,-32.82666015625
1.354,-1.5445669889450073,-10.700701713562012,-0.9966105818748474,-0.3949243724346161,-0.6525567770004272,-0.49754971265792847,-39.00905990600586,50.17538833618164,-33.235897064208984
1.36,-1.9178473949432373,-10.368099212646484,-0.7046862840652466,-0.48808133602142334,-0.5902485251426697,-0.42592576146125793,-38.804443359375,50.43846893310547,-32.680503845214844
1.37,-2.3198413848876953,-9.164510726928711,-0.519242525100708,-0.7249443531036377,-0.4245513379573822,-0.30344730615615845,-39.389068603515625,50.11692810058594,-32.09587860107422
1.38,-2.486142635345459,-6.4187469482421875,-0.7369893193244934,-0.7938193678855896,-0.2565633952617645,-0.2612975835800171,-39.06752395629883,49.795379638671875,-31.978952407836914
1.39,-2.400001049041748,-4.0725836753845215,-0.8817551136016846,-0.6730207204818726,-0.036651913076639175,-0.21838431060314178,-39.27214050292969,50.11692810058594,-32.03741455078125
1.41,-2.2612173557281494,-2.609373092651367,-0.5886343717575073,-0.4622722566127777,0.17959438264369965,-0.1511891484260559,-39.403682708740234,49.839229583740234,-31.45279312133789
1.413,-2.0039889812469482,-1.7156537771224976,-0.27038896083831787,-0.2548835277557373,0.41630467772483826,-0.01664607785642147,-39.27214050292969,49.38614273071289,-31.218942642211914
1.42,-1.9645073413848877,-1.5014961957931519,-0.24167509377002716,-0.23487769067287445,0.4622722566127777,0.03878994286060333,-39.228294372558594,49.766151428222656,-30.692779541015625
1.43,-1.975274920463562,-0.9930213689804077,-0.38165518641471863,-0.2632829248905182,0.4401284158229828,0.07773260027170181,-39.53522491455078,49.6784553527832,-30.619701385498047
1.44,-2.224128484725952,-0.7525426745414734,-0.41515469551086426,-0.3049744665622711,0.327729195356369,0.08307767659425735,-39.16983413696289,49.605377197265625,-30.765857696533203
1.45,-2.748156785964966,-0.8697909712791443,-0.41874393820762634,-0.32360586524009705,0.15913039445877075,0.07330382615327835,-39.769073486328125,49.92692184448242,-30.780473709106445
1.46,-3.4683964252471924,-1.836491346359253,-0.26081767678260803,-0.2871066629886627,0.020311269909143448,0.09712757170200348,-39.05290985107422,49.6784553527832,-31.13124656677246
1.476,-5.219942569732666,-4.639682769775391,0.1052841916680336,-0.17989981174468994,0.03329215571284294,0.26832255721092224,-38.90675354003906,49.41537857055664,-30.692779541015625
1.481,-5.691328525543213,-5.3312087059021,-0.09451649338006973,-0.1336267739534378,0.1114829033613205,0.3399465084075928,-39.1259880065918,49.06460189819336,-31.145864486694336
1.49,-6.4426751136779785,-6.6077799797058105,-0.7322037220001221,-0.006719517521560192,0.3153591752052307,0.493731826543808,-38.64366912841797,49.2984504699707,-31.306636810302734
1.5,-6.819544315338135,-7.707281589508057,-1.4452649354934692,0.17012597620487213,0.5340489149093628,0.651029646396637,-38.804443359375,49.38614273071289,-31.423559188842773
1.51,-6.776473522186279,-8.924031257629395,-1.8544374704360962,0.34987306594848633,0.737772524356842,0.826500654220581,-38.40982437133789,49.63460922241211,-31.701257705688477
1.529,-6.433103561401367,-10.261619567871094,-1.9645073413848877,0.5056437253952026,0.9613491296768188,1.0739010572433472,-38.90675354003906,49.51768493652344,-31.686643600463867
1.533,-6.047859191894531,-12.264412879943848,-2.0398812294006348,0.5529857277870178,1.1711814403533936,1.286634922027588,-38.07366180419922,50.13154220581055,-32.25665283203125
1.54,-5.942574977874756,-13.081561088562012,-2.293520450592041,0.5258022546768188,1.2930489778518677,1.4060590267181396,-37.31365203857422,50.13154220581055,-32.19818878173828
1.55,-6.0538411140441895,-13.935798645019531,-2.685943365097046,0.4691444933414459,1.463938593864441,1.5749632120132446,-37.211341857910156,50.51154327392578,-33.13358688354492
1.56,-6.251248836517334,-14.414362907409668,-3.029313325881958,0.39675697684288025,1.6242907047271729,1.7397441864013672,-36.69979476928711,50.90616989135742,-32.797428131103516
1.57,-6.472585201263428,-14.70389461517334,-3.5270204544067383,0.350789338350296,1.760055422782898,1.8903225660324097,-36.31978988647461,51.3592529296875,-33.49897384643555
1.581,-6.498905658721924,-15.286547660827637,-3.449253797531128,0.31352660059928894,1.9196439981460571,2.0929770469665527,-35.530548095703125,51.56386947631836,-34.44898986816406
1.595,-6.27876615524292,-16.040287017822266,-3.3379874229431152,0.2773328125476837,2.183537721633911,2.341904401779175,-34.37591552734375,52.03157043457031,-34.96053695678711
1.6,-6.078965663909912,-16.254444122314453,-3.2829525470733643,0.26343563199043274,2.2823452949523926,2.4168882369995117,-33.981292724609375,51.82695388793945,-35.6036262512207
1.61,-5.422135829925537,-16.796419143676758,-3.1884360313415527,0.21762074530124664,2.4614815711975098,2.546391725540161,-33.002044677734375,52.280033111572266,-35.852088928222656
1.62,-4.424328804016113,-16.942378997802734,-3.2506494522094727,0.15256358683109283,2.539824962615967,2.645810127258301,-32.2274169921875,52.20695877075195,-35.22361755371094
1.63,-3.6263227462768555,-16.7916316986084,-3.4851462841033936,0.08109235763549805,2.5030202865600586,2.771953582763672,-31.277402877807617,52.528499603271484,-35.3843879699707
1.649,-2.9766714572906494,-16.83230972290039,-3.693321704864502,0.050854530185461044,2.4272727966308594,2.888781785964966,-30.064308166503906,52.937740325927734,-35.735164642333984
1.653,-2.4837498664855957,-16.430316925048828,-3.726821184158325,0.005955935921519995,2.2794435024261475,3.014772653579712,-28.544286727905273,52.42618942260742,-35.910552978515625
1.66,-2.1822540760040283,-16.0103759765625,-3.8560335636138916,-0.013744467869400978,2.1697933673858643,3.0584495067596436,-28.325050354003906,52.77696990966797,-36.78749084472656
1.67,-2.090130567550659,-15.477972030639648,-3.830909013748169,-0.013744467869400978,1.9741637706756592,3.0619618892669678,-27.024263381958008,52.64542770385742,-36.59748840332031
1.68,-1.971685767173767,-15.105889320373535,-3.7112677097320557,-0.003359758760780096,1.7568484544754028,3.0053043365478516,-26.045015335083008,52.77696990966797,-36.17363357543945
1.69,-2.069791555404663,-14.325828552246094,-3.597608804702759,0.023976460099220276,1.6149749755859375,2.914743423461914,-24.68576431274414,53.01081466674805,-36.451332092285156
1.71,-2.124826431274414,-13.804193496704102,-3.363112211227417,0.06444628536701202,1.560302495956421,2.8128814697265625,-23.954984664916992,52.8208122253418,-36.04209518432617
1.714,-1.9812570810317993,-12.985847473144531,-2.9766714572906494,0.1345430612564087,1.5566374063491821,2.618168354034424,-22.698041915893555,52.35311508178711,-36.61210250854492
1.72,-1.8460626602172852,-12.518051147460938,-2.8462624549865723,0.15622878074645996,1.5760324001312256,2.53722882270813,-21.54340934753418,52.17772674560547,-37.094417572021484
1.73,-1.0683952569961548,-11.984451293945312,-2.6392831802368164,0.2243402600288391,1.6027576923370361,2.331214666366577,-20.038002014160156,52.39695739746094,-36.62671661376953
1.74,0.12801600992679596,-10.926823616027832,-2.589033842086792,0.2574796974658966,1.5279265642166138,2.1334469318389893,-19.54106903076172,52.55773162841797,-37.18210983276367
1.75,0.9846464395523071,-9.6466646194458,-2.770888566970825,0.2935207188129425,1.3521502017974854,1.9045250415802002,-19.08798599243164,52.513885498046875,-37.035953521728516
1.769,1.3962119817733765,-8.127222061157227,-2.937189817428589,0.3672827482223511,1.0998629331588745,1.6537649631500244,-18.00642967224121,52.61619567871094,-36.61210250854492
1.773,1.1162517070770264,-6.035894870758057,-3.207578659057617,0.5117523670196533,0.7680103182792664,1.3016010522842407,-17.3341121673584,52.63081359863281,-37.69365692138672
1.78,0.9320043921470642,-4.8813581466674805,-3.119044303894043,0.6667593717575073,0.5797110795974731,1.0112874507904053,-16.471790313720703,52.14849853515625,-37.7228889465332
1.79,0.6867400407791138,-3.507877826690674,-2.1774685382843018,0.797179102897644,0.5326744914054871,0.7648032903671265,-16.06255531311035,52.20695877075195,-38.015201568603516
1.8,1.2681959867477417,-2.833101749420166,-1.164108157157898,0.8420777320861816,0.6096435189247131,0.5754350423812866,-15.901782989501953,51.65156173706055,-37.839813232421875
1.81,2.410768747329712,-2.104487419128418,-0.3924228847026825,0.8087855577468872,0.7162394523620605,0.4560109078884125,-15.726396560668945,52.04618453979492,-39.19906234741211
1.83,3.8177483081817627,-1.2502497434616089,0.03469592705368996,0.7211264371871948,0.7365507483482361,0.3926336169242859,-15.41946792602539,52.090030670166016,-38.789825439453125
1.834,5.211567401885986,-0.0813559740781784,-0.17706885933876038,0.5723807215690613,0.5135849714279175,0.33017265796661377,-14.922536849975586,51.593101501464844,-39.62291717529297
1.84,5.2797627449035645,0.2632104754447937,-0.39122650027275085,0.5296201705932617,0.3269656002521515,0.28817567229270935,-14.90792179107666,51.53464126586914,-39.53522491455078
1.85,4.998606204986572,0.39840495586395264,-0.4247260093688965,0.4847215414047241,0.05360342189669609,0.18936823308467865,-15.024847030639648,51.76848602294922,-39.8859977722168
1.86,4.429114818572998,0.11246266216039658,-0.349352091550827,0.4101960062980652,-0.21624629199504852,0.027183502912521362,-15.331774711608887,51.84156799316406,-39.68138122558594
1.872,4.194617748260498,-0.7369893193244934,-0.11246266216039658,0.28069257736206055,-0.5679519176483154,-0.24098633229732513,-14.703303337097168,51.49079132080078,-40.572933197021484
1.889,3.975674629211426,-1.9082759618759155,0.31824538111686707,0.1215621829032898,-0.9098837375640869,-0.44684794545173645,-14.177140235900879,52.075416564941406,-40.38292694091797
1.893,3.064009428024292,-2.9862425327301025,0.5048855543136597,-0.07528913766145706,-1.3446670770645142,-0.7270823121070862,-14.615609169006348,51.593101501464844,-40.967552185058594
1.9,1.750349760055542,-4.210171222686768,0.7310072779655457,-0.20723602175712585,-1.6439909934997559,-0.9091201424598694,-15.01023006439209,51.54925537109375,-41.36217498779297
1.91,-0.1902294009923935,-5.924628257751465,0.787238597869873,-0.3972151279449463,-2.0112738609313965,-1.171334147453308,-15.317158699035645,51.66618347167969,-40.762935638427734
1.92,-2.3497517108917236,-7.7144598960876465,0.5934200286865234,-0.5395467281341553,-2.2852468490600586,-1.4492777585983276,-15.81408977508545,51.710025787353516,-41.02601623535156
1.93,-4.595416069030762,-9.220742225646973,0.2225324958562851,-0.6293439269065857,-2.4211645126342773,-1.7270687818527222,-15.580240249633789,51.63694763183594,-41.47909927368164
1.95,-6.546762466430664,-10.29870891571045,-0.3206382095813751,-0.658970832824707,-2.386650323867798,-2.0193676948547363,-16.486408233642578,51.7977180480957,-41.49371337890625
1.954,-8.659625053405762,-11.563315391540527,-1.1736794710159302,-0.5531384348869324,-2.168877124786377,-2.2598958015441895,-17.173341751098633,51.54925537109375,-41.28909683227539
1.96,-9.163313865661621,-12.021539688110352,-1.6307085752487183,-0.4495968222618103,-1.993253231048584,-2.3884832859039307,-17.43642234802246,51.98772430419922,-41.157554626464844
1.97,-9.20159912109375,-12.480961799621582,-2.3258235454559326,-0.2945897579193115,-1.7398968935012817,-2.5470025539398193,-18.240280151367188,52.77696990966797,-42.39988327026367
1.98,-8.408378601074219,-13.12463092803955,-2.825923442840576,-0.17119498550891876,-1.515709400177002,-2.6897923946380615,-19.511838912963867,52.58695983886719,-42.078338623046875
1.99,-7.149754047393799,-13.895119667053223,-3.0795626640319824,-0.1088867262005806,-1.3917036056518555,-2.8480064868927,-20.73954963684082,53.28851318359375,-42.10757064819336
2.01,-5.635097026824951,-15.011372566223145,-3.242274522781372,-0.10781770944595337,-1.4201089143753052,-2.9820914268493652,-22.405729293823242,52.952354431152344,-42.53142547607422
2.014,-4.177868366241455,-16.633705139160156,-2.885744094848633,-0.15424346923828125,-1.5922203063964844,-3.1480939388275146,-23.458053588867188,53.08388900756836,-43.04296875
2.02,-3.4576287269592285,-17.655441284179688,-2.586641311645508,-0.19593501091003418,-1.6533067226409912,-3.1589367389678955,-24.656532287597656,53.1569709777832,-43.58374786376953
2.03,-2.6356940269470215,-18.38644790649414,-2.293520450592041,-0.32039880752563477,-1.7718145847320557,-3.1358766555786133,-26.191171646118164,53.93159866333008,-42.41449737548828
2.04,-1.9920247793197632,-18.61256980895996,-2.400001049041748,-0.5032002329826355,-1.940566062927246,-3.0644054412841797,-27.565038681030273,53.317745208740234,-42.39988327026367
2.05,-1.8065810203552246,-18.404396057128906,-2.605783700942993,-0.6126978397369385,-2.0867156982421875,-2.989879846572876,-28.763521194458008,54.10698699951172,-43.262203216552734
2.07,-2.124826431274414,-17.892330169677734,-2.5627129077911377,-0.6794348359107971,-2.2040016651153564,-2.927877187728882,-30.53200912475586,53.58082580566406,-42.619117736816406
2.073,-2.5459630489349365,-17.291732788085938,-2.159522294998169,-0.716697633266449,-2.2676846981048584,-2.872441053390503,-31.920490264892578,53.814674377441406,-42.253726959228516
2.08,-2.671586275100708,-16.93280792236328,-1.8412768840789795,-0.7194464802742004,-2.2763893604278564,-2.847090244293213,-32.812042236328125,53.478515625,-41.712947845458984
2.09,-2.819941520690918,-16.442279815673828,-1.537388563156128,-0.6976081132888794,-2.211179494857788,-2.80539870262146,-33.981292724609375,53.5369758605957,-41.21601867675781
2.1,-2.6488544940948486,-16.0761775970459,-1.2478569746017456,-0.6010913848876953,-2.079385280609131,-2.702773094177246,-35.6036262512207,53.332359313964844,-40.324466705322266
2.11,-2.480160713195801,-16.000804901123047,0.21655045449733734,-0.5911648273468018,-1.8025106191635132,-2.437047004699707,-36.94826126098633,53.05466079711914,-39.63753128051758
2.13,-2.5160529613494873,-15.40499210357666,0.44745784997940063,-0.7710646390914917,-1.4749341011047363,-2.196671485900879,-37.91289138793945,52.733116149902344,-39.72522735595703
2.133,-2.9826531410217285,-13.421341896057129,-0.589830756187439,-0.9758571982383728,-1.246165156364441,-2.0479257106781006,-38.36597442626953,52.64542770385742,-38.24905014038086
2.14,-3.418147087097168,-12.0993070602417,-1.0336993932724,-0.997848391532898,-1.2093604803085327,-2.0427334308624268,-39.8859977722168,52.8792724609375,-37.065185546875
2.15,-3.6873395442962646,-10.232906341552734,-1.0875378847122192,-0.9537133574485779,-1.133613109588623,-1.9973766803741455,-40.36831283569336,52.23618698120117,-37.16749572753906
2.16,-3.7088749408721924,-9.250652313232422,-0.698704183101654,-0.8639161586761475,-1.0039570331573486,-1.8883371353149414,-40.71908950805664,52.294654846191406,-37.19672393798828
2.17,-3.6909286975860596,-8.373682022094727,-0.061016976833343506,-0.8080219626426697,-0.8355109095573425,-1.7411186695098877,-41.36217498779297,51.63694763183594,-36.39286804199219
2.189,-3.7196426391601562,-7.444070816040039,0.5335994362831116,-0.789237916469574,-0.6397286653518677,-1.564731240272522,-41.85910415649414,51.22771453857422,-34.6682243347168
2.193,-3.638286828994751,-5.783452033996582,0.9200402498245239,-0.7673994302749634,-0.37659841775894165,-1.2675453424453735,-42.64834976196289,50.92078399658203,-34.799766540527344
2.2,-3.4719855785369873,-4.583451747894287,1.2598210573196411,-0.7573201656341553,-0.26710081100463867,-1.1213958263397217,-42.92604446411133,50.89155578613281,-33.39666748046875
2.21,-3.373879909515381,-2.2432711124420166,1.4859428405761719,-0.762817919254303,-0.11056660860776901,-0.971428394317627,-43.6422119140625,50.70154571533203,-34.60976028442383
2.22,-3.2099714279174805,-0.576670229434967,1.4464612007141113,-0.7286095023155212,0.0832303911447525,-0.8355109095573425,-43.93452072143555,50.789241790771484,-34.21514129638672
2.23,-3.1166512966156006,0.7381857633590698,1.1629117727279663,-0.6765332818031311,0.23915374279022217,-0.7144068479537964,-43.978370666503906,50.45308303833008,-33.440513610839844
2.25,-3.0520453453063965,1.7060824632644653,1.0229315757751465,-0.6337726712226868,0.3029891550540924,-0.6395758986473083,-44.85530471801758,50.2776985168457,-32.607425689697266
2.253,-3.032902479171753,2.1020946502685547,1.1413763761520386,-0.4830417037010193,0.3055853545665741,-0.5659666657447815,-44.51914596557617,50.3215446472168,-33.08974075317383
2.26,-3.0592236518859863,1.8281164169311523,1.2717852592468262,-0.38469237089157104,0.3068070709705353,-0.5225951671600342,-45.04530715942383,49.95615005493164,-33.2066650390625
2.27,-3.263810157775879,1.1341978311538696,1.4309078454971313,-0.27779096364974976,0.3321579694747925,-0.41752639412879944,-45.24992752075195,49.780765533447266,-32.85588836669922
2.28,-3.510270595550537,0.28953152894973755,1.1748758554458618,-0.21365012228488922,0.3819434940814972,-0.2716823220252991,-45.0599250793457,49.38614273071289,-33.14820098876953
2.29,-3.5545380115509033,-0.38763725757598877,0.3194418251514435,-0.20662516355514526,0.45784348249435425,-0.10201448947191238,-45.790706634521484,49.48845672607422,-32.89973831176758
2.31,-3.5401811599731445,-1.5038889646530151,-0.638883650302887,-0.029932396486401558,0.46899178624153137,0.09346237778663635,-45.60070037841797,50.160770416259766,-33.39666748046875
2.314,-3.095116138458252,-3.8045878410339355,-1.6618152856826782,0.23273965716362,0.36560285091400146,0.33887749910354614,-45.45454788208008,49.7223014831543,-33.557437896728516
2.32,-3.2039895057678223,-5.586043834686279,-1.817348837852478,0.4178318381309509,0.28817567229270935,0.5180137157440186,-45.3814697265625,49.795379638671875,-33.425899505615234
2.33,-3.572484016418457,-8.33898639678955,-1.956132411956787,0.6140722632408142,0.24205534160137177,0.783892810344696,-45.62993240356445,50.30692672729492,-33.67436599731445
2.34,-4.426721572875977,-10.784451484680176,-2.0207386016845703,0.7406740784645081,0.29413163661956787,1.1230758428573608,-45.07453918457031,50.51154327392578,-33.9666748046875
2.35,-5.218746185302734,-13.189237594604492,-1.7096717357635498,0.755182147026062,0.4749477207660675,1.5734361410140991,-44.182987213134766,51.183860778808594,-33.981292724609375
2.369,-6.198606967926025,-13.512269020080566,-3.163311243057251,0.7260133028030396,0.6513350009918213,1.9113973379135132,-43.496055603027344,51.183860778808594,-35.23823165893555
2.373,-7.168896198272705,-14.063814163208008,-4.522434711456299,0.826500654220581,0.9190467596054077,2.1849122047424316,-42.3414192199707,52.23618698120117,-35.895938873291016
2.38,-7.532605171203613,-14.969497680664062,-4.968696117401123,0.9460775256156921,1.1494957208633423,2.3156373500823975,-41.6252555847168,52.63081359863281,-37.109031677246094
2.39,-7.3806610107421875,-16.889738082885742,-4.974678039550781,1.078635334968567,1.531439185142517,2.5140156745910645,-40.70447540283203,53.05466079711914,-37.26980209350586
2.4,-7.1401824951171875,-18.920047760009766,-4.673182487487793,1.1198686361312866,1.9543105363845825,2.7734808921813965,-39.25752639770508,53.77082824707031,-38.68751907348633
2.41,-6.721438407897949,-20.338991165161133,-4.249652862548828,1.037249207496643,2.213623046875,2.981480360031128,-38.1467399597168,53.639286041259766,-39.25752639770508
2.43,-6.276373863220215,-20.622541427612305,-4.358526229858398,0.9017897844314575,2.411695718765259,3.187647581100464,-37.43057632446289,54.91084289550781,-39.43291473388672
2.434,-5.242674350738525,-20.676380157470703,-4.53200626373291,0.6992879509925842,2.5169174671173096,3.447265148162842,-35.48670196533203,55.24700164794922,-40.324466705322266
2.44,-4.435096740722656,-20.71825408935547,-4.406383037567139,0.6165157556533813,2.478433132171631,3.5213327407836914,-34.39052963256836,55.13007736206055,-41.5814094543457
2.45,-3.6945178508758545,-20.47179412841797,-4.246063709259033,0.38026362657546997,2.3182334899902344,3.6781721115112305,-33.425899505615234,55.568546295166016,-41.81526184082031
2.46,-3.042473793029785,-19.421344757080078,-3.9529428482055664,0.22174407541751862,2.1319196224212646,3.782935619354248,-31.81818199157715,55.62701416015625,-42.16603469848633
2.47,-2.9515466690063477,-18.379270553588867,-3.7148568630218506,0.13561208546161652,1.9310977458953857,3.8928914070129395,-29.71353530883789,55.89009094238281,-42.39988327026367
2.489,-3.352344274520874,-17.514265060424805,-3.655036449432373,0.11468994617462158,1.7789922952651978,3.9802451133728027,-28.471206665039062,56.416255950927734,-42.078338623046875
2.493,-4.511667251586914,-16.658830642700195,-3.4337005615234375,0.16630806028842926,1.7467690706253052,4.047898769378662,-26.088863372802734,56.2993278503418,-42.39988327026367
2.5,-4.83469820022583,-16.269996643066406,-3.3343982696533203,0.2321287989616394,1.8335119485855103,4.0301833152771,-24.919614791870117,56.3577880859375,-42.47296142578125
2.51,-5.164907455444336,-15.487544059753418,-3.194417953491211,0.3101668059825897,1.9536997079849243,3.944356679916382,-22.698041915893555,56.12394332885742,-42.312191009521484
2.52,-5.187639236450195,-14.419148445129395,-3.13938307762146,0.35353827476501465,2.062891960144043,3.805537700653076,-20.92955207824707,55.68547058105469,-42.58988571166992
2.53,-4.2831525802612305,-13.612767219543457,-3.0975089073181152,0.3628539741039276,2.127185583114624,3.6415205001831055,-19.570301055908203,55.91931915283203,-43.08681869506836
2.55,-3.4408788681030273,-12.664012908935547,-2.833101749420166,0.35353827476501465,2.146733045578003,3.4633004665374756,-18.035661697387695,56.021629333496094,-42.39988327026367
2.553,-2.3126630783081055,-11.563315391540527,-2.6703901290893555,0.26511549949645996,2.160477638244629,3.18276047706604,-15.726396560668945,55.14469909667969,-42.516807556152344
2.56,-1.710868239402771,-10.564311981201172,-2.8390841484069824,0.2304489016532898,2.1233675479888916,3.007289409637451,-14.557147026062012,54.867000579833984,-42.58988571166992
2.57,0.21655045449733734,-8.884550094604492,-2.6727828979492188,0.20601430535316467,1.9639317989349365,2.7655396461486816,-12.788658142089844,54.91084289550781,-42.063724517822266
2.58,1.2167502641677856,-7.659424781799316,-2.3030917644500732,0.18570303916931152,1.7398968935012817,2.517986536026001,-12.584039688110352,54.633148193359375,-42.239112854003906
2.59,1.6893328428268433,-6.311069488525391,-1.7156537771224976,0.14233160018920898,1.5331189632415771,2.2634084224700928,-11.224788665771484,53.91698455810547,-41.82987594604492
2.61,1.6067804098129272,-4.650450706481934,-1.0971091985702515,0.07101307809352875,1.4129313230514526,1.9792033433914185,-10.859397888183594,53.97544479370117,-41.74217987060547
2.613,2.0063817501068115,-1.820937991142273,-0.7680960297584534,-0.04413501173257828,1.3663527965545654,1.4669928550720215,-9.368605613708496,53.23004913330078,-42.239112854003906
2.62,3.0281169414520264,-0.3529413342475891,-0.7393822073936462,-0.032681290060281754,1.3364204168319702,1.2090550661087036,-9.105524063110352,53.25928497314453,-41.683719635009766
2.63,3.9457645416259766,1.0767701864242554,-0.42711883783340454,0.08032877743244171,1.2570078372955322,0.8964447379112244,-9.31014347076416,53.59543991088867,-41.77141189575195
2.64,5.107479572296143,1.4045867919921875,0.33738797903060913,0.1892155110836029,1.150259256362915,0.6233879327774048,-8.79859733581543,52.937740325927734,-41.756797790527344
2.65,5.876771926879883,0.9475577473640442,1.384247899055481,0.19074267148971558,0.9815077185630798,0.33628129959106445,-8.1262788772583,53.23004913330078,-44.59222412109375
2.669,6.512066841125488,0.4582255482673645,1.659422516822815,0.09773843735456467,0.6995934247970581,-0.013286319561302662,-8.082432746887207,53.2008171081543,-41.59602355957031
2.673,6.68435001373291,0.4462614059448242,0.6831508874893188,0.06200282275676727,0.24648413062095642,-0.3393356204032898,-8.433206558227539,53.2008171081543,-41.42063903808594
2.68,6.381657600402832,0.50129634141922,0.2823530435562134,0.05864306166768074,-0.055894169956445694,-0.5453499555587769,-8.360128402709961,53.843902587890625,-40.952938079833984
2.69,6.083751201629639,0.46779680252075195,0.26560330390930176,0.054825153201818466,-0.48899760842323303,-0.8083274364471436,-8.94475269317627,53.332359313964844,-41.77141189575195
2.7,5.388636112213135,-0.24406790733337402,0.6759723424911499,-0.005803219974040985,-0.9019425511360168,-1.0404561758041382,-9.120140075683594,54.31160354614258,-40.79216766357422
2.71,4.748556613922119,-1.168893814086914,0.9224331378936768,-0.15836679935455322,-1.3464996814727783,-1.288162112236023,-9.967845916748047,54.20929718017578,-40.572933197021484
2.73,3.284149169921875,-2.7278177738189697,1.0217353105545044,-0.3465133011341095,-1.6588046550750732,-1.448972225189209,-9.967845916748047,54.60391616821289,-40.63139724731445
2.734,0.849452018737793,-4.303491592407227,0.4821537435054779,-0.5108360648155212,-2.0259344577789307,-1.6635388135910034,-10.318620681762695,54.82314682006836,-40.85062789916992
2.74,-1.0600204467773438,-5.357529640197754,0.02512463741004467,-0.5664247870445251,-2.224923849105835,-1.8319847583770752,-10.874013900756836,55.363929748535156,-40.587547302246094
2.75,-3.8081772327423096,-6.8650078773498535,-0.8087739944458008,-0.5787947773933411,-2.419942617416382,-2.1041252613067627,-11.838644027709961,54.9400749206543,-41.21601867675781
2.76,-6.4426751136779785,-8.531608581542969,-1.6773686408996582,-0.4612032473087311,-2.4727823734283447,-2.5302038192749023,-12.847121238708496,55.977787017822266,-42.239112854003906
2.77,-9.095118522644043,-10.7557373046875,-2.830709218978882,-0.3098613917827606,-2.3133466243743896,-2.925586223602295,-13.738672256469727,56.46010208129883,-41.93218231201172
2.789,-9.779465675354004,-13.259825706481934,-3.3882367610931396,-0.13607022166252136,-2.0202841758728027,-3.2844696044921875,-14.820228576660156,56.3577880859375,-41.946800231933594
2.793,-9.315258026123047,-16.210176467895508,-3.741178274154663,-0.005803219974040985,-1.5648839473724365,-3.5825719833374023,-16.851797103881836,57.103187561035156,-42.39988327026367
2.8,-8.086544036865234,-17.436498641967773,-3.8500516414642334,-0.01191187184303999,-1.3339769840240479,-3.685655355453491,-18.123355865478516,57.366268157958984,-42.57527160644531
2.81,-6.120840072631836,-17.92822265625,-4.167100429534912,-0.1892155110836029,-1.2160799503326416,-3.7114644050598145,-19.891843795776367,58.25782012939453,-41.522945404052734
2.82,-4.58584451675415,-17.613567352294922,-5.247459411621094,-0.32681289315223694,-1.3874276876449585,-3.6699256896972656,-21.83572006225586,57.9947395324707,-42.22449493408203
2.83,-3.7770702838897705,-17.700904846191406,-5.600401401519775,-0.39354991912841797,-1.7418822050094604,-3.702148675918579,-23.180356979370117,58.28704833984375,-41.81526184082031
2.85,-4.030709743499756,-18.338592529296875,-5.4209394454956055,-0.4239404797554016,-2.1587977409362793,-3.8510470390319824,-25.036537170410156,58.27243423461914,-41.639869689941406
2.853,-4.572683811187744,-19.460826873779297,-4.8119659423828125,-0.48227810859680176,-2.521346092224121,-4.148843765258789,-27.41888427734375,58.0970458984375,-41.34756088256836
2.86,-4.6061835289001465,-20.21815299987793,-4.399204254150391,-0.5181664228439331,-2.543795585632324,-4.21619176864624,-28.63197898864746,58.652442932128906,-41.142940521240234
2.87,-4.216153621673584,-20.89891242980957,-3.9038898944854736,-0.6502660512924194,-2.4720187187194824,-4.227187156677246,-31.175094604492188,58.345516204833984,-39.929847717285156
2.88,-2.9958138465881348,-20.453845977783203,-3.5365920066833496,-0.759916365146637,-2.351067543029785,-4.09890604019165,-32.9289665222168,57.79011917114258,-39.155216217041016
2.89,-2.334198474884033,-19.408184051513672,-3.6299118995666504,-0.8121453523635864,-2.2072088718414307,-3.9157989025115967,-34.88745880126953,57.96550369262695,-38.99444580078125
2.91,-1.798206090927124,-18.130416870117188,-3.6945178508758545,-0.797789990901947,-2.0861048698425293,-3.7117698192596436,-36.43671417236328,57.556270599365234,-38.24905014038086
2.914,-1.2119646072387695,-16.112070083618164,-3.5545380115509033,-0.7324274182319641,-1.9561432600021362,-3.4274120330810547,-38.570594787597656,56.46010208129883,-37.91289138793945
2.92,-1.1270194053649902,-15.568900108337402,-3.424129009246826,-0.693026602268219,-1.943315029144287,-3.308140516281128,-39.140602111816406,56.15317153930664,-38.04443359375
2.93,-1.0085747241973877,-14.4263277053833,-2.80558443069458,-0.6285803318023682,-1.9507981538772583,-3.168863296508789,-40.952938079833984,55.597774505615234,-36.17363357543945
2.94,-1.0636096000671387,-13.907085418701172,-2.1475582122802734,-0.5557346343994141,-1.9729419946670532,-3.0379855632781982,-42.10757064819336,55.32008361816406,-35.720550537109375
2.95,-1.0767701864242554,-13.554143905639648,-1.397408366203308,-0.47968190908432007,-1.9355264902114868,-2.8880181312561035,-43.23297119140625,54.50160598754883,-34.43437576293945
2.969,-1.317248821258545,-13.095917701721191,-1.2059825658798218,-0.413555771112442,-1.8542814254760742,-2.7372872829437256,-44.29991149902344,54.54545593261719,-34.25898742675781
2.973,-1.4763715267181396,-12.589836120605469,-0.33379876613616943,-0.3136793076992035,-1.7078264951705933,-2.479654550552368,-45.42531204223633,53.46390151977539,-33.586673736572266
2.98,-1.4847464561462402,-12.643674850463867,0.35533416271209717,-0.37140607833862305,-1.6201673746109009,-2.328312873840332,-46.21455764770508,53.39081954956055,-33.177433013916016
2.99,-1.9142580032348633,-11.882756233215332,0.7561319470405579,-0.5551237463951111,-1.5308282375335693,-2.1562016010284424,-46.7991828918457,52.923118591308594,-32.30049514770508
3.0,-2.4287149906158447,-10.06301498413086,0.36610186100006104,-0.7049384713172913,-1.4761558771133423,-2.0164661407470703,-47.03303146362305,52.64542770385742,-32.32973098754883
3.01,-2.880958318710327,-8.032705307006836,0.5850450992584229,-0.7228062748908997,-1.3608551025390625,-1.8264870643615723,-48.20227813720703,51.593101501464844,-30.970474243164062
3.03,-3.3128626346588135,-6.104090690612793,1.2693923711776733,-0.7478517889976501,-1.0516045093536377,-1.4976887702941895,-48.52382278442383,51.344635009765625,-30.83893585205078
3.034,-3.4707889556884766,-2.5878376960754395,0.7369893193244934,-0.7211264371871948,-0.7073819041252136,-1.1850786209106445,-48.69921112060547,50.555397033691406,-29.34814453125
3.04,-3.5330023765563965,-0.9990034103393555,0.7477570176124573,-0.6542366743087769,-0.5613851547241211,-1.0435105562210083,-48.75767135620117,50.42385482788086,-29.91815185546875
3.05,-4.31306266784668,0.9308079481124878,0.9798608422279358,-0.6035348773002625,-0.5833762884140015,-0.9040805101394653,-48.9622917175293,50.39461898803711,-29.37737464904785
3.06,-5.804987907409668,2.3234305381774902,1.1736794710159302,-0.5119050741195679,-0.5073235630989075,-0.8442157506942749,-49.210758209228516,49.35691452026367,-27.842735290527344
3.07,-6.569494247436523,2.633301258087158,1.5230315923690796,-0.48426342010498047,-0.2028072625398636,-0.8941540122032166,-49.6199951171875,49.45922088623047,-27.755043029785156
3.089,-6.275177478790283,2.352144718170166,1.1868400573730469,-0.5884159207344055,0.006566801108419895,-0.8315402865409851,-49.51768493652344,48.9622917175293,-27.63811683654785
3.093,-4.766502380371094,2.612962245941162,1.6618152856826782,-0.7394523620605469,0.2704605758190155,-0.6441574096679688,-50.40924072265625,49.50307083129883,-27.813507080078125
3.1,-4.225724697113037,1.5254243612289429,2.352144718170166,-0.6860016584396362,0.36804628372192383,-0.45891252160072327,-50.10231018066406,48.421512603759766,-27.272727966308594
3.11,-3.5150563716888428,1.153340458869934,2.1475582122802734,-0.5655084848403931,0.46929723024368286,-0.1595885455608368,-50.043846130371094,48.36305236816406,-26.95118522644043
3.12,-3.5700912475585938,0.003589233849197626,1.2251251935958862,-0.21762074530124664,0.5477933883666992,0.20326539874076843,-50.043846130371094,48.056121826171875,-27.08272361755371
3.13,-3.9792640209198,-1.5792629718780518,-0.16390834748744965,0.08811730891466141,0.6087271571159363,0.4772384762763977,-50.11692810058594,48.056121826171875,-27.345806121826172
3.15,-4.0833516120910645,-3.4504499435424805,-1.1078768968582153,0.3546072542667389,0.65958172082901,0.7415904402732849,-50.17538833618164,47.98304748535156,-28.368898391723633
3.153,-3.6299118995666504,-5.6099724769592285,-1.9334007501602173,0.5910121202468872,0.7093672156333923,1.034194827079773,-49.780765533447266,48.30459213256836,-28.28120231628418
3.16,-3.410968542098999,-7.411767482757568,-1.9549360275268555,0.7067710757255554,0.6950119137763977,1.1716394424438477,-49.37152862548828,48.83074951171875,-28.82198143005371
3.17,-3.3990042209625244,-10.112068176269531,-2.0207386016845703,0.8200865387916565,0.6688974499702454,1.3118330240249634,-49.15229415893555,49.663841247558594,-29.46506690979004
3.18,-4.0558342933654785,-14.414362907409668,-1.6510475873947144,0.9447030425071716,0.6783658266067505,1.4407256841659546,-49.00613784790039,49.80999755859375,-30.225080490112305
3.19,-3.783052444458008,-15.619149208068848,-2.342573404312134,0.9242391586303711,0.8155050873756409,1.6852245330810547,-48.30459213256836,50.5992431640625,-30.42970085144043
3.21,-4.332205295562744,-15.533007621765137,-3.7112677097320557,0.9117163419723511,0.9752463102340698,1.9979875087738037,-47.77842712402344,51.02309036254883,-30.239694595336914
3.214,-5.681756973266602,-15.05204963684082,-5.577669143676758,0.963181734085083,1.352608323097229,2.456900119781494,-47.00379943847656,52.323883056640625,-32.08126449584961
3.22,-5.870790004730225,-15.51266860961914,-5.888736248016357,1.0030407905578613,1.4888312816619873,2.56257963180542,-45.89301300048828,52.338497161865234,-32.09587860107422
3.23,-5.7786664962768555,-16.971094131469727,-5.800201892852783,1.0911580324172974,1.7965545654296875,2.771648406982422,-44.928382873535156,53.113128662109375,-33.367435455322266
3.24,-5.0009989738464355,-18.951154708862305,-5.119443893432617,1.0622947216033936,2.026240110397339,2.9579620361328125,-44.256065368652344,53.99005889892578,-33.74744415283203
3.25,-4.147957801818848,-19.684555053710938,-4.689931869506836,0.9677632451057434,2.2649357318878174,3.2064316272735596,-42.72142791748047,54.35545349121094,-35.51593017578125
3.27,-3.2829525470733643,-19.83171272277832,-4.5583271980285645,0.8494080901145935,2.4466679096221924,3.4519994258880615,-41.756797790527344,55.2177734375,-35.340545654296875
3.274,-1.9441683292388916,-19.94058609008789,-4.878964900970459,0.7228062748908997,2.4494168758392334,3.732997417449951,-39.81291961669922,55.46623992919922,-35.61824035644531
3.28,-1.4333007335662842,-20.175085067749023,-4.800002098083496,0.683863639831543,2.345264434814453,3.8731908798217773,-38.804443359375,56.34317398071289,-36.81671905517578
3.29,-0.5970092415809631,-20.3569393157959,-4.5236310958862305,0.5963572263717651,2.115884304046631,4.057672500610352,-37.43057632446289,56.6793327331543,-36.97748947143555
3.3,-0.7537391185760498,-19.63071632385254,-4.649254322052002,0.5389358401298523,1.867262363433838,4.252691268920898,-35.325927734375,56.46010208129883,-37.37211227416992
3.31,-1.3088740110397339,-18.494125366210938,-4.651647090911865,0.5661193132400513,1.623374342918396,4.4278564453125,-33.615901947021484,56.88395690917969,-37.62057876586914
3.33,-1.875972867012024,-17.706886291503906,-4.377668857574463,0.6259841322898865,1.417970895767212,4.546517372131348,-31.175094604492188,57.527042388916016,-39.16983413696289
3.334,-3.207578659057617,-16.985450744628906,-3.9625141620635986,0.6800457239151001,1.2159273624420166,4.616766452789307,-28.26658821105957,57.20549774169922,-38.93598175048828
3.34,-3.8907296657562256,-16.713865280151367,-3.489931583404541,0.6716462969779968,1.2281445264816284,4.627914905548096,-27.141185760498047,57.58550262451172,-39.75445556640625
3.35,-4.660021781921387,-16.01875114440918,-2.974278450012207,0.6455318927764893,1.334434986114502,4.609436511993408,-24.70037841796875,57.26395797729492,-40.11984634399414
3.36,-5.218746185302734,-14.874981880187988,-2.9001009464263916,0.6543893814086914,1.4931074380874634,4.5210137367248535,-22.66880989074707,57.117801666259766,-39.68138122558594
3.37,-5.684150218963623,-13.63310718536377,-2.9898316860198975,0.7028005123138428,1.6423112154006958,4.3789873123168945,-20.63724136352539,57.05934143066406,-40.45600509643555
3.39,-6.110072612762451,-12.581460952758789,-2.8701906204223633,0.811687171459198,1.925905466079712,4.168849945068359,-18.34259033203125,56.54779052734375,-41.05524826049805
3.394,-5.552545070648193,-11.46401309967041,-2.551945447921753,0.8277223706245422,2.286315679550171,3.7950003147125244,-16.194095611572266,55.83163070678711,-40.70447540283203
3.401,-4.376472473144531,-10.872984886169434,-2.4598214626312256,0.7958046793937683,2.4605650901794434,3.5498907566070557,-15.346389770507812,55.568546295166016,-40.894474029541016
3.41,-2.2707886695861816,-9.964909553527832,-1.9932211637496948,0.7092145085334778,2.556623697280884,3.2308664321899414,-13.563285827636719,55.40777587890625,-40.82139587402344
3.42,-0.18903298676013947,-9.109475135803223,-1.2538390159606934,0.5273294448852539,2.552042245864868,2.8993189334869385,-12.598654747009277,54.91084289550781,-40.777549743652344
3.43,1.3363914489746094,-7.3914289474487305,-0.7357929348945618,0.17241671681404114,2.5856399536132812,2.459648847579956,-11.32709789276123,54.54545593261719,-40.952938079833984
3.45,2.9491539001464844,-5.3694939613342285,-0.2225324958562851,-0.08460482954978943,2.629011392593384,2.1765129566192627,-10.859397888183594,54.063140869140625,-39.345218658447266
3.454,4.4410786628723145,-2.142772674560547,-0.09212366491556168,-0.242513507604599,2.6705501079559326,1.8903225660324097,-8.973984718322754,53.624671936035156,-39.140602111816406
3.46,5.675775051116943,-1.155733346939087,-0.02991028130054474,-0.327271044254303,2.6057984828948975,1.6942347288131714,-8.681672096252441,53.522361755371094,-38.43905258178711
3.47,7.797012805938721,-0.3278166949748993,-0.3349951505661011,-0.4801400899887085,2.2857048511505127,1.3530665636062622,-8.725519180297852,53.434669494628906,-38.205204010009766
3.48,9.134600639343262,-0.005982056725770235,-0.259621262550354,-0.597426176071167,1.8084665536880493,1.0716103315353394,-7.863198280334473,52.99620056152344,-38.05904769897461
3.49,9.257830619812012,-0.041874393820762634,0.20817556977272034,-0.8103127479553223,1.1129964590072632,0.730900228023529,-8.170125961303711,52.908504486083984,-37.35749816894531
3.51,7.482356548309326,0.5347958207130432,0.3194418251514435,-0.9434813261032104,0.6001750826835632,0.42684206366539,-7.7316575050354,52.1192626953125,-35.77901077270508
3.514,5.589633464813232,1.1904292106628418,0.25244277715682983,-0.8802568316459656,0.11316278576850891,0.11301006376743317,-8.1262788772583,52.499271392822266,-35.472084045410156
3.52,4.972285270690918,0.995414137840271,0.556331217288971,-0.8391761183738708,-0.012980885803699493,0.03833179175853729,-8.433206558227539,52.265419006347656,-34.84361267089844
3.53,4.432703971862793,0.45104703307151794,1.2263215780258179,-0.8127562403678894,-0.2232712358236313,-0.13255774974822998,-8.213972091674805,51.900028228759766,-35.179771423339844
3.54,4.284348964691162,-0.21296119689941406,1.3016955852508545,-0.7637342810630798,-0.5287038683891296,-0.37888914346694946,-8.170125961303711,52.075416564941406,-34.726688385009766
3.55,2.592623233795166,-1.2323036193847656,1.031306505203247,-0.737772524356842,-0.8226827383041382,-0.5983425378799438,-7.965507507324219,51.94387435913086,-34.40514373779297
3.57,0.3397807776927948,-2.1092729568481445,0.11485548317432404,-0.698066234588623,-1.161712884902954,-0.8440630435943604,-8.71090316772461,52.64542770385742,-33.981292724609375
3.573,-2.66560435295105,-3.0317063331604004,-1.2490533590316772,-0.5419901609420776,-1.52273428440094,-1.180955171585083,-8.973984718322754,52.74773406982422,-34.31745147705078
3.58,-4.202992916107178,-3.6023943424224854,-2.0614166259765625,-0.4159992039203644,-1.6644550561904907,-1.4147638082504272,-9.134756088256836,52.733116149902344,-34.39052963256836
3.591,-5.889932632446289,-5.280959129333496,-3.266202688217163,-0.14935654401779175,-1.7861698865890503,-1.8104517459869385,-9.251681327819824,52.64542770385742,-34.551300048828125
3.6,-6.358925819396973,-7.044469356536865,-4.1659040451049805,0.10659598559141159,-1.8020524978637695,-2.0734293460845947,-10.49400806427002,53.50774383544922,-34.726688385009766
3.61,-6.3014984130859375,-9.439684867858887,-4.0558342933654785,0.2909245789051056,-1.8631389141082764,-2.291813611984253,-11.122478485107422,53.639286041259766,-35.63285446166992
3.63,-7.024130821228027,-12.102895736694336,-3.7914273738861084,0.3546072542667389,-1.9396498203277588,-2.5166120529174805,-12.584039688110352,54.53084182739258,-35.69131851196289
3.634,-8.093722343444824,-14.957533836364746,-3.649054527282715,0.38347065448760986,-2.020895004272461,-2.90038800239563,-13.957907676696777,55.261619567871094,-37.18210983276367
3.64,-8.511269569396973,-15.858430862426758,-3.6562328338623047,0.3692680299282074,-1.9874500036239624,-3.045621395111084,-14.893306732177734,55.34931564331055,-36.50979232788086
3.65,-9.637092590332031,-16.96630859375,-4.4410786628723145,0.3266601860523224,-1.913688063621521,-3.25545334815979,-16.42794418334961,56.25548553466797,-36.59748840332031
3.66,-9.69930648803711,-17.16371726989746,-5.3276190757751465,0.3127630054950714,-1.8347337245941162,-3.4959816932678223,-17.97719955444336,56.6354866027832,-36.43671417236328
3.67,-8.861818313598633,-17.285749435424805,-5.661418437957764,0.294437050819397,-1.7708982229232788,-3.723987102508545,-19.760305404663086,56.8985710144043,-36.37825393676758
3.689,-7.601996898651123,-17.316856384277344,-5.980859756469727,0.2669481039047241,-1.741729497909546,-3.9521453380584717,-21.981876373291016,57.26395797729492,-36.6851806640625
3.693,-5.26899528503418,-17.92822265625,-5.398207664489746,0.17959438264369965,-1.867720365524292,-4.24765157699585,-24.75884246826172,56.79625701904297,-37.109031677246094
3.7,-3.4265217781066895,-18.911672592163086,-4.407578945159912,0.07880160957574844,-2.013259172439575,-4.317748069763184,-26.132709503173828,56.8985710144043,-36.919029235839844
3.71,-2.0853447914123535,-20.124835968017578,-3.658625841140747,-0.05925392732024193,-2.2412643432617188,-4.293008327484131,-28.16427993774414,57.26395797729492,-36.34901809692383
3.72,-1.3890334367752075,-20.805593490600586,-3.2338995933532715,-0.11468994617462158,-2.433992624282837,-4.105472564697266,-30.722009658813477,57.20549774169922,-35.80824279785156
3.73,-1.5409777164459229,-20.70629119873047,-2.66560435295105,-0.20922134816646576,-2.512641429901123,-3.785989999771118,-32.27126693725586,57.08857345581055,-36.24671173095703
3.75,-2.678764820098877,-19.161724090576172,-3.2434709072113037,-0.4271475076675415,-2.585028886795044,-3.447723150253296,-33.586673736572266,56.503944396972656,-35.6474723815918
3.753,-4.602594375610352,-14.9671049118042,-4.25802755355835,-0.4121812880039215,-2.605340003967285,-3.283400535583496,-35.545162200927734,56.25548553466797,-34.39052963256836
3.76,-4.962713718414307,-13.74078369140625,-3.841676712036133,-0.3423899710178375,-2.5689938068389893,-3.2808046340942383,-36.465946197509766,56.007015228271484,-34.47822189331055
3.77,-4.8813581466674805,-13.239486694335938,-2.8211376667022705,-0.2981022298336029,-2.4361305236816406,-3.2962288856506348,-37.34288024902344,55.64162826538086,-33.64513397216797
3.78,-4.370490550994873,-13.335200309753418,-1.56969153881073,-0.3378084599971771,-2.200336456298828,-3.2736268043518066,-38.45366668701172,55.29084777832031,-33.08974075317383
3.79,-3.5988051891326904,-13.605588912963867,-0.2632104754447937,-0.4622722566127777,-1.9262107610702515,-3.221856117248535,-40.17831039428711,54.691612243652344,-31.584331512451172
3.81,-2.988635540008545,-13.654642105102539,0.5826523303985596,-0.7028005123138428,-1.6365079879760742,-3.172070264816284,-41.42063903808594,54.37007141113281,-30.780473709106445
3.814,-2.5423738956451416,-12.805190086364746,0.33858439326286316,-0.8107708692550659,-1.3753629922866821,-3.0243937969207764,-42.633731842041016,53.39081954956055,-30.064308166503906
3.82,-2.65842604637146,-11.58006477355957,-0.15074782073497772,-0.8097019195556641,-1.196379542350769,-2.922837495803833,-43.83221435546875,52.96696853637695,-29.771995544433594
3.83,-2.654836893081665,-9.546165466308594,-0.4618147313594818,-0.8008443117141724,-0.9567676186561584,-2.8131871223449707,-44.38760757446289,51.94387435913086,-29.391992568969727
3.84,-2.6524438858032227,-7.2430739402771,-0.38763725757598877,-0.7353289723396301,-0.7278459072113037,-2.6610817909240723,-45.77608871459961,51.373870849609375,-29.742765426635742
3.85,-3.0652055740356445,-4.78684139251709,-0.02153540402650833,-0.5473352670669556,-0.3903428912162781,-2.440101146697998,-47.07687759399414,50.80385971069336,-28.880443572998047
3.869,-2.9970104694366455,-2.3808584213256836,0.39122650027275085,-0.4057672321796417,-0.18249599635601044,-2.2606594562530518,-47.544578552246094,50.336158752441406,-28.73428726196289
3.873,-2.8426733016967773,-0.9559326767921448,1.057627558708191,-0.39584067463874817,-0.0025961773935705423,-2.0228800773620605,-48.52382278442383,49.853843688964844,-27.57965660095215
3.88,-2.5052852630615234,-0.34217363595962524,1.32921302318573,-0.508698046207428,0.014049900695681572,-1.8842138051986694,-49.093833923339844,49.34230041503906,-27.594270706176758
3.89,-2.231307029724121,0.1866401582956314,2.0554347038269043,-0.7559457421302795,-0.07513642311096191,-1.7151567935943604,-49.26921844482422,48.74305725097656,-27.4481143951416
3.9,-2.122433662414551,0.8578268885612488,2.4095723628997803,-1.0671815872192383,-0.2649627923965454,-1.5867223739624023,-49.795379638671875,48.669979095458984,-26.87810707092285
3.91,-2.6835503578186035,1.6893328428268433,2.1200408935546875,-1.1476629972457886,-0.40256020426750183,-1.5195273160934448,-50.89155578613281,47.57380676269531,-26.293479919433594
3.93,-3.5676984786987305,1.6163517236709595,1.8077774047851562,-1.0656543970108032,-0.4914410710334778,-1.4453071355819702,-51.00847625732422,46.755332946777344,-25.86962890625
3.933,-4.808376789093018,0.47617167234420776,1.7718851566314697,-0.8857545852661133,-0.5120577812194824,-1.2635747194290161,-51.12540054321289,45.68839645385742,-24.612686157226562
3.94,-5.402993679046631,-0.38285163044929504,1.6486546993255615,-0.8002334237098694,-0.46700647473335266,-1.1835514307022095,-51.81233215332031,45.191463470458984,-25.036537170410156
3.95,-5.758327960968018,-1.8077774047851562,1.5397813320159912,-0.6702718734741211,-0.3830125033855438,-0.9668470025062561,-52.265419006347656,44.66530227661133,-24.59807014465332
3.96,-6.056233882904053,-3.4779675006866455,0.8925228118896484,-0.5488623976707458,-0.2597704529762268,-0.7606799602508545,-52.42618942260742,44.32914352416992,-23.9695987701416
3.97,-5.735595226287842,-4.7365922927856445,0.04666003957390785,-0.37659841775894165,-0.05772676318883896,-0.4973970353603363,-52.36772918701172,44.3437614440918,-23.984214782714844
3.989,-5.087141036987305,-5.732006549835205,-0.9499505758285522,-0.11820242553949356,0.24923300743103027,-0.1189659982919693,-52.908504486083984,43.496055603027344,-23.85267448425293
3.993,-3.954139232635498,-7.445267200469971,-1.605583906173706,0.22113321721553802,0.6209444999694824,0.451123982667923,-52.60157775878906,44.13914108276367,-23.867290496826172
4.0,-3.565305471420288,-8.930013656616211,-1.9381862878799438,0.4294382631778717,0.7568620443344116,0.8268061280250549,-52.58695983886719,43.77375030517578,-24.21806526184082
4.01,-3.829712390899658,-12.599407196044922,-2.465803623199463,0.6116288304328918,0.7400632500648499,1.0706939697265625,-52.294654846191406,44.19760513305664,-23.414207458496094
4.02,-3.542573928833008,-13.371092796325684,-3.180061101913452,0.7464773058891296,0.6597344279289246,1.2527319192886353,-52.86465835571289,44.69453430175781,-24.68576431274414
4.03,-3.930211305618286,-14.000405311584473,-4.323830604553223,0.8639161586761475,0.6301075220108032,1.4888312816619873,-52.03157043457031,44.928382873535156,-24.831920623779297
4.05,-4.705485820770264,-14.946765899658203,-5.402993679046631,1.0016663074493408,0.7528914213180542,1.8029687404632568,-51.76848602294922,46.03916931152344,-25.84039878845215
4.053,-5.893521785736084,-17.698511123657227,-6.178267955780029,1.1989758014678955,1.2159273624420166,2.314110040664673,-51.169246673583984,46.726104736328125,-26.381174087524414
4.06,-6.137589454650879,-19.013368606567383,-6.1124653816223145,1.226922869682312,1.4999794960021973,2.549140453338623,-50.30692672729492,48.31920623779297,-28.28120231628418
4.07,-5.983253002166748,-19.907087326049805,-5.50229549407959,1.1659890413284302,1.8880317211151123,2.842355966567993,-50.02922821044922,48.75767135620117,-28.456592559814453
4.08,-5.109872817993164,-20.459829330444336,-4.930410861968994,1.0041097402572632,2.2690589427948,3.1093039512634277,-49.48845672607422,49.663841247558594,-29.128910064697266
4.09,-4.204189300537109,-21.068801879882812,-4.516452789306641,0.8500189781188965,2.652682304382324,3.355635404586792,-48.36305236816406,50.263084411621094,-30.99970817565918
4.11,-3.064009428024292,-21.30449676513672,-4.327419757843018,0.7144068479537964,2.9822440147399902,3.620750904083252,-47.58842468261719,51.05232620239258,-31.13124656677246
4.114,-1.270588755607605,-21.19083595275879,-4.006781578063965,0.48319438099861145,3.0584495067596436,3.852268934249878,-45.805320739746094,52.04618453979492,-32.052032470703125
4.12,-0.4331009089946747,-20.755342483520508,-3.9110684394836426,0.3539963960647583,3.0108020305633545,3.9739837646484375,-45.45454788208008,52.689273834228516,-33.031280517578125
4.13,0.5359922647476196,-19.85683822631836,-3.999603033065796,0.2382374405860901,2.8350255489349365,4.1190643310546875,-43.84682846069336,53.17158508300781,-33.732826232910156
4.14,1.3088740110397339,-18.72144317626953,-4.004388809204102,0.24724771082401276,2.573117256164551,4.283998012542725,-42.429115295410156,53.46390151977539,-34.682838439941406
4.15,1.4751750230789185,-17.77388572692871,-3.827319860458374,0.36972618103027344,2.238363027572632,4.457483768463135,-40.79216766357422,54.09237289428711,-35.01900100708008
4.169,1.101894736289978,-17.078771591186523,-3.5700912475585938,0.5403103232383728,1.8018996715545654,4.567439556121826,-39.330604553222656,54.80853271484375,-34.712074279785156
4.173,-0.13998012244701385,-15.921841621398926,-3.4636106491088867,0.640034019947052,1.457066297531128,4.581794261932373,-35.83747482299805,55.773162841796875,-35.7059326171875
4.18,-0.4941178560256958,-15.275779724121094,-3.4576287269592285,0.6679810881614685,1.2823587656021118,4.5123090744018555,-34.93130874633789,55.83163070678711,-35.866703033447266
4.19,-1.3591231107711792,-14.288740158081055,-3.4229326248168945,0.6730207204818726,1.1113165616989136,4.327216625213623,-32.89973831176758,55.992401123046875,-36.50979232788086
4.2,-2.0829520225524902,-13.409377098083496,-3.3475589752197266,0.6424775123596191,1.050840973854065,4.024532794952393,-31.350481033325195,56.06547546386719,-37.89827346801758
4.21,-2.6799612045288086,-12.597013473510742,-3.22552490234375,0.6105597615242004,1.1725558042526245,3.75529408454895,-28.99736976623535,56.47471618652344,-37.605960845947266
4.23,-3.1824538707733154,-11.34437084197998,-2.709871768951416,0.5962044596672058,1.415374755859375,3.475364923477173,-27.740427017211914,56.22624588012695,-36.99210739135742
4.233,-2.258824348449707,-9.905089378356934,-2.031506299972534,0.5203045010566711,1.7556265592575073,3.1309897899627686,-25.957321166992188,56.16778564453125,-38.263668060302734
4.24,-1.1449655294418335,-8.70389175415039,-1.710868239402771,0.45494186878204346,1.9129245281219482,2.9109256267547607,-24.87576675415039,56.03624725341797,-37.92750549316406
4.25,0.605384111404419,-7.010970115661621,-1.499103307723999,0.3315471112728119,2.0586156845092773,2.6193902492523193,-23.721134185791016,55.87547302246094,-38.30751037597656
4.26,2.644068956375122,-4.925625324249268,-1.1928220987319946,0.14233160018920898,2.119244337081909,2.31166672706604,-22.902660369873047,55.83163070678711,-38.804443359375
4.27,4.767699241638184,-1.8855441808700562,-0.7393822073936462,0.0024434609804302454,2.001041889190674,2.0838141441345215,-21.4703311920166,56.15317153930664,-38.55597686767578
4.289,5.770291805267334,0.18544374406337738,0.13280165195465088,-0.09651671350002289,1.7796032428741455,1.8304576873779297,-21.031862258911133,55.071617126464844,-38.40982437133789
4.293,6.385247230529785,1.2634103298187256,1.219143033027649,-0.14187344908714294,1.4457652568817139,1.523039698600769,-19.7310733795166,55.01315689086914,-38.015201568603516
4.3,6.270391464233398,1.215553879737854,1.5050853490829468,-0.1258382350206375,1.2400565147399902,1.3565789461135864,-20.18415641784668,55.32008361816406,-38.395206451416016
4.31,5.858826160430908,0.7190431356430054,1.4213366508483887,-0.07024950534105301,0.9418014883995056,1.1093312501907349,-19.46799087524414,55.02777099609375,-38.67290496826172
4.32,5.115854740142822,-0.22612173855304718,0.8410770893096924,-0.08078692108392715,0.7095199823379517,0.8772024512290955,-18.985675811767578,54.77930450439453,-37.98596954345703
4.33,4.791627407073975,-0.3433700203895569,0.0323031060397625,-0.0835358202457428,0.4847215414047241,0.6033821702003479,-18.664133071899414,55.08623123168945,-37.7667350769043
4.35,4.429114818572998,-0.5156532526016235,0.22971096634864807,-0.11575896292924881,0.19089537858963013,0.3358231484889984,-18.415668487548828,54.13621520996094,-34.96053695678711
4.354,3.943371534347534,-0.6903292536735535,0.2787638306617737,-0.22418753802776337,-0.152105450630188,-0.06215553730726242,-18.021047592163086,54.077754974365234,-37.649810791015625
4.36,3.9038898944854736,-0.7764708995819092,0.15553347766399384,-0.25305092334747314,-0.3289509117603302,-0.2232712358236313,-18.386436462402344,53.829288482666016,-36.88979721069336
4.37,3.1992037296295166,-1.3663017749786377,0.02392822690308094,-0.29504790902137756,-0.6368269920349121,-0.4213443100452423,-18.269512176513672,53.653900146484375,-36.33440399169922
4.38,2.1547367572784424,-2.4430718421936035,-0.34217363595962524,-0.29504790902137756,-0.9952521920204163,-0.6310237646102905,-18.605670928955078,53.829288482666016,-37.15288162231445
4.39,0.35772696137428284,-4.377668857574463,-0.4211367666721344,-0.2912300229072571,-1.3991868495941162,-0.8649851679801941,-18.927213668823242,53.78544235229492,-37.48904037475586
4.5,-5.127819061279297,-19.19641876220703,-4.244867324829102,-0.4378376603126526,-2.0370829105377197,-3.115412712097168,-27.828121185302734,53.27389907836914,-35.910552978515625
4.51,-4.97348165512085,-19.249061584472656,-4.11924409866333,-0.5322163105010986,-2.180636167526245,-3.2531628608703613,-28.80736541748047,53.829288482666016,-35.355159759521484
4.53,-4.412364959716797,-19.006189346313477,-3.9792640209198,-0.6172793507575989,-2.274862051010132,-3.346930503845215,-29.669687271118164,53.39081954956055,-34.712074279785156
4.534,-3.4025938510894775,-18.541980743408203,-3.177668571472168,-0.688903272151947,-2.3383920192718506,-3.324328660964966,-31.584331512451172,52.923118591308594,-34.81438064575195
4.54,-2.9383859634399414,-18.15434455871582,-2.994617462158203,-0.7195992469787598,-2.323425769805908,-3.240792751312256,-32.15433883666992,52.689273834228516,-33.76205825805664
4.55,-2.609373092651367,-17.051254272460938,-2.964707136154175,-0.7032586336135864,-2.2739460468292236,-3.073568344116211,-32.987430572509766,52.090030670166016,-32.84127426147461
4.56,-2.4634108543395996,-15.719647407531738,-2.974278450012207,-0.6253732442855835,-2.2156081199645996,-2.8930575847625732,-34.200523376464844,51.65156173706055,-33.177433013916016
4.57,-2.633301258087158,-14.604592323303223,-2.7086751461029053,-0.5112941861152649,-2.18078875541687,-2.7009406089782715,-34.77053451538086,51.476173400878906,-32.87050247192383
4.589,-2.699103832244873,-13.503894805908203,-2.0650060176849365,-0.4311181306838989,-2.194533348083496,-2.598926067352295,-35.735164642333984,51.05232620239258,-31.862030029296875
4.593,-3.181257724761963,-13.070793151855469,-0.9284151792526245,-0.3903428912162781,-2.137722969055176,-2.543490171432495,-36.37825393676758,50.540775299072266,-31.774335861206055
4.6,-3.3882367610931396,-13.130614280700684,-0.06340979784727097,-0.4075998365879059,-2.0413589477539062,-2.5386030673980713,-37.021339416503906,50.70154571533203,-31.408945083618164
4.61,-3.6406795978546143,-13.02054500579834,0.8327022790908813,-0.5141957998275757,-1.8648189306259155,-2.520430088043213,-37.679039001464844,49.75153350830078,-30.809703826904297
4.62,-3.768695592880249,-12.390035629272461,0.8578268885612488,-0.6786712408065796,-1.5642731189727783,-2.475989580154419,-38.29289627075195,49.853843688964844,-30.152002334594727
4.63,-3.950549840927124,-10.817951202392578,0.27397817373275757,-0.6966918110847473,-1.2444851398468018,-2.3661863803863525,-39.023677825927734,49.2984504699707,-29.7281494140625
4.65,-4.113262176513672,-9.487541198730469,0.47258248925209045,-0.6640104651451111,-0.8746063113212585,-2.2295053005218506,-39.87138366699219,49.25460433959961,-30.42970085144043
4.653,-4.2209391593933105,-7.441678524017334,0.2715853750705719,-0.669966459274292,-0.49877145886421204,-2.123825788497925,-41.084476470947266,48.50920867919922,-29.1873722076416
4.66,-4.060619831085205,-5.843272686004639,-0.010767702013254166,-0.6449209451675415,-0.34162637591362,-2.0758728981018066,-41.639869689941406,48.18766403198242,-29.114294052124023
4.67,-3.641875982284546,-3.783052444458008,-0.19501502811908722,-0.5441282391548157,-0.1621847152709961,-1.9408715963363647,-42.063724517822266,48.041507720947266,-29.011985778808594
4.68,-3.06999135017395,-1.470389485359192,-0.10767702013254166,-0.42730024456977844,-0.010537425056099892,-1.7638733386993408,-42.37065124511719,47.427650451660156,-28.295820236206055
4.69,-2.4981067180633545,-0.12681959569454193,0.6951149702072144,-0.34636056423187256,0.15286903083324432,-1.5155565738677979,-43.23297119140625,47.38380432128906,-28.661209106445312
4.71,-2.094916343688965,0.8123632073402405,1.4739786386489868,-0.3729332387447357,0.2528982162475586,-1.2498302459716797,-43.94913864135742,47.19380569458008,-29.128910064697266
4.714,-2.038684844970703,1.2598210573196411,2.6356940269470215,-0.5991060733795166,0.1443169116973877,-0.9610437750816345,-44.3437614440918,46.667640686035156,-28.398128509521484
4.72,-2.3054845333099365,1.53858482837677,2.5746772289276123,-0.7472409009933472,0.018020525574684143,-0.9144652485847473,-44.51914596557617,46.62379455566406,-28.544286727905273
4.73,-3.125026226043701,1.7395819425582886,1.939382791519165,-0.8037459254264832,-0.1160643994808197,-0.8891143798828125,-44.431453704833984,46.945335388183594,-28.032737731933594
4.74,-3.7328033447265625,0.9882357120513916,1.2765707969665527,-0.7115052938461304,-0.1800525188446045,-0.8216137290000916,-44.69453430175781,46.03916931152344,-27.462730407714844
4.75,-3.957728624343872,0.061016976833343506,0.7968099117279053,-0.540921151638031,-0.1966986060142517,-0.7115052938461304,-45.556854248046875,46.24378967285156,-26.848873138427734
4.769,-4.941178798675537,-1.428515076637268,-0.10408778488636017,-0.33887749910354614,-0.1996002048254013,-0.4951062798500061,-45.30839157104492,45.761470794677734,-26.79041290283203
4.773,-5.2354960441589355,-3.8428730964660645,-0.9990034103393555,-0.009621127508580685,-0.09834930300712585,-0.1417207270860672,-45.86378479003906,45.65916442871094,-26.629642486572266
4.78,-5.079962253570557,-5.5716872215271,-1.1306086778640747,0.1598939746618271,-0.01924225501716137,0.08888089656829834,-45.790706634521484,45.498390197753906,-26.161941528320312
4.79,-4.661218643188477,-8.530412673950195,-1.168893814086914,0.3604104816913605,0.08124507963657379,0.43478330969810486,-45.39608383178711,46.02455520629883,-27.535808563232422
4.8,-4.667200565338135,-10.583454132080078,-1.1892328262329102,0.503963828086853,0.12278390675783157,0.7629706859588623,-45.07453918457031,45.70301055908203,-26.936567306518555
4.81,-5.069194793701172,-12.675976753234863,-1.0791629552841187,0.6081163287162781,0.13408491015434265,1.018923282623291,-44.65068435668945,46.945335388183594,-27.535808563232422
4.83,-5.989234924316406,-12.665210723876953,-2.170289993286133,0.5946772694587708,0.18555031716823578,1.3478741645812988,-44.19760513305664,47.106109619140625,-28.091201782226562
4.833,-7.306483745574951,-12.307482719421387,-3.779463291168213,0.7063129544258118,0.3013092875480652,1.7160732746124268,-43.3645133972168,47.16456985473633,-27.97427749633789
4.84,-8.23011302947998,-12.782458305358887,-4.23649263381958,0.8196284174919128,0.4570798873901367,1.885893702507019,-42.823734283447266,48.01227569580078,-28.52967071533203
4.85,-9.233901977539062,-14.084153175354004,-4.705485820770264,0.9831876158714294,0.8587237596511841,2.1340577602386475,-41.946800231933594,48.14381790161133,-28.70505714416504
4.86,-9.91585636138916,-16.31426429748535,-4.689931869506836,1.1241447925567627,1.3878858089447021,2.389552116394043,-41.34756088256836,48.74305725097656,-29.669687271118164
4.87,-9.663414001464844,-18.61496353149414,-4.187439441680908,1.1914926767349243,1.9584338665008545,2.6093108654022217,-40.41215896606445,49.239986419677734,-30.765857696533203
4.889,-8.352147102355957,-19.781465530395508,-3.686143398284912,1.1113165616989136,2.6619980335235596,2.9083292484283447,-40.03215408325195,49.54691696166992,-31.262788772583008
4.893,-5.487938404083252,-19.892730712890625,-3.7399816513061523,0.9705121517181396,3.2038354873657227,3.244457960128784,-39.447532653808594,50.160770416259766,-32.066646575927734
4.9,-3.7902309894561768,-20.149959564208984,-3.7316067218780518,0.8909469246864319,3.372586965560913,3.410918712615967,-38.658287048339844,51.154632568359375,-33.352821350097656
4.91,-1.3758729696273804,-20.663219451904297,-3.5676984786987305,0.7559457421302795,3.3744194507598877,3.6053266525268555,-37.065185546875,51.578487396240234,-34.06898498535156
4.92,0.665204644203186,-20.5435791015625,-3.394218921661377,0.5838344097137451,3.1746666431427,3.794236660003662,-35.83747482299805,52.14849853515625,-35.13592529296875
4.93,1.574477195739746,-19.82333755493164,-3.772284984588623,0.4005748927593231,2.7485880851745605,4.023463726043701,-34.712074279785156,52.689273834228516,-34.6682243347168
4.95,1.6007983684539795,-18.569499969482422,-4.202992916107178,0.3176499307155609,2.3127357959747314,4.169155120849609,-33.572052001953125,53.34697341918945,-35.03361511230469
4.953,1.3603196144104004,-17.32642936706543,-4.018745422363281,0.29856041073799133,1.7418822050094604,4.2668938636779785,-30.94124412536621,53.55158996582031,-36.30517578125
4.96,0.8985048532485962,-16.435102462768555,-3.985246181488037,0.30634891986846924,1.4017831087112427,4.27636194229126,-29.78661346435547,53.66851806640625,-35.74978256225586
4.97,0.10289137810468674,-15.132209777832031,-3.9182469844818115,0.34208452701568604,0.9721919894218445,4.2226057052612305,-27.930429458618164,53.317745208740234,-36.655948638916016
4.98,-1.200000524520874,-13.724034309387207,-3.4719855785369873,0.3859141170978546,0.6004804968833923,4.08531379699707,-26.045015335083008,54.31160354614258,-36.75825881958008
4.99,-3.2829525470733643,-12.177074432373047,-3.1764719486236572,0.4271475076675415,0.5245805382728577,3.925572633743286,-24.656532287597656,53.55158996582031,-37.26980209350586
5.01,-4.594219207763672,-10.98185920715332,-2.7314069271087646,0.5035056471824646,0.6200282573699951,3.692985773086548,-21.718795776367188,53.30312728881836,-37.094417572021484
5.014,-5.8337016105651855,-9.848857879638672,-1.8293129205703735,0.5699372291564941,0.9071348309516907,3.1201469898223877,-20.871089935302734,53.05466079711914,-36.05670928955078
5.02,-6.094519138336182,-9.373882293701172,-1.416550874710083,0.5610796809196472,1.1620184183120728,2.8884761333465576,-20.534931182861328,53.23004913330078,-36.6851806640625
5.03,-5.179264545440674,-8.855835914611816,-0.8877371549606323,0.4966334402561188,1.7143932580947876,2.342362880706787,-18.956445693969727,53.244667053222656,-37.839813232421875
5.04,-3.0687947273254395,-7.812565803527832,-0.4331009089946747,0.4550946056842804,2.121840476989746,1.9689713716506958,-18.474130630493164,53.06927490234375,-37.109031677246094
5.05,-0.5240281224250793,-6.028716564178467,-0.1866401582956314,0.4251622259616852,2.381610870361328,1.6623170375823975,-17.43642234802246,52.8792724609375,-37.53288269042969
5.07,1.903490424156189,-4.153940200805664,-0.46779680252075195,0.39156460762023926,2.476447582244873,1.4016302824020386,-17.670272827148438,53.215431213378906,-37.41596221923828
5.074,4.7473602294921875,-1.9118653535842896,-1.3244272470474243,0.4098905920982361,2.2598958015441895,1.0491610765457153,-16.734872817993164,52.76234817504883,-37.591346740722656
5.08,5.9437713623046875,-1.1162517070770264,-1.550549030303955,0.436157763004303,1.9892826080322266,0.8906415104866028,-16.647178649902344,53.127742767333984,-36.59748840332031
5.09,7.109076023101807,-0.8219345808029175,-1.1258230209350586,0.42730024456977844,1.5519031286239624,0.6921103000640869,-16.369482040405273,53.08388900756836,-36.495174407958984
5.1,7.575676441192627,-0.9320043921470642,-0.27278175950050354,0.29397889971733093,1.1200214624404907,0.4993823170661926,-16.340251922607422,53.317745208740234,-37.474422454833984
5.11,7.202395915985107,-0.8614161610603333,0.29312074184417725,0.09147706627845764,0.6550002694129944,0.29306259751319885,-16.2525577545166,53.04004669189453,-37.35749816894531
5.13,6.0023956298828125,-0.35054853558540344,0.1986042857170105,-0.09422595798969269,0.2428189367055893,0.040164388716220856,-15.901782989501953,53.34697341918945,-37.57673263549805
5.134,4.030709743499756,0.16510476171970367,-0.05623133108019829,-0.23060162365436554,-0.14385876059532166,-0.32299500703811646,-15.931015014648438,52.703887939453125,-37.15288162231445
5.14,3.473181962966919,0.2512463629245758,-0.015553345903754234,-0.25793784856796265,-0.26404649019241333,-0.5065600275993347,-15.770242691040039,53.39081954956055,-36.86056900024414
5.15,3.28773832321167,-0.26081767678260803,0.349352091550827,-0.32559117674827576,-0.45494186878204346,-0.7434229850769043,-15.945630073547363,53.34697341918945,-36.6851806640625
5.16,2.8761725425720215,-1.270588755607605,0.39003005623817444,-0.4178318381309509,-0.7431175708770752,-0.9753990769386292,-16.515640258789062,53.1569709777832,-36.69979476928711
5.17,1.7551352977752686,-2.719442844390869,0.10289137810468674,-0.4804455041885376,-1.0813841819763184,-1.2125674486160278,-16.647178649902344,53.80005645751953,-36.01285934448242
5.19,-0.16390834748744965,-4.5367913246154785,-0.43549370765686035,-0.5108360648155212,-1.4216361045837402,-1.4663820266723633,-16.939491271972656,53.66851806640625,-35.95439910888672
5.193,-3.8632121086120605,-7.969295978546143,-0.5132604241371155,-0.5470298528671265,-1.9110918045043945,-1.9480491876602173,-17.62642478942871,53.94621658325195,-36.14440155029297
5.2,-5.737988471984863,-9.747162818908691,-1.0133603811264038,-0.5711589455604553,-2.004554271697998,-2.2235493659973145,-18.5325927734375,54.37007141113281,-36.07132339477539
5.21,-7.531408786773682,-11.904292106628418,-1.8472589254379272,-0.5568036437034607,-1.9292651414871216,-2.579378604888916,-19.774919509887695,54.15083312988281,-36.39286804199219
5.22,-8.492127418518066,-13.592428207397461,-2.830709218978882,-0.5047274231910706,-1.6421585083007812,-2.858696460723877,-20.330312728881836,54.6185302734375,-36.56825256347656
5.23,-8.260024070739746,-14.799607276916504,-3.9182469844818115,-0.3988949954509735,-1.2063060998916626,-2.9995009899139404,-21.411867141723633,54.77930450439453,-35.80824279785156
5.25,-7.152146339416504,-15.430115699768066,-4.325026512145996,-0.337044894695282,-0.8316929936408997,-3.0201175212860107,-22.771120071411133,54.85238265991211,-34.975154876708984
5.253,-5.5716872215271,-15.76032543182373,-4.894518852233887,-0.37339136004447937,-0.7576255798339844,-2.9571986198425293,-24.74422836303711,54.662376403808594,-35.42823791503906
5.26,-4.975874423980713,-16.122838973999023,-5.187639236450195,-0.40851613879203796,-0.8581129312515259,-2.9437594413757324,-25.24115753173828,54.867000579833984,-35.44285202026367
5.27,-4.577469348907471,-16.67438316345215,-5.2354960441589355,-0.46303585171699524,-1.112691044807434,-3.0219504833221436,-26.731950759887695,54.9400749206543,-35.092079162597656
5.28,-4.2281174659729,-17.064414978027344,-4.980660438537598,-0.5455026626586914,-1.3982704877853394,-3.1928398609161377,-27.769657135009766,54.48699188232422,-34.229759216308594
5.29,-3.840480089187622,-17.294124603271484,-4.731806755065918,-0.6432411074638367,-1.6662876605987549,-3.403435707092285,-29.28968048095703,54.881614685058594,-33.805904388427734
5.31,-3.0376882553100586,-17.806190490722656,-4.298705577850342,-0.6533203721046448,-1.8005253076553345,-3.462078809738159,-32.09587860107422,54.662376403808594,-32.88512420654297
5.314,-1.9884356260299683,-18.203397750854492,-3.62153697013855,-0.6782131195068359,-1.7791450023651123,-3.2365167140960693,-33.14820098876953,54.31160354614258,-32.34434509277344
5.32,-1.557727575302124,-18.04547119140625,-3.5018956661224365,-0.7304421067237854,-1.7279850244522095,-3.026378870010376,-33.27974319458008,54.85238265991211,-32.70973205566406
5.33,-1.5314065217971802,-17.26421356201172,-3.524627685546875,-0.8080219626426697,-1.744631052017212,-2.802955150604248,-34.39052963256836,54.70622634887695,-32.25665283203125
5.34,-2.1547367572784424,-16.195819854736328,-3.428914785385132,-0.8692612051963806,-1.8087719678878784,-2.6558892726898193,-35.69131851196289,53.71236038208008,-31.292020797729492
5.35,-2.678764820098877,-15.244672775268555,-3.236292600631714,-0.8772024512290955,-1.8055648803710938,-2.5891523361206055,-36.539024353027344,54.004676818847656,-31.014324188232422
5.37,-3.1381869316101074,-14.561522483825684,-2.9587249755859375,-0.8897252082824707,-1.7595973014831543,-2.5357017517089844,-37.45980453491211,53.99005889892578,-30.195850372314453
5.374,-3.104687213897705,-13.41176986694336,-2.7146570682525635,-0.8785768747329712,-1.6462817192077637,-2.4836254119873047,-38.7459831237793,53.17158508300781,-29.655071258544922
5.38,-2.967099905014038,-12.647263526916504,-2.5399811267852783,-0.854295015335083,-1.609477162361145,-2.462397813796997,-38.848289489746094,53.05466079711914,-29.435836791992188
5.39,-2.8187451362609863,-11.621939659118652,-2.1164515018463135,-0.7666358351707458,-1.5047138929367065,-2.3654229640960693,-40.2221565246582,53.2008171081543,-28.310436248779297
5.4,-2.7565317153930664,-10.753344535827637,-1.6749757528305054,-0.6214026212692261,-1.3312280178070068,-2.258063316345215,-40.689857482910156,52.893890380859375,-27.57965660095215
5.41,-2.313859462738037,-9.82373332977295,-1.0528419017791748,-0.46181410551071167,-1.1352930068969727,-2.0532708168029785,-41.5814094543457,52.42618942260742,-26.161941528320312
5.43,-2.1954145431518555,-9.749555587768555,0.39122650027275085,-0.38148534297943115,-0.9033169150352478,-1.758986473083496,-43.13066482543945,52.36772918701172,-26.118093490600586
5.434,-2.2612173557281494,-8.904889106750488,0.48813581466674805,-0.44318273663520813,-0.5691736936569214,-1.3938417434692383,-42.92604446411133,51.33001708984375,-26.468870162963867
5.44,-2.407179594039917,-7.77188777923584,0.2679961323738098,-0.4495968222618103,-0.4966334402561188,-1.3358094692230225,-43.84682846069336,51.30078887939453,-25.855012893676758
5.45,-2.441875457763672,-5.772684574127197,-0.02751745842397213,-0.4283692538738251,-0.3882048726081848,-1.3332133293151855,-43.90529251098633,50.774627685546875,-24.802688598632812
5.46,-2.218146562576294,-3.452842950820923,-0.36251261830329895,-0.3295617997646332,-0.35552358627319336,-1.2962559461593628,-44.59222412109375,51.373870849609375,-23.5895938873291
5.47,-2.2707886695861816,-1.8843477964401245,-0.33858439326286316,-0.22189679741859436,-0.3813326060771942,-1.194852352142334,-45.30839157104492,51.154632568359375,-24.86115074157715
5.49,-2.4323041439056396,-0.4307080805301666,-0.20817556977272034,-0.16340644657611847,-0.40973785519599915,-1.0630582571029663,-45.62993240356445,50.964630126953125,-24.524991989135742
5.494,-2.963510751724243,1.0037890672683716,0.8398807048797607,-0.13545936346054077,-0.314442902803421,-0.8257370591163635,-45.96609115600586,51.388484954833984,-24.057292938232422
5.5,-3.0520453453063965,1.0660024881362915,1.3351950645446777,-0.18768833577632904,-0.23350323736667633,-0.7205155491828918,-46.60917663574219,50.979244232177734,-23.83806037902832
5.51,-3.376272678375244,0.9702895283699036,2.0003998279571533,-0.256868839263916,-0.12538009881973267,-0.594524621963501,-46.302249908447266,50.570011138916016,-22.566499710083008
5.52,-3.733999490737915,0.7800601124763489,1.6689937114715576,-0.2499965876340866,0.0024434609804302454,-0.46731188893318176,-46.56533432006836,50.64308547973633,-23.38497543334961
5.53,-3.9936206340789795,0.44267216324806213,0.9667003750801086,-0.1267545372247696,0.17073683440685272,-0.30863967537879944,-46.69687271118164,49.82461166381836,-23.29728126525879
5.55,-4.086941242218018,-0.27756741642951965,0.014356935396790504,0.05696318298578262,0.2848159074783325,-0.13973543047904968,-47.07687759399414,50.584625244140625,-23.38497543334961
5.554,-4.202992916107178,-2.623729705810547,-1.6043875217437744,0.3433062732219696,0.2996293902397156,0.06444628536701202,-47.63227081298828,50.45308303833008,-23.85267448425293
5.56,-4.125226020812988,-4.609772682189941,-2.1619153022766113,0.4977024495601654,0.23808471858501434,0.1385136991739273,-47.32534408569336,50.5992431640625,-23.984214782714844
5.57,-3.957728624343872,-7.820940971374512,-2.565105676651001,0.6887505650520325,0.12217304855585098,0.2324342280626297,-47.32534408569336,50.540775299072266,-24.510377883911133
5.58,-3.9517464637756348,-11.008179664611816,-2.469392776489258,0.850782573223114,0.038026362657547,0.4024074673652649,-47.14995574951172,51.05232620239258,-24.203449249267578
5.59,-5.1696929931640625,-13.690534591674805,-2.383251190185547,0.8956811428070068,0.01710422709584236,0.722959041595459,-47.09149169921875,51.82695388793945,-24.451913833618164
5.611,-5.065605640411377,-13.922637939453125,-1.3411771059036255,0.765566885471344,0.10965030640363693,1.0016663074493408,-46.65302658081055,52.47003936767578,-25.036537170410156
5.615,-7.671389579772949,-11.414959907531738,-2.785245418548584,0.6490443348884583,0.25366178154945374,1.3127492666244507,-46.316864013671875,52.57234573364258,-24.992692947387695
5.62,-8.646464347839355,-11.13499927520752,-3.3296124935150146,0.6423248052597046,0.355981707572937,1.3741413354873657,-46.302249908447266,52.98158645629883,-25.29962158203125
5.63,-9.962516784667969,-11.637492179870605,-4.407578945159912,0.6953173279762268,0.7402159571647644,1.4605786800384521,-45.717628479003906,54.077754974365234,-26.264249801635742
5.64,-9.616753578186035,-13.15095329284668,-4.774877548217773,0.8151996731758118,1.353830099105835,1.5990923643112183,-45.30839157104492,53.87313461303711,-26.89272117614746
5.65,-7.8664045333862305,-14.970694541931152,-4.746163368225098,0.8576547503471375,2.0890064239501953,1.8968892097473145,-44.72376251220703,54.60391616821289,-26.95118522644043
5.67,-5.752345085144043,-16.687543869018555,-4.295116424560547,0.7898487448692322,2.400394916534424,2.130239725112915,-43.89067459106445,55.173927307128906,-28.003507614135742
5.673,-3.9074792861938477,-16.649259567260742,-4.110869407653809,0.6130033135414124,2.5535693168640137,2.3606889247894287,-43.262203216552734,55.568546295166016,-28.763521194458008
5.68,-2.7601208686828613,-16.576278686523438,-4.487738609313965,0.5331326127052307,2.5613579750061035,2.487901449203491,-43.34989929199219,56.197017669677734,-28.9096736907959
5.69,-1.550549030303955,-16.950754165649414,-4.676771640777588,0.5012149214744568,2.4782800674438477,2.6444356441497803,-42.45834732055664,56.430870056152344,-30.254310607910156
5.7,-0.4163511395454407,-17.523836135864258,-4.498506546020508,0.42989641427993774,2.2211060523986816,2.811354637145996,-41.99064636230469,56.98625946044922,-30.502779006958008
5.71,-0.12801600992679596,-17.468801498413086,-4.065405368804932,0.35124751925468445,1.9769126176834106,2.945133924484253,-41.23063278198242,58.18474197387695,-31.511253356933594
5.73,-0.5084748268127441,-16.738990783691406,-3.8632121086120605,0.3254384398460388,1.7736471891403198,3.0978503227233887,-39.11137008666992,58.681671142578125,-31.423559188842773
5.733,-1.2418749332427979,-15.675379753112793,-4.047459602355957,0.32910364866256714,1.5832099914550781,3.2487339973449707,-38.67290496826172,58.59397506713867,-31.525867462158203
5.74,-1.6522438526153564,-15.152548789978027,-4.091726303100586,0.35903605818748474,1.5250251293182373,3.322037696838379,-37.109031677246094,59.470916748046875,-31.978952407836914
5.75,-2.0362918376922607,-14.852250099182129,-4.115654468536377,0.3848450779914856,1.5274685621261597,3.416721820831299,-36.34901809692383,59.32476043701172,-32.31510925292969
5.76,-2.1403796672821045,-14.544772148132324,-4.399204254150391,0.41813725233078003,1.5754214525222778,3.4973561763763428,-34.65361022949219,59.92399978637695,-32.5489616394043
5.77,-2.0985054969787598,-13.73480224609375,-4.256831645965576,0.4514293968677521,1.5673273801803589,3.4938435554504395,-33.162818908691406,60.27477264404297,-33.14820098876953
5.79,-2.111665964126587,-13.337593078613281,-3.6681969165802,0.45265114307403564,1.5115859508514404,3.417485475540161,-31.292020797729492,60.52324295043945,-34.43437576293945
5.793,-2.073380708694458,-12.948759078979492,-3.1417760848999023,0.3949243724346161,1.458898901939392,3.1974213123321533,-29.15814208984375,60.34785079956055,-32.91435241699219
5.8,-1.798206090927124,-12.495319366455078,-3.064009428024292,0.3828597962856293,1.4494304656982422,3.1105258464813232,-28.193510055541992,60.69862747192383,-33.38205337524414
5.81,-1.514656662940979,-11.614760398864746,-2.833101749420166,0.4057672321796417,1.4095715284347534,2.861292839050293,-26.99502944946289,60.771705627441406,-33.87898254394531
5.82,-1.6175479888916016,-10.145567893981934,-2.6117656230926514,0.46822819113731384,1.4013248682022095,2.621070146560669,-25.665008544921875,61.18094253540039,-34.77053451538086
5.83,-1.5206387042999268,-8.970691680908203,-2.3306093215942383,0.5453499555587769,1.4312572479248047,2.359314441680908,-24.817304611206055,61.12247848510742,-35.311309814453125
5.85,-1.2502497434616089,-7.9657063484191895,-1.975274920463562,0.5965099334716797,1.4830280542373657,2.093740701675415,-23.39959144592285,61.13709259033203,-35.69131851196289
5.854,-0.11126624792814255,-6.312265872955322,-1.7479568719863892,0.589179515838623,1.5661057233810425,1.7143932580947876,-22.712656021118164,61.37094497680664,-35.63285446166992
5.86,0.6687938570976257,-5.675775051116943,-1.6378871202468872,0.5688682198524475,1.5764904022216797,1.5347988605499268,-22.332651138305664,61.020172119140625,-36.64133071899414
5.87,2.1332013607025146,-3.6945178508758545,-1.483549952507019,0.5529857277870178,1.5442674160003662,1.2985467910766602,-21.806488037109375,60.88862991333008,-35.88132095336914
5.88,3.5784661769866943,-2.337787628173828,-1.4895319938659668,0.5540547966957092,1.4854716062545776,1.0731375217437744,-21.777257919311523,61.18094253540039,-36.77287292480469
5.89,5.501099109649658,-1.5122638940811157,-1.290927767753601,0.5813909769058228,1.3397800922393799,0.9308058619499207,-21.046478271484375,60.75708770751953,-36.94826126098633
5.91,6.728616714477539,-1.5134602785110474,-0.4737788736820221,0.6137667894363403,1.0699304342269897,0.8631526231765747,-21.119556427001953,61.38555908203125,-37.035953521728516
5.914,7.026523113250732,-1.8640087842941284,0.5970092415809631,0.5497786998748779,0.48090362548828125,0.7582364678382874,-21.4703311920166,61.4732551574707,-37.57673263549805
5.92,5.935396194458008,-1.903490424156189,1.1294121742248535,0.44348815083503723,0.15622878074645996,0.6322454810142517,-20.62262535095215,61.604793548583984,-36.97748947143555
5.93,4.115654468536377,-1.5002998113632202,1.153340458869934,0.21395555138587952,-0.1388191282749176,0.3845396637916565,-20.63724136352539,61.07863235473633,-38.219818115234375
5.94,3.3020951747894287,-0.6340979933738708,0.19621144235134125,0.05161811038851738,-0.24373522400856018,0.1293507218360901,-20.315698623657227,61.80941390991211,-38.87752151489258
5.95,3.2446675300598145,-0.349352091550827,-0.12442676723003387,-0.03191770985722542,-0.41172316670417786,-0.09040804952383041,-20.038002014160156,61.82402801513672,-39.30137634277344
5.97,2.9443681240081787,-1.1988041400909424,-0.5048855543136597,-0.10735956579446793,-0.8023715019226074,-0.3807217478752136,-20.549545288085938,61.648643493652344,-38.468284606933594
5.974,-0.1627119481563568,-4.255634784698486,-0.6005984544754028,-0.1719585657119751,-1.3116803169250488,-0.7600690722465515,-21.29494285583496,61.28324890136719,-38.40982437133789
5.98,-2.5459630489349365,-5.864808082580566,-0.8506484627723694,-0.2356412708759308,-1.5135713815689087,-1.049619197845459,-21.178016662597656,62.18941879272461,-37.88365936279297
5.99,-5.3455657958984375,-7.817351341247559,-1.514656662940979,-0.3156646192073822,-1.6325373649597168,-1.4941763877868652,-22.069570541381836,62.04326248168945,-37.86904525756836
6.0,-6.74536657333374,-9.622735977172852,-2.183450698852539,-0.33490684628486633,-1.6021467447280884,-1.9379699230194092,-22.917274475097656,61.88248825073242,-37.88365936279297
6.01,-6.725028038024902,-11.10748291015625,-2.5399811267852783,-0.2785545587539673,-1.4477505683898926,-2.397645950317383,-24.2911434173584,61.59017562866211,-38.08827590942383
6.03,-5.44845724105835,-12.0993070602417,-2.794816732406616,-0.2408336102962494,-1.3251194953918457,-2.6030495166778564,-25.50423812866211,62.160186767578125,-37.79596710205078
6.034,-2.96111798286438,-13.006186485290527,-3.476771354675293,-0.2200642079114914,-1.3417655229568481,-2.6067144870758057,-27.491960525512695,62.04326248168945,-37.73750305175781
6.04,-2.3808584213256836,-13.489537239074707,-3.7639100551605225,-0.23548854887485504,-1.5147931575775146,-2.5367705821990967,-27.813507080078125,62.145572662353516,-37.86904525756836
6.05,-2.455035924911499,-14.270793914794922,-3.865604877471924,-0.28619036078453064,-1.8518379926681519,-2.4463624954223633,-29.09967803955078,62.26249313354492,-38.468284606933594
6.06,-3.5784661769866943,-15.39542007446289,-3.751945734024048,-0.3819434940814972,-2.291355609893799,-2.451860189437866,-30.093538284301758,62.1748046875,-37.56211853027344
6.07,-4.937589645385742,-16.687543869018555,-3.4540393352508545,-0.503047525882721,-2.5831964015960693,-2.6308438777923584,-31.175094604492188,61.926334381103516,-37.299034118652344
6.09,-6.358925819396973,-18.038293838500977,-2.9694929122924805,-0.6577491164207458,-2.7646231651306152,-2.908940315246582,-32.70973205566406,61.78017807006836,-36.71440887451172
6.093,-6.842276096343994,-18.80638885498047,-2.7553350925445557,-0.8617781400680542,-2.777604341506958,-3.249497413635254,-34.33206558227539,61.005558013916016,-36.14440155029297
6.1,-6.715456485748291,-18.742979049682617,-2.8426733016967773,-0.9520334601402283,-2.6784913539886475,-3.3848042488098145,-35.340545654296875,61.005558013916016,-35.895938873291016
6.11,-6.130411148071289,-18.252450942993164,-3.098705291748047,-0.9950994253158569,-2.4640774726867676,-3.470325469970703,-37.050567626953125,60.26015853881836,-34.975154876708984
6.12,-5.600401401519775,-18.41157341003418,-2.9754748344421387,-0.9036223888397217,-2.0786216259002686,-3.392134666442871,-38.62905502319336,60.1140022277832,-34.712074279785156
6.13,-4.204189300537109,-17.715261459350586,-2.1655044555664062,-0.8423831462860107,-1.637118935585022,-3.067917823791504,-40.572933197021484,59.58784103393555,-33.84975051879883
6.15,-3.407379150390625,-16.392030715942383,-2.513659954071045,-0.8228355050086975,-1.1986702680587769,-2.739272356033325,-41.36217498779297,59.33937454223633,-33.27974319458008
6.153,-3.163311243057251,-14.746965408325195,-3.4025938510894775,-0.7609853744506836,-1.0917688608169556,-2.613586902618408,-43.11604690551758,58.27243423461914,-31.978952407836914
6.16,-2.788834571838379,-14.019548416137695,-3.658625841140747,-0.704022228717804,-1.1412489414215088,-2.6276369094848633,-43.627593994140625,58.74013137817383,-31.964338302612305
6.17,-2.142772674560547,-13.471590995788574,-3.304487705230713,-0.6430883407592773,-1.2893837690353394,-2.6430611610412598,-44.636070251464844,57.8193473815918,-31.05817222595215
6.18,-1.867598056793213,-13.01695442199707,-2.170289993286133,-0.6452264189720154,-1.3539828062057495,-2.651918888092041,-45.77608871459961,56.84010314941406,-30.663549423217773
6.19,-1.9633108377456665,-12.904491424560547,-1.2669994831085205,-0.6979135274887085,-1.3720033168792725,-2.6557366847991943,-46.901493072509766,56.5770263671875,-30.195850372314453
6.21,-2.025524377822876,-12.600604057312012,-0.7633103728294373,-0.8063421249389648,-1.3865114450454712,-2.6955955028533936,-48.80152130126953,55.20315933227539,-28.748903274536133
6.213,-1.8149559497833252,-11.759527206420898,-1.172482967376709,-0.8930849432945251,-1.3489431142807007,-2.704453229904175,-48.6407470703125,54.41391372680664,-28.69044303894043
6.22,-1.2418749332427979,-11.131410598754883,-0.778863787651062,-0.8287914395332336,-1.222646713256836,-2.552194833755493,-49.239986419677734,54.063140869140625,-28.924291610717773
6.23,-0.41515469551086426,-10.13719367980957,0.28115665912628174,-0.8500189781188965,-0.9831876158714294,-2.284177780151367,-50.365386962890625,53.91698455810547,-27.258113861083984
6.24,-0.21774685382843018,-8.331808090209961,-0.20099709928035736,-0.8620835542678833,-0.8069530129432678,-2.065640687942505,-51.578487396240234,52.733116149902344,-27.63811683654785
6.25,-0.4295116364955902,-6.16989278793335,-0.8111668825149536,-0.736245334148407,-0.780380368232727,-1.8976528644561768,-51.900028228759766,51.94387435913086,-27.08272361755371
6.27,-0.9978070259094238,-4.335794448852539,-0.7322037220001221,-0.5429064631462097,-0.8132143616676331,-1.734704613685608,-52.733116149902344,50.92078399658203,-27.038877487182617
6.274,-1.8783657550811768,-2.2336997985839844,-0.1579262912273407,-0.3442225456237793,-0.826500654220581,-1.486387848854065,-53.639286041259766,50.92078399658203,-26.220401763916016
6.28,-2.3605194091796875,-1.4644074440002441,0.1698903888463974,-0.3452915847301483,-0.826500654220581,-1.397354245185852,-53.56621170043945,50.61385726928711,-26.264249801635742
6.29,-2.7517459392547607,-0.45583271980285645,0.6927221417427063,-0.43737950921058655,-0.8283332586288452,-1.3330607414245605,-54.077754974365234,50.08769607543945,-26.52733039855957
6.3,-2.770888566970825,0.19980068504810333,1.9453648328781128,-0.5948300361633301,-0.8355109095573425,-1.2971723079681396,-54.35545349121094,49.576148986816406,-25.957321166992188
6.31,-2.857030153274536,0.6352943778038025,3.0855445861816406,-0.824362576007843,-0.8141306638717651,-1.2530372142791748,-54.75007247924805,47.95381546020508,-25.41654396057129
6.33,-3.407379150390625,1.2167502641677856,2.864208459854126,-0.9986119866371155,-0.624609649181366,-1.233795166015625,-55.29084777832031,48.30459213256836,-24.904998779296875
6.334,-3.8668015003204346,1.6773686408996582,1.8089739084243774,-0.9334020614624023,-0.33460143208503723,-1.2325732707977295,-55.393157958984375,47.456886291503906,-24.77345848083496
6.34,-4.0319061279296875,1.4596216678619385,1.3280165195465088,-0.8358163237571716,-0.2073887437582016,-1.2162326574325562,-55.53931427001953,46.57994842529297,-24.802688598632812
6.35,-4.2795634269714355,0.7561319470405579,0.47976091504096985,-0.6922630071640015,-0.10170906037092209,-1.1951578855514526,-56.15317153930664,46.02455520629883,-25.15346336364746
6.36,-4.350151538848877,-0.6269195079803467,-0.24047866463661194,-0.5192354321479797,-0.049785517156124115,-1.1940888166427612,-55.90470504760742,45.556854248046875,-24.2911434173584
6.37,-4.334598064422607,-2.4717857837677,-0.7776673436164856,-0.3433062732219696,-0.003359758760780096,-1.1830931901931763,-56.76702880859375,44.76761245727539,-23.881906509399414
6.39,-3.9361932277679443,-4.8191447257995605,-1.3950154781341553,-0.12492194026708603,0.10186177492141724,-1.1220066547393799,-56.737796783447266,45.132999420166016,-24.159603118896484
6.394,-2.8007986545562744,-8.100900650024414,-2.204986095428467,0.13866640627384186,0.25915956497192383,-0.8749117255210876,-57.48318862915039,44.47529983520508,-24.59807014465332
6.401,-2.0829520225524902,-9.726823806762695,-2.183450698852539,0.28878653049468994,0.35842517018318176,-0.6046038866043091,-57.497806549072266,44.50453186035156,-24.349605560302734
6.41,-2.0207386016845703,-12.77049446105957,-2.7637100219726562,0.37659841775894165,0.4862487316131592,-0.08002334833145142,-57.717044830322266,43.978370666503906,-24.84653663635254
6.42,-0.39122650027275085,-12.655638694763184,-3.0388846397399902,0.39813143014907837,0.4764748811721802,0.337044894695282,-58.18474197387695,43.77375030517578,-25.065771102905273
6.43,-0.4450649917125702,-13.428520202636719,-4.128815174102783,0.47571131587028503,0.19776761531829834,0.8237517476081848,-57.98012161254883,44.16836929321289,-25.81116485595703
6.45,-1.2825528383255005,-13.660623550415039,-4.983053207397461,0.5361869931221008,-0.1059851199388504,1.1230758428573608,-57.48318862915039,44.6799201965332,-26.468870162963867
6.453,-2.9419755935668945,-14.545968055725098,-5.201996326446533,0.5610796809196472,-0.3975205719470978,1.4201089143753052,-56.737796783447266,44.66530227661133,-26.4104061126709
6.46,-4.199403762817383,-15.27936840057373,-5.294119834899902,0.5780312418937683,-0.3969096839427948,1.5627459287643433,-56.197017669677734,45.60070037841797,-26.644256591796875
6.47,-5.7678985595703125,-16.21137237548828,-5.452045917510986,0.6007859706878662,-0.18646661937236786,1.694692850112915,-55.53931427001953,46.170711517333984,-26.045015335083008
6.48,-6.379265308380127,-17.304893493652344,-5.56450891494751,0.6430883407592773,0.37751469016075134,1.8513797521591187,-54.867000579833984,46.44840621948242,-27.258113861083984
6.49,-5.581258773803711,-18.83869171142578,-5.233102798461914,0.6586654186248779,0.9482155442237854,2.0581576824188232,-54.19468307495117,47.106109619140625,-27.06810760498047
6.51,-4.207778453826904,-19.603199005126953,-4.935196399688721,0.6305656433105469,1.446376085281372,2.3318252563476562,-53.449283599853516,48.406898498535156,-28.982751846313477
6.514,-2.603391170501709,-19.81496238708496,-4.759324073791504,0.5593998432159424,1.894293189048767,2.7282769680023193,-52.66004180908203,48.30459213256836,-28.573516845703125
6.52,-1.6139588356018066,-19.62473487854004,-4.517648696899414,0.5241223573684692,1.9546160697937012,2.835941791534424,-52.718502044677734,48.88921356201172,-29.932767868041992
6.53,-0.3756731152534485,-19.189241409301758,-4.246063709259033,0.3969096839427948,1.9393444061279297,3.0416505336761475,-51.49079132080078,49.4007568359375,-30.94124412536621
6.54,1.34476637840271,-18.340984344482422,-4.150351047515869,0.3049744665622711,1.766011357307434,3.1635184288024902,-50.46770095825195,49.91230773925781,-30.53200912475586
6.55,2.475374937057495,-17.53580093383789,-4.1312079429626465,0.23090705275535583,1.4608842134475708,3.249803066253662,-49.4007568359375,51.02309036254883,-31.803565979003906
6.57,2.9659035205841064,-16.348960876464844,-4.095315933227539,0.2232712358236313,1.0951286554336548,3.3325753211975098,-48.30459213256836,51.710025787353516,-32.02280044555664
6.574,2.919243335723877,-15.28774356842041,-3.6502509117126465,0.25335633754730225,0.48685958981513977,3.449861526489258,-46.521484375,52.13387680053711,-33.031280517578125
6.58,2.410768747329712,-14.513665199279785,-3.4887354373931885,0.27488934993743896,0.21319197118282318,3.475212335586548,-44.6799201965332,52.8208122253418,-33.250511169433594
6.59,1.1880364418029785,-13.146166801452637,-2.9551358222961426,0.3068070709705353,-0.049785517156124115,3.480557441711426,-43.23297119140625,53.28851318359375,-33.64513397216797
6.6,0.24167509377002716,-12.430712699890137,-2.581855535507202,0.28298333287239075,-0.14569135010242462,3.464369297027588,-41.53756332397461,54.077754974365234,-33.95206069946289
6.61,-0.6616154909133911,-11.598011016845703,-2.5423738956451416,0.27030786871910095,-0.11041389405727386,3.3903019428253174,-39.929847717285156,54.29698944091797,-33.84975051879883
6.631,-0.6281159520149231,-11.054840087890625,-2.286341905593872,0.2701551616191864,0.04749477282166481,3.257286310195923,-36.729026794433594,54.3408317565918,-34.02513885498047
6.635,0.5539384484291077,-10.444670677185059,-1.903490424156189,0.21471913158893585,0.36361753940582275,2.951242685317993,-36.39286804199219,55.173927307128906,-34.2443733215332
6.641,1.5637094974517822,-10.115657806396484,-1.9310078620910645,0.18738290667533875,0.4567744731903076,2.7795894145965576,-35.69131851196289,55.42238998413086,-34.551300048828125
6.65,2.641676187515259,-9.369096755981445,-1.7491532564163208,0.1498146951198578,0.4665483236312866,2.5703682899475098,-34.65361022949219,55.34931564331055,-34.682838439941406
6.66,3.469592809677124,-8.627321243286133,-1.521835207939148,0.038179077208042145,0.36224305629730225,2.33060359954834,-33.29435729980469,55.91931915283203,-34.60976028442383
6.67,3.8536407947540283,-7.512266635894775,-1.672582983970642,-0.14538592100143433,0.2002110779285431,2.085799217224121,-32.15433883666992,55.787784576416016,-35.58900833129883
6.69,3.974478244781494,-6.0430731773376465,-1.6390833854675293,-0.35094207525253296,0.0377209298312664,1.8472564220428467,-31.10201644897461,55.91931915283203,-35.0043830871582
6.693,3.7363924980163574,-3.757927656173706,-1.0648061037063599,-0.6114761233329773,-0.11591167747974396,1.4799737930297852,-30.34200668334961,55.87547302246094,-35.03361511230469
6.7,4.240081787109375,-3.262613534927368,-0.605384111404419,-0.7328855395317078,-0.13607022166252136,1.3187053203582764,-29.201988220214844,55.51008605957031,-35.74978256225586
6.71,5.2701921463012695,-3.016152858734131,-0.3206382095813751,-0.8504770994186401,-0.14248430728912354,1.1691960096359253,-28.646595001220703,55.96316909790039,-35.42823791503906
6.72,6.734599590301514,-3.4121649265289307,0.24765713512897491,-0.9298896193504333,-0.29504790902137756,1.049924612045288,-28.07658576965332,55.378543853759766,-35.69131851196289
6.73,7.555336952209473,-4.256831645965576,0.9738787412643433,-1.0395399332046509,-0.6646214127540588,0.868803083896637,-28.091201782226562,55.773162841796875,-34.127445220947266
6.75,6.374479293823242,-5.339583873748779,1.7324036359786987,-1.3257302045822144,-1.238376498222351,0.521373450756073,-27.389652252197266,55.261619567871094,-34.08360290527344
6.753,2.7361927032470703,-5.558526992797852,1.3950154781341553,-1.6739234924316406,-1.728137731552124,0.04505131021142006,-26.60040855407715,54.92546081542969,-34.01052474975586
6.76,1.1186444759368896,-5.467599391937256,1.038485050201416,-1.8425222635269165,-1.986533761024475,-0.2646573483943939,-26.4104061126709,54.8377685546875,-33.615901947021484
6.77,-0.11605189740657806,-5.6315083503723145,0.891326367855072,-1.9605718851089478,-2.311819553375244,-0.6701191663742065,-26.0304012298584,54.35545349121094,-32.70973205566406
6.78,-1.0887342691421509,-6.577868938446045,1.1222338676452637,-1.988824486732483,-2.621222734451294,-1.0399980545043945,-26.30809783935547,53.46390151977539,-31.540485382080078
