time,accel_x,accel_y,accel_z,gyro_x,gyro_y,gyro_z,mag_x,mag_y,mag_z
0.0,67.61225891113281,10.764330863952637,-14.211980819702148,-1.8652373552322388,-0.5329249501228333,-3.197549819946289,-31.650001525878906,7.050000190734863,-9.300000190734863
0.02,76.4995346069336,-3.6391866207122803,-12.986149787902832,-7.9938740730285645,7.06125545501709,-8.660030364990234,-32.25,5.700000286102295,-9.15000057220459
0.023,76.95922088623047,-4.558559894561768,-12.7946138381958,-1.0658499002456665,1.5987749099731445,7.9938740730285645,-33.150001525878906,7.050000190734863,-9.0
0.03,77.64875030517578,-3.7158010005950928,-13.21599292755127,-1.0658499002456665,-1.8652373552322388,-1.0658499002456665,-33.150001525878906,7.050000190734863,-9.0
0.04,78.3382797241211,-3.869029998779297,-13.522451400756836,2.531393527984619,1.3323123455047607,4.663093090057373,-33.30000305175781,6.150000095367432,-11.40000057220459
0.05,77.8019790649414,-3.754108190536499,-12.60307788848877,-9.192955017089844,6.794793128967285,1.0658499002456665,-32.400001525878906,6.750000476837158,-10.350000381469727
0.06,78.14674377441406,-4.060565948486328,-12.258312225341797,-3.86370587348938,-4.796324729919434,-1.1990811824798584,-31.950000762939453,7.050000190734863,-9.300000190734863
0.08,77.763671875,-4.137180328369141,-12.947842597961426,4.663093090057373,-4.663093090057373,3.4640121459960938,-32.25,7.200000286102295,-10.200000762939453
0.083,78.56812286376953,-4.060565948486328,-12.679692268371582,5.462480545043945,-0.9326186776161194,-7.06125545501709,-32.70000076293945,7.050000190734863,-9.300000190734863
0.09,76.38461303710938,-3.9839515686035156,-12.526463508605957,-4.929555892944336,3.9969370365142822,-0.9326186776161194,-32.70000076293945,7.050000190734863,-9.300000190734863
0.1,76.88260650634766,-3.907337188720703,-12.22000503540039,-2.2649309635162354,5.728943347930908,-3.0643184185028076,-31.80000114440918,5.400000095367432,-8.700000762939453
0.11,77.763671875,-5.018246650695801,-12.373234748840332,3.86370587348938,-5.196018218994141,3.4640121459960938,-33.900001525878906,7.050000190734863,-9.75
0.12,78.26166534423828,-4.941632270812988,-12.60307788848877,-6.261868000030518,3.86370587348938,-6.5283308029174805,-33.900001525878906,7.050000190734863,-9.75
0.14,77.64875030517578,-5.2480902671813965,-12.7946138381958,-5.8621745109558105,7.327718257904053,-7.860642910003662,-33.900001525878906,5.850000381469727,-9.300000190734863
0.143,78.4148941040039,-5.822698593139648,-13.254301071166992,-8.127105712890625,7.860642910003662,3.7304747104644775,-33.30000305175781,6.900000095367432,-9.90000057220459
0.15,76.95922088623047,-5.4013190269470215,-13.599065780639648,-10.125574111938477,10.258805274963379,-5.995405673980713,-33.150001525878906,5.100000381469727,-9.300000190734863
0.16,78.29997253417969,-5.669469833374023,-11.836933135986328,-7.460949420928955,3.7304747104644775,2.9310872554779053,-31.650001525878906,6.750000476837158,-8.25
0.17,77.95520782470703,-5.094861030578613,-12.871228218078613,1.5987749099731445,-1.0658499002456665,5.462480545043945,-31.650001525878906,6.750000476837158,-8.25
0.18,77.68705749511719,-4.481945514678955,-13.21599292755127,-0.2664624750614166,-4.130168437957764,-0.7993874549865723,-31.650001525878906,6.750000476837158,-8.25
0.2,78.14674377441406,-4.175487995147705,-12.60307788848877,-3.7304747104644775,-0.5329249501228333,1.7320060729980469,-33.45000076293945,6.750000476837158,-10.350000381469727
0.204,77.64875030517578,-4.137180328369141,-13.330915451049805,-5.062787055969238,-0.2664624750614166,2.6646246910095215,-32.25,6.150000095367432,-9.450000762939453
0.21,76.65276336669922,-4.290409564971924,-13.48414421081543,3.4640121459960938,-0.2664624750614166,4.130168437957764,-32.70000076293945,6.300000190734863,-9.75
0.22,76.88260650634766,-5.286397457122803,-12.871228218078613,-0.9326186776161194,1.7320060729980469,-2.531393527984619,-32.70000076293945,6.300000190734863,-9.75
0.23,76.00154113769531,-6.090848922729492,-13.062764167785645,-3.597243309020996,4.396630764007568,1.8652373552322388,-32.70000076293945,6.300000190734863,-9.75
0.24,78.4148941040039,-6.665457725524902,-13.369222640991211,-1.3323123455047607,1.8652373552322388,4.796324729919434,-32.55000305175781,6.450000286102295,-10.200000762939453
0.26,76.38461303710938,-6.703764915466309,-12.48815631866455,-2.9310872554779053,-0.2664624750614166,1.5987749099731445,-31.80000114440918,5.400000095367432,-9.15000057220459
0.263,77.03583526611328,-6.665457725524902,-13.330915451049805,-14.12251091003418,-0.1332312375307083,-0.5329249501228333,-32.400001525878906,6.750000476837158,-9.300000190734863
0.27,77.41890716552734,-6.090848922729492,-12.679692268371582,-10.92496109008789,1.1990811824798584,-5.196018218994141,-30.900001525878906,6.750000476837158,-9.75
0.28,78.03182220458984,-4.63517427444458,-11.951854705810547,-5.462480545043945,-1.9984685182571411,-1.1990811824798584,-30.900001525878906,6.750000476837158,-9.75
0.29,77.8019790649414,-4.443638324737549,-12.7946138381958,-15.321592330932617,3.0643184185028076,-3.4640121459960938,-33.0,6.150000095367432,-10.65000057220459
0.3,77.95520782470703,-4.252102375030518,-12.947842597961426,0.0,-2.6646246910095215,12.25727367401123,-32.25,6.900000095367432,-8.700000762939453
0.32,78.52981567382812,-2.6815059185028076,-13.177685737609863,-2.398162364959717,-3.3307809829711914,3.197549819946289,-34.5,6.150000095367432,-9.15000057220459
0.324,77.87859344482422,-3.907337188720703,-13.330915451049805,-9.859111785888672,1.4655436277389526,-0.7993874549865723,-33.75,7.200000286102295,-10.200000762939453
0.33,78.26166534423828,-4.060565948486328,-13.752294540405273,0.0,2.2649309635162354,-4.663093090057373,-33.75,7.200000286102295,-10.200000762939453
0.34,77.763671875,-4.213795185089111,-13.752294540405273,-5.8621745109558105,2.131699800491333,5.196018218994141,-32.25,8.100000381469727,-8.40000057220459
0.35,78.03182220458984,-5.439626216888428,-13.024456977844238,-2.2649309635162354,-3.197549819946289,11.857580184936523,-32.55000305175781,6.450000286102295,-10.950000762939453
0.36,77.53382873535156,-5.363011837005615,-13.177685737609863,-7.327718257904053,6.661561965942383,1.3323123455047607,-35.400001525878906,5.100000381469727,-9.0
0.381,77.26567840576172,-5.363011837005615,-13.330915451049805,-7.06125545501709,-0.5329249501228333,-2.797856092453003,-33.30000305175781,6.450000286102295,-8.40000057220459
0.384,77.1124496459961,-5.70777702331543,-12.832921028137207,-4.663093090057373,2.398162364959717,-2.531393527984619,-33.30000305175781,6.450000286102295,-8.40000057220459
0.39,77.1124496459961,-6.282385349273682,-13.21599292755127,2.6646246910095215,-1.9984685182571411,5.8621745109558105,-33.75,6.150000095367432,-9.450000762939453
0.4,76.42292022705078,-5.70777702331543,-12.7946138381958,-6.128636837005615,6.261868000030518,8.39356803894043,-32.400001525878906,6.300000190734863,-9.75
0.41,77.03583526611328,-6.167463779449463,-11.72201156616211,-6.9280242919921875,5.462480545043945,-4.529861927032471,-33.30000305175781,6.150000095367432,-10.200000762939453
0.42,77.84028625488281,-5.4013190269470215,-12.986149787902832,-1.9984685182571411,-3.3307809829711914,5.595712184906006,-32.70000076293945,5.850000381469727,-9.0
0.44,76.76768493652344,-5.171475887298584,-13.062764167785645,-10.92496109008789,5.728943347930908,4.929555892944336,-32.70000076293945,5.850000381469727,-9.0
0.444,77.41890716552734,-6.01423454284668,-11.836933135986328,-13.989279747009277,4.130168437957764,-2.2649309635162354,-32.70000076293945,5.100000381469727,-9.75
0.45,76.38461303710938,-5.20978307723999,-12.832921028137207,-4.529861927032471,-0.7993874549865723,11.191424369812012,-33.0,6.150000095367432,-8.700000762939453
0.46,75.69508361816406,-3.869029998779297,-12.7946138381958,-9.859111785888672,-3.597243309020996,13.856048583984375,-33.0,5.400000095367432,-9.90000057220459
0.47,76.80599212646484,-4.022258758544922,-12.449849128723145,-13.989279747009277,3.9969370365142822,5.062787055969238,-33.0,5.700000286102295,-8.700000762939453
0.48,76.88260650634766,-4.290409564971924,-12.832921028137207,-16.78713607788086,8.793261528015137,12.923430442810059,-33.0,5.700000286102295,-8.700000762939453
0.499,77.41890716552734,-4.558559894561768,-12.986149787902832,-9.192955017089844,-1.3323123455047607,21.183767318725586,-33.0,6.900000095367432,-9.450000762939453
0.504,77.1507568359375,-5.2480902671813965,-12.832921028137207,-22.116384506225586,0.9326186776161194,12.25727367401123,-33.0,6.450000286102295,-8.700000762939453
0.51,78.07012939453125,-4.9799394607543945,-14.595053672790527,-20.91730499267578,4.529861927032471,13.856048583984375,-32.400001525878906,5.850000381469727,-10.050000190734863
0.52,79.14273071289062,-6.01423454284668,-14.786589622497559,-18.519142150878906,-0.5329249501228333,8.793261528015137,-33.75,6.900000095367432,-9.450000762939453
0.53,78.07012939453125,-6.205770969390869,-15.016432762145996,-20.784072875976562,-0.39969372749328613,24.381317138671875,-33.75,6.900000095367432,-9.450000762939453
0.54,79.0278091430664,-3.7924153804779053,-13.407529830932617,-32.37519073486328,7.9938740730285645,18.519142150878906,-32.400001525878906,6.750000476837158,-9.75
0.56,78.9511947631836,-1.6089035272598267,-13.637372970581055,-31.975496292114258,4.663093090057373,24.248085021972656,-31.950000762939453,6.300000190734863,-9.75
0.564,79.06611633300781,-1.4173674583435059,-12.258312225341797,-20.650842666625977,-5.062787055969238,40.76875686645508,-33.900001525878906,6.300000190734863,-9.300000190734863
0.571,78.45320129394531,-2.6431987285614014,-14.556746482849121,-34.10719680786133,3.7304747104644775,38.63705825805664,-34.05000305175781,4.5,-9.90000057220459
0.58,77.53382873535156,-2.6431987285614014,-15.552734375,-20.91730499267578,-8.260336875915527,56.889739990234375,-34.05000305175781,4.5,-9.90000057220459
0.59,76.65276336669922,-4.903325080871582,-14.901511192321777,-19.31852912902832,-4.663093090057373,44.63246536254883,-33.75,5.400000095367432,-9.15000057220459
0.6,75.08216857910156,-6.129156112670898,-15.093047142028809,-30.643184661865234,1.1990811824798584,37.4379768371582,-34.5,3.750000238418579,-9.450000762939453
0.62,75.8866195678711,-7.316680431365967,-15.399505615234375,-34.373661041259766,5.995405673980713,53.159263610839844,-33.75,5.700000286102295,-9.15000057220459
0.623,76.5761489868164,-8.427590370178223,-15.476119995117188,-41.168453216552734,6.261868000030518,47.297088623046875,-34.650001525878906,5.550000190734863,-10.050000190734863
0.63,77.26567840576172,-7.201758861541748,-15.744270324707031,-39.43644714355469,-0.9326186776161194,54.091880798339844,-34.650001525878906,5.550000190734863,-10.050000190734863
0.64,76.69107055664062,-6.703764915466309,-16.58702850341797,-53.159263610839844,6.261868000030518,47.696781158447266,-34.80000305175781,4.200000286102295,-8.700000762939453
0.65,78.10843658447266,-3.7924153804779053,-15.361198425292969,-53.29249572753906,6.5283308029174805,50.89433288574219,-34.05000305175781,5.400000095367432,-9.90000057220459
0.66,79.5641098022461,-4.367023944854736,-15.629348754882812,-44.89892578125,-4.929555892944336,57.822357177734375,-34.650001525878906,3.6000001430511475,-9.300000190734863
0.68,78.64473724365234,-2.3367409706115723,-16.05072784423828,-45.298622131347656,-9.592649459838867,68.88054656982422,-34.95000076293945,3.6000001430511475,-9.300000190734863
0.684,78.07012939453125,-2.0685901641845703,-17.161638259887695,-46.63093185424805,-7.460949420928955,66.882080078125,-34.95000076293945,3.6000001430511475,-9.300000190734863
0.69,77.26567840576172,-1.37906014919281,-18.4257755279541,-44.76569747924805,7.594180583953857,59.02143859863281,-34.650001525878906,3.6000001430511475,-8.550000190734863
0.7,78.72135162353516,-0.7661445140838623,-18.23423957824707,-43.30015182495117,-1.1990811824798584,62.35221862792969,-34.05000305175781,4.5,-10.950000762939453
0.71,77.61044311523438,-1.37906014919281,-18.617311477661133,-39.9693717956543,8.260336875915527,67.28177642822266,-34.20000076293945,2.8500001430511475,-9.75
0.72,76.99752807617188,-1.455674648284912,-17.8128604888916,-41.30168533325195,8.926492691040039,66.61561584472656,-35.400001525878906,4.050000190734863,-9.300000190734863
0.74,78.22335815429688,-3.294421434402466,-17.62132453918457,-34.24042892456055,-1.3323123455047607,74.47626495361328,-35.400001525878906,4.050000190734863,-9.300000190734863
0.743,77.45721435546875,-3.7158010005950928,-17.966089248657227,-31.44257164001465,-5.062787055969238,79.2725830078125,-35.400001525878906,2.1000001430511475,-7.800000190734863
0.75,78.87458038330078,-4.520252704620361,-18.195932388305664,-43.30015182495117,3.7304747104644775,64.084228515625,-35.400001525878906,2.1000001430511475,-7.800000190734863
0.76,76.95922088623047,-4.175487995147705,-17.085023880004883,-41.035221099853516,6.9280242919921875,63.551300048828125,-36.900001525878906,2.4000000953674316,-8.550000190734863
0.77,77.91690063476562,-5.018246650695801,-18.34916114807129,-38.90352249145508,-5.8621745109558105,77.54058074951172,-34.650001525878906,3.1500000953674316,-8.550000190734863
0.78,77.34229278564453,-5.631162166595459,-17.62132453918457,-47.9632453918457,-0.7993874549865723,71.54517364501953,-34.650001525878906,3.1500000953674316,-8.550000190734863
0.8,76.11646270751953,-5.018246650695801,-18.579004287719727,-49.96171569824219,7.9938740730285645,77.00765228271484,-34.650001525878906,1.6500000953674316,-7.800000190734863
0.804,76.69107055664062,-4.213795185089111,-19.49837875366211,-48.62940216064453,6.9280242919921875,76.60796356201172,-34.5,1.0500000715255737,-8.40000057220459
0.81,76.30799865722656,-2.3750481605529785,-18.808849334716797,-36.63859176635742,-0.39969372749328613,83.26952362060547,-34.5,1.0500000715255737,-8.40000057220459
0.82,76.07815551757812,-1.5322890281677246,-18.962078094482422,-37.57120895385742,5.062787055969238,78.60643005371094,-34.650001525878906,0.9000000357627869,-7.800000190734863
0.83,76.34630584716797,-1.5322890281677246,-19.421764373779297,-26.779478073120117,3.86370587348938,88.46553802490234,-34.650001525878906,0.9000000357627869,-7.800000190734863
0.84,75.08216857910156,-2.030282974243164,-18.88546371459961,-16.920366287231445,-3.0643184185028076,91.66309356689453,-35.55000305175781,2.700000047683716,-7.650000095367432
0.86,73.54987335205078,-3.4093432426452637,-19.153614044189453,-15.055130004882812,6.395099639892578,89.66461944580078,-33.900001525878906,0.45000001788139343,-6.750000476837158
0.863,72.01758575439453,-4.252102375030518,-19.268535614013672,-15.188361167907715,5.8621745109558105,80.60489654541016,-36.900001525878906,0.15000000596046448,-7.500000476837158
0.87,71.28974914550781,-6.742072105407715,-19.306842803955078,-6.5283308029174805,-5.462480545043945,86.86676788330078,-36.900001525878906,0.15000000596046448,-7.500000476837158
0.88,69.87238311767578,-6.856993675231934,-18.54069709777832,4.396630764007568,-0.9326186776161194,94.19448852539062,-36.900001525878906,0.15000000596046448,-7.500000476837158
0.89,68.7231674194336,-8.197746276855469,-17.851167678833008,0.6661561727523804,2.131699800491333,79.53904724121094,-36.0,-1.5,-6.900000095367432
0.9,68.1102523803711,-7.2783732414245605,-17.42978858947754,-0.1332312375307083,5.329249382019043,85.00152587890625,-36.0,-1.8000000715255737,-8.700000762939453
0.92,66.8844223022461,-5.937620162963867,-17.50640296936035,17.586523056030273,-1.7320060729980469,83.26952362060547,-36.30000305175781,-1.0500000715255737,-7.950000286102295
0.924,66.5396499633789,-5.094861030578613,-17.544710159301758,15.854516983032227,5.995405673980713,79.53904724121094,-36.75,-2.700000047683716,-6.600000381469727
0.936,65.62027740478516,-5.861005783081055,-17.851167678833008,20.117916107177734,1.7320060729980469,77.00765228271484,-36.45000076293945,-3.6000001430511475,-8.25
0.94,65.04566955566406,-7.508216381072998,-17.42978858947754,29.177640914916992,-4.796324729919434,87.0,-36.45000076293945,-3.6000001430511475,-8.25
0.95,63.51338195800781,-7.2783732414245605,-17.353174209594727,35.705970764160156,-5.196018218994141,81.93721008300781,-36.900001525878906,-3.1500000953674316,-5.700000286102295
0.96,62.32585906982422,-9.385271072387695,-15.016432762145996,32.37519073486328,8.526799201965332,75.8085708618164,-36.75,-4.950000286102295,-7.650000095367432
0.97,61.138336181640625,-8.389283180236816,-13.982137680053711,33.84073257446289,15.45482349395752,66.08269500732422,-37.80000305175781,-3.0,-6.600000381469727
0.98,60.71695327758789,-8.580819129943848,-11.568782806396484,35.972434997558594,8.793261528015137,71.67840576171875,-37.80000305175781,-3.0,-6.600000381469727
0.999,60.372188568115234,-6.435614109039307,-10.304644584655762,30.110260009765625,21.183767318725586,66.34915924072266,-37.650001525878906,-3.6000001430511475,-7.800000190734863
1.004,61.5980224609375,-2.75812029838562,-8.121131896972656,33.17457962036133,15.854516983032227,64.48391723632812,-37.05000305175781,-4.5,-7.350000381469727
1.01,63.01538848876953,-1.37906014919281,-7.891288757324219,44.63246536254883,8.793261528015137,57.422664642333984,-36.45000076293945,-4.350000381469727,-7.050000190734863
1.02,66.80780792236328,1.072602391242981,-7.967903137207031,49.02909469604492,15.055130004882812,50.36140823364258,-36.45000076293945,-4.350000381469727,-7.050000190734863
1.03,72.70711517333984,2.5665841102600098,-9.078812599182129,67.94792938232422,8.127105712890625,37.83767318725586,-34.95000076293945,-4.800000190734863,-7.800000190734863
1.04,75.9249267578125,3.064578056335449,-10.381258964538574,88.46553802490234,12.790199279785156,34.24042892456055,-38.25,-3.450000047683716,-7.950000286102295
1.059,78.68304443359375,2.1068975925445557,-13.330915451049805,121.24042510986328,9.059723854064941,13.722817420959473,-36.900001525878906,-7.500000476837158,-7.050000190734863
1.062,79.87056732177734,-3.332728862762451,-13.79060173034668,128.56814575195312,7.594180583953857,9.592649459838867,-37.95000076293945,-6.300000190734863,-6.0
1.07,79.41088104248047,-4.941632270812988,-13.943830490112305,136.0290985107422,6.794793128967285,6.261868000030518,-37.95000076293945,-6.300000190734863,-6.0
1.08,83.43314361572266,-6.933608055114746,-13.637372970581055,147.22052001953125,1.3323123455047607,-1.1990811824798584,-37.05000305175781,-6.150000095367432,-6.600000381469727
1.09,87.83847045898438,-7.661445617675781,-11.03248119354248,150.6845245361328,-2.398162364959717,-14.92189884185791,-37.80000305175781,-6.150000095367432,-6.900000095367432
1.109,93.73778533935547,-6.703764915466309,-10.572794914245605,132.56507873535156,0.39969372749328613,-41.83460998535156,-37.80000305175781,-5.700000286102295,-7.350000381469727
1.113,98.44957733154297,-5.70777702331543,-8.96389102935791,130.96630859375,-14.522205352783203,-52.626338958740234,-37.5,-7.200000286102295,-6.900000095367432
1.12,102.54844665527344,-4.290409564971924,-10.074800491333008,134.29708862304688,-21.45022964477539,-49.69525146484375,-37.5,-7.200000286102295,-6.900000095367432
1.13,105.26825714111328,-3.9839515686035156,-10.955866813659668,134.5635528564453,-31.176109313964844,-60.35375213623047,-36.75,-6.450000286102295,-8.700000762939453
1.14,106.22594451904297,-2.7964274883270264,-12.411541938781738,133.89739990234375,-30.24349021911621,-76.60796356201172,-37.05000305175781,-6.150000095367432,-7.650000095367432
1.15,106.72393798828125,-3.2561142444610596,-12.22000503540039,150.2848358154297,-42.101070404052734,-76.07503509521484,-36.75,-7.200000286102295,-8.700000762939453
1.16,105.07672119140625,-2.1068975925445557,-12.181697845458984,152.81622314453125,-45.16539001464844,-91.66309356689453,-36.150001525878906,-8.25,-9.0
1.179,102.318603515625,-3.9456443786621094,-11.836933135986328,165.3399658203125,-57.55589294433594,-112.4471664428711,-38.25,-5.700000286102295,-7.950000286102295
1.183,99.44556427001953,-4.865017890930176,-9.768342971801758,162.6753387451172,-51.160797119140625,-116.31086730957031,-38.25,-5.700000286102295,-7.950000286102295
1.19,99.13910675048828,-4.098873138427734,-8.96389102935791,166.1393585205078,-61.68606185913086,-109.915771484375,-36.150001525878906,-5.550000190734863,-10.350000381469727
1.2,98.18142700195312,-5.20978307723999,-8.274360656738281,153.48239135742188,-57.955589294433594,-121.90658569335938,-36.150001525878906,-5.850000381469727,-10.350000381469727
1.21,98.10481262207031,-8.121131896972656,-7.240066051483154,142.95712280273438,-71.01225280761719,-143.2235870361328,-35.70000076293945,-5.550000190734863,-10.050000190734863
1.22,97.07051086425781,-8.427590370178223,-5.363011837005615,149.61868286132812,-83.26952362060547,-139.2266387939453,-35.70000076293945,-5.550000190734863,-10.050000190734863
1.233,97.76004028320312,-8.848969459533691,-4.711789131164551,134.16384887695312,-76.4747314453125,-153.0826873779297,-36.30000305175781,-4.5,-11.40000057220459
1.24,98.18142700195312,-9.730035781860352,-4.022258758544922,126.7029037475586,-73.0107192993164,-160.6768798828125,-36.45000076293945,-4.800000190734863,-10.050000190734863
1.25,101.0927734375,-9.730035781860352,-3.6774938106536865,135.36293029785156,-79.53904724121094,-163.0750274658203,-36.150001525878906,-4.050000190734863,-10.800000190734863
1.26,103.08474731445312,-9.002198219299316,-2.873042106628418,127.5022964477539,-80.73812866210938,-172.6676788330078,-35.400001525878906,-4.050000190734863,-11.100000381469727
1.27,104.1190414428711,-8.810662269592285,-5.631162166595459,115.77794647216797,-72.21133422851562,-171.46859741210938,-35.400001525878906,-4.050000190734863,-11.100000381469727
1.28,105.15333557128906,-9.27034854888916,-6.971915245056152,101.52220153808594,-52.493106842041016,-176.9310760498047,-34.80000305175781,-3.750000238418579,-12.450000762939453
1.3,106.22594451904297,-5.822698593139648,-5.1331682205200195,86.73353576660156,-57.55589294433594,-145.48851013183594,-34.5,-1.0500000715255737,-12.0
1.305,103.65935516357422,-0.6129156351089478,-4.8267107009887695,63.28483963012695,-41.568145751953125,-138.2940216064453,-34.5,-1.0500000715255737,-12.0
1.31,101.32261657714844,1.4939818382263184,-7.163451671600342,61.41960144042969,-43.16691970825195,-124.57120513916016,-34.95000076293945,-1.6500000953674316,-11.850000381469727
1.32,99.44556427001953,-0.3064578175544739,-11.1474027633667,80.47166442871094,-34.64012145996094,-120.57427215576172,-34.95000076293945,-1.6500000953674316,-11.850000381469727
1.33,95.1934585571289,-2.9496564865112305,-12.7946138381958,90.4640121459961,-35.839202880859375,-92.46247863769531,-35.70000076293945,-0.15000000596046448,-14.100000381469727
1.34,92.62687683105469,-5.861005783081055,-13.177685737609863,90.86370086669922,-39.83613967895508,-84.20214080810547,-34.80000305175781,-0.75,-13.500000953674316
1.354,87.53201293945312,-9.500192642211914,-13.79060173034668,71.2787094116211,-50.22817611694336,-61.552833557128906,-34.95000076293945,-1.6500000953674316,-12.600000381469727
1.36,82.4754638671875,-13.752294540405273,-7.508216381072998,67.14854431152344,-74.47626495361328,-44.09954071044922,-35.55000305175781,-1.0500000715255737,-13.950000762939453
1.37,78.22335815429688,-16.28057098388672,-5.669469833374023,51.4272575378418,-95.9264907836914,-32.108726501464844,-35.55000305175781,-1.0500000715255737,-13.950000762939453
1.38,66.5013427734375,-18.4257755279541,-5.4013190269470215,17.586523056030273,-93.39509582519531,-37.17151641845703,-34.05000305175781,-0.75,-14.250000953674316
1.39,49.837703704833984,-19.651607513427734,-7.469909191131592,-6.9280242919921875,-70.07962799072266,-34.24042892456055,-33.45000076293945,-1.6500000953674316,-15.90000057220459
1.41,32.63775634765625,-17.12333106994629,-8.619126319885254,-26.779478073120117,-57.02296829223633,-21.316997528076172,-33.75,-0.30000001192092896,-14.700000762939453
1.413,20.992361068725586,-16.548721313476562,-6.358999729156494,-50.36140823364258,-35.839202880859375,-6.5283308029174805,-33.75,-0.30000001192092896,-15.750000953674316
1.42,12.29662036895752,-15.591041564941406,-3.332728862762451,-61.15313720703125,-23.715160369873047,-0.1332312375307083,-33.75,-0.30000001192092896,-15.750000953674316
1.43,9.768342971801758,-16.89348793029785,-3.2178070545196533,-51.82695007324219,-33.97396469116211,10.392036437988281,-34.05000305175781,-0.75,-15.750000953674316
1.44,5.70777702331543,-17.391481399536133,-4.520252704620361,-30.37672233581543,-44.63246536254883,7.594180583953857,-34.20000076293945,-0.45000001788139343,-14.40000057220459
1.45,6.282385349273682,-22.218191146850586,-4.481945514678955,-20.117916107177734,-34.10719680786133,9.859111785888672,-34.5,-0.30000001192092896,-15.450000762939453
1.46,8.044517517089844,-25.51261329650879,-4.63517427444458,-5.728943347930908,-29.7105655670166,12.124042510986328,-34.5,-1.8000000715255737,-16.05000114440918
1.476,18.617311477661133,-31.60346221923828,-2.6431987285614014,-4.929555892944336,-23.04900360107422,37.17151641845703,-33.0,0.0,-16.5
1.481,39.80120849609375,-42.29117965698242,-1.37906014919281,-20.117916107177734,-19.052066802978516,50.22817611694336,-33.0,0.0,-16.5
1.49,45.777137756347656,-45.08760452270508,-2.719813108444214,-46.364471435546875,-3.197549819946289,66.34915924072266,-32.70000076293945,-2.1000001430511475,-15.600000381469727
1.5,56.34992980957031,-50.48892593383789,-8.504204750061035,-66.882080078125,30.776416778564453,78.87289428710938,-33.150001525878906,-2.8500001430511475,-16.350000381469727
1.51,66.15657806396484,-52.902278900146484,-13.407529830932617,-94.9938735961914,53.69218826293945,108.71669006347656,-34.5,-0.75,-15.000000953674316
1.529,75.77169799804688,-51.52322006225586,-17.8128604888916,-127.36906433105469,72.34455871582031,133.23123168945312,-34.5,-0.75,-15.000000953674316
1.533,85.31019592285156,-48.765098571777344,-17.161638259887695,-149.3522186279297,71.67840576171875,161.2097930908203,-34.80000305175781,-1.8000000715255737,-14.250000953674316
1.54,100.25001525878906,-47.2711181640625,-17.966089248657227,-165.87289428710938,62.485450744628906,187.3231201171875,-34.05000305175781,-1.8000000715255737,-14.250000953674316
1.55,104.23396301269531,-47.07958221435547,-20.494365692138672,-191.0535888671875,67.5482406616211,194.2511444091797,-35.25,-2.25,-14.250000953674316
1.56,110.47804260253906,-49.03324890136719,-22.7161865234375,-210.37213134765625,56.756507873535156,213.8361358642578,-35.25,-2.25,-12.0
1.57,114.8450698852539,-50.144161224365234,-27.15982437133789,-218.76568603515625,43.56661605834961,246.477783203125,-35.25,-2.25,-12.0
1.581,118.4842529296875,-52.3659782409668,-29.53487205505371,-237.81776428222656,43.16691970825195,276.4548034667969,-35.55000305175781,-3.450000047683716,-12.0
1.595,122.0085220336914,-52.3659782409668,-29.419950485229492,-288.44561767578125,28.911178588867188,292.0428771972656,-36.75,-5.700000286102295,-12.450000762939453
1.6,127.75460052490234,-49.18648147583008,-28.768728256225586,-281.3843688964844,35.57273864746094,316.8238830566406,-36.75,-5.700000286102295,-12.450000762939453
1.61,129.2485809326172,-46.58158874511719,-27.849353790283203,-306.69830322265625,27.445634841918945,323.08575439453125,-36.75,-6.450000286102295,-10.65000057220459
1.62,132.84945678710938,-41.180267333984375,-27.121517181396484,-314.1592712402344,21.45022964477539,339.6064147949219,-36.75,-6.450000286102295,-10.65000057220459
1.63,133.9220733642578,-34.66804122924805,-29.075185775756836,-314.8254089355469,19.98468589782715,341.8713684082031,-36.75,-6.450000286102295,-10.65000057220459
1.649,133.11761474609375,-30.60747528076172,-31.29700469970703,-300.0367431640625,6.9280242919921875,367.98468017578125,-36.900001525878906,-8.700000762939453,-8.550000190734863
1.653,132.77284240722656,-25.933992385864258,-31.680076599121094,-275.6554260253906,0.5329249501228333,383.5727233886719,-37.05000305175781,-10.050000190734863,-10.65000057220459
1.66,129.17196655273438,-24.286781311035156,-31.488540649414062,-271.5252685546875,5.995405673980713,373.9800720214844,-36.45000076293945,-10.950000762939453,-9.75
1.67,126.10739135742188,-21.14558982849121,-33.7486686706543,-242.48085021972656,4.929555892944336,378.9096374511719,-36.45000076293945,-10.950000762939453,-9.75
1.68,122.73635864257812,-21.337125778198242,-31.756690979003906,-216.76722717285156,2.6646246910095215,373.58038330078125,-37.5,-13.050000190734863,-9.450000762939453
1.69,119.0588607788086,-20.30282974243164,-31.450233459472656,-199.04747009277344,6.128636837005615,369.7166748046875,-37.80000305175781,-14.550000190734863,-8.700000762939453
1.71,113.50431060791016,-20.95405387878418,-29.611486434936523,-194.51760864257812,10.392036437988281,346.4012145996094,-36.900001525878906,-14.100000381469727,-9.0
1.714,109.13729095458984,-20.30282974243164,-28.53888511657715,-196.64930725097656,26.113323211669922,318.2894287109375,-36.900001525878906,-15.90000057220459,-9.300000190734863
1.72,101.36092376708984,-18.732234954833984,-25.435998916625977,-196.38284301757812,23.182235717773438,311.62786865234375,-36.900001525878906,-15.90000057220459,-9.300000190734863
1.73,99.48387145996094,-15.361198425292969,-24.78477668762207,-203.97702026367188,37.17151641845703,282.983154296875,-36.900001525878906,-15.90000057220459,-9.300000190734863
1.74,93.8910140991211,-9.921571731567383,-23.060951232910156,-189.72128295898438,37.17151641845703,261.2664489746094,-37.80000305175781,-19.650001525878906,-8.700000762939453
1.75,85.92311096191406,-1.8770540952682495,-23.099258422851562,-159.8774871826172,36.372127532958984,231.55589294433594,-35.400001525878906,-20.25,-9.75
1.769,75.08216857910156,4.098873138427734,-24.78477668762207,-126.7029037475586,43.30015182495117,201.4456329345703,-37.20000076293945,-21.450000762939453,-7.500000476837158
1.773,62.555702209472656,5.1331682205200195,-26.048913955688477,-82.86982727050781,67.68146514892578,152.41653442382812,-37.20000076293945,-21.450000762939453,-7.500000476837158
1.78,45.279144287109375,1.6855180263519287,-28.8453426361084,-64.61714935302734,85.80091857910156,118.30934143066406,-37.20000076293945,-21.450000762939453,-7.500000476837158
1.79,36.54509353637695,2.911349296569824,-26.738445281982422,-66.74884796142578,95.12710571289062,96.19295501708984,-36.900001525878906,-23.700000762939453,-6.300000190734863
1.8,28.807035446166992,3.7158010005950928,-18.617311477661133,-73.54364013671875,102.58805084228516,52.226646423339844,-36.30000305175781,-24.30000114440918,-6.900000095367432
1.81,21.87342643737793,10.457873344421387,-9.461885452270508,-94.72740936279297,99.92343139648438,44.23276901245117,-37.95000076293945,-24.150001525878906,-7.800000190734863
1.83,14.36521053314209,21.720197677612305,-3.9456443786621094,-84.60183715820312,83.00305938720703,53.159263610839844,-37.95000076293945,-24.150001525878906,-7.800000190734863
1.834,7.086836814880371,30.952239990234375,-1.9536685943603516,-57.55589294433594,68.08116149902344,43.96630859375,-38.400001525878906,-23.700000762939453,-5.25
1.84,-2.183511972427368,38.307228088378906,-3.6774938106536865,-39.43644714355469,69.4134750366211,33.84073257446289,-38.400001525878906,-23.700000762939453,-5.25
1.85,-3.332728862762451,37.617698669433594,-5.324704647064209,3.597243309020996,55.29096221923828,19.052066802978516,-37.05000305175781,-23.55000114440918,-5.850000381469727
1.86,-3.9456443786621094,34.62973403930664,-5.1331682205200195,35.972434997558594,46.897396087646484,-1.1990811824798584,-37.05000305175781,-25.80000114440918,-4.350000381469727
1.872,-1.1109095811843872,29.611486434936523,-2.873042106628418,75.27565002441406,37.4379768371582,-33.30780792236328,-37.05000305175781,-25.80000114440918,-4.350000381469727
1.889,7.6997528076171875,27.27474594116211,-1.2641384601593018,119.37519073486328,6.395099639892578,-58.08882141113281,-37.05000305175781,-25.80000114440918,-4.350000381469727
1.893,16.1656494140625,23.75048065185547,2.298433542251587,169.33689880371094,-9.992342948913574,-103.12097930908203,-39.30000305175781,-25.500001907348633,-5.100000381469727
1.9,24.9763126373291,13.713987350463867,2.911349296569824,212.5038299560547,-34.373661041259766,-125.37059783935547,-38.55000305175781,-25.500001907348633,-5.100000381469727
1.91,33.40390396118164,4.520252704620361,5.899312973022461,252.07350158691406,-54.89126968383789,-160.54364013671875,-36.150001525878906,-23.700000762939453,-3.0
1.92,48.650177001953125,-11.568782806396484,3.8307228088378906,291.2434997558594,-82.47013854980469,-194.51760864257812,-36.150001525878906,-23.700000762939453,-3.0
1.93,63.24523162841797,-28.423961639404297,3.064578056335449,305.2327575683594,-92.06278228759766,-231.95558166503906,-38.25,-23.700000762939453,-3.0
1.95,75.54185485839844,-45.50898742675781,-0.3064578175544739,283.6492919921875,-87.13323211669922,-265.79632568359375,-36.75,-23.100000381469727,-3.3000001907348633
1.954,85.27188873291016,-58.15037155151367,-5.4013190269470215,253.67227172851562,-68.88054656982422,-294.30780029296875,-37.20000076293945,-24.450000762939453,-4.200000286102295
1.96,94.5805435180664,-70.94498443603516,-12.143390655517578,236.61868286132812,-63.551300048828125,-288.8453369140625,-38.25,-23.100000381469727,-5.400000095367432
1.97,98.18142700195312,-72.4772720336914,-16.58702850341797,202.24502563476562,-32.37519073486328,-330.0137634277344,-38.25,-23.100000381469727,-5.400000095367432
1.98,101.59076690673828,-72.78372955322266,-22.06496238708496,177.19754028320312,-20.38437843322754,-349.06585693359375,-38.70000076293945,-19.80000114440918,-3.750000238418579
1.99,107.49008178710938,-65.50535583496094,-26.278757095336914,167.33843994140625,-17.053598403930664,-360.52374267578125,-37.95000076293945,-18.75,-3.450000047683716
2.01,113.1978530883789,-55.315635681152344,-26.85336685180664,181.72740173339844,-19.185298919677734,-375.3124084472656,-38.55000305175781,-19.650001525878906,-2.8500001430511475
2.014,120.70606994628906,-47.19450378417969,-26.738445281982422,197.71514892578125,-20.117916107177734,-396.8958435058594,-39.0,-16.5,-3.9000000953674316
2.02,135.7991180419922,-35.31926345825195,-23.099258422851562,205.1761016845703,-30.643184661865234,-401.8254089355469,-39.0,-16.5,-3.9000000953674316
2.03,141.200439453125,-29.190107345581055,-21.6818904876709,226.09341430664062,-59.15467071533203,-386.6370544433594,-40.05000305175781,-14.550000190734863,-2.1000001430511475
2.04,144.49485778808594,-23.21417999267578,-19.651607513427734,244.34608459472656,-72.34455871582031,-378.9096374511719,-39.0,-11.850000381469727,-3.3000001907348633
2.05,146.29530334472656,-19.230228424072266,-21.796812057495117,257.0030517578125,-83.80245208740234,-373.58038330078125,-39.30000305175781,-11.550000190734863,-3.6000001430511475
2.07,144.073486328125,-18.004396438598633,-23.44402313232422,272.4578857421875,-85.53445434570312,-369.5834655761719,-39.0,-11.550000190734863,-3.3000001907348633
2.073,141.04721069335938,-20.41775131225586,-21.413740158081055,283.6492919921875,-103.25421142578125,-358.9249572753906,-39.0,-11.550000190734863,-3.3000001907348633
2.08,136.2205047607422,-22.256498336791992,-17.8128604888916,272.4578857421875,-95.79325866699219,-357.45941162109375,-38.70000076293945,-7.800000190734863,-4.5
2.09,132.77284240722656,-23.558944702148438,-15.399505615234375,268.1944885253906,-89.26493072509766,-351.1975402832031,-38.400001525878906,-7.500000476837158,-4.5
2.1,130.05303955078125,-24.823083877563477,-15.169661521911621,249.00918579101562,-73.0107192993164,-352.79632568359375,-37.5,-6.150000095367432,-5.850000381469727
2.11,129.01873779296875,-19.230228424072266,-10.5344877243042,212.5038299560547,-85.80091857910156,-306.03216552734375,-37.650001525878906,-4.050000190734863,-5.700000286102295
2.13,123.54080963134766,-16.510414123535156,2.3367409706115723,168.67074584960938,-107.3843765258789,-280.5849914550781,-37.650001525878906,-4.050000190734863,-5.700000286102295
2.133,117.56488037109375,-18.847156524658203,0.8810662031173706,146.42112731933594,-120.84072875976562,-261.6661376953125,-37.20000076293945,-2.1000001430511475,-9.300000190734863
2.14,101.1310806274414,-26.048913955688477,-8.734047889709473,147.62020874023438,-131.7657012939453,-261.6661376953125,-36.150001525878906,-1.6500000953674316,-7.050000190734863
2.15,91.97565460205078,-28.53888511657715,-10.15141487121582,133.36447143554688,-122.70597076416016,-254.2052001953125,-36.900001525878906,0.15000000596046448,-7.500000476837158
2.16,81.13470458984375,-28.998571395874023,-10.036493301391602,110.31546783447266,-100.45635223388672,-225.56048583984375,-36.0,-0.75,-8.700000762939453
2.17,72.89865112304688,-28.92195701599121,-6.320692539215088,97.7917251586914,-105.25267791748047,-205.04287719726562,-36.0,-0.75,-8.700000762939453
2.189,64.96905517578125,-28.309040069580078,0.1149216815829277,74.47626495361328,-110.44869232177734,-186.65696716308594,-35.400001525878906,1.6500000953674316,-9.75
2.193,56.69469451904297,-28.577192306518555,4.098873138427734,41.83460998535156,-92.99540710449219,-165.2067413330078,-35.400001525878906,2.4000000953674316,-11.100000381469727
2.2,41.83149337768555,-27.504589080810547,6.933608055114746,23.98162269592285,-90.59724426269531,-143.75650024414062,-35.400001525878906,3.1500000953674316,-11.550000190734863
2.21,29.573179244995117,-26.470293045043945,8.695740699768066,5.8621745109558105,-98.85757446289062,-110.44869232177734,-34.80000305175781,3.750000238418579,-12.450000762939453
2.22,15.591041564941406,-24.78477668762207,10.917559623718262,-20.251148223876953,-86.0673828125,-102.18836212158203,-34.80000305175781,3.750000238418579,-12.450000762939453
2.23,2.911349296569824,-24.286781311035156,9.806650161743164,-40.635528564453125,-81.93721008300781,-88.19908142089844,-33.75,4.200000286102295,-12.750000953674316
2.25,-8.427590370178223,-24.24847412109375,7.814674377441406,-40.635528564453125,-83.00305938720703,-75.94180297851562,-34.5,4.200000286102295,-12.0
2.253,-15.322891235351562,-25.972299575805664,6.244078159332275,-46.09800720214844,-59.287899017333984,-75.67534637451172,-35.55000305175781,5.700000286102295,-12.0
2.26,-15.782577514648438,-25.244462966918945,7.967903137207031,-43.69984436035156,-51.160797119140625,-56.09035110473633,-33.900001525878906,3.6000001430511475,-13.350000381469727
2.27,-11.91354751586914,-25.665842056274414,8.580819129943848,-49.02909469604492,-28.378253936767578,-53.69218826293945,-33.900001525878906,3.6000001430511475,-13.350000381469727
2.28,-7.967903137207031,-27.15982437133789,9.998186111450195,-47.0306282043457,-26.513015747070312,-21.716691970825195,-34.5,4.950000286102295,-11.700000762939453
2.29,-1.072602391242981,-28.19411849975586,6.742072105407715,-56.09035110473633,-28.378253936767578,5.329249382019043,-32.70000076293945,4.800000190734863,-13.050000190734863
2.31,-0.15322890877723694,-29.95625114440918,-1.0342950820922852,-61.9525260925293,0.0,8.660030364990234,-33.150001525878906,5.850000381469727,-11.850000381469727
2.314,17.62132453918457,-28.309040069580078,-10.074800491333008,-50.09494400024414,44.49923324584961,55.4241943359375,-33.75,4.950000286102295,-12.0
2.32,38.15399932861328,-27.006595611572266,-16.318878173828125,-29.444103240966797,60.08728790283203,77.14088439941406,-33.75,4.950000286102295,-12.0
2.33,52.71074295043945,-27.198131561279297,-18.272546768188477,-33.17457962036133,86.86676788330078,110.848388671875,-33.900001525878906,4.350000381469727,-13.350000381469727
2.34,72.97526550292969,-30.26270866394043,-17.966089248657227,-53.026031494140625,95.12710571289062,136.29556274414062,-34.05000305175781,4.950000286102295,-12.750000953674316
2.35,60.1423454284668,-29.03687858581543,-15.169661521911621,-55.4241943359375,95.9264907836914,197.31546020507812,-34.650001525878906,3.6000001430511475,-12.300000190734863
2.369,105.45979309082031,-42.252872467041016,-17.774553298950195,-92.19601440429688,102.18836212158203,233.9540557861328,-35.400001525878906,4.350000381469727,-10.800000190734863
2.373,110.01835632324219,-49.68447494506836,-27.657817840576172,-119.24195861816406,103.38744354248047,282.4502258300781,-35.400001525878906,4.350000381469727,-10.800000190734863
2.38,116.14751434326172,-55.96685791015625,-39.954437255859375,-149.61868286132812,120.04134368896484,301.6355285644531,-36.900001525878906,3.6000001430511475,-9.300000190734863
2.39,123.11943054199219,-56.34992980957031,-41.71657180786133,-199.84686279296875,140.1592559814453,319.7549743652344,-36.150001525878906,1.350000023841858,-9.0
2.4,139.39999389648438,-55.77532196044922,-41.333499908447266,-247.54364013671875,145.88819885253906,348.9326171875,-37.20000076293945,-0.9000000357627869,-9.0
2.41,153.6885986328125,-53.361968994140625,-38.613685607910156,-280.5849914550781,139.35987854003906,371.98162841796875,-37.95000076293945,0.9000000357627869,-6.750000476837158
2.43,160.3157501220703,-51.59983444213867,-35.43418502807617,-297.37213134765625,114.71209716796875,403.4241943359375,-37.95000076293945,0.9000000357627869,-6.750000476837158
2.434,162.6907958984375,-48.535255432128906,-37.42616271972656,-315.35833740234375,97.39203643798828,428.6048889160156,-38.55000305175781,-3.750000238418579,-5.850000381469727
2.44,162.88232421875,-41.14196014404297,-38.728607177734375,-308.83001708984375,80.73812866210938,440.595703125,-40.05000305175781,-4.200000286102295,-4.350000381469727
2.45,162.7674102783203,-37.77092742919922,-36.58340072631836,-280.5849914550781,49.29555892944336,466.9754943847656,-40.5,-6.150000095367432,-5.100000381469727
2.46,158.43869018554688,-32.02484130859375,-34.3998908996582,-258.2021484375,30.643184661865234,474.83612060546875,-39.75,-6.150000095367432,-3.6000001430511475
2.47,152.1179962158203,-29.03687858581543,-33.097442626953125,-240.48239135742188,32.37519073486328,482.1638488769531,-39.75,-6.150000095367432,-3.6000001430511475
2.489,143.76702880859375,-27.542896270751953,-31.488540649414062,-223.0290985107422,31.575803756713867,496.2863464355469,-41.55000305175781,-10.800000190734863,-3.6000001430511475
2.493,137.48463439941406,-31.29700469970703,-31.565155029296875,-215.3016815185547,30.37672233581543,511.4747314453125,-41.55000305175781,-13.800000190734863,-2.8500001430511475
2.5,131.89178466796875,-37.694313049316406,-28.998571395874023,-232.35528564453125,43.83307647705078,499.88360595703125,-41.55000305175781,-13.800000190734863,-2.8500001430511475
2.51,126.79692077636719,-42.02302932739258,-29.075185775756836,-245.545166015625,51.560489654541016,486.6937255859375,-41.25,-17.400001525878906,-2.8500001430511475
2.52,120.62945556640625,-43.74685287475586,-28.500577926635742,-256.4701232910156,46.364471435546875,477.7672119140625,-41.25,-17.400001525878906,-2.8500001430511475
2.53,113.27446746826172,-42.865787506103516,-27.619510650634766,-263.2649230957031,45.96477508544922,451.7871398925781,-40.95000076293945,-18.75,-2.700000047683716
2.55,105.3448715209961,-34.43819808959961,-26.240449905395508,-272.19140625,49.56201934814453,429.27105712890625,-42.0,-23.100000381469727,-3.3000001907348633
2.553,97.87496185302734,-28.998571395874023,-24.59324073791504,-259.00152587890625,34.64012145996094,392.3659973144531,-40.20000076293945,-24.900001525878906,-2.700000047683716
2.56,87.18724822998047,-20.187908172607422,-24.66985511779785,-258.8682861328125,33.30780792236328,370.1163635253906,-40.20000076293945,-24.900001525878906,-2.700000047683716
2.57,78.9511947631836,-12.564770698547363,-24.861391067504883,-241.28176879882812,30.509952545166016,337.7411804199219,-40.20000076293945,-24.900001525878906,-2.700000047683716
2.58,68.87639617919922,-1.647210717201233,-23.712173461914062,-216.10107421875,39.03675079345703,309.76263427734375,-41.70000076293945,-25.200000762939453,-3.0
2.59,57.6906852722168,6.435614109039307,-19.49837875366211,-182.92648315429688,17.32006072998047,272.4578857421875,-39.900001525878906,-27.600000381469727,-3.450000047683716
2.61,45.50898742675781,10.304644584655762,-14.403517723083496,-175.865234375,15.321592330932617,225.16079711914062,-39.900001525878906,-28.350000381469727,-3.450000047683716
2.613,30.68408966064453,11.91354751586914,-10.15141487121582,-167.6049041748047,-13.056661605834961,175.865234375,-39.75,-30.150001525878906,-3.9000000953674316
2.62,11.798625946044922,15.054739952087402,-8.35097599029541,-165.3399658203125,9.192955017089844,132.0321502685547,-39.75,-30.150001525878906,-3.9000000953674316
2.63,0.9959878921508789,21.75850486755371,-8.580819129943848,-145.2220458984375,14.522205352783203,107.78407287597656,-39.75,-30.150001525878906,-3.9000000953674316
2.64,-7.2783732414245605,30.60747528076172,-4.137180328369141,-136.29556274414062,28.111791610717773,72.0781021118164,-38.55000305175781,-31.200000762939453,-6.150000095367432
2.65,-10.457873344421387,38.69029998779297,2.0685901641845703,-120.97396087646484,27.045940399169922,21.050535202026367,-39.0,-32.400001525878906,-6.150000095367432
2.669,-6.665457725524902,43.70854568481445,11.30063247680664,-81.67074584960938,5.8621745109558105,-10.791729927062988,-38.25,-32.85000228881836,-4.350000381469727
2.673,-3.179499864578247,48.343719482421875,9.346963882446289,-24.11485481262207,10.258805274963379,-53.026031494140625,-38.25,-32.85000228881836,-4.350000381469727
2.68,-2.145204782485962,46.658203125,2.4133553504943848,13.056661605834961,10.525267601013184,-84.06890869140625,-38.25,-32.85000228881836,-4.350000381469727
2.69,-3.907337188720703,44.16823196411133,-0.5746083855628967,78.60643005371094,3.7304747104644775,-108.71669006347656,-38.25,-30.450000762939453,-3.9000000953674316
2.7,-2.8347349166870117,39.80120849609375,1.072602391242981,128.96783447265625,-14.12251091003418,-140.95864868164062,-39.0,-30.900001525878906,-3.6000001430511475
2.71,2.5282769203186035,35.5874137878418,3.332728862762451,167.47166442871094,-21.84992218017578,-168.27105712890625,-39.75,-30.450000762939453,-5.400000095367432
2.73,10.5344877243042,30.032865524291992,7.163451671600342,203.44410705566406,-43.69984436035156,-190.78712463378906,-39.45000076293945,-29.850000381469727,-4.5
2.734,21.0689754486084,19.766529083251953,7.4316020011901855,268.32769775390625,-81.8039779663086,-214.3690643310547,-38.70000076293945,-28.350000381469727,-5.700000286102295
2.74,36.27694320678711,-4.596867084503174,1.4173674583435059,289.37823486328125,-79.13935852050781,-233.82081604003906,-38.70000076293945,-28.350000381469727,-5.700000286102295
2.75,44.24484634399414,-18.77054214477539,-2.298433542251587,301.76873779296875,-73.27718353271484,-268.32769775390625,-40.05000305175781,-30.450000762939453,-5.850000381469727
2.76,58.07375717163086,-40.567352294921875,-10.994174003601074,298.4379577636719,-59.95405578613281,-328.1485290527344,-39.900001525878906,-29.100000381469727,-3.750000238418579
2.77,73.0901870727539,-60.60203170776367,-18.195932388305664,282.7166748046875,-44.76569747924805,-368.117919921875,-42.0,-25.80000114440918,-4.350000381469727
2.789,91.86073303222656,-73.7031021118164,-25.550920486450195,241.814697265625,-23.315465927124023,-414.882080078125,-42.0,-25.80000114440918,-4.350000381469727
2.793,111.51233673095703,-77.03583526611328,-29.15180015563965,181.06124877929688,-8.127105712890625,-451.6539001464844,-40.95000076293945,-25.200000762939453,-4.200000286102295
2.8,133.15591430664062,-71.63451385498047,-31.90991973876953,158.545166015625,-16.65390396118164,-464.1776428222656,-40.95000076293945,-25.200000762939453,-4.200000286102295
2.81,138.71046447753906,-60.563724517822266,-31.641769409179688,143.62327575683594,-28.111791610717773,-464.7105712890625,-43.650001525878906,-20.25,-4.5
2.82,140.28106689453125,-47.922340393066406,-36.50678634643555,171.06890869140625,-48.8958625793457,-452.5865173339844,-43.650001525878906,-20.25,-4.5
2.83,138.2507781982422,-39.456443786621094,-43.3637809753418,222.4961700439453,-52.75957107543945,-474.16998291015625,-43.650001525878906,-20.25,-4.5
2.85,139.82138061523438,-38.65199279785156,-46.658203125,279.5191345214844,-69.4134750366211,-490.29095458984375,-43.05000305175781,-13.800000190734863,-2.1000001430511475
2.853,147.2146759033203,-39.72459411621094,-45.31745147705078,310.69525146484375,-67.94792938232422,-536.3889770507812,-43.80000305175781,-14.250000953674316,-3.9000000953674316
2.86,156.17855834960938,-40.260894775390625,-39.226600646972656,309.49615478515625,-79.40581512451172,-537.5880737304688,-43.20000076293945,-11.40000057220459,-3.450000047683716
2.87,162.11618041992188,-37.234622955322266,-35.47249221801758,306.4318542480469,-98.72434997558594,-520.534423828125,-43.20000076293945,-11.40000057220459,-3.450000047683716
2.88,164.7210693359375,-31.182083129882812,-31.60346221923828,289.9111633300781,-111.24808502197266,-507.7442321777344,-42.75,-5.700000286102295,-4.350000381469727
2.89,159.1282196044922,-24.095245361328125,-30.339323043823242,263.3981628417969,-103.7871322631836,-469.3736572265625,-42.30000305175781,-7.200000286102295,-6.150000095367432
2.91,151.65830993652344,-17.161638259887695,-32.676063537597656,248.87594604492188,-107.25114440917969,-462.8453063964844,-42.45000076293945,-4.350000381469727,-5.700000286102295
2.914,141.04721069335938,-13.254301071166992,-32.292991638183594,235.4196014404297,-90.4640121459961,-425.27410888671875,-40.95000076293945,-2.1000001430511475,-7.050000190734863
2.92,127.79290771484375,-11.224017143249512,-29.95625114440918,239.28330993652344,-90.86370086669922,-400.0934143066406,-40.95000076293945,-2.1000001430511475,-7.050000190734863
2.93,120.16976928710938,-10.802638053894043,-28.347347259521484,233.28790283203125,-77.67381286621094,-403.5574035644531,-40.650001525878906,0.45000001788139343,-7.500000476837158
2.94,114.46199798583984,-9.959878921508789,-24.210166931152344,247.01071166992188,-70.07962799072266,-366.252685546875,-39.75,1.8000000715255737,-9.450000762939453
2.95,110.51634979248047,-9.576807022094727,-18.34916114807129,238.6171417236328,-64.21745300292969,-357.5926513671875,-39.75,1.8000000715255737,-9.15000057220459
2.969,108.2945327758789,-8.887276649475098,-12.871228218078613,219.9647674560547,-53.026031494140625,-335.8759460449219,-40.20000076293945,4.050000190734863,-10.800000190734863
2.973,105.11502838134766,-9.117119789123535,-11.990161895751953,206.90811157226562,-44.76569747924805,-310.56201171875,-40.20000076293945,4.050000190734863,-10.800000190734863
2.98,99.36894989013672,-11.262324333190918,-2.9496564865112305,197.71514892578125,-62.8851432800293,-280.4517517089844,-37.95000076293945,5.100000381469727,-12.600000381469727
2.99,97.98988342285156,-11.568782806396484,2.3367409706115723,190.1209716796875,-83.13629150390625,-265.2633972167969,-37.650001525878906,6.300000190734863,-11.850000381469727
3.0,89.94536590576172,-16.318878173828125,3.869029998779297,176.13169860839844,-90.33078002929688,-248.2097930908203,-36.0,6.900000095367432,-13.950000762939453
3.01,74.81401824951172,-19.919757843017578,0.9193734526634216,162.6753387451172,-101.78866577148438,-218.36599731445312,-36.900001525878906,8.25,-14.40000057220459
3.03,58.49513626098633,-20.724210739135742,5.4013190269470215,128.03521728515625,-101.65543365478516,-177.5972442626953,-36.900001525878906,8.25,-14.40000057220459
3.034,41.02703857421875,-23.367408752441406,7.967903137207031,73.81010437011719,-87.53292083740234,-141.75804138183594,-36.30000305175781,8.850000381469727,-15.750000953674316
3.04,17.00840950012207,-26.470293045043945,4.022258758544922,62.8851432800293,-79.9387435913086,-133.6309356689453,-33.150001525878906,7.050000190734863,-14.850000381469727
3.05,5.018246650695801,-29.266721725463867,4.520252704620361,68.08116149902344,-71.14547729492188,-114.44563293457031,-33.75,9.15000057220459,-16.05000114440918
3.06,-9.615114212036133,-38.46045684814453,6.129156112670898,53.558956146240234,-64.75038146972656,-104.32006072998047,-34.20000076293945,7.800000190734863,-17.700000762939453
3.07,-20.187908172607422,-48.07556915283203,9.002198219299316,16.78713607788086,-57.422664642333984,-121.90658569335938,-34.20000076293945,7.800000190734863,-17.700000762939453
3.089,-21.835119247436523,-51.40829849243164,10.036493301391602,-3.3307809829711914,-81.40428924560547,-101.65543365478516,-34.05000305175781,11.100000381469727,-16.5
3.093,-20.992361068725586,-47.57757568359375,8.810662269592285,-27.978559494018555,-97.92495727539062,-63.684532165527344,-33.45000076293945,10.200000762939453,-18.150001525878906
3.1,-15.667655944824219,-34.66804122924805,6.703764915466309,-54.35834503173828,-77.14088439941406,-54.75803756713867,-31.650001525878906,9.450000762939453,-17.700000762939453
3.11,-22.17988395690918,-27.925968170166016,17.468095779418945,-63.81776428222656,-61.28636932373047,-11.324655532836914,-31.950000762939453,10.200000762939453,-18.150001525878906
3.12,-4.788403511047363,-26.623523712158203,12.29662036895752,-65.15007781982422,-26.113323211669922,27.17917251586914,-31.950000762939453,10.200000762939453,-18.150001525878906
3.13,7.6997528076171875,-29.190107345581055,5.171475887298584,-72.74425506591797,11.857580184936523,82.7365951538086,-33.45000076293945,8.25,-19.650001525878906
3.15,19.843143463134766,-30.952239990234375,-4.903325080871582,-90.19754791259766,52.75957107543945,96.8591079711914,-32.55000305175781,9.15000057220459,-17.55000114440918
3.153,33.365596771240234,-33.097442626953125,-12.679692268371582,-91.92955017089844,87.9326171875,130.43338012695312,-32.400001525878906,9.450000762939453,-15.90000057220459
3.16,50.71876907348633,-28.998571395874023,-16.778566360473633,-80.60489654541016,91.3966293334961,148.55282592773438,-31.950000762939453,10.5,-16.650001525878906
3.17,66.65457153320312,-28.07919692993164,-17.31486701965332,-85.26799011230469,110.04900360107422,163.4747314453125,-31.950000762939453,10.5,-16.650001525878906
3.18,88.79615020751953,-27.925968170166016,-15.322891235351562,-90.73047637939453,124.97090148925781,193.45175170898438,-33.0,9.600000381469727,-16.05000114440918
3.19,113.00631713867188,-27.006595611572266,-12.258312225341797,-106.58499145507812,115.37825012207031,211.70443725585938,-33.30000305175781,8.850000381469727,-16.80000114440918
3.21,130.4361114501953,-32.21637725830078,-24.286781311035156,-129.50076293945312,120.84072875976562,261.9326171875,-33.30000305175781,8.850000381469727,-14.700000762939453
3.214,121.28067779541016,-34.51481246948242,-34.82126998901367,-168.67074584960938,122.9724349975586,310.42877197265625,-34.20000076293945,7.800000190734863,-14.40000057220459
3.22,122.6214370727539,-43.478702545166016,-48.68848419189453,-195.1837615966797,134.96324157714844,324.2848205566406,-34.20000076293945,7.800000190734863,-14.40000057220459
3.23,126.87353515625,-44.97268295288086,-49.60786056518555,-220.36447143554688,138.2940216064453,345.73504638671875,-35.70000076293945,4.800000190734863,-12.600000381469727
3.24,139.51492309570312,-43.74685287475586,-47.309425354003906,-259.8009033203125,143.09034729003906,370.2496032714844,-37.5,4.5,-12.0
3.25,150.77725219726562,-38.03907775878906,-41.83149337768555,-294.8407287597656,129.36753845214844,407.28790283203125,-37.20000076293945,3.1500000953674316,-13.65000057220459
3.27,155.94871520996094,-31.22039031982422,-38.80522155761719,-298.1715087890625,110.18223571777344,444.8591003417969,-37.95000076293945,2.1000001430511475,-10.050000190734863
3.274,156.02532958984375,-25.435998916625977,-39.26490783691406,-308.0306091308594,105.78560638427734,470.43951416015625,-37.95000076293945,2.1000001430511475,-10.050000190734863
3.28,157.94070434570312,-17.889474868774414,-41.25688552856445,-291.9096374511719,97.25880432128906,480.83154296875,-40.650001525878906,-0.9000000357627869,-9.300000190734863
3.29,161.00527954101562,-13.445837020874023,-40.18428039550781,-258.7350769042969,81.13782501220703,514.2725830078125,-40.650001525878906,-1.350000023841858,-7.500000476837158
3.3,160.3540496826172,-8.810662269592285,-38.57537841796875,-228.0918731689453,76.87442779541016,524.1317138671875,-40.80000305175781,-3.450000047683716,-6.150000095367432
3.31,154.2248992919922,-11.185709953308105,-40.03105163574219,-204.37672424316406,86.73353576660156,548.3797607421875,-42.45000076293945,-5.100000381469727,-7.800000190734863
3.33,145.8356170654297,-14.480132102966309,-39.226600646972656,-170.8024444580078,90.06431579589844,571.0291137695312,-42.45000076293945,-5.100000381469727,-7.800000190734863
3.334,139.93629455566406,-21.56696891784668,-37.19631576538086,-153.34915161132812,89.26493072509766,574.2266235351562,-41.55000305175781,-9.600000381469727,-6.600000381469727
3.34,133.61561584472656,-29.573179244995117,-33.51882553100586,-154.9479217529297,87.0,581.0214233398438,-41.400001525878906,-12.450000762939453,-6.300000190734863
3.35,130.8957977294922,-32.44622039794922,-28.462270736694336,-177.86370849609375,92.3292465209961,568.231201171875,-41.55000305175781,-13.800000190734863,-5.100000381469727
3.36,124.72833251953125,-39.4947509765625,-25.244462966918945,-188.78866577148438,83.13629150390625,571.56201171875,-43.05000305175781,-17.400001525878906,-5.100000381469727
3.37,115.4579849243164,-43.44039535522461,-24.516624450683594,-211.0382843017578,103.38744354248047,545.1822509765625,-43.05000305175781,-17.400001525878906,-5.100000381469727
3.39,107.49008178710938,-45.85375213623047,-25.474306106567383,-243.94639587402344,115.2450180053711,504.679931640625,-41.55000305175781,-21.600000381469727,-3.6000001430511475
3.394,97.87496185302734,-47.884033203125,-24.401702880859375,-293.5084228515625,107.51760864257812,447.1240234375,-40.95000076293945,-22.200000762939453,-4.200000286102295
3.401,88.41307830810547,-41.37180709838867,-22.2948055267334,-315.8912658691406,111.38131713867188,419.1454772949219,-40.95000076293945,-24.150001525878906,-4.200000286102295
3.41,83.62467956542969,-31.90991973876953,-20.685903549194336,-314.42572021484375,88.99846649169922,396.8958435058594,-41.400001525878906,-24.900001525878906,-4.200000286102295
3.42,76.07815551757812,-15.782577514648438,-16.35718536376953,-320.6875915527344,70.74578857421875,338.6737976074219,-41.400001525878906,-24.900001525878906,-4.200000286102295
3.43,65.62027740478516,0.1149216815829277,-10.5344877243042,-317.6232604980469,18.385910034179688,297.6385803222656,-41.400001525878906,-24.900001525878906,-4.200000286102295
3.45,49.531246185302734,12.334927558898926,-6.933608055114746,-323.4854431152344,-9.059723854064941,270.326171875,-40.05000305175781,-30.150001525878906,-5.100000381469727
3.454,33.05913543701172,22.103269577026367,-3.485957622528076,-328.2817687988281,-30.509952545166016,224.8943328857422,-38.70000076293945,-31.05000114440918,-6.0
3.46,12.449849128723145,37.08139419555664,-2.8347349166870117,-321.6202087402344,-40.76875686645508,197.58192443847656,-38.70000076293945,-31.05000114440918,-6.0
3.47,6.090848922729492,44.0150032043457,-2.75812029838562,-267.2618713378906,-63.018375396728516,167.0719757080078,-38.70000076293945,-31.05000114440918,-6.0
3.48,1.072602391242981,58.418521881103516,-5.363011837005615,-195.1837615966797,-82.86982727050781,139.49310302734375,-38.70000076293945,-31.05000114440918,-6.0
3.49,-0.9193734526634216,66.42472839355469,-2.298433542251587,-133.23123168945312,-98.72434997558594,93.2618637084961,-38.70000076293945,-32.55000305175781,-8.25
3.51,-1.1109095811843872,63.24523162841797,2.6431987285614014,-59.287899017333984,-118.70903015136719,48.49617004394531,-37.80000305175781,-33.150001525878906,-9.450000762939453
3.514,-6.167463779449463,49.76108932495117,1.2258312702178955,-13.323123931884766,-103.92036437988281,5.462480545043945,-37.80000305175781,-33.150001525878906,-9.90000057220459
3.52,-8.35097599029541,37.34954833984375,0.19153612852096558,3.3307809829711914,-99.25727081298828,-11.724349021911621,-37.80000305175781,-33.150001525878906,-9.90000057220459
3.53,-5.861005783081055,32.790985107421875,4.558559894561768,28.77794647216797,-94.59417724609375,-25.18070411682129,-37.80000305175781,-33.150001525878906,-9.90000057220459
3.54,-0.38307225704193115,31.22039031982422,7.7763671875,72.34455871582031,-98.32465362548828,-51.960182189941406,-37.650001525878906,-33.75,-9.300000190734863
3.55,3.869029998779297,26.355371475219727,8.810662269592285,111.24808502197266,-97.92495727539062,-83.5359878540039,-38.70000076293945,-32.55000305175781,-9.300000190734863
3.57,12.48815631866455,11.645397186279297,5.631162166595459,149.48544311523438,-83.13629150390625,-120.84072875976562,-38.400001525878906,-30.600000381469727,-11.100000381469727
3.573,19.421764373779297,-7.738059997558594,-3.2178070545196533,198.51454162597656,-65.15007781982422,-165.07350158691406,-37.80000305175781,-31.200000762939453,-10.200000762939453
3.58,26.929981231689453,-32.484527587890625,-15.705963134765625,213.16998291015625,-53.29249572753906,-188.92189025878906,-37.80000305175781,-31.200000762939453,-10.200000762939453
3.591,34.476505279541016,-42.32948684692383,-22.103269577026367,217.69984436035156,-9.992342948913574,-221.29708862304688,-38.25,-31.950000762939453,-9.90000057220459
3.6,46.96466064453125,-51.1784553527832,-30.875625610351562,223.9617156982422,9.592649459838867,-266.46246337890625,-38.25,-31.200000762939453,-10.65000057220459
3.61,61.48310089111328,-54.281341552734375,-35.97048568725586,235.28636169433594,27.045940399169922,-290.0444030761719,-38.400001525878906,-29.850000381469727,-10.050000190734863
3.63,79.79395294189453,-54.35795593261719,-33.365596771240234,244.21286010742188,33.70750427246094,-333.61102294921875,-38.55000305175781,-29.250001907348633,-9.90000057220459
3.634,100.36493682861328,-62.172630310058594,-32.063148498535156,245.67840576171875,46.231239318847656,-378.7763977050781,-41.55000305175781,-26.250001907348633,-10.200000762939453
3.64,121.35729217529297,-69.68084716796875,-30.875625610351562,236.21897888183594,45.298622131347656,-380.241943359375,-41.55000305175781,-26.250001907348633,-10.200000762939453
3.65,129.28689575195312,-72.78372955322266,-30.454246520996094,234.22052001953125,30.643184661865234,-414.3491516113281,-41.55000305175781,-25.500001907348633,-8.40000057220459
3.66,133.99868774414062,-80.36856079101562,-37.387855529785156,226.2266387939453,39.43644714355469,-440.9953918457031,-41.70000076293945,-23.25,-8.25
3.67,135.91404724121094,-78.87458038330078,-44.85776138305664,214.23582458496094,35.306278228759766,-483.3629150390625,-40.95000076293945,-21.0,-8.550000190734863
3.689,137.06326293945312,-71.44297790527344,-47.38603973388672,218.36599731445312,15.721285820007324,-500.2832946777344,-40.95000076293945,-21.0,-8.550000190734863
3.693,136.8334197998047,-60.1806526184082,-48.26710510253906,226.7595672607422,16.25421142578125,-536.6553955078125,-42.900001525878906,-15.90000057220459,-8.25
3.7,142.1581268310547,-42.061336517333984,-43.3637809753418,249.80856323242188,1.5987749099731445,-552.9096069335938,-42.900001525878906,-15.90000057220459,-8.25
3.71,150.0111083984375,-30.99054718017578,-35.395877838134766,275.2557373046875,-15.588054656982422,-534.9234008789062,-41.400001525878906,-12.90000057220459,-8.25
3.72,160.04759216308594,-19.958065032958984,-30.722396850585938,307.63092041015625,-30.110260009765625,-503.2143859863281,-41.400001525878906,-12.90000057220459,-8.25
3.73,165.0658416748047,-11.91354751586914,-26.85336685180664,307.89739990234375,-39.70290756225586,-466.8422546386719,-41.400001525878906,-12.90000057220459,-8.25
3.75,159.77944946289062,-16.58702850341797,-22.256498336791992,316.29095458984375,-60.08728790283203,-434.86676025390625,-40.95000076293945,-5.550000190734863,-9.0
3.753,143.84364318847656,-27.542896270751953,-30.645782470703125,317.49005126953125,-54.35834503173828,-409.9525146484375,-42.45000076293945,-6.300000190734863,-10.050000190734863
3.76,116.10920715332031,-39.149986267089844,-35.93217849731445,315.0918884277344,-53.82542037963867,-410.08575439453125,-42.30000305175781,-3.750000238418579,-12.450000762939453
3.77,108.869140625,-40.873809814453125,-32.10145568847656,284.5819091796875,-42.500762939453125,-422.20977783203125,-42.30000305175781,-3.750000238418579,-12.450000762939453
3.78,103.73596954345703,-36.736629486083984,-23.13756561279297,255.40428161621094,-49.29555892944336,-411.8177490234375,-40.80000305175781,-2.25,-11.40000057220459
3.79,103.88919830322266,-30.68408966064453,-11.683704376220703,227.42572021484375,-75.94180297851562,-397.42877197265625,-38.55000305175781,0.30000001192092896,-12.450000762939453
3.81,105.4214859008789,-25.81907081604004,-1.37906014919281,195.1837615966797,-94.32771301269531,-396.76263427734375,-39.45000076293945,-0.15000000596046448,-13.65000057220459
3.814,106.57070922851562,-20.41775131225586,4.941632270812988,164.80703735351562,-111.24808502197266,-363.05511474609375,-39.150001525878906,3.1500000953674316,-15.600000381469727
3.82,98.52619171142578,-17.851167678833008,-0.5746083855628967,138.16079711914062,-114.57886505126953,-368.5176086425781,-39.150001525878906,3.1500000953674316,-15.600000381469727
3.83,88.94937896728516,-20.532672882080078,-3.294421434402466,109.78253936767578,-109.64930725097656,-342.6707458496094,-36.30000305175781,4.5,-15.750000953674316
3.84,70.75344848632812,-18.808849334716797,-5.324704647064209,73.67687225341797,-86.46707153320312,-336.40887451171875,-34.80000305175781,5.400000095367432,-16.05000114440918
3.85,52.32767105102539,-19.574993133544922,-4.941632270812988,38.90352249145508,-66.08269500732422,-304.1669006347656,-34.650001525878906,5.850000381469727,-18.150001525878906
3.869,33.288978576660156,-22.218191146850586,-1.1875240802764893,18.119447708129883,-57.689125061035156,-271.5252685546875,-34.5,6.450000286102295,-18.0
3.873,17.238252639770508,-21.98834800720215,1.5705963373184204,2.9310872554779053,-57.02296829223633,-248.2097930908203,-34.5,6.450000286102295,-18.0
3.88,3.179499864578247,-22.2948055267334,8.65743350982666,-6.661561965942383,-75.8085708618164,-230.4900360107422,-33.75,9.15000057220459,-17.55000114440918
3.89,-1.8770540952682495,-20.30282974243164,12.22000503540039,14.255742073059082,-113.91270446777344,-211.70443725585938,-31.05000114440918,9.600000381469727,-17.55000114440918
3.9,-6.435614109039307,-18.655620574951172,17.1999454498291,35.03981399536133,-142.82388305664062,-199.98008728027344,-31.200000762939453,9.75,-19.200000762939453
3.91,-11.070788383483887,-20.41775131225586,17.659631729125977,44.36600112915039,-143.3568115234375,-191.9862060546875,-32.55000305175781,11.550000190734863,-20.100000381469727
3.93,-14.36521053314209,-24.89969825744629,14.480132102966309,57.822357177734375,-129.50076293945312,-181.19448852539062,-32.55000305175781,11.550000190734863,-20.100000381469727
3.933,-10.15141487121582,-31.7183837890625,12.258312225341797,55.4241943359375,-108.3169937133789,-163.34149169921875,-31.05000114440918,12.750000953674316,-20.100000381469727
3.94,0.727837324142456,-39.91613006591797,11.798625946044922,50.22817611694336,-95.9264907836914,-149.48544311523438,-29.55000114440918,11.550000190734863,-20.55000114440918
3.95,6.473921298980713,-44.05331039428711,11.836933135986328,39.16998291015625,-77.14088439941406,-123.37212371826172,-28.950000762939453,12.15000057220459,-21.150001525878906
3.96,18.502389907836914,-46.84973907470703,9.385271072387695,27.045940399169922,-73.41041564941406,-90.99693298339844,-28.650001525878906,12.90000057220459,-21.150001525878906
3.97,31.29700469970703,-46.0452880859375,4.022258758544922,-1.4655436277389526,-45.43185043334961,-50.09494400024414,-28.650001525878906,12.90000057220459,-21.150001525878906
3.989,43.55531692504883,-41.946414947509766,-3.064578056335449,-47.56355285644531,-4.396630764007568,-5.995405673980713,-28.650001525878906,12.90000057220459,-21.150001525878906
3.993,51.29337692260742,-34.782962799072266,-12.986149787902832,-86.86676788330078,36.5053596496582,69.54670715332031,-28.05000114440918,12.300000190734863,-22.05000114440918
4.0,66.80780792236328,-28.270732879638672,-16.510414123535156,-94.59417724609375,57.55589294433594,111.5145492553711,-27.750001907348633,13.500000953674316,-21.600000381469727
4.01,78.4148941040039,-27.542896270751953,-18.464082717895508,-95.9264907836914,83.66921997070312,124.57120513916016,-29.250001907348633,13.050000190734863,-20.850000381469727
4.02,100.28832244873047,-29.34333610534668,-21.87342643737793,-84.4686050415039,104.7197494506836,153.34915161132812,-29.250001907348633,13.050000190734863,-20.850000381469727
4.03,107.0687026977539,-30.645782470703125,-28.768728256225586,-77.14088439941406,111.5145492553711,195.1837615966797,-29.250001907348633,13.050000190734863,-20.850000381469727
4.05,112.62324523925781,-31.871612548828125,-37.57939147949219,-96.8591079711914,129.90045166015625,245.4119415283203,-27.30000114440918,11.850000381469727,-20.55000114440918
4.053,123.196044921875,-36.8515510559082,-47.309425354003906,-155.48085021972656,155.34762573242188,287.9126892089844,-30.30000114440918,11.550000190734863,-19.05000114440918
4.06,144.49485778808594,-43.93838882446289,-51.063533782958984,-192.7855987548828,154.9479217529297,338.4073486328125,-31.950000762939453,10.200000762939453,-18.450000762939453
4.07,152.42445373535156,-45.470680236816406,-50.18246841430664,-238.6171417236328,144.2894287109375,362.38897705078125,-30.150001525878906,11.700000762939453,-16.350000381469727
4.08,157.02133178710938,-43.172245025634766,-44.43638229370117,-300.16998291015625,132.56507873535156,390.10107421875,-30.150001525878906,11.700000762939453,-16.350000381469727
4.09,161.5798797607422,-35.702335357666016,-39.762901306152344,-342.27105712890625,115.64471435546875,425.6737976074219,-33.0,9.600000381469727,-15.750000953674316
4.11,167.21104431152344,-29.190107345581055,-37.617698669433594,-367.4517517089844,90.73047637939453,451.1209716796875,-34.20000076293945,7.500000476837158,-15.15000057220459
4.114,167.70904541015625,-20.95405387878418,-36.430171966552734,-382.107177734375,71.01225280761719,485.8943176269531,-36.900001525878906,6.750000476837158,-13.050000190734863
4.12,165.29568481445312,-10.955866813659668,-33.71036148071289,-374.3797912597656,56.22358322143555,492.6891174316406,-35.70000076293945,5.100000381469727,-13.65000057220459
4.13,161.61819458007812,-6.167463779449463,-33.51882553100586,-339.8728942871094,35.839202880859375,525.3307495117188,-35.70000076293945,5.100000381469727,-13.65000057220459
4.14,154.72288513183594,1.1109095811843872,-34.70634841918945,-306.83154296875,33.84073257446289,543.7166748046875,-37.650001525878906,2.8500001430511475,-11.100000381469727
4.15,148.13404846191406,4.175487995147705,-34.82126998901367,-269.52679443359375,67.14854431152344,551.1776123046875,-37.95000076293945,1.6500000953674316,-10.350000381469727
4.169,140.97059631347656,5.056553840637207,-31.90991973876953,-222.36293029785156,81.8039779663086,559.5712280273438,-39.30000305175781,-0.75,-8.40000057220459
4.173,134.3817596435547,0.8810662031173706,-31.90991973876953,-176.39816284179688,93.39509582519531,567.1654052734375,-38.400001525878906,-2.1000001430511475,-8.25
4.18,125.76262664794922,-6.856993675231934,-30.530860900878906,-153.61561584472656,87.0,556.9065551757812,-38.400001525878906,-2.1000001430511475,-8.25
4.19,119.40362548828125,-10.917559623718262,-29.879636764526367,-143.2235870361328,94.9938735961914,525.0643310546875,-40.05000305175781,-6.900000095367432,-8.40000057220459
4.2,111.55064392089844,-15.591041564941406,-29.075185775756836,-128.96783447265625,82.86982727050781,491.7565002441406,-39.900001525878906,-7.800000190734863,-7.500000476837158
4.21,104.42549896240234,-21.298818588256836,-28.768728256225586,-144.02296447753906,79.40581512451172,469.5068664550781,-40.5,-10.050000190734863,-7.650000095367432
4.23,97.91326904296875,-23.63555908203125,-26.470293045043945,-185.19142150878906,83.66921997070312,422.6094970703125,-39.900001525878906,-11.700000762939453,-6.300000190734863
4.233,87.99169921875,-23.3291015625,-22.026655197143555,-230.4900360107422,75.8085708618164,372.3813171386719,-39.900001525878906,-11.700000762939453,-6.300000190734863
4.24,73.51156616210938,-15.437812805175781,-16.66364288330078,-241.814697265625,56.756507873535156,352.2633972167969,-40.650001525878906,-14.100000381469727,-6.750000476837158
4.25,63.51338195800781,-5.822698593139648,-14.824896812438965,-260.2005920410156,38.37059783935547,314.0260314941406,-41.400001525878906,-16.80000114440918,-6.300000190734863
4.26,48.26710510253906,6.818686485290527,-13.369222640991211,-263.7978515625,21.983154296875,272.7243347167969,-41.400001525878906,-17.100000381469727,-6.300000190734863
4.27,29.611486434936523,23.52063751220703,-10.342951774597168,-249.5421142578125,6.261868000030518,247.94332885742188,-41.25,-18.150001525878906,-6.150000095367432
4.289,10.84094524383545,35.089420318603516,-7.163451671600342,-210.2388916015625,-15.055130004882812,221.16384887695312,-41.25,-18.150001525878906,-6.150000095367432
4.293,-4.32871675491333,42.980709075927734,-0.689530074596405,-171.3353729248047,-3.197549819946289,186.25726318359375,-41.25,-19.200000762939453,-6.150000095367432
4.3,-9.730035781860352,45.777137756347656,9.117119789123535,-146.82083129882812,-3.197549819946289,158.545166015625,-39.900001525878906,-19.5,-7.050000190734863
4.31,-8.772355079650879,43.74685287475586,9.53849983215332,-115.37825012207031,-10.92496109008789,133.76416015625,-41.70000076293945,-19.80000114440918,-6.300000190734863
4.32,-3.6774938106536865,40.33750915527344,9.806650161743164,-82.20367431640625,-12.923430442810059,109.38284301757812,-40.20000076293945,-20.25,-6.750000476837158
4.33,1.4939818382263184,35.510799407958984,4.290409564971924,-57.55589294433594,-0.2664624750614166,63.28483963012695,-40.20000076293945,-20.25,-6.750000476837158
4.35,4.022258758544922,33.05913543701172,-1.4173674583435059,-21.183767318725586,-10.525267601013184,33.4410400390625,-39.75,-21.900001525878906,-6.150000095367432
4.354,3.2178070545196533,28.61549949645996,1.4939818382263184,17.986217498779297,-22.649311065673828,-17.719755172729492,-40.80000305175781,-21.900001525878906,-7.650000095367432
4.36,3.8307228088378906,26.738445281982422,1.37906014919281,38.90352249145508,-27.045940399169922,-33.84073257446289,-40.80000305175781,-21.900001525878906,-7.650000095367432
4.37,6.856993675231934,24.36339569091797,-0.9576807022094727,83.26952362060547,-35.57273864746094,-54.62480926513672,-39.75,-21.600000381469727,-8.40000057220459
4.38,11.645397186279297,17.966089248657227,-3.332728862762451,128.3016815185547,-36.372127532958984,-80.60489654541016,-39.75,-21.600000381469727,-8.40000057220459
4.39,22.48634147644043,7.738059997558594,-4.941632270812988,182.7932586669922,-41.967838287353516,-121.64012145996094,-38.70000076293945,-20.25,-7.050000190734863
4.5,149.74295043945312,-47.884033203125,-36.88985824584961,252.4731903076172,-65.68299865722656,-397.42877197265625,-39.150001525878906,-14.100000381469727,-9.75
4.51,153.1522979736328,-45.96867370605469,-35.74064254760742,268.1944885253906,-71.67840576171875,-415.1485290527344,-37.05000305175781,-13.500000953674316,-8.40000057220459
4.53,152.00308227539062,-43.01901626586914,-34.3998908996582,285.2480773925781,-91.13016510009766,-415.5482177734375,-38.400001525878906,-11.40000057220459,-9.0
4.534,150.16433715820312,-36.88985824584961,-32.71437072753906,283.78253173828125,-89.5313949584961,-424.8744201660156,-38.25,-9.15000057220459,-10.200000762939453
4.54,145.14608764648438,-27.88766098022461,-26.470293045043945,278.320068359375,-91.3966293334961,-412.6171569824219,-38.25,-9.15000057220459,-10.200000762939453
4.55,142.46458435058594,-23.13756561279297,-25.39769172668457,272.32464599609375,-90.99693298339844,-382.107177734375,-37.20000076293945,-8.25,-10.800000190734863
4.56,133.23252868652344,-19.766529083251953,-26.240449905395508,274.45635986328125,-85.00152587890625,-345.2021484375,-37.5,-7.650000095367432,-10.950000762939453
4.57,123.65573120117188,-21.413740158081055,-26.43198585510254,276.05511474609375,-65.949462890625,-338.6737976074219,-35.70000076293945,-5.100000381469727,-11.100000381469727
4.589,114.50030517578125,-22.37141990661621,-22.984336853027344,273.25726318359375,-57.55589294433594,-311.2281799316406,-35.70000076293945,-5.100000381469727,-11.100000381469727
4.593,107.0687026977539,-23.865402221679688,-17.468095779418945,257.26953125,-48.49617004394531,-314.8254089355469,-35.400001525878906,-3.6000001430511475,-14.100000381469727
4.6,103.88919830322266,-26.12552833557129,-7.8529815673828125,259.4012145996094,-58.754974365234375,-317.3568115234375,-35.400001525878906,-3.6000001430511475,-14.100000381469727
4.61,104.04242706298828,-27.811046600341797,0.26815059781074524,221.03062438964844,-72.21133422851562,-322.4195861816406,-34.05000305175781,-1.8000000715255737,-14.250000953674316
4.62,99.63710021972656,-28.960264205932617,6.435614109039307,180.66156005859375,-89.13169860839844,-305.6324462890625,-34.05000305175781,-1.8000000715255737,-14.250000953674316
4.63,94.23577880859375,-28.38565444946289,4.558559894561768,149.21897888183594,-99.12403869628906,-291.50994873046875,-34.05000305175781,-1.8000000715255737,-14.250000953674316
4.65,83.96944427490234,-28.8453426361084,0.07661445438861847,96.19295501708984,-92.19601440429688,-280.5849914550781,-33.75,-37.650001525878906,-13.65000057220459
4.653,73.664794921875,-30.14778709411621,1.9153614044189453,50.89433288574219,-88.33231353759766,-268.0612487792969,-33.150001525878906,0.45000001788139343,-15.600000381469727
4.66,55.009178161621094,-32.676063537597656,-0.4596867263317108,38.63705825805664,-86.73353576660156,-250.87442016601562,-34.650001525878906,1.350000023841858,-15.90000057220459
4.67,42.559329986572266,-31.565155029296875,-2.030282974243164,17.186830520629883,-72.0781021118164,-238.2174530029297,-34.650001525878906,1.350000023841858,-15.90000057220459
4.68,25.70414924621582,-26.700138092041016,-3.600879430770874,-6.128636837005615,-50.62786865234375,-215.96783447265625,-32.25,3.450000047683716,-17.25
4.69,10.879252433776855,-22.17988395690918,-0.689530074596405,-23.715160369873047,-44.09954071044922,-182.6600341796875,-31.950000762939453,3.6000001430511475,-17.100000381469727
4.71,-0.9959878921508789,-18.11931800842285,5.631162166595459,-28.378253936767578,-60.88667678833008,-156.28024291992188,-31.650001525878906,3.6000001430511475,-17.100000381469727
4.714,-8.96389102935791,-17.1999454498291,11.990161895751953,-14.522205352783203,-82.6033706665039,-118.97549438476562,-30.30000114440918,4.5,-16.05000114440918
4.72,-15.476119995117188,-20.609289169311523,21.337125778198242,-5.595712184906006,-96.32618713378906,-112.71363067626953,-30.30000114440918,4.5,-16.05000114440918
4.73,-14.480132102966309,-23.252487182617188,19.038692474365234,17.453292846679688,-105.65237426757812,-114.04593658447266,-30.900001525878906,4.800000190734863,-16.650001525878906
4.74,-12.564770698547363,-27.504589080810547,13.982137680053711,18.119447708129883,-86.86676788330078,-106.4517593383789,-31.200000762939453,5.100000381469727,-17.100000381469727
4.75,-4.750096321105957,-31.986534118652344,6.703764915466309,20.517610549926758,-59.55436325073242,-83.5359878540039,-30.30000114440918,5.700000286102295,-17.25
4.769,-10.304644584655762,-36.2386360168457,3.8307228088378906,11.990811347961426,-35.306278228759766,-65.15007781982422,-29.400001525878906,4.800000190734863,-17.700000762939453
4.773,16.931795120239258,-40.260894775390625,-3.7158010005950928,12.124042510986328,1.7320060729980469,-9.459418296813965,-29.400001525878906,4.800000190734863,-17.700000762939453
4.78,39.647979736328125,-40.452430725097656,-12.29662036895752,-4.396630764007568,26.113323211669922,13.989279747009277,-29.400001525878906,5.550000190734863,-18.900001525878906
4.79,54.4345703125,-38.8818359375,-11.185709953308105,-19.185298919677734,57.422664642333984,58.08882141113281,-29.700000762939453,6.750000476837158,-18.900001525878906
4.8,71.28974914550781,-35.74064254760742,-9.921571731567383,-21.983154296875,68.4808578491211,108.3169937133789,-30.000001907348633,4.950000286102295,-16.80000114440918
4.81,80.67501831054688,-29.381643295288086,-10.266336441040039,-12.656967163085938,72.0781021118164,140.02603149414062,-30.450000762939453,4.800000190734863,-16.650001525878906
4.83,99.40725708007812,-42.367794036865234,-13.369222640991211,-29.577335357666016,85.13475799560547,178.26339721679688,-30.450000762939453,4.800000190734863,-16.650001525878906
4.833,96.3809814453125,-48.19049072265625,-19.268535614013672,-46.63093185424805,98.85757446289062,218.36599731445312,-30.30000114440918,3.750000238418579,-18.30000114440918
4.84,99.866943359375,-59.79758071899414,-32.905906677246094,-60.08728790283203,109.24961853027344,245.4119415283203,-31.950000762939453,4.800000190734863,-17.700000762939453
4.85,105.3448715209961,-64.43275451660156,-36.008792877197266,-115.77794647216797,130.96630859375,259.00152587890625,-32.70000076293945,2.1000001430511475,-16.350000381469727
4.86,117.2967300415039,-69.56592559814453,-39.80120849609375,-194.6508331298828,155.88055419921875,298.1715087890625,-31.80000114440918,1.5,-15.000000953674316
4.87,135.7608184814453,-74.00955963134766,-39.30321502685547,-261.3996887207031,155.6140899658203,339.8728942871094,-31.80000114440918,1.5,-15.000000953674316
4.889,151.46678161621094,-69.22116088867188,-33.7869758605957,-334.6768798828125,137.8943328857422,361.5895690917969,-34.05000305175781,0.75,-13.500000953674316
4.893,156.37010192871094,-55.507171630859375,-30.952239990234375,-403.6906433105469,122.83920288085938,416.4808349609375,-34.80000305175781,-0.30000001192092896,-12.0
4.9,157.32778930664062,-37.656005859375,-31.83330535888672,-421.27716064453125,125.10413360595703,427.2725830078125,-34.80000305175781,-0.75,-12.750000953674316
4.91,158.36207580566406,-27.006595611572266,-32.71437072753906,-410.75189208984375,96.19295501708984,462.578857421875,-35.70000076293945,-2.8500001430511475,-13.050000190734863
4.92,162.1544952392578,-10.5344877243042,-29.84132957458496,-376.1117858886719,75.14241790771484,481.4976806640625,-35.70000076293945,-2.8500001430511475,-13.050000190734863
4.93,158.55361938476562,3.4093432426452637,-29.688100814819336,-337.4747314453125,61.01990509033203,493.2220458984375,-37.95000076293945,-3.6000001430511475,-10.350000381469727
4.95,153.8035125732422,7.010222434997559,-32.86759948730469,-275.7886657714844,47.9632453918457,521.8667602539062,-36.30000305175781,-4.950000286102295,-9.450000762939453
4.953,146.25698852539062,4.405331134796143,-36.621707916259766,-197.848388671875,43.03369140625,532.9249267578125,-37.05000305175781,-8.100000381469727,-9.450000762939453
4.96,134.34344482421875,1.9536685943603516,-34.3998908996582,-166.00611877441406,49.16232681274414,518.8024291992188,-36.900001525878906,-9.450000762939453,-7.800000190734863
4.97,129.2102813720703,-0.4213795065879822,-34.66804122924805,-107.78407287597656,59.55436325073242,517.6033325195312,-36.900001525878906,-9.450000762939453,-7.800000190734863
4.98,117.8330307006836,-8.772355079650879,-32.75267791748047,-65.81623077392578,52.3598747253418,501.3491516113281,-37.80000305175781,-12.750000953674316,-9.15000057220459
4.99,106.83885955810547,-18.502389907836914,-28.768728256225586,-60.48698043823242,56.49004364013672,489.22509765625,-38.25,-14.250000953674316,-7.650000095367432
5.01,95.92129516601562,-29.64979362487793,-27.083209991455078,-84.60183715820312,74.34303283691406,442.7274169921875,-37.95000076293945,-15.600000381469727,-8.550000190734863
5.014,85.96141815185547,-39.456443786621094,-22.524648666381836,-124.8376693725586,73.67687225341797,376.64471435546875,-38.400001525878906,-18.30000114440918,-7.500000476837158
5.02,75.9632339477539,-46.54328155517578,-14.748282432556152,-157.34608459472656,70.21286010742188,356.3935546875,-38.400001525878906,-18.30000114440918,-7.500000476837158
5.03,71.90266418457031,-45.470680236816406,-11.185709953308105,-223.56201171875,74.60948944091797,282.3169860839844,-38.25,-20.100000381469727,-7.350000381469727
5.04,66.69288635253906,-35.510799407958984,-6.933608055114746,-272.32464599609375,60.88667678833008,234.4869842529297,-37.80000305175781,-21.150001525878906,-6.150000095367432
5.05,57.805606842041016,-20.992361068725586,-5.439626216888428,-295.6401062011719,57.955589294433594,209.1730499267578,-38.55000305175781,-23.55000114440918,-7.650000095367432
5.07,44.89606857299805,-1.647210717201233,-4.711789131164551,-310.42877197265625,54.4915771484375,175.865234375,-37.20000076293945,-22.950000762939453,-7.050000190734863
5.074,30.109479904174805,16.395492553710938,-7.6997528076171875,-268.1944885253906,57.955589294433594,133.23123168945312,-37.20000076293945,-22.950000762939453,-7.050000190734863
5.08,11.91354751586914,36.50678634643555,-13.867216110229492,-235.68606567382812,53.42572784423828,117.9096450805664,-38.25,-23.100000381469727,-6.600000381469727
5.09,8.044517517089844,44.32146072387695,-14.250288963317871,-182.6600341796875,50.09494400024414,89.39816284179688,-37.80000305175781,-24.750001907348633,-7.350000381469727
5.1,5.20978307723999,50.5272331237793,-9.500192642211914,-119.5084228515625,33.97396469116211,56.356815338134766,-36.30000305175781,-24.30000114440918,-6.150000095367432
5.11,6.358999729156494,54.05149841308594,-2.298433542251587,-75.67534637451172,9.72588062286377,15.721285820007324,-36.75,-23.55000114440918,-6.900000095367432
5.13,3.7158010005950928,48.343719482421875,1.1875240802764893,-17.986217498779297,-13.456355094909668,-4.663093090057373,-36.75,-23.55000114440918,-6.900000095367432
5.134,1.5322890281677246,40.069358825683594,-0.8044517636299133,16.12097930908203,-27.84532928466797,-53.42572784423828,-39.75,-23.100000381469727,-7.650000095367432
5.14,-1.1492167711257935,27.198131561279297,-2.75812029838562,31.575803756713867,-32.24195861816406,-69.54670715332031,-38.55000305175781,-24.30000114440918,-6.600000381469727
5.15,-0.727837324142456,21.720197677612305,-1.0342950820922852,61.01990509033203,-42.633995056152344,-95.52679443359375,-37.650001525878906,-22.5,-7.500000476837158
5.16,2.0685901641845703,21.030668258666992,2.298433542251587,100.9892807006836,-60.62021255493164,-129.6339874267578,-37.95000076293945,-25.200000762939453,-6.750000476837158
5.17,11.224017143249512,16.28057098388672,1.2641384601593018,137.22817993164062,-58.4885139465332,-162.00918579101562,-37.95000076293945,-25.200000762939453,-6.750000476837158
5.19,24.095245361328125,4.098873138427734,-2.6815059185028076,191.0535888671875,-76.74119567871094,-195.84991455078125,-37.650001525878906,-22.5,-8.25
5.193,41.67826461791992,-13.407529830932617,-6.244078159332275,233.55435180664062,-69.4134750366211,-261.2664489746094,-37.80000305175781,-23.55000114440918,-7.350000381469727
5.2,65.81181335449219,-40.22258758544922,-5.899312973022461,245.545166015625,-78.47319793701172,-283.78253173828125,-39.75,-21.600000381469727,-7.650000095367432
5.21,80.10041046142578,-52.97889709472656,-11.109095573425293,231.82235717773438,-74.20980072021484,-337.0750427246094,-39.0,-21.150001525878906,-9.15000057220459
5.22,97.53019714355469,-62.172630310058594,-17.161638259887695,188.2557373046875,-67.28177642822266,-361.7228088378906,-39.0,-21.150001525878906,-9.15000057220459
5.23,112.39340209960938,-65.50535583496094,-27.925968170166016,137.76109313964844,-58.62174606323242,-371.1822204589844,-39.0,-21.150001525878906,-9.15000057220459
5.25,120.9359130859375,-61.866172790527344,-33.82528305053711,96.05972290039062,-40.36906433105469,-384.7718200683594,-39.150001525878906,-18.75,-9.75
5.253,122.96620178222656,-54.472877502441406,-37.00477981567383,87.26646423339844,-54.62480926513672,-363.05511474609375,-39.0,-16.5,-10.200000762939453
5.26,124.61341094970703,-45.85375213623047,-41.98472213745117,111.91423797607422,-61.552833557128906,-365.320068359375,-39.0,-16.5,-10.200000762939453
5.27,128.86550903320312,-43.93838882446289,-43.51700973510742,140.5589599609375,-58.888206481933594,-383.5727233886719,-39.30000305175781,-14.550000190734863,-9.90000057220459
5.28,132.58131408691406,-41.48672866821289,-42.367794036865234,176.13169860839844,-71.14547729492188,-415.68145751953125,-39.30000305175781,-14.550000190734863,-9.90000057220459
5.29,135.10958862304688,-38.15399932861328,-40.49073791503906,205.04287719726562,-82.47013854980469,-430.20367431640625,-37.80000305175781,-11.850000381469727,-10.200000762939453
5.31,137.6378631591797,-33.90189743041992,-38.8818359375,223.69525146484375,-89.39816284179688,-431.5359802246094,-39.75,-10.800000190734863,-12.750000953674316
5.314,142.00489807128906,-25.550920486450195,-36.430171966552734,215.7013702392578,-102.45481872558594,-393.96478271484375,-37.80000305175781,-7.200000286102295,-12.450000762939453
5.32,143.652099609375,-14.250288963317871,-29.994558334350586,208.10719299316406,-96.19295501708984,-372.5145263671875,-37.80000305175781,-7.200000286102295,-12.450000762939453
5.33,141.96658325195312,-13.560758590698242,-29.76471519470215,223.16232299804688,-114.3124008178711,-346.2679748535156,-37.80000305175781,-7.200000286102295,-12.450000762939453
5.34,134.34344482421875,-15.974113464355469,-29.4582576751709,226.62632751464844,-116.31086730957031,-327.08270263671875,-39.900001525878906,-5.850000381469727,-13.050000190734863
5.35,126.52877044677734,-18.579004287719727,-28.040889739990234,216.90045166015625,-118.04287719726562,-322.5528259277344,-39.30000305175781,-4.950000286102295,-14.250000953674316
5.37,120.322998046875,-23.21417999267578,-27.619510650634766,217.5666046142578,-119.10872650146484,-320.1546630859375,-37.95000076293945,-3.1500000953674316,-14.850000381469727
5.374,114.8067626953125,-25.167848587036133,-24.516624450683594,195.5834503173828,-116.31086730957031,-312.42724609375,-37.95000076293945,-2.4000000953674316,-14.100000381469727
5.38,104.7319564819336,-24.938005447387695,-22.7161865234375,190.1209716796875,-103.52066802978516,-303.3675231933594,-37.95000076293945,-2.4000000953674316,-14.100000381469727
5.39,100.78631591796875,-24.13355255126953,-21.643583297729492,175.19908142089844,-93.39509582519531,-297.5053405761719,-37.80000305175781,0.0,-16.05000114440918
5.4,91.01797485351562,-22.333112716674805,-17.62132453918457,161.47625732421875,-84.73506927490234,-270.7258605957031,-37.5,0.0,-16.5
5.41,84.23759460449219,-19.728221893310547,-14.97812557220459,137.49464416503906,-58.4885139465332,-259.00152587890625,-36.75,0.0,-17.25
5.43,79.90887451171875,-16.127342224121094,-7.661445617675781,99.25727081298828,-47.163856506347656,-224.09494018554688,-37.650001525878906,2.8500001430511475,-16.650001525878906
5.434,75.65677642822266,-14.441824913024902,3.754108190536499,71.81163787841797,-59.68759536743164,-167.47166442871094,-35.25,3.450000047683716,-19.05000114440918
5.44,66.23319244384766,-17.085023880004883,1.6089035272598267,56.09035110473633,-65.949462890625,-162.27565002441406,-35.25,3.450000047683716,-19.05000114440918
5.45,57.192691802978516,-20.41775131225586,0.8044517636299133,40.635528564453125,-48.76263427734375,-170.4027557373047,-36.0,2.700000047683716,-20.100000381469727
5.46,41.180267333984375,-19.268535614013672,-2.9879636764526367,37.17151641845703,-38.50382614135742,-163.74119567871094,-35.55000305175781,4.5,-20.55000114440918
5.47,27.236438751220703,-18.617311477661133,-4.63517427444458,49.56201934814453,-37.17151641845703,-139.09341430664062,-33.900001525878906,5.550000190734863,-18.450000762939453
5.49,13.10107135772705,-18.04270362854004,-4.098873138427734,49.42878723144531,-26.379785537719727,-130.83306884765625,-33.900001525878906,5.550000190734863,-18.450000762939453
5.494,0.7661445140838623,-19.881450653076172,-3.44765043258667,38.63705825805664,-27.445634841918945,-99.3905029296875,-34.5,6.450000286102295,-19.80000114440918
5.5,-9.155426979064941,-23.252487182617188,7.316680431365967,23.848390579223633,-27.978559494018555,-87.79938507080078,-34.5,6.450000286102295,-19.80000114440918
5.51,-9.84495735168457,-24.44001007080078,12.679692268371582,13.456355094909668,-35.705970764160156,-71.41194152832031,-33.45000076293945,6.450000286102295,-21.600000381469727
5.52,-8.274360656738281,-27.121517181396484,14.901511192321777,-9.592649459838867,-25.7136287689209,-57.289432525634766,-33.45000076293945,6.300000190734863,-21.450000762939453
5.53,-4.711789131164551,-28.347347259521484,11.338939666748047,-25.18070411682129,-2.6646246910095215,-31.842266082763672,-33.45000076293945,6.300000190734863,-21.450000762939453
5.55,-1.4173674583435059,-31.488540649414062,3.294421434402466,-34.64012145996094,9.059723854064941,-11.591117858886719,-34.5,5.700000286102295,-22.80000114440918
5.554,7.048529624938965,-34.3615837097168,-4.63517427444458,-40.36906433105469,55.69065856933594,9.192955017089844,-33.30000305175781,7.650000095367432,-20.55000114440918
5.56,26.623523712158203,-35.77894973754883,-15.629348754882812,-32.90811538696289,75.00918579101562,3.7304747104644775,-36.45000076293945,5.550000190734863,-21.450000762939453
5.57,42.7891731262207,-35.24264907836914,-19.115306854248047,-7.06125545501709,86.0673828125,36.5053596496582,-36.45000076293945,5.550000190734863,-21.450000762939453
5.58,68.95301055908203,-34.13174057006836,-21.528661727905273,2.2649309635162354,106.85145568847656,61.552833557128906,-34.5,6.450000286102295,-20.850000381469727
5.59,94.38900756835938,-34.284969329833984,-19.613300323486328,-9.992342948913574,122.03981018066406,87.66615295410156,-35.25,7.200000286102295,-20.55000114440918
5.611,118.86732482910156,-44.091617584228516,-9.193734169006348,-15.854516983032227,101.38896942138672,138.16079711914062,-34.80000305175781,5.700000286102295,-20.100000381469727
5.615,112.85308837890625,-46.77312469482422,-15.667655944824219,-30.776416778564453,75.8085708618164,190.38743591308594,-36.45000076293945,6.750000476837158,-21.150001525878906
5.62,90.17520904541016,-63.092002868652344,-25.89568519592285,-55.15773391723633,90.4640121459961,137.62786865234375,-36.45000076293945,6.750000476837158,-21.150001525878906
5.63,87.64693450927734,-69.9489974975586,-28.53888511657715,-107.25114440917969,98.4578857421875,193.45175170898438,-36.900001525878906,5.550000190734863,-19.950000762939453
5.64,96.76405334472656,-75.15878295898438,-37.08139419555664,-198.781005859375,110.71515655517578,201.9785614013672,-37.650001525878906,5.100000381469727,-17.400001525878906
5.65,109.71189880371094,-66.80780792236328,-40.7205810546875,-262.99847412109375,108.58345794677734,240.74884033203125,-39.45000076293945,5.850000381469727,-19.200000762939453
5.67,122.77466583251953,-54.089805603027344,-39.149986267089844,-304.1669006347656,106.4517593383789,267.1286315917969,-38.400001525878906,4.800000190734863,-17.400001525878906
5.673,132.04501342773438,-42.82748031616211,-35.28095626831055,-316.0245056152344,72.74425506591797,292.9754943847656,-38.400001525878906,4.800000190734863,-17.400001525878906
5.68,130.70425415039062,-29.266721725463867,-35.24264907836914,-310.9617004394531,66.74884796142578,324.8177490234375,-40.5,3.0,-16.80000114440918
5.69,131.35548400878906,-22.06496238708496,-39.18829345703125,-301.3690490722656,65.15007781982422,337.0750427246094,-38.70000076293945,2.4000000953674316,-15.15000057220459
5.7,135.7608184814453,-12.717999458312988,-40.22258758544922,-277.387451171875,60.88667678833008,338.4073486328125,-40.20000076293945,2.4000000953674316,-15.15000057220459
5.71,138.36570739746094,-6.742072105407715,-36.69832229614258,-241.0153045654297,46.364471435546875,373.3139343261719,-40.5,0.75,-15.450000762939453
5.73,137.7910919189453,-5.1331682205200195,-33.82528305053711,-214.63552856445312,47.297088623046875,394.4976806640625,-40.5,0.75,-15.450000762939453
5.733,132.4663848876953,-7.5848307609558105,-32.905906677246094,-191.58651733398438,50.4946403503418,410.3522033691406,-43.80000305175781,-1.8000000715255737,-13.500000953674316
5.74,123.04281616210938,-14.36521053314209,-34.82126998901367,-197.44869995117188,59.68759536743164,414.2159118652344,-43.95000076293945,-1.350000023841858,-13.050000190734863
5.75,120.05484771728516,-16.778566360473633,-35.74064254760742,-190.38743591308594,55.15773391723633,435.0,-43.20000076293945,-3.6000001430511475,-13.65000057220459
5.76,116.99027252197266,-18.54069709777832,-36.35355758666992,-193.58499145507812,54.4915771484375,445.6584777832031,-43.95000076293945,-5.850000381469727,-12.300000190734863
5.77,113.31277465820312,-17.92778205871582,-36.8515510559082,-199.713623046875,66.21592712402344,433.5344543457031,-43.95000076293945,-5.850000381469727,-12.300000190734863
5.79,108.94575500488281,-19.728221893310547,-35.395877838134766,-191.71975708007812,63.684532165527344,413.016845703125,-44.55000305175781,-7.200000286102295,-11.40000057220459
5.793,104.7319564819336,-19.536685943603516,-30.26270866394043,-187.98927307128906,57.689125061035156,393.2986145019531,-43.95000076293945,-7.500000476837158,-11.550000190734863
5.8,101.24600219726562,-17.468095779418945,-25.89568519592285,-189.85450744628906,58.888206481933594,374.77947998046875,-43.80000305175781,-10.350000381469727,-12.0
5.81,97.68342590332031,-16.66364288330078,-26.815059661865234,-178.79632568359375,59.15467071533203,353.46246337890625,-46.650001525878906,-11.700000762939453,-9.75
5.82,89.40906524658203,-15.131354331970215,-24.286781311035156,-172.2679901123047,60.88667678833008,319.7549743652344,-46.650001525878906,-11.700000762939453,-9.75
5.83,81.01978302001953,-15.476119995117188,-22.448034286499023,-176.13169860839844,74.74272155761719,286.9800720214844,-45.900001525878906,-15.15000057220459,-10.350000381469727
5.85,70.33206939697266,-15.169661521911621,-19.728221893310547,-190.5206756591797,84.4686050415039,248.2097930908203,-45.900001525878906,-15.90000057220459,-9.75
5.854,61.866172790527344,-9.84495735168457,-16.970102310180664,-190.5206756591797,74.20980072021484,209.57273864746094,-46.650001525878906,-17.850000381469727,-9.0
5.86,47.65419006347656,-1.2641384601593018,-16.47210693359375,-190.1209716796875,75.27565002441406,187.85604858398438,-46.95000076293945,-17.850000381469727,-7.500000476837158
5.87,41.37180709838867,4.941632270812988,-15.935806274414062,-194.6508331298828,75.27565002441406,153.21592712402344,-46.95000076293945,-17.850000381469727,-7.500000476837158
5.88,27.657817840576172,16.203956604003906,-13.828908920288086,-189.5880584716797,76.34149932861328,125.37059783935547,-43.95000076293945,-18.75,-8.25
5.89,17.697938919067383,29.381643295288086,-14.058752059936523,-153.7488555908203,74.60948944091797,116.84379577636719,-46.20000076293945,-19.05000114440918,-7.050000190734863
5.91,11.836933135986328,41.639957427978516,-12.564770698547363,-113.24655151367188,78.20673370361328,108.45022583007812,-45.75,-18.900001525878906,-8.700000762939453
5.914,12.373234748840332,49.56955337524414,-3.6774938106536865,-51.4272575378418,73.0107192993164,82.47013854980469,-46.80000305175781,-18.150001525878906,-8.40000057220459
5.92,14.403517723083496,47.34773254394531,5.171475887298584,-16.78713607788086,59.95405578613281,69.81317138671875,-46.80000305175781,-18.150001525878906,-8.40000057220459
5.93,12.526463508605957,38.8818359375,8.65743350982666,22.382848739624023,18.78560447692871,33.84073257446289,-46.650001525878906,-19.80000114440918,-6.750000476837158
5.94,8.925583839416504,27.619510650634766,6.01423454284668,31.842266082763672,4.130168437957764,5.196018218994141,-45.900001525878906,-19.5,-7.800000190734863
5.95,2.4899697303771973,22.677879333496094,-1.6089035272598267,53.95865249633789,-3.0643184185028076,-24.248085021972656,-46.80000305175781,-20.100000381469727,-6.900000095367432
5.97,2.030282974243164,19.115306854248047,-2.7964274883270264,102.72128295898438,-18.78560447692871,-45.43185043334961,-46.650001525878906,-18.75,-7.050000190734863
5.974,13.48414421081543,12.143390655517578,-6.282385349273682,167.33843994140625,-23.581928253173828,-110.58192443847656,-46.650001525878906,-18.75,-7.050000190734863
5.98,36.54509353637695,-13.675680160522461,-6.512228488922119,188.38897705078125,-26.379785537719727,-147.0872802734375,-47.400001525878906,-19.05000114440918,-6.300000190734863
5.99,48.26710510253906,-30.837318420410156,-8.044517517089844,194.38436889648438,-41.168453216552734,-204.2434844970703,-47.400001525878906,-19.5,-7.500000476837158
6.0,65.46704864501953,-49.531246185302734,-15.476119995117188,184.92495727539062,-39.83613967895508,-272.4578857421875,-47.400001525878906,-18.30000114440918,-7.050000190734863
6.01,80.06210327148438,-55.698707580566406,-20.532672882080078,174.26646423339844,-37.304744720458984,-301.3690490722656,-46.80000305175781,-18.150001525878906,-8.700000762939453
6.03,92.62687683105469,-52.289363861083984,-21.6818904876709,157.612548828125,-28.911178588867188,-330.4134826660156,-46.80000305175781,-18.150001525878906,-8.700000762939453
6.034,98.33465576171875,-40.7205810546875,-24.631547927856445,164.27410888671875,-28.378253936767578,-329.88055419921875,-48.30000305175781,-16.200000762939453,-7.650000095367432
6.04,104.88518524169922,-26.163835525512695,-30.530860900878906,198.9142303466797,-41.701377868652344,-315.62481689453125,-47.55000305175781,-12.750000953674316,-7.650000095367432
6.05,106.72393798828125,-24.095245361328125,-32.10145568847656,231.68911743164062,-40.23583221435547,-310.56201171875,-46.80000305175781,-13.050000190734863,-6.900000095367432
6.06,115.91767120361328,-27.389667510986328,-32.676063537597656,291.50994873046875,-58.222049713134766,-310.1623229980469,-48.0,-11.850000381469727,-7.950000286102295
6.07,124.34526062011719,-37.88584899902344,-30.722396850585938,325.3506774902344,-75.8085708618164,-336.1424255371094,-48.0,-11.850000381469727,-7.950000286102295
6.09,133.5006866455078,-48.99494171142578,-27.77273941040039,340.5390319824219,-88.06584930419922,-380.1087341308594,-48.30000305175781,-8.100000381469727,-7.350000381469727
6.093,143.0391845703125,-56.46485137939453,-25.20615577697754,338.4073486328125,-116.84379577636719,-418.612548828125,-46.80000305175781,-7.650000095367432,-7.950000286102295
6.1,148.86187744140625,-56.08177947998047,-22.869415283203125,327.3491516113281,-131.36599731445312,-418.47930908203125,-45.900001525878906,-4.800000190734863,-9.0
6.11,147.98081970214844,-53.51519775390625,-25.359384536743164,282.050537109375,-128.56814575195312,-441.39508056640625,-45.75,-5.400000095367432,-9.90000057220459
6.12,145.18438720703125,-47.57757568359375,-28.19411849975586,241.0153045654297,-118.57579803466797,-422.343017578125,-45.75,-5.400000095367432,-9.90000057220459
6.13,147.63604736328125,-37.08139419555664,-24.861391067504883,184.6584930419922,-111.5145492553711,-384.7718200683594,-44.25,-1.8000000715255737,-10.950000762939453
6.15,139.66815185546875,-27.15982437133789,-18.464082717895508,145.88819885253906,-112.04747009277344,-330.0137634277344,-42.900001525878906,-0.15000000596046448,-11.850000381469727
6.153,129.78488159179688,-25.857378005981445,-23.367408752441406,140.82542419433594,-102.32159423828125,-322.6860656738281,-42.150001525878906,2.4000000953674316,-13.350000381469727
6.16,116.6072006225586,-26.85336685180664,-29.4582576751709,142.02450561523438,-89.93108367919922,-340.13934326171875,-42.900001525878906,2.4000000953674316,-12.300000190734863
6.17,110.20989227294922,-24.631547927856445,-31.067161560058594,165.4731903076172,-92.19601440429688,-337.208251953125,-42.900001525878906,2.4000000953674316,-12.300000190734863
6.18,106.22594451904297,-19.38345718383789,-26.163835525512695,173.0673828125,-90.4640121459961,-326.4165344238281,-40.80000305175781,4.200000286102295,-13.500000953674316
6.19,102.70167541503906,-17.42978858947754,-17.046716690063477,168.5375213623047,-97.65850067138672,-320.95404052734375,-41.25,5.700000286102295,-14.700000762939453
6.21,101.28430938720703,-17.468095779418945,-10.611102104187012,174.1332244873047,-116.71056365966797,-332.0122375488281,-39.45000076293945,6.300000190734863,-15.15000057220459
6.213,98.52619171142578,-18.11931800842285,-6.3973069190979,160.94332885742188,-126.5696792602539,-337.8744201660156,-39.45000076293945,8.25,-14.40000057220459
6.22,91.17120361328125,-11.72201156616211,-11.72201156616211,141.89126586914062,-109.915771484375,-317.3568115234375,-39.45000076293945,8.25,-14.40000057220459
6.23,86.49771881103516,-3.6391866207122803,-4.711789131164551,109.11638641357422,-107.25114440917969,-282.5834655761719,-37.95000076293945,10.950000762939453,-16.650001525878906
6.24,77.84028625488281,-0.3447650372982025,-0.07661445438861847,94.32771301269531,-112.04747009277344,-249.00918579101562,-37.05000305175781,10.350000381469727,-15.750000953674316
6.25,63.781532287597656,-0.8044517636299133,-4.865017890930176,99.79019927978516,-90.33078002929688,-230.75650024414062,-36.0,10.350000381469727,-17.55000114440918
6.27,48.61186981201172,-5.018246650695801,-9.461885452270508,95.39356231689453,-58.08882141113281,-218.0995330810547,-36.45000076293945,11.40000057220459,-17.100000381469727
6.274,32.484527587890625,-10.649409294128418,-7.8529815673828125,96.05972290039062,-38.10413360595703,-190.78712463378906,-36.45000076293945,11.40000057220459,-17.100000381469727
6.28,15.476119995117188,-16.89348793029785,-2.030282974243164,101.78866577148438,-50.36140823364258,-171.60183715820312,-36.45000076293945,11.40000057220459,-17.100000381469727
6.29,9.002198219299316,-20.379444122314453,0.5363011956214905,96.8591079711914,-59.95405578613281,-164.94027709960938,-34.80000305175781,13.050000190734863,-18.75
6.3,-0.3064578175544739,-23.060951232910156,6.320692539215088,106.4517593383789,-87.13323211669922,-151.75038146972656,-31.950000762939453,13.65000057220459,-19.200000762939453
6.31,-5.286397457122803,-22.90772247314453,19.19192123413086,97.92495727539062,-120.04134368896484,-158.9448699951172,-33.0,15.000000953674316,-19.05000114440918
6.33,-8.925583839416504,-24.24847412109375,24.210166931152344,69.94640350341797,-136.56201171875,-155.08116149902344,-33.0,15.000000953674316,-19.05000114440918
6.334,-11.338939666748047,-25.89568519592285,19.460071563720703,32.24195861816406,-114.71209716796875,-152.81622314453125,-30.30000114440918,16.950000762939453,-20.55000114440918
6.34,-10.917559623718262,-30.14778709411621,11.530475616455078,12.25727367401123,-98.72434997558594,-149.48544311523438,-30.30000114440918,16.950000762939453,-20.55000114440918
6.35,-8.810662269592285,-32.292991638183594,8.887276649475098,7.860642910003662,-86.46707153320312,-152.81622314453125,-29.55000114440918,15.750000953674316,-20.850000381469727
6.36,-1.4939818382263184,-35.47249221801758,0.0,2.131699800491333,-58.888206481933594,-159.07809448242188,-29.700000762939453,15.90000057220459,-19.650001525878906
6.37,8.96389102935791,-35.47249221801758,-6.435614109039307,-6.794793128967285,-36.372127532958984,-148.0198974609375,-30.30000114440918,17.700000762939453,-22.05000114440918
6.39,28.040889739990234,-34.51481246948242,-10.879252433776855,-10.92496109008789,-17.053598403930664,-132.56507873535156,-30.30000114440918,17.700000762939453,-22.05000114440918
6.394,47.65419006347656,-29.688100814819336,-14.020444869995117,-33.84073257446289,24.11485481262207,-101.9218978881836,-27.450000762939453,17.850000381469727,-22.200000762939453
6.401,73.0901870727539,-18.195932388305664,-19.306842803955078,-38.10413360595703,34.50688934326172,-44.63246536254883,-27.450000762939453,17.850000381469727,-22.200000762939453
6.41,82.4371566772461,-11.070788383483887,-18.655620574951172,-71.94486999511719,55.69065856933594,-10.658498764038086,-27.30000114440918,19.200000762939453,-21.30000114440918
6.42,98.64111328125,-10.955866813659668,-17.31486701965332,-51.29402542114258,50.4946403503418,59.55436325073242,-28.05000114440918,18.450000762939453,-20.100000381469727
6.43,108.40945434570312,-8.504204750061035,-28.53888511657715,-24.381317138671875,67.94792938232422,101.38896942138672,-28.05000114440918,18.450000762939453,-20.100000381469727
6.45,108.2562255859375,-8.044517517089844,-38.8818359375,11.724349021911621,77.27411651611328,143.62327575683594,-27.900001525878906,19.80000114440918,-18.900001525878906
6.453,109.90343475341797,-16.28057098388672,-42.1762580871582,51.560489654541016,69.94640350341797,190.1209716796875,-27.450000762939453,17.100000381469727,-19.650001525878906
6.46,119.86331176757812,-28.232425689697266,-44.16823196411133,45.16539001464844,73.14395141601562,202.3782501220703,-27.900001525878906,16.350000381469727,-17.700000762939453
6.47,124.80494689941406,-36.46847915649414,-44.93437576293945,4.130168437957764,82.47013854980469,215.3016815185547,-27.900001525878906,16.350000381469727,-17.700000762939453
6.48,132.3897705078125,-45.24083709716797,-45.700523376464844,-60.75344467163086,85.80091857910156,230.4900360107422,-28.950000762939453,15.600000381469727,-18.450000762939453
6.49,140.89398193359375,-44.704532623291016,-45.892059326171875,-128.83460998535156,84.06890869140625,264.3307800292969,-31.80000114440918,14.550000190734863,-17.55000114440918
6.51,151.2369384765625,-38.115692138671875,-43.05732345581055,-196.1163787841797,83.13629150390625,304.83306884765625,-31.80000114440918,15.000000953674316,-17.25
6.514,156.6765594482422,-28.309040069580078,-41.448421478271484,-233.9540557861328,73.81010437011719,348.0,-30.000001907348633,12.300000190734863,-16.05000114440918
6.52,157.13624572753906,-17.276559829711914,-40.260894775390625,-242.48085021972656,63.81776428222656,364.3874206542969,-30.000001907348633,12.300000190734863,-16.05000114440918
6.53,154.3781280517578,-10.72602367401123,-36.08540725708008,-238.48391723632812,48.09647750854492,388.10260009765625,-32.25,12.300000190734863,-14.700000762939453
6.54,149.01510620117188,-2.183511972427368,-35.12772750854492,-216.36752319335938,49.96171569824219,392.2327575683594,-34.20000076293945,10.5,-12.600000381469727
6.55,143.9968719482422,7.469909191131592,-34.62973403930664,-177.46400451660156,40.36906433105469,402.35833740234375,-34.80000305175781,9.600000381469727,-12.450000762939453
6.57,137.21649169921875,15.131354331970215,-35.510799407958984,-118.04287719726562,29.31087303161621,415.4150085449219,-34.20000076293945,8.25,-11.100000381469727
6.574,128.82720947265625,17.046716690063477,-34.32327651977539,-56.356815338134766,40.36906433105469,425.27410888671875,-34.20000076293945,8.25,-11.100000381469727
6.58,118.94393920898438,15.744270324707031,-30.837318420410156,-23.848390579223633,39.43644714355469,433.5344543457031,-35.70000076293945,5.550000190734863,-11.100000381469727
6.59,113.38938903808594,10.457873344421387,-29.15180015563965,10.525267601013184,36.238895416259766,437.2649230957031,-35.70000076293945,3.1500000953674316,-10.800000190734863
6.6,104.31057739257812,5.937620162963867,-24.44001007080078,10.791729927062988,44.36600112915039,422.8759460449219,-38.70000076293945,2.8500001430511475,-10.800000190734863
6.61,98.10481262207031,-1.6855180263519287,-21.605276107788086,4.130168437957764,44.09954071044922,419.545166015625,-39.45000076293945,0.15000000596046448,-9.0
6.631,91.5159683227539,-4.290409564971924,-21.337125778198242,-20.784072875976562,41.83460998535156,391.03369140625,-39.45000076293945,0.15000000596046448,-9.0
6.635,87.18724822998047,-2.9496564865112305,-17.468095779418945,-55.4241943359375,26.513015747070312,356.6600341796875,-37.95000076293945,-2.4000000953674316,-11.100000381469727
6.641,81.441162109375,6.550535678863525,-15.514427185058594,-59.02143859863281,21.716691970825195,351.9969177246094,-39.75,-3.450000047683716,-9.90000057220459
6.65,79.94718170166016,11.568782806396484,-17.238252639770508,-60.22052001953125,23.04900360107422,311.62786865234375,-39.150001525878906,-5.100000381469727,-8.550000190734863
6.66,72.36235046386719,19.306842803955078,-15.552734375,-41.168453216552734,0.6661561727523804,291.6431884765625,-39.150001525878906,-6.300000190734863,-9.0
6.67,65.69689178466797,23.3291015625,-13.713987350463867,-21.84992218017578,-30.90964698791504,247.2771759033203,-39.150001525878906,-6.300000190734863,-9.0
6.69,55.622093200683594,26.12552833557129,-14.288596153259277,-3.86370587348938,-45.831546783447266,221.03062438964844,-40.5,-8.100000381469727,-9.15000057220459
6.693,42.1762580871582,27.006595611572266,-14.36521053314209,8.39356803894043,-72.61102294921875,171.86830139160156,-40.20000076293945,-8.700000762939453,-9.75
6.7,26.623523712158203,28.8453426361084,-8.236053466796875,13.056661605834961,-96.45941925048828,158.27871704101562,-39.900001525878906,-10.200000762939453,-9.75
6.71,23.44402313232422,34.13174057006836,-6.167463779449463,10.125574111938477,-104.98621368408203,131.63246154785156,-41.55000305175781,-11.550000190734863,-9.450000762939453
6.72,24.478317260742188,41.5250358581543,-3.754108190536499,37.304744720458984,-119.7748794555664,125.23736572265625,-41.55000305175781,-11.550000190734863,-9.450000762939453
6.73,28.002582550048828,50.37400436401367,1.5322890281677246,99.12403869628906,-137.49464416503906,92.19601440429688,-40.05000305175781,-12.750000953674316,-10.200000762939453
6.75,33.7869758605957,49.14817428588867,8.925583839416504,161.7427215576172,-173.6002960205078,61.68606185913086,-40.20000076293945,-12.450000762939453,-11.550000190734863
6.753,40.91211700439453,35.66402816772461,13.599065780639648,215.56814575195312,-212.77027893066406,-9.72588062286377,-40.05000305175781,-11.550000190734863,-10.65000057220459
6.76,41.29519271850586,9.653421401977539,9.002198219299316,245.9448699951172,-234.8866729736328,-51.560489654541016,-40.05000305175781,-13.500000953674316,-13.200000762939453
6.77,42.559329986572266,-1.2641384601593018,5.592854976654053,296.43951416015625,-249.27565002441406,-101.12251281738281,-40.05000305175781,-13.500000953674316,-13.200000762939453
6.78,45.93036651611328,-10.304644584655762,5.70777702331543,329.2143859863281,-247.8101043701172,-148.4196014404297,-38.400001525878906,-13.200000762939453,-13.350000381469727
6.79,54.66441345214844,-16.970102310180664,6.933608055114746,357.326171875,-247.2771759033203,-178.13015747070312,-38.25,-13.500000953674316,-15.450000762939453
6.81,66.57795715332031,-21.98834800720215,7.814674377441406,380.37518310546875,-254.33843994140625,-201.71209716796875,-37.650001525878906,-12.15000057220459,-14.850000381469727
6.813,77.7253646850586,-27.006595611572266,5.937620162963867,420.0780944824219,-246.3445587158203,-198.781005859375,-37.05000305175781,-12.750000953674316,-16.5
6.82,85.08035278320312,-33.672054290771484,-4.098873138427734,429.1378173828125,-235.4196014404297,-212.5038299560547,-37.05000305175781,-12.750000953674316,-16.5
6.83,89.217529296875,-37.311241149902344,-8.580819129943848,459.5145263671875,-218.0995330810547,-203.17764282226562,-36.75,-13.050000190734863,-17.55000114440918
6.84,91.63088989257812,-42.21456527709961,-11.836933135986328,495.3537292480469,-220.6309356689453,-215.43490600585938,-36.900001525878906,-11.700000762939453,-17.100000381469727
6.85,96.03621673583984,-47.34773254394531,-7.4316020011901855,535.4563598632812,-215.83460998535156,-235.9525146484375,-37.5,-12.300000190734863,-19.80000114440918
6.87,106.87716674804688,-53.476890563964844,0.9576807022094727,557.7059326171875,-222.36293029785156,-265.9295349121094,-34.650001525878906,-12.90000057220459,-20.400001525878906
6.874,119.40362548828125,-57.99714279174805,12.986149787902832,574.8927612304688,-243.41346740722656,-301.5022888183594,-34.650001525878906,-12.90000057220459,-20.400001525878906
6.88,131.96839904785156,-58.80159378051758,23.75048065185547,566.89892578125,-256.7366027832031,-333.61102294921875,-34.05000305175781,-13.800000190734863,-22.05000114440918
6.89,136.8334197998047,-55.813629150390625,27.236438751220703,547.0474853515625,-271.7917175292969,-352.2633972167969,-34.05000305175781,-13.500000953674316,-21.600000381469727
7.0,137.1781768798828,-12.02846908569336,44.28315353393555,614.1959838867188,-290.0444030761719,-393.2986145019531,-26.250001907348633,-16.5,-31.200000762939453
7.01,129.2485809326172,-15.284584045410156,42.7891731262207,599.4073486328125,-287.77947998046875,-381.174560546875,-25.200000762939453,-17.55000114440918,-30.30000114440918
7.02,117.48826599121094,-19.115306854248047,40.22258758544922,564.9004516601562,-275.12249755859375,-385.8376770019531,-25.200000762939453,-17.55000114440918,-30.30000114440918
7.03,105.76625061035156,-23.482330322265625,39.57136535644531,533.3246459960938,-241.9479217529297,-368.3843688964844,-24.0,-18.150001525878906,-31.950000762939453
7.05,98.56449890136719,-25.665842056274414,37.84754180908203,526.3966064453125,-218.63246154785156,-370.915771484375,-23.400001525878906,-19.05000114440918,-32.10000228881836
7.054,101.43753814697266,-26.278757095336914,36.96647262573242,515.3384399414062,-199.84686279296875,-379.1761169433594,-22.650001525878906,-21.75,-32.10000228881836
7.06,109.21390533447266,-22.333112716674805,43.172245025634766,499.7503662109375,-194.117919921875,-378.1102600097656,-22.650001525878906,-21.75,-32.10000228881836
7.07,107.33685302734375,-19.651607513427734,44.97268295288086,467.5084228515625,-183.32618713378906,-388.10260009765625,-22.650001525878906,-21.75,-32.10000228881836
7.08,99.866943359375,-16.70195198059082,44.66622543334961,451.6539001464844,-178.5298614501953,-383.8392028808594,-22.200000762939453,-21.450000762939453,-32.10000228881836
7.09,86.03803253173828,-14.058752059936523,44.512996673583984,428.7381286621094,-167.2052001953125,-378.1102600097656,-22.650001525878906,-20.25,-31.05000114440918
7.11,71.8643569946289,-13.48414421081543,46.198516845703125,401.0260314941406,-148.55282592773438,-392.0995178222656,-21.0,-22.350000381469727,-32.25
7.114,62.785545349121094,-11.453861236572266,45.85375213623047,373.4471435546875,-125.90351867675781,-370.6492919921875,-22.200000762939453,-23.25,-32.55000305175781
7.12,58.57175064086914,-12.717999458312988,46.35174560546875,367.98468017578125,-122.83920288085938,-357.8591003417969,-22.200000762939453,-23.25,-32.55000305175781
7.13,57.614070892333984,-15.667655944824219,47.80741882324219,349.06585693359375,-119.37519073486328,-344.26953125,-21.150001525878906,-22.200000762939453,-31.80000114440918
7.14,53.783348083496094,-18.23423957824707,44.93437576293945,334.6768798828125,-102.8545150756836,-346.00152587890625,-20.55000114440918,-23.100000381469727,-33.0
7.15,47.57757568359375,-19.99637222290039,36.928165435791016,329.3476257324219,-96.8591079711914,-324.95098876953125,-21.150001525878906,-22.950000762939453,-33.60000228881836
7.17,39.68628692626953,-20.494365692138672,25.51261329650879,324.6845397949219,-62.21898651123047,-309.3629455566406,-22.05000114440918,-22.80000114440918,-33.0
7.174,30.339323043823242,-21.337125778198242,16.81687355041504,308.1638488769531,-9.326186180114746,-316.4241943359375,-21.900001525878906,-23.25,-33.30000305175781
7.18,23.099258422851562,-23.558944702148438,14.824896812438965,304.3001403808594,12.25727367401123,-320.6875915527344,-21.900001525878906,-23.25,-33.30000305175781
7.19,23.21417999267578,-21.796812057495117,14.288596153259277,298.4379577636719,22.116384506225586,-295.6401062011719,-22.200000762939453,-23.25,-33.900001525878906
7.3,116.10920715332031,-24.36339569091797,-4.9799394607543945,252.4731903076172,97.5252685546875,-41.568145751953125,-23.700000762939453,-29.100000381469727,-30.600000381469727
7.31,119.36531829833984,-20.532672882080078,-9.308655738830566,223.29554748535156,102.8545150756836,2.2649309635162354,-22.200000762939453,-29.100000381469727,-29.250001907348633
7.32,118.02456665039062,-17.889474868774414,-19.460071563720703,225.16079711914062,116.17764282226562,20.117916107177734,-22.650001525878906,-29.850000381469727,-27.30000114440918
7.33,113.84908294677734,-17.1999454498291,-28.155811309814453,248.7427215576172,117.64318084716797,68.88054656982422,-22.650001525878906,-29.850000381469727,-27.30000114440918
7.35,113.31277465820312,-22.409727096557617,-24.554933547973633,271.1255798339844,119.5084228515625,92.06278228759766,-22.650001525878906,-31.80000114440918,-27.750001907348633
7.354,119.78669738769531,-30.760704040527344,-15.935806274414062,263.93109130859375,93.12863159179688,124.17151641845703,-21.450000762939453,-33.0,-25.200000762939453
7.36,130.74256896972656,-38.537071228027344,-3.7924153804779053,251.94027709960938,67.01531219482422,141.89126586914062,-23.25,-33.60000228881836,-25.650001525878906
