time,accel_x,accel_y,accel_z,gyro_x,gyro_y,gyro_z,mag_x,mag_y,mag_z
0.0,72.4006576538086,25.972299575805664,-18.923770904541016,-6.794793128967285,12.390504837036133,-18.519142150878906,-30.30000114440918,-7.650000095367432,-22.80000114440918
0.01,72.70711517333984,25.70414924621582,-19.000385284423828,-6.128636837005615,12.790199279785156,-19.31852912902832,-31.500001907348633,-7.200000286102295,-20.850000381469727
0.02,71.2514419555664,25.51261329650879,-18.502389907836914,-3.3307809829711914,7.327718257904053,-9.592649459838867,-30.900001525878906,-6.750000476837158,-20.700000762939453
0.03,71.8260498046875,26.508602142333984,-18.617311477661133,2.2649309635162354,-1.7320060729980469,3.7304747104644775,-30.450000762939453,-7.050000190734863,-21.150001525878906
0.05,72.82203674316406,25.70414924621582,-16.970102310180664,-5.595712184906006,-2.2649309635162354,-2.797856092453003,-31.200000762939453,-5.550000190734863,-22.200000762939453
0.053,69.18285369873047,20.992361068725586,-21.298818588256836,-7.594180583953857,-8.526799201965332,-6.9280242919921875,-31.200000762939453,-5.550000190734863,-22.200000762939453
0.06,69.14454650878906,21.490354537963867,-22.37141990661621,-1.0658499002456665,0.0,-7.327718257904053,-31.200000762939453,-5.550000190734863,-22.200000762939453
0.07,69.22116088867188,23.673866271972656,-21.337125778198242,-0.1332312375307083,5.462480545043945,-5.995405673980713,-31.500001907348633,-7.650000095367432,-22.80000114440918
0.08,70.29376220703125,26.43198585510254,-20.877439498901367,-4.663093090057373,22.51607894897461,-9.859111785888672,-28.950000762939453,-8.25,-21.150001525878906
0.09,71.28974914550781,28.347347259521484,-20.915746688842773,1.8652373552322388,11.857580184936523,1.9984685182571411,-31.500001907348633,-7.200000286102295,-22.350000381469727
0.104,70.98329162597656,28.462270736694336,-21.298818588256836,12.656967163085938,22.116384506225586,-4.529861927032471,-31.500001907348633,-7.200000286102295,-22.05000114440918
0.11,72.13250732421875,28.692113876342773,-19.843143463134766,17.453292846679688,27.17917251586914,-9.992342948913574,-31.500001907348633,-7.200000286102295,-22.05000114440918
0.12,73.664794921875,28.883649826049805,-17.468095779418945,24.781009674072266,19.85145378112793,-0.7993874549865723,-30.450000762939453,-6.750000476837158,-20.700000762939453
0.13,73.39664459228516,29.419950485229492,-15.897499084472656,43.96630859375,9.592649459838867,0.2664624750614166,-31.80000114440918,-6.900000095367432,-20.100000381469727
0.14,74.92893981933594,29.53487205505371,-16.05072784423828,53.69218826293945,4.396630764007568,-10.392036437988281,-29.55000114440918,-8.40000057220459,-22.05000114440918
0.15,74.04786682128906,28.8453426361084,-14.97812557220459,59.15467071533203,-5.196018218994141,-3.597243309020996,-31.500001907348633,-8.40000057220459,-23.100000381469727
0.169,73.54987335205078,25.972299575805664,-17.889474868774414,60.62021255493164,-9.059723854064941,-3.0643184185028076,-32.55000305175781,-6.450000286102295,-21.30000114440918
0.173,70.37037658691406,19.919757843017578,-19.49837875366211,62.35221862792969,-18.652372360229492,0.6661561727523804,-32.55000305175781,-6.450000286102295,-21.30000114440918
0.18,69.75746154785156,18.655620574951172,-19.574993133544922,47.163856506347656,-3.597243309020996,-14.92189884185791,-30.900001525878906,-7.500000476837158,-20.700000762939453
0.19,69.87238311767578,18.195932388305664,-19.574993133544922,40.36906433105469,-1.0658499002456665,-7.06125545501709,-31.650001525878906,-8.700000762939453,-21.75
0.2,70.17884063720703,18.195932388305664,-20.456058502197266,17.32006072998047,-2.531393527984619,-10.92496109008789,-31.650001525878906,-9.0,-22.5
0.219,70.5619125366211,21.26051139831543,-20.341136932373047,10.525267601013184,1.4655436277389526,-5.462480545043945,-31.200000762939453,-9.75,-22.200000762939453
0.223,70.29376220703125,23.13756561279297,-21.107282638549805,11.591117858886719,4.396630764007568,4.796324729919434,-31.200000762939453,-9.75,-22.200000762939453
0.23,71.63451385498047,24.13355255126953,-20.41775131225586,13.323123931884766,5.062787055969238,11.591117858886719,-31.500001907348633,-7.650000095367432,-21.600000381469727
0.24,71.51959228515625,23.63555908203125,-18.847156524658203,12.790199279785156,1.0658499002456665,6.261868000030518,-31.650001525878906,-9.0,-22.200000762939453
0.25,71.59620666503906,24.59324073791504,-20.187908172607422,15.055130004882812,4.929555892944336,-0.1332312375307083,-30.900001525878906,-7.800000190734863,-22.5
0.26,73.74140930175781,25.51261329650879,-19.881450653076172,35.57273864746094,-6.9280242919921875,6.9280242919921875,-30.450000762939453,-7.500000476837158,-21.75
0.27,72.17081451416016,26.623523712158203,-20.64759635925293,43.16691970825195,-8.793261528015137,6.9280242919921875,-31.500001907348633,-8.100000381469727,-20.100000381469727
0.287,72.66880798339844,26.891674041748047,-20.609289169311523,66.882080078125,-15.588054656982422,-4.130168437957764,-30.900001525878906,-8.25,-22.5
0.29,70.75344848632812,22.409727096557617,-22.639572143554688,70.3460922241211,-18.78560447692871,-1.0658499002456665,-30.900001525878906,-8.25,-22.5
0.3,69.10623931884766,21.337125778198242,-22.562957763671875,70.61255645751953,-11.457886695861816,9.592649459838867,-30.150001525878906,-9.75,-21.450000762939453
0.31,71.05990600585938,22.448034286499023,-22.256498336791992,69.67993927001953,-6.661561965942383,0.39969372749328613,-31.200000762939453,-8.700000762939453,-20.700000762939453
0.32,71.32805633544922,22.677879333496094,-21.605276107788086,64.21745300292969,-1.1990811824798584,-6.395099639892578,-32.55000305175781,-10.050000190734863,-22.05000114440918
0.339,70.5619125366211,22.218191146850586,-23.060951232910156,63.684532165527344,-5.462480545043945,2.531393527984619,-32.55000305175781,-10.050000190734863,-22.05000114440918
0.343,71.55789947509766,22.754493713378906,-21.720197677612305,73.0107192993164,-7.460949420928955,3.3307809829711914,-31.05000114440918,-9.600000381469727,-21.30000114440918
0.35,70.40868377685547,23.558944702148438,-23.175872802734375,68.4808578491211,7.9938740730285645,-5.595712184906006,-30.750001907348633,-10.800000190734863,-21.30000114440918
0.36,71.59620666503906,25.129541397094727,-21.98834800720215,77.00765228271484,5.995405673980713,-0.9326186776161194,-32.25,-10.350000381469727,-22.80000114440918
0.37,72.09420013427734,25.359384536743164,-22.2948055267334,97.39203643798828,-5.595712184906006,3.9969370365142822,-30.900001525878906,-10.5,-22.5
0.38,72.05589294433594,27.198131561279297,-22.448034286499023,107.78407287597656,-7.460949420928955,6.128636837005615,-30.750001907348633,-10.800000190734863,-22.350000381469727
0.39,72.89865112304688,26.815059661865234,-22.7161865234375,121.24042510986328,-3.7304747104644775,-5.329249382019043,-30.750001907348633,-10.800000190734863,-22.350000381469727
0.403,73.16680145263672,24.746469497680664,-24.554933547973633,130.69984436035156,-8.127105712890625,-6.128636837005615,-30.000001907348633,-12.300000190734863,-22.05000114440918
0.41,70.83006286621094,20.187908172607422,-24.708162307739258,150.151611328125,-7.460949420928955,2.398162364959717,-31.80000114440918,-10.350000381469727,-23.55000114440918
0.42,70.90667724609375,19.49837875366211,-25.09123420715332,146.42112731933594,-2.131699800491333,-0.2664624750614166,-31.650001525878906,-11.700000762939453,-23.25
0.43,72.4006576538086,20.724210739135742,-24.13355255126953,147.62020874023438,-3.597243309020996,0.1332312375307083,-31.650001525878906,-12.90000057220459,-21.75
0.44,71.63451385498047,19.68991470336914,-24.631547927856445,143.09034729003906,-18.91883659362793,-5.995405673980713,-31.650001525878906,-12.90000057220459,-21.75
0.45,69.25946807861328,16.778566360473633,-25.129541397094727,138.42726135253906,0.0,-17.32006072998047,-31.500001907348633,-12.750000953674316,-21.30000114440918
0.466,71.90266418457031,20.226215362548828,-24.66985511779785,118.97549438476562,0.39969372749328613,-3.4640121459960938,-31.05000114440918,-12.750000953674316,-22.80000114440918
0.47,71.8260498046875,20.456058502197266,-25.167848587036133,119.90811157226562,-8.926492691040039,-2.398162364959717,-31.05000114440918,-12.750000953674316,-22.80000114440918
0.481,70.79175567626953,17.659631729125977,-26.96828842163086,118.97549438476562,-2.9310872554779053,-3.197549819946289,-30.750001907348633,-13.500000953674316,-23.55000114440918
0.49,70.48529815673828,17.8128604888916,-25.972299575805664,109.51607513427734,5.462480545043945,8.39356803894043,-30.750001907348633,-15.750000953674316,-22.80000114440918
0.5,70.79175567626953,17.697938919067383,-25.129541397094727,104.98621368408203,1.4655436277389526,0.6661561727523804,-30.750001907348633,-15.750000953674316,-22.80000114440918
0.52,71.48128509521484,17.774553298950195,-26.815059661865234,94.46094512939453,-1.9984685182571411,8.127105712890625,-30.750001907348633,-14.250000953674316,-23.850000381469727
0.523,72.17081451416016,16.28057098388672,-26.508602142333984,71.01225280761719,4.529861927032471,-0.5329249501228333,-32.25,-15.000000953674316,-21.600000381469727
0.53,71.90266418457031,14.633360862731934,-25.359384536743164,62.618682861328125,9.192955017089844,-1.0658499002456665,-32.25,-15.000000953674316,-21.600000381469727
0.54,71.48128509521484,14.480132102966309,-25.81907081604004,55.55742645263672,-6.395099639892578,5.462480545043945,-30.900001525878906,-14.850000381469727,-22.5
0.55,72.59219360351562,13.867216110229492,-25.70414924621582,42.101070404052734,-6.261868000030518,3.9969370365142822,-30.900001525878906,-14.850000381469727,-22.5
0.56,71.02159881591797,13.445837020874023,-26.31706428527832,30.24349021911621,6.395099639892578,-1.5987749099731445,-30.900001525878906,-15.90000057220459,-23.25
0.579,70.6002197265625,16.012420654296875,-27.504589080810547,18.652372360229492,1.3323123455047607,7.860642910003662,-29.700000762939453,-15.90000057220459,-23.700000762939453
0.583,70.48529815673828,17.42978858947754,-28.155811309814453,1.7320060729980469,2.398162364959717,10.125574111938477,-31.200000762939453,-17.100000381469727,-21.75
0.59,71.09821319580078,14.441824913024902,-27.657817840576172,-12.523736000061035,12.523736000061035,2.6646246910095215,-31.200000762939453,-17.100000381469727,-21.75
0.6,70.98329162597656,15.591041564941406,-26.929981231689453,-16.387441635131836,16.387441635131836,-5.196018218994141,-31.500001907348633,-17.400001525878906,-22.80000114440918
0.61,70.98329162597656,18.387468338012695,-26.393678665161133,-17.053598403930664,10.392036437988281,3.7304747104644775,-31.500001907348633,-17.400001525878906,-22.80000114440918
0.62,71.74943542480469,19.49837875366211,-25.39769172668457,-11.591117858886719,6.794793128967285,6.128636837005615,-31.200000762939453,-16.350000381469727,-22.200000762939453
0.64,73.0518798828125,20.187908172607422,-25.474306106567383,-15.055130004882812,4.529861927032471,3.0643184185028076,-30.900001525878906,-15.600000381469727,-22.200000762939453
0.643,73.16680145263672,21.490354537963867,-25.857378005981445,-4.529861927032471,-1.5987749099731445,5.062787055969238,-31.05000114440918,-15.750000953674316,-22.80000114440918
0.65,73.39664459228516,23.02264404296875,-27.964275360107422,6.395099639892578,-7.194486618041992,14.655436515808105,-31.05000114440918,-15.750000953674316,-22.80000114440918
0.66,73.39664459228516,24.095245361328125,-27.313053131103516,6.9280242919921875,0.39969372749328613,16.520673751831055,-31.650001525878906,-15.750000953674316,-22.80000114440918
0.67,71.97927856445312,19.99637222290039,-27.696125030517578,17.453292846679688,-5.329249382019043,10.658498764038086,-31.650001525878906,-16.80000114440918,-23.25
0.68,70.5619125366211,17.046716690063477,-28.423961639404297,31.842266082763672,-5.8621745109558105,11.324655532836914,-29.400001525878906,-16.80000114440918,-22.5
0.699,71.90266418457031,19.230228424072266,-28.73042106628418,26.246553421020508,0.0,14.655436515808105,-30.900001525878906,-18.30000114440918,-23.25
0.704,70.71514129638672,18.23423957824707,-26.929981231689453,3.86370587348938,1.7320060729980469,14.655436515808105,-32.55000305175781,-16.5,-22.350000381469727
0.711,71.71112823486328,16.05072784423828,-27.121517181396484,-0.5329249501228333,-7.194486618041992,39.569679260253906,-32.55000305175781,-16.5,-22.350000381469727
0.72,71.2514419555664,15.85919189453125,-27.619510650634766,0.7993874549865723,1.9984685182571411,25.580398559570312,-30.000001907348633,-17.400001525878906,-22.80000114440918
0.73,72.32404327392578,16.931795120239258,-29.22841453552246,-9.192955017089844,6.128636837005615,-1.3323123455047607,-28.950000762939453,-16.80000114440918,-22.200000762939453
0.74,71.74943542480469,18.387468338012695,-28.347347259521484,-2.2649309635162354,0.9326186776161194,6.5283308029174805,-32.400001525878906,-16.80000114440918,-22.950000762939453
0.76,71.71112823486328,20.226215362548828,-28.423961639404297,15.055130004882812,0.5329249501228333,13.58958625793457,-32.400001525878906,-17.55000114440918,-22.950000762939453
0.763,74.35432434082031,21.6818904876709,-26.240449905395508,5.995405673980713,-0.5329249501228333,15.987748146057129,-32.400001525878906,-17.55000114440918,-22.950000762939453
0.77,74.46924591064453,19.766529083251953,-25.51261329650879,8.526799201965332,-8.926492691040039,15.588054656982422,-30.150001525878906,-15.600000381469727,-24.0
0.78,74.08617401123047,16.855180740356445,-25.780763626098633,12.25727367401123,-25.7136287689209,16.920366287231445,-32.25,-18.900001525878906,-21.600000381469727
0.79,74.00955963134766,14.748282432556152,-26.929981231689453,9.192955017089844,-35.705970764160156,3.3307809829711914,-32.55000305175781,-16.950000762939453,-22.350000381469727
1.057,70.71514129638672,18.04270362854004,-29.76471519470215,2.9310872554779053,11.191424369812012,-2.531393527984619,-29.400001525878906,-16.350000381469727,-22.5
1.061,73.664794921875,20.800825119018555,-24.9763126373291,13.722817420959473,4.263399600982666,-3.3307809829711914,-30.900001525878906,-16.350000381469727,-23.700000762939453
1.067,71.48128509521484,19.421764373779297,-27.236438751220703,11.058192253112793,6.395099639892578,-9.592649459838867,-30.000001907348633,-15.450000762939453,-23.850000381469727
1.077,70.67683410644531,20.41775131225586,-25.857378005981445,23.448698043823242,-5.728943347930908,-3.4640121459960938,-30.750001907348633,-15.750000953674316,-24.150001525878906
1.087,71.48128509521484,18.962078094482422,-25.20615577697754,8.660030364990234,1.5987749099731445,-6.261868000030518,-30.750001907348633,-15.750000953674316,-24.150001525878906
1.097,71.8260498046875,16.66364288330078,-26.891674041748047,1.5987749099731445,5.329249382019043,-13.456355094909668,-31.950000762939453,-15.90000057220459,-22.950000762939453
1.107,71.09821319580078,16.242263793945312,-27.121517181396484,5.062787055969238,-7.72741174697876,-10.258805274963379,-30.750001907348633,-16.200000762939453,-23.850000381469727
1.126,70.83006286621094,18.808849334716797,-28.61549949645996,1.1990811824798584,-2.9310872554779053,-6.9280242919921875,-30.30000114440918,-15.450000762939453,-24.900001525878906
1.13,69.91069030761719,16.58702850341797,-29.381643295288086,-5.8621745109558105,13.056661605834961,-13.056661605834961,-29.400001525878906,-16.350000381469727,-24.750001907348633
1.137,69.91069030761719,18.54069709777832,-28.462270736694336,-3.7304747104644775,10.791729927062988,-4.130168437957764,-31.650001525878906,-16.80000114440918,-22.950000762939453
1.148,71.48128509521484,18.23423957824707,-27.044902801513672,-3.3307809829711914,12.124042510986328,-10.791729927062988,-31.650001525878906,-16.80000114440918,-22.950000762939453
1.157,70.86837005615234,19.038692474365234,-28.19411849975586,-1.1990811824798584,19.185298919677734,-8.660030364990234,-30.450000762939453,-15.600000381469727,-24.450000762939453
1.167,70.86837005615234,19.881450653076172,-28.232425689697266,3.7304747104644775,12.25727367401123,-7.194486618041992,-30.30000114440918,-16.200000762939453,-22.80000114440918
1.186,71.213134765625,19.230228424072266,-27.925968170166016,4.796324729919434,13.456355094909668,-7.460949420928955,-30.150001525878906,-15.600000381469727,-23.700000762939453
1.189,71.28974914550781,17.966089248657227,-26.776752471923828,15.721285820007324,1.7320060729980469,-8.660030364990234,-30.150001525878906,-15.600000381469727,-23.700000762939453
1.197,71.74943542480469,17.774553298950195,-28.653806686401367,8.39356803894043,12.25727367401123,-11.857580184936523,-30.150001525878906,-15.600000381469727,-23.700000762939453
1.207,71.02159881591797,19.038692474365234,-27.542896270751953,15.321592330932617,-2.531393527984619,7.194486618041992,-32.25,-15.450000762939453,-23.55000114440918
1.217,71.2514419555664,18.88546371459961,-27.46628189086914,8.39356803894043,4.529861927032471,-3.86370587348938,-31.650001525878906,-15.600000381469727,-24.450000762939453
1.227,70.48529815673828,16.89348793029785,-27.88766098022461,-2.531393527984619,9.326186180114746,-1.5987749099731445,-30.750001907348633,-16.950000762939453,-23.100000381469727
1.247,71.1748275756836,16.548721313476562,-27.236438751220703,-8.526799201965332,13.856048583984375,-4.529861927032471,-30.150001525878906,-15.90000057220459,-23.700000762939453
1.251,72.24742889404297,19.613300323486328,-27.46628189086914,-2.9310872554779053,-1.4655436277389526,-5.8621745109558105,-29.700000762939453,-16.80000114440918,-22.950000762939453
1.257,70.79175567626953,19.881450653076172,-28.040889739990234,-13.323123931884766,9.192955017089844,-3.86370587348938,-29.700000762939453,-16.80000114440918,-22.950000762939453
1.267,70.5619125366211,19.99637222290039,-27.849353790283203,-5.462480545043945,8.793261528015137,1.8652373552322388,-30.000001907348633,-14.550000190734863,-22.80000114440918
1.277,72.20912170410156,20.379444122314453,-26.738445281982422,6.395099639892578,3.3307809829711914,1.5987749099731445,-30.150001525878906,-14.850000381469727,-22.5
1.287,72.55388641357422,19.268535614013672,-26.700138092041016,9.72588062286377,-3.86370587348938,8.926492691040039,-31.650001525878906,-16.350000381469727,-23.25
1.303,72.24742889404297,20.64759635925293,-24.938005447387695,3.7304747104644775,-10.258805274963379,3.86370587348938,-31.200000762939453,-15.600000381469727,-22.950000762939453
1.308,73.32003021240234,19.230228424072266,-26.12552833557129,5.8621745109558105,-13.58958625793457,3.9969370365142822,-31.200000762939453,-15.600000381469727,-22.950000762939453
1.317,73.35833740234375,17.353174209594727,-27.006595611572266,5.995405673980713,-29.044410705566406,8.793261528015137,-31.80000114440918,-15.450000762939453,-23.100000381469727
1.327,72.4772720336914,15.437812805175781,-28.577192306518555,-1.9984685182571411,-15.588054656982422,-5.728943347930908,-30.900001525878906,-16.80000114440918,-23.700000762939453
1.337,70.6002197265625,14.058752059936523,-29.075185775756836,-10.791729927062988,-20.117916107177734,-7.194486618041992,-31.950000762939453,-16.80000114440918,-24.0
1.357,69.56592559814453,15.591041564941406,-30.224401473999023,-11.457886695861816,-19.98468589782715,19.718223571777344,-30.900001525878906,-16.350000381469727,-23.25
1.361,71.02159881591797,18.272546768188477,-30.37763023376465,-21.84992218017578,-3.197549819946289,-11.724349021911621,-30.900001525878906,-16.350000381469727,-23.25
1.368,68.60824584960938,19.613300323486328,-30.99054718017578,-26.113323211669922,1.0658499002456665,-8.926492691040039,-30.900001525878906,-16.350000381469727,-23.25
1.377,69.06793212890625,17.8128604888916,-29.190107345581055,-19.052066802978516,-1.5987749099731445,-4.396630764007568,-30.450000762939453,-16.80000114440918,-23.25
1.387,71.32805633544922,20.187908172607422,-29.994558334350586,-1.5987749099731445,0.2664624750614166,-12.923430442810059,-30.000001907348633,-15.450000762939453,-23.55000114440918
1.397,71.51959228515625,21.911733627319336,-30.952239990234375,-3.197549819946289,10.525267601013184,-13.856048583984375,-29.250001907348633,-14.550000190734863,-24.150001525878906
1.416,70.25545501708984,22.103269577026367,-28.53888511657715,4.929555892944336,3.3307809829711914,-10.658498764038086,-29.250001907348633,-16.5,-23.100000381469727
1.42,71.36636352539062,19.843143463134766,-27.542896270751953,4.929555892944336,7.06125545501709,-9.592649459838867,-29.250001907348633,-16.5,-23.100000381469727
1.428,71.55789947509766,17.8128604888916,-25.780763626098633,13.722817420959473,-5.995405673980713,2.531393527984619,-29.250001907348633,-15.750000953674316,-22.80000114440918
1.437,71.48128509521484,18.77054214477539,-24.746469497680664,6.661561965942383,-1.5987749099731445,-5.196018218994141,-29.55000114440918,-16.200000762939453,-23.100000381469727
1.447,71.59620666503906,18.847156524658203,-27.657817840576172,13.856048583984375,-11.324655532836914,2.6646246910095215,-31.650001525878906,-15.90000057220459,-22.950000762939453
1.457,69.87238311767578,17.238252639770508,-27.504589080810547,9.992342948913574,-11.457886695861816,-4.663093090057373,-30.30000114440918,-16.200000762939453,-23.850000381469727
1.477,70.17884063720703,17.238252639770508,-28.653806686401367,-0.7993874549865723,-1.9984685182571411,-15.721285820007324,-30.30000114440918,-16.200000762939453,-23.850000381469727
1.481,69.3360824584961,16.012420654296875,-28.653806686401367,-5.995405673980713,-3.9969370365142822,-14.255742073059082,-30.000001907348633,-14.550000190734863,-22.05000114440918
1.487,69.4126968383789,16.433799743652344,-26.163835525512695,-8.39356803894043,-10.791729927062988,-10.92496109008789,-30.000001907348633,-14.550000190734863,-22.05000114440918
1.497,70.40868377685547,16.625335693359375,-27.083209991455078,-17.32006072998047,-8.260336875915527,-8.127105712890625,-30.450000762939453,-15.15000057220459,-23.25
1.507,68.95301055908203,15.897499084472656,-28.998571395874023,-26.779478073120117,1.4655436277389526,-12.124042510986328,-30.150001525878906,-14.40000057220459,-24.450000762939453
1.517,69.64253997802734,16.855180740356445,-30.0711727142334,-33.30780792236328,1.0658499002456665,-20.650842666625977,-30.30000114440918,-16.5,-23.55000114440918
1.537,70.90667724609375,18.923770904541016,-30.415939331054688,-35.17304611206055,0.7993874549865723,-14.522205352783203,-30.30000114440918,-16.5,-23.55000114440918
1.541,70.79175567626953,21.14558982849121,-28.692113876342773,-27.045940399169922,0.7993874549865723,-8.926492691040039,-30.450000762939453,-14.850000381469727,-24.0
1.547,70.37037658691406,24.286781311035156,-28.92195701599121,-30.110260009765625,12.656967163085938,-8.793261528015137,-30.450000762939453,-14.850000381469727,-24.0
1.557,70.21714782714844,24.66985511779785,-29.34333610534668,-10.125574111938477,-0.2664624750614166,-16.65390396118164,-30.30000114440918,-15.000000953674316,-24.600000381469727
1.567,71.213134765625,23.52063751220703,-28.73042106628418,-6.261868000030518,10.791729927062988,-14.522205352783203,-29.400001525878906,-16.350000381469727,-22.5
1.577,71.2514419555664,22.90772247314453,-28.73042106628418,-3.86370587348938,15.45482349395752,-17.453292846679688,-29.400001525878906,-16.350000381469727,-22.5
1.597,69.64253997802734,22.60126495361328,-28.07919692993164,11.990811347961426,7.327718257904053,-4.796324729919434,-29.400001525878906,-16.350000381469727,-22.5
1.601,69.9489974975586,21.6818904876709,-26.623523712158203,11.058192253112793,11.857580184936523,0.1332312375307083,-31.80000114440918,-15.750000953674316,-23.100000381469727
1.608,72.20912170410156,21.45204734802246,-25.052927017211914,11.324655532836914,5.462480545043945,-4.396630764007568,-31.80000114440918,-15.750000953674316,-23.100000381469727
1.617,71.8643569946289,19.115306854248047,-27.811046600341797,6.9280242919921875,4.396630764007568,3.197549819946289,-30.900001525878906,-15.15000057220459,-22.5
1.627,69.60423278808594,16.318878173828125,-28.692113876342773,11.191424369812012,-0.5329249501228333,-2.2649309635162354,-31.500001907348633,-16.200000762939453,-24.600000381469727
1.637,69.18285369873047,17.966089248657227,-28.232425689697266,-1.1990811824798584,12.25727367401123,-5.995405673980713,-31.500001907348633,-16.200000762939453,-24.600000381469727
1.657,69.3743896484375,18.195932388305664,-27.58120346069336,2.531393527984619,18.119447708129883,-17.32006072998047,-30.450000762939453,-15.600000381469727,-23.25
1.661,70.14053344726562,19.153614044189453,-27.964275360107422,-0.9326186776161194,10.525267601013184,-17.852985382080078,-30.750001907348633,-15.450000762939453,-22.80000114440918
1.667,70.48529815673828,18.004396438598633,-28.500577926635742,2.131699800491333,9.992342948913574,-4.796324729919434,-30.450000762939453,-14.850000381469727,-24.750001907348633
1.677,70.0256118774414,19.230228424072266,-28.92195701599121,-3.9969370365142822,15.45482349395752,-11.857580184936523,-30.450000762939453,-14.850000381469727,-24.750001907348633
1.688,70.14053344726562,21.14558982849121,-27.734432220458984,-0.9326186776161194,11.191424369812012,-10.392036437988281,-30.450000762939453,-14.850000381469727,-24.750001907348633
1.697,70.83006286621094,21.413740158081055,-27.27474594116211,4.130168437957764,6.794793128967285,-3.4640121459960938,-31.500001907348633,-15.450000762939453,-24.150001525878906
1.718,71.7877426147461,21.37543296813965,-27.849353790283203,-3.3307809829711914,16.520673751831055,-8.660030364990234,-31.500001907348633,-14.550000190734863,-24.600000381469727
1.722,72.82203674316406,21.87342643737793,-27.044902801513672,12.923430442810059,5.8621745109558105,14.788667678833008,-30.000001907348633,-15.750000953674316,-23.55000114440918
1.727,73.28172302246094,20.379444122314453,-27.427974700927734,11.591117858886719,-2.9310872554779053,14.92189884185791,-31.500001907348633,-14.550000190734863,-23.850000381469727
1.737,72.05589294433594,20.072986602783203,-27.236438751220703,9.992342948913574,-2.797856092453003,-7.327718257904053,-31.500001907348633,-14.550000190734863,-23.850000381469727
1.747,71.8260498046875,19.19192123413086,-28.53888511657715,0.5329249501228333,9.592649459838867,-15.45482349395752,-29.55000114440918,-15.000000953674316,-22.80000114440918
1.757,70.75344848632812,19.651607513427734,-27.964275360107422,11.457886695861816,-3.0643184185028076,-13.189892768859863,-30.30000114440918,-15.450000762939453,-23.100000381469727
1.776,69.64253997802734,20.187908172607422,-27.77273941040039,2.9310872554779053,-0.7993874549865723,-0.7993874549865723,-31.500001907348633,-13.500000953674316,-24.150001525878906
1.78,71.28974914550781,18.54069709777832,-28.500577926635742,0.9326186776161194,2.9310872554779053,-5.595712184906006,-31.500001907348633,-14.550000190734863,-24.150001525878906
1.787,71.213134765625,19.766529083251953,-29.190107345581055,-3.7304747104644775,11.990811347961426,-7.194486618041992,-31.500001907348633,-14.550000190734863,-24.150001525878906
1.797,70.90667724609375,19.80483627319336,-28.155811309814453,-1.1990811824798584,-0.7993874549865723,-0.5329249501228333,-30.150001525878906,-14.850000381469727,-23.25
1.807,70.67683410644531,19.38345718383789,-28.500577926635742,-11.457886695861816,7.594180583953857,-5.462480545043945,-30.750001907348633,-15.450000762939453,-23.55000114440918
1.817,69.9489974975586,20.341136932373047,-27.849353790283203,-2.531393527984619,9.592649459838867,-7.460949420928955,-30.150001525878906,-14.40000057220459,-23.700000762939453
1.837,70.67683410644531,19.766529083251953,-27.27474594116211,6.395099639892578,-3.597243309020996,2.797856092453003,-32.25,-15.000000953674316,-23.100000381469727
1.841,70.98329162597656,20.149600982666016,-28.117504119873047,0.9326186776161194,4.663093090057373,-3.9969370365142822,-31.05000114440918,-15.750000953674316,-22.350000381469727
2.047,69.75746154785156,19.230228424072266,-29.15180015563965,-17.186830520629883,8.39356803894043,-6.128636837005615,-29.700000762939453,-16.350000381469727,-23.25
2.057,70.83006286621094,22.06496238708496,-26.278757095336914,-8.39356803894043,2.398162364959717,-5.728943347930908,-30.30000114440918,-15.450000762939453,-23.100000381469727
2.077,71.28974914550781,23.788787841796875,-27.044902801513672,-4.396630764007568,4.130168437957764,-2.531393527984619,-30.30000114440918,-15.450000762939453,-23.100000381469727
2.08,69.48931121826172,23.52063751220703,-27.198131561279297,9.059723854064941,-0.5329249501228333,1.4655436277389526,-31.200000762939453,-14.850000381469727,-22.950000762939453
2.087,70.90667724609375,21.337125778198242,-27.657817840576172,10.658498764038086,3.0643184185028076,-7.327718257904053,-29.400001525878906,-16.350000381469727,-22.5
2.097,70.21714782714844,20.685903549194336,-27.121517181396484,11.724349021911621,2.131699800491333,0.2664624750614166,-31.500001907348633,-16.200000762939453,-23.55000114440918
2.107,70.67683410644531,19.268535614013672,-27.121517181396484,12.390504837036133,-1.8652373552322388,0.7993874549865723,-28.950000762939453,-13.65000057220459,-24.450000762939453
2.117,70.86837005615234,20.187908172607422,-27.236438751220703,17.186830520629883,-3.86370587348938,-2.2649309635162354,-28.950000762939453,-13.65000057220459,-24.450000762939453
2.136,71.32805633544922,19.651607513427734,-27.734432220458984,4.396630764007568,7.194486618041992,-11.191424369812012,-31.200000762939453,-14.850000381469727,-23.25
2.14,69.79576873779297,18.195932388305664,-27.696125030517578,-5.062787055969238,2.398162364959717,1.0658499002456665,-30.750001907348633,-15.450000762939453,-22.80000114440918
2.147,70.6002197265625,17.31486701965332,-28.19411849975586,0.0,-0.6661561727523804,7.860642910003662,-30.450000762939453,-15.600000381469727,-23.25
2.157,71.32805633544922,18.4257755279541,-27.542896270751953,-12.390504837036133,8.793261528015137,-6.261868000030518,-29.250001907348633,-15.750000953674316,-23.100000381469727
2.167,71.13652038574219,19.268535614013672,-27.46628189086914,-8.793261528015137,4.396630764007568,-12.124042510986328,-29.700000762939453,-14.100000381469727,-23.25
2.177,70.79175567626953,19.843143463134766,-28.117504119873047,-7.72741174697876,5.462480545043945,-1.3323123455047607,-29.700000762939453,-14.100000381469727,-23.25
2.197,71.59620666503906,21.298818588256836,-27.389667510986328,-3.7304747104644775,-0.5329249501228333,2.2649309635162354,-31.200000762939453,-14.100000381469727,-23.700000762939453
2.2,72.09420013427734,20.76251792907715,-27.083209991455078,-0.6661561727523804,-4.663093090057373,-1.4655436277389526,-30.900001525878906,-14.40000057220459,-23.25
2.207,72.28573608398438,20.11129379272461,-27.657817840576172,-1.0658499002456665,-5.995405673980713,1.1990811824798584,-30.900001525878906,-15.15000057220459,-21.75
2.217,70.17884063720703,20.30282974243164,-27.236438751220703,0.7993874549865723,-9.326186180114746,-3.3307809829711914,-31.500001907348633,-15.450000762939453,-23.850000381469727
2.227,71.48128509521484,21.337125778198242,-27.542896270751953,-5.329249382019043,-1.9984685182571411,-3.597243309020996,-31.500001907348633,-15.450000762939453,-23.850000381469727
2.237,70.48529815673828,20.609289169311523,-28.347347259521484,7.594180583953857,-6.5283308029174805,-5.595712184906006,-30.750001907348633,-15.450000762939453,-23.100000381469727
2.257,71.1748275756836,19.99637222290039,-28.960264205932617,11.058192253112793,-13.58958625793457,-0.6661561727523804,-30.450000762939453,-16.350000381469727,-23.25
2.261,70.79175567626953,19.766529083251953,-26.470293045043945,3.86370587348938,-5.329249382019043,-4.529861927032471,-30.900001525878906,-14.850000381469727,-23.700000762939453
2.267,70.33206939697266,18.11931800842285,-27.313053131103516,-5.595712184906006,-7.594180583953857,-0.6661561727523804,-30.900001525878906,-14.850000381469727,-23.700000762939453
2.277,70.79175567626953,18.464082717895508,-27.849353790283203,0.6661561727523804,-12.790199279785156,2.531393527984619,-30.750001907348633,-15.000000953674316,-24.150001525878906
2.287,70.48529815673828,19.07699966430664,-28.347347259521484,-1.0658499002456665,-13.722817420959473,0.39969372749328613,-30.750001907348633,-15.000000953674316,-24.150001525878906
2.297,70.14053344726562,18.732234954833984,-29.53487205505371,-10.658498764038086,-4.663093090057373,-5.995405673980713,-29.400001525878906,-15.600000381469727,-22.950000762939453
2.317,69.48931121826172,19.613300323486328,-29.726408004760742,-13.722817420959473,-6.9280242919921875,-3.7304747104644775,-31.200000762939453,-14.40000057220459,-24.0
2.32,69.45100402832031,19.99637222290039,-29.688100814819336,-11.324655532836914,-0.9326186776161194,-7.460949420928955,-30.30000114440918,-15.000000953674316,-23.55000114440918
2.327,71.09821319580078,20.30282974243164,-28.347347259521484,-6.661561965942383,-3.0643184185028076,-6.395099639892578,-30.30000114440918,-15.000000953674316,-23.55000114440918
2.337,70.79175567626953,21.0689754486084,-28.883649826049805,-7.06125545501709,1.9984685182571411,-3.4640121459960938,-30.30000114440918,-15.000000953674316,-23.55000114440918
2.347,71.51959228515625,21.298818588256836,-30.760704040527344,-4.663093090057373,-6.794793128967285,-2.131699800491333,-29.700000762939453,-15.15000057220459,-24.0
2.357,70.79175567626953,21.0689754486084,-30.224401473999023,2.6646246910095215,-7.594180583953857,1.5987749099731445,-31.80000114440918,-14.250000953674316,-25.650001525878906
2.377,71.44297790527344,20.685903549194336,-29.190107345581055,4.130168437957764,1.1990811824798584,-3.86370587348938,-29.700000762939453,-14.850000381469727,-24.450000762939453
2.38,70.21714782714844,22.026655197143555,-30.109479904174805,8.526799201965332,-4.529861927032471,-5.8621745109558105,-30.150001525878906,-15.90000057220459,-23.25
2.387,71.97927856445312,21.298818588256836,-27.88766098022461,15.588054656982422,-9.592649459838867,4.529861927032471,-30.150001525878906,-15.90000057220459,-23.25
2.397,71.32805633544922,20.034679412841797,-28.8453426361084,8.660030364990234,-2.9310872554779053,-3.197549819946289,-30.150001525878906,-15.90000057220459,-23.25
2.407,71.1748275756836,17.046716690063477,-30.68408966064453,0.5329249501228333,-0.9326186776161194,-6.395099639892578,-29.700000762939453,-15.600000381469727,-24.0
2.417,69.48931121826172,17.583017349243164,-30.60747528076172,-0.1332312375307083,-8.926492691040039,-0.2664624750614166,-31.05000114440918,-15.000000953674316,-23.850000381469727
2.437,69.29777526855469,17.92778205871582,-31.10546875,-1.1990811824798584,-1.8652373552322388,-3.0643184185028076,-30.450000762939453,-16.350000381469727,-22.5
2.441,70.21714782714844,18.77054214477539,-30.68408966064453,-3.3307809829711914,2.9310872554779053,8.793261528015137,-29.250001907348633,-14.550000190734863,-22.350000381469727
2.447,69.10623931884766,18.88546371459961,-31.52684783935547,-6.128636837005615,5.062787055969238,-4.929555892944336,-29.250001907348633,-14.550000190734863,-22.350000381469727
2.457,70.6385269165039,18.962078094482422,-31.373619079589844,-4.130168437957764,4.130168437957764,-2.131699800491333,-31.500001907348633,-15.750000953674316,-22.80000114440918
2.467,70.0256118774414,19.49837875366211,-28.768728256225586,-13.056661605834961,11.191424369812012,-10.791729927062988,-31.05000114440918,-15.450000762939453,-23.100000381469727
2.477,71.13652038574219,19.230228424072266,-28.462270736694336,-8.660030364990234,7.06125545501709,-5.595712184906006,-30.750001907348633,-15.450000762939453,-23.55000114440918
2.497,71.74943542480469,18.923770904541016,-27.964275360107422,1.5987749099731445,-1.7320060729980469,3.7304747104644775,-30.000001907348633,-14.550000190734863,-23.100000381469727
2.5,71.09821319580078,20.95405387878418,-29.917943954467773,3.197549819946289,-6.128636837005615,10.791729927062988,-30.000001907348633,-14.550000190734863,-23.100000381469727
2.507,70.06391906738281,16.203956604003906,-29.381643295288086,-1.4655436277389526,5.462480545043945,0.7993874549865723,-30.30000114440918,-15.000000953674316,-24.600000381469727
2.517,69.83407592773438,13.369222640991211,-30.339323043823242,0.9326186776161194,-2.131699800491333,-0.2664624750614166,-30.30000114440918,-15.450000762939453,-22.80000114440918
2.527,69.10623931884766,12.641385078430176,-28.347347259521484,-2.797856092453003,4.263399600982666,6.794793128967285,-30.900001525878906,-15.15000057220459,-24.0
2.537,67.5739517211914,12.411541938781738,-28.960264205932617,-17.719755172729492,10.258805274963379,0.9326186776161194,-31.05000114440918,-15.450000762939453,-23.850000381469727
2.556,67.76548767089844,11.338939666748047,-29.381643295288086,-15.055130004882812,10.791729927062988,16.920366287231445,-31.05000114440918,-15.450000762939453,-23.850000381469727
2.56,68.07194519042969,12.02846908569336,-30.79901123046875,-27.045940399169922,31.575803756713867,3.197549819946289,-31.200000762939453,-14.850000381469727,-23.25
2.567,68.41670989990234,13.177685737609863,-29.266721725463867,-28.644716262817383,33.4410400390625,10.392036437988281,-31.650001525878906,-12.90000057220459,-23.700000762939453
2.577,70.14053344726562,14.863204002380371,-26.96828842163086,-27.71209716796875,35.705970764160156,3.86370587348938,-30.000001907348633,-15.750000953674316,-23.100000381469727
2.587,69.48931121826172,16.242263793945312,-27.389667510986328,-23.98162269592285,31.042879104614258,17.586523056030273,-30.900001525878906,-15.15000057220459,-24.0
2.597,71.1748275756836,14.97812557220459,-26.85336685180664,-16.12097930908203,21.583459854125977,24.64777946472168,-30.30000114440918,-15.450000762939453,-23.100000381469727
2.617,72.82203674316406,15.897499084472656,-27.925968170166016,-9.059723854064941,29.31087303161621,25.18070411682129,-30.30000114440918,-15.450000762939453,-23.100000381469727
2.62,72.59219360351562,18.272546768188477,-29.266721725463867,7.460949420928955,26.64624786376953,27.978559494018555,-30.750001907348633,-15.750000953674316,-21.600000381469727
2.627,70.33206939697266,18.88546371459961,-29.95625114440918,16.78713607788086,21.45022964477539,32.77488327026367,-30.900001525878906,-15.600000381469727,-23.25
2.637,69.29777526855469,18.004396438598633,-31.90991973876953,19.185298919677734,41.434913635253906,37.57120895385742,-30.750001907348633,-15.450000762939453,-23.850000381469727
2.647,67.34410858154297,14.403517723083496,-31.29700469970703,26.912710189819336,42.101070404052734,42.101070404052734,-30.750001907348633,-15.750000953674316,-21.600000381469727
2.657,68.03363800048828,12.181697845458984,-30.301015853881836,25.580398559570312,42.23430252075195,37.17151641845703,-30.750001907348633,-15.750000953674316,-21.600000381469727
2.676,68.30178833007812,12.48815631866455,-27.88766098022461,24.381317138671875,41.035221099853516,34.24042892456055,-32.400001525878906,-16.350000381469727,-20.700000762939453
2.68,69.29777526855469,14.135366439819336,-26.815059661865234,4.663093090057373,35.705970764160156,39.569679260253906,-31.200000762939453,-16.350000381469727,-22.200000762939453
2.687,70.21714782714844,12.22000503540039,-26.508602142333984,-0.5329249501228333,31.709033966064453,33.30780792236328,-32.25,-16.5,-21.30000114440918
2.697,70.94498443603516,12.29662036895752,-28.002582550048828,-9.059723854064941,25.7136287689209,35.306278228759766,-31.500001907348633,-16.950000762939453,-20.100000381469727
2.707,70.94498443603516,15.399505615234375,-26.393678665161133,-22.116384506225586,29.31087303161621,32.24195861816406,-32.25,-16.5,-23.100000381469727
2.717,71.7877426147461,18.77054214477539,-27.389667510986328,-18.385910034179688,22.915773391723633,35.839202880859375,-32.25,-16.5,-23.100000381469727
2.738,71.8643569946289,19.919757843017578,-29.381643295288086,-12.25727367401123,16.520673751831055,37.4379768371582,-30.000001907348633,-16.5,-22.05000114440918
2.742,71.09821319580078,21.37543296813965,-29.803022384643555,-6.5283308029174805,14.522205352783203,31.042879104614258,-31.200000762939453,-19.05000114440918,-21.75
2.747,70.17884063720703,22.562957763671875,-31.29700469970703,-3.3307809829711914,21.84992218017578,30.643184661865234,-31.500001907348633,-17.700000762939453,-21.600000381469727
2.757,69.87238311767578,21.87342643737793,-29.803022384643555,9.059723854064941,6.794793128967285,48.8958625793457,-30.750001907348633,-17.700000762939453,-21.600000381469727
2.767,68.03363800048828,23.558944702148438,-31.450233459472656,15.055130004882812,12.923430442810059,44.89892578125,-30.750001907348633,-17.700000762939453,-21.600000381469727
2.777,66.57795715332031,24.36339569091797,-31.756690979003906,12.25727367401123,23.715160369873047,44.09954071044922,-31.950000762939453,-19.05000114440918,-21.450000762939453
2.796,65.35212707519531,26.66183090209961,-30.79901123046875,26.912710189819336,23.848390579223633,43.03369140625,-31.05000114440918,-18.150001525878906,-21.600000381469727
2.8,68.22517395019531,29.03687858581543,-26.85336685180664,52.493106842041016,6.261868000030518,56.62327575683594,-31.05000114440918,-18.900001525878906,-21.600000381469727
2.807,63.93476104736328,24.36339569091797,-33.25067138671875,60.75344467163086,20.517610549926758,34.10719680786133,-31.650001525878906,-18.30000114440918,-20.700000762939453
2.817,61.71294403076172,22.218191146850586,-34.55311965942383,67.14854431152344,20.650842666625977,19.718223571777344,-31.650001525878906,-19.05000114440918,-21.75
2.827,59.72096633911133,21.37543296813965,-36.430171966552734,49.82848358154297,9.72588062286377,27.17917251586914,-31.650001525878906,-19.05000114440918,-21.75
2.837,59.60604476928711,17.889474868774414,-33.7869758605957,37.57120895385742,13.58958625793457,8.260336875915527,-30.30000114440918,-20.100000381469727,-20.850000381469727
2.856,61.751251220703125,18.464082717895508,-34.284969329833984,26.246553421020508,16.25421142578125,14.388973236083984,-31.80000114440918,-18.900001525878906,-20.850000381469727
2.86,68.49332427978516,29.22841453552246,-29.611486434936523,5.462480545043945,18.119447708129883,22.915773391723633,-32.400001525878906,-20.55000114440918,-21.75
2.867,69.45100402832031,27.389667510986328,-30.722396850585938,13.58958625793457,5.462480545043945,23.98162269592285,-31.950000762939453,-19.5,-19.650001525878906
2.877,71.59620666503906,27.121517181396484,-30.837318420410156,7.594180583953857,6.128636837005615,29.444103240966797,-31.950000762939453,-19.5,-19.650001525878906
2.887,73.58818054199219,28.117504119873047,-30.79901123046875,0.9326186776161194,5.728943347930908,21.050535202026367,-32.55000305175781,-20.850000381469727,-19.80000114440918
2.897,76.42292022705078,27.121517181396484,-32.21637725830078,-0.2664624750614166,-8.526799201965332,27.31240463256836,-31.80000114440918,-20.850000381469727,-20.850000381469727
2.916,78.52981567382812,27.964275360107422,-34.62973403930664,-14.655436515808105,-11.591117858886719,19.185298919677734,-32.55000305175781,-20.850000381469727,-21.30000114440918
2.92,77.34229278564453,30.760704040527344,-35.54910659790039,-30.37672233581543,-6.128636837005615,3.597243309020996,-30.450000762939453,-21.0,-20.700000762939453
2.927,75.61846923828125,30.530860900878906,-38.65199279785156,-40.76875686645508,-14.522205352783203,-6.9280242919921875,-31.650001525878906,-20.55000114440918,-22.5
2.937,74.92893981933594,30.4925537109375,-38.728607177734375,-44.63246536254883,-20.117916107177734,-7.594180583953857,-31.650001525878906,-20.55000114440918,-22.5
2.947,73.0901870727539,31.83330535888672,-39.72459411621094,-54.22511291503906,-10.125574111938477,-33.84073257446289,-30.750001907348633,-20.100000381469727,-20.850000381469727
2.957,71.55789947509766,36.16202163696289,-39.37982940673828,-58.62174606323242,-17.986217498779297,-31.44257164001465,-31.500001907348633,-21.150001525878906,-20.850000381469727
2.977,72.28573608398438,35.6257209777832,-35.93217849731445,-47.430320739746094,-31.309341430664062,-40.9019889831543,-31.80000114440918,-20.100000381469727,-21.30000114440918
2.98,72.09420013427734,39.99274444580078,-36.621707916259766,-47.297088623046875,-31.042879104614258,-67.94792938232422,-32.25,-20.100000381469727,-22.350000381469727
2.987,70.75344848632812,39.99274444580078,-37.311241149902344,-25.846860885620117,-38.90352249145508,-75.8085708618164,-32.25,-20.100000381469727,-22.350000381469727
2.997,71.48128509521484,38.728607177734375,-37.96246337890625,-2.797856092453003,-56.62327575683594,-85.26799011230469,-33.0,-18.150001525878906,-22.05000114440918
3.007,72.05589294433594,39.30321502685547,-38.000770568847656,15.854516983032227,-70.3460922241211,-95.12710571289062,-31.650001525878906,-18.75,-22.5
3.017,71.94097137451172,38.537071228027344,-39.18829345703125,16.920366287231445,-65.28330993652344,-98.19142150878906,-30.900001525878906,-17.55000114440918,-22.5
3.037,69.22116088867188,34.782962799072266,-39.762901306152344,17.852985382080078,-70.21286010742188,-95.26033782958984,-30.30000114440918,-18.150001525878906,-22.05000114440918
3.041,67.42072296142578,31.756690979003906,-38.920143127441406,19.98468589782715,-81.27105712890625,-130.1669158935547,-31.650001525878906,-19.05000114440918,-23.700000762939453
3.047,66.38642120361328,29.611486434936523,-39.91613006591797,19.31852912902832,-84.73506927490234,-130.56661987304688,-31.650001525878906,-19.05000114440918,-23.700000762939453
3.057,66.04165649414062,30.032865524291992,-37.311241149902344,3.597243309020996,-81.13782501220703,-148.28636169433594,-31.05000114440918,-15.750000953674316,-23.55000114440918
3.067,67.45903015136719,32.52283477783203,-37.043087005615234,0.5329249501228333,-94.32771301269531,-142.29095458984375,-31.200000762939453,-15.90000057220459,-23.25
3.077,67.91871643066406,34.13174057006836,-37.96246337890625,-5.728943347930908,-99.79019927978516,-135.76263427734375,-29.400001525878906,-16.350000381469727,-23.700000762939453
3.096,69.60423278808594,35.77894973754883,-37.11970138549805,-10.791729927062988,-106.58499145507812,-137.62786865234375,-30.450000762939453,-15.90000057220459,-24.450000762939453
3.1,70.17884063720703,36.8515510559082,-34.09343338012695,-16.25421142578125,-92.46247863769531,-142.4241943359375,-28.950000762939453,-14.40000057220459,-25.200000762939453
3.107,70.5619125366211,37.77092742919922,-31.52684783935547,-6.261868000030518,-122.70597076416016,-144.02296447753906,-28.950000762939453,-14.40000057220459,-25.200000762939453
3.117,71.02159881591797,37.96246337890625,-32.52283477783203,-5.329249382019043,-126.30321502685547,-138.42726135253906,-27.900001525878906,-13.65000057220459,-24.0
3.127,69.14454650878906,35.5874137878418,-42.29117965698242,13.856048583984375,-121.10719299316406,-155.34762573242188,-29.250001907348633,-12.750000953674316,-26.100000381469727
3.137,66.34811401367188,33.71036148071289,-40.03105163574219,22.51607894897461,-120.97396087646484,-148.0198974609375,-28.500001907348633,-13.050000190734863,-26.850000381469727
3.15,63.01538848876953,36.621707916259766,-38.49876403808594,25.7136287689209,-109.11638641357422,-150.55130004882812,-27.450000762939453,-13.200000762939453,-25.80000114440918
3.157,65.62027740478516,32.02484130859375,-35.089420318603516,11.191424369812012,-103.38744354248047,-144.1562042236328,-27.450000762939453,-13.200000762939453,-25.80000114440918
3.167,66.9610366821289,29.688100814819336,-35.35757064819336,13.456355094909668,-103.65390014648438,-150.55130004882812,-27.000001907348633,-13.500000953674316,-27.150001525878906
3.177,65.42874145507812,28.61549949645996,-32.75267791748047,11.591117858886719,-113.51301574707031,-145.6217498779297,-26.250001907348633,-10.800000190734863,-27.900001525878906
3.187,66.11827087402344,31.258697509765625,-33.863590240478516,-7.72741174697876,-103.7871322631836,-139.89280700683594,-25.950000762939453,-10.5,-27.30000114440918
3.197,66.04165649414062,32.21637725830078,-35.47249221801758,1.4655436277389526,-101.65543365478516,-152.68299865722656,-25.650001525878906,-10.950000762939453,-27.30000114440918
3.216,63.283538818359375,31.29700469970703,-38.422149658203125,6.5283308029174805,-104.5865249633789,-144.1562042236328,-26.700000762939453,-8.25,-28.05000114440918
3.22,63.436767578125,33.71036148071289,-35.5874137878418,2.398162364959717,-92.59571075439453,-140.42572021484375,-24.30000114440918,-7.650000095367432,-29.400001525878906
3.227,62.862159729003906,33.59543991088867,-34.9744987487793,4.663093090057373,-83.5359878540039,-150.2848358154297,-24.30000114440918,-7.650000095367432,-29.400001525878906
3.237,65.04566955566406,32.21637725830078,-35.74064254760742,-7.460949420928955,-90.99693298339844,-144.02296447753906,-24.0,-7.200000286102295,-28.950000762939453
3.247,66.07996368408203,30.875625610351562,-34.93619155883789,-18.119447708129883,-89.5313949584961,-134.43031311035156,-24.450000762939453,-7.050000190734863,-29.55000114440918
3.257,64.47106170654297,28.73042106628418,-34.32327651977539,-23.04900360107422,-93.79479217529297,-125.90351867675781,-24.450000762939453,-7.050000190734863,-29.55000114440918
3.269,61.98109436035156,30.60747528076172,-31.29700469970703,-13.456355094909668,-98.4578857421875,-119.10872650146484,-22.5,-6.150000095367432,-31.200000762939453
3.277,62.13432312011719,31.258697509765625,-32.292991638183594,-3.86370587348938,-103.38744354248047,-124.17151641845703,-22.950000762939453,-7.050000190734863,-30.600000381469727
3.287,61.36817932128906,31.986534118652344,-33.51882553100586,-4.529861927032471,-91.52986145019531,-116.0444107055664,-22.80000114440918,-5.700000286102295,-30.900001525878906
3.297,59.337894439697266,31.028854370117188,-35.31926345825195,-9.859111785888672,-80.47166442871094,-124.57120513916016,-22.950000762939453,-4.800000190734863,-31.05000114440918
3.307,57.03946304321289,30.0711727142334,-36.58340072631836,2.131699800491333,-81.53751373291016,-106.71822357177734,-22.950000762939453,-4.800000190734863,-31.05000114440918
3.317,57.38422775268555,30.760704040527344,-35.817256927490234,3.86370587348938,-71.41194152832031,-101.78866577148438,-21.150001525878906,-3.6000001430511475,-29.850000381469727
3.336,59.06974411010742,31.7183837890625,-32.790985107421875,-4.929555892944336,-58.754974365234375,-95.52679443359375,-21.150001525878906,-3.6000001430511475,-31.350000381469727
3.339,59.26128005981445,31.90991973876953,-31.52684783935547,0.5329249501228333,-63.418067932128906,-90.33078002929688,-21.30000114440918,-2.25,-31.500001907348633
3.347,58.76328659057617,31.143775939941406,-31.986534118652344,3.4640121459960938,-63.418067932128906,-80.73812866210938,-19.200000762939453,-3.6000001430511475,-32.85000228881836
3.357,59.79758071899414,30.99054718017578,-33.82528305053711,10.791729927062988,-56.62327575683594,-75.5421142578125,-20.55000114440918,-4.200000286102295,-30.900001525878906
3.367,59.60604476928711,31.488540649414062,-33.13574981689453,13.189892768859863,-47.696781158447266,-69.54670715332031,-20.55000114440918,-4.200000286102295,-30.900001525878906
3.386,60.065731048583984,30.224401473999023,-33.863590240478516,17.719755172729492,-56.356815338134766,-52.89280319213867,-20.700000762939453,-4.050000190734863,-31.350000381469727
3.39,57.95883560180664,28.998571395874023,-32.676063537597656,18.2526798248291,-50.76110076904297,-47.163856506347656,-18.900001525878906,-1.350000023841858,-33.30000305175781
3.397,57.34592056274414,29.190107345581055,-36.46847915649414,12.790199279785156,-35.306278228759766,-42.36753463745117,-19.200000762939453,-2.1000001430511475,-32.10000228881836
3.407,57.614070892333984,28.883649826049805,-38.95845031738281,18.2526798248291,-19.45176124572754,-21.45022964477539,-20.25,-1.8000000715255737,-32.25
3.417,58.57175064086914,30.301015853881836,-37.19631576538086,19.85145378112793,-6.9280242919921875,4.929555892944336,-20.25,-1.8000000715255737,-32.25
3.427,63.97306823730469,29.726408004760742,-37.77092742919922,5.8621745109558105,16.65390396118164,4.396630764007568,-17.700000762939453,-3.1500000953674316,-32.55000305175781
3.437,66.76950073242188,27.121517181396484,-36.88985824584961,0.6661561727523804,34.10719680786133,12.656967163085938,-18.900001525878906,-2.4000000953674316,-33.30000305175781
3.45,68.07194519042969,26.31706428527832,-31.756690979003906,-1.3323123455047607,42.101070404052734,30.509952545166016,-18.30000114440918,-1.5,-33.45000076293945
3.457,68.56993865966797,28.462270736694336,-22.409727096557617,8.260336875915527,32.90811538696289,49.29555892944336,-19.200000762939453,-3.1500000953674316,-34.650001525878906
3.467,69.3743896484375,27.044902801513672,-21.0689754486084,10.658498764038086,31.176109313964844,44.89892578125,-19.5,-3.0,-33.45000076293945
3.477,66.27149963378906,27.964275360107422,-27.964275360107422,21.050535202026367,25.313934326171875,48.22970962524414,-19.5,-3.0,-33.45000076293945
3.487,62.40247344970703,25.780763626098633,-27.389667510986328,36.905052185058594,4.263399600982666,61.41960144042969,-19.200000762939453,-2.8500001430511475,-32.10000228881836
3.497,61.10002899169922,27.198131561279297,-32.25468444824219,46.09800720214844,14.12251091003418,66.61561584472656,-19.200000762939453,-3.6000001430511475,-32.55000305175781
3.513,56.120086669921875,25.435998916625977,-41.10365295410156,77.67381286621094,25.580398559570312,80.60489654541016,-19.5,-3.450000047683716,-33.0
3.517,49.9143180847168,23.980323791503906,-43.67023849487305,77.00765228271484,21.45022964477539,82.33690643310547,-20.55000114440918,-2.700000047683716,-31.500001907348633
3.527,51.1401481628418,23.3291015625,-39.839515686035156,80.47166442871094,38.37059783935547,71.41194152832031,-20.55000114440918,-2.700000047683716,-31.500001907348633
3.537,53.170433044433594,22.026655197143555,-37.19631576538086,61.9525260925293,54.22511291503906,84.4686050415039,-19.05000114440918,-4.200000286102295,-33.45000076293945
3.547,56.50315856933594,20.64759635925293,-31.488540649414062,57.822357177734375,52.093414306640625,119.64165496826172,-19.200000762939453,-5.100000381469727,-31.80000114440918
3.566,57.84391403198242,22.60126495361328,-33.365596771240234,45.831546783447266,47.430320739746094,119.24195861816406,-19.80000114440918,-4.950000286102295,-32.70000076293945
3.57,59.5294303894043,21.45204734802246,-36.54509353637695,50.62786865234375,59.68759536743164,130.96630859375,-19.5,-6.450000286102295,-33.75
3.577,60.48711013793945,25.435998916625977,-36.8515510559082,53.42572784423828,64.88361358642578,138.96017456054688,-19.5,-7.200000286102295,-32.25
3.587,60.372188568115234,23.75048065185547,-40.83550262451172,72.61102294921875,69.4134750366211,133.09800720214844,-19.5,-7.200000286102295,-32.25
3.597,61.71294403076172,22.103269577026367,-41.180267333984375,73.14395141601562,73.9433364868164,134.03062438964844,-21.450000762939453,-7.050000190734863,-31.80000114440918
3.607,62.555702209472656,22.409727096557617,-38.537071228027344,67.01531219482422,83.80245208740234,142.5574188232422,-21.30000114440918,-8.40000057220459,-33.0
3.617,65.73519897460938,21.030668258666992,-37.924156188964844,60.08728790283203,79.67227935791016,156.679931640625,-22.5,-10.800000190734863,-32.25
3.633,66.57795715332031,15.974113464355469,-34.01681900024414,9.059723854064941,77.14088439941406,148.8192901611328,-23.55000114440918,-8.850000381469727,-32.25
3.637,66.65457153320312,6.703764915466309,-35.35757064819336,-5.196018218994141,74.07656860351562,155.747314453125,-23.55000114440918,-8.850000381469727,-32.25
3.647,65.888427734375,6.282385349273682,-36.58340072631836,-25.580398559570312,71.01225280761719,133.49769592285156,-22.05000114440918,-10.350000381469727,-30.900001525878906
3.657,63.24523162841797,8.006210327148438,-36.77493667602539,-46.764163970947266,76.20826721191406,149.08575439453125,-22.80000114440918,-11.550000190734863,-31.200000762939453
3.667,62.785545349121094,10.84094524383545,-37.00477981567383,-66.08269500732422,84.86830139160156,146.82083129882812,-22.650001525878906,-10.950000762939453,-31.05000114440918
3.686,66.73119354248047,14.595053672790527,-36.58340072631836,-85.13475799560547,90.86370086669922,140.82542419433594,-23.55000114440918,-10.800000190734863,-31.950000762939453
3.69,68.03363800048828,15.705963134765625,-37.387855529785156,-86.20060729980469,91.79632568359375,145.48851013183594,-25.200000762939453,-11.700000762939453,-30.30000114440918
3.697,72.13250732421875,16.47210693359375,-31.948226928710938,-83.80245208740234,78.60643005371094,145.48851013183594,-25.200000762939453,-11.700000762939453,-30.30000114440918
3.707,74.2777099609375,18.4257755279541,-32.599449157714844,-82.07044219970703,77.54058074951172,132.83154296875,-24.750001907348633,-11.550000190734863,-29.400001525878906
3.717,75.69508361816406,19.07699966430664,-34.20835494995117,-71.2787094116211,69.01377868652344,119.5084228515625,-24.750001907348633,-10.800000190734863,-31.500001907348633
3.727,74.46924591064453,20.724210739135742,-34.09343338012695,-50.89433288574219,57.822357177734375,110.04900360107422,-24.450000762939453,-12.450000762939453,-30.30000114440918
3.737,72.13250732421875,20.64759635925293,-34.74465560913086,-39.03675079345703,59.02143859863281,106.98468017578125,-25.80000114440918,-12.300000190734863,-30.150001525878906
3.751,69.9489974975586,18.808849334716797,-34.9744987487793,-31.575803756713867,65.81623077392578,63.551300048828125,-25.80000114440918,-12.300000190734863,-30.150001525878906
3.757,69.79576873779297,14.326903343200684,-36.736629486083984,-11.724349021911621,61.9525260925293,96.99234008789062,-25.80000114440918,-12.300000190734863,-29.700000762939453
3.767,71.55789947509766,12.60307788848877,-34.782962799072266,-13.58958625793457,62.085758209228516,76.60796356201172,-25.950000762939453,-13.200000762939453,-29.55000114440918
3.777,73.12849426269531,14.556746482849121,-34.51481246948242,-28.511484146118164,71.67840576171875,66.882080078125,-24.900001525878906,-13.200000762939453,-29.250001907348633
3.787,74.43093872070312,12.986149787902832,-34.591426849365234,-35.839202880859375,66.74884796142578,64.61714935302734,-26.700000762939453,-12.90000057220459,-28.500001907348633
3.797,73.12849426269531,11.568782806396484,-33.32728576660156,-51.560489654541016,62.485450744628906,73.41041564941406,-26.400001525878906,-12.15000057220459,-28.80000114440918
3.813,73.47325897216797,11.798625946044922,-29.611486434936523,-71.54517364501953,52.3598747253418,68.61408996582031,-25.80000114440918,-13.800000190734863,-28.200000762939453
3.817,73.93294525146484,13.828908920288086,-30.454246520996094,-78.07350158691406,54.4915771484375,68.34762573242188,-25.80000114440918,-13.800000190734863,-28.200000762939453
3.827,72.32404327392578,13.828908920288086,-31.565155029296875,-81.27105712890625,44.76569747924805,73.81010437011719,-25.80000114440918,-13.500000953674316,-28.650001525878906
3.837,70.21714782714844,13.254301071166992,-31.52684783935547,-77.4073486328125,38.23736572265625,83.40275573730469,-26.400001525878906,-14.40000057220459,-29.850000381469727
3.847,68.34009552001953,12.411541938781738,-32.56114196777344,-82.47013854980469,49.16232681274414,67.14854431152344,-25.200000762939453,-14.100000381469727,-27.750001907348633
3.866,69.14454650878906,14.633360862731934,-32.982521057128906,-87.66615295410156,49.96171569824219,61.28636932373047,-25.200000762939453,-14.100000381469727,-27.750001907348633
3.87,68.1868667602539,15.016432762145996,-33.59543991088867,-98.85757446289062,51.4272575378418,64.88361358642578,-26.700000762939453,-13.200000762939453,-28.05000114440918
3.877,69.45100402832031,14.556746482849121,-30.032865524291992,-98.05818939208984,53.42572784423828,66.21592712402344,-26.700000762939453,-13.200000762939453,-28.05000114440918
3.887,69.60423278808594,15.322891235351562,-29.95625114440918,-96.19295501708984,54.22511291503906,63.551300048828125,-27.450000762939453,-12.90000057220459,-27.750001907348633
3.897,70.29376220703125,16.778566360473633,-30.186094284057617,-88.59877014160156,52.75957107543945,65.81623077392578,-27.150001525878906,-13.65000057220459,-28.500001907348633
3.907,69.56592559814453,18.464082717895508,-29.803022384643555,-84.73506927490234,49.42878723144531,73.54364013671875,-26.55000114440918,-13.500000953674316,-26.100000381469727
3.926,68.87639617919922,20.685903549194336,-30.99054718017578,-73.27718353271484,55.15773391723633,65.41653442382812,-26.55000114440918,-13.500000953674316,-26.100000381469727
3.929,71.02159881591797,22.256498336791992,-32.178070068359375,-43.03369140625,51.027565002441406,76.87442779541016,-26.55000114440918,-11.550000190734863,-27.450000762939453
3.937,71.05990600585938,25.244462966918945,-35.28095626831055,-40.23583221435547,49.29555892944336,76.4747314453125,-26.55000114440918,-11.550000190734863,-27.450000762939453
3.947,69.9489974975586,23.788787841796875,-34.74465560913086,-25.313934326171875,52.89280319213867,76.34149932861328,-27.150001525878906,-14.40000057220459,-26.55000114440918
3.957,69.79576873779297,19.536685943603516,-35.16603469848633,-29.84379768371582,63.151607513427734,79.67227935791016,-27.750001907348633,-13.050000190734863,-26.400001525878906
3.967,69.4126968383789,16.395492553710938,-33.365596771240234,-36.905052185058594,55.02450180053711,76.34149932861328,-27.750001907348633,-13.050000190734863,-26.400001525878906
3.986,68.49332427978516,12.641385078430176,-30.875625610351562,-41.434913635253906,53.82542037963867,81.53751373291016,-29.400001525878906,-13.65000057220459,-26.250001907348633
3.99,69.56592559814453,14.09705924987793,-30.415939331054688,-62.485450744628906,55.02450180053711,70.74578857421875,-28.650001525878906,-13.200000762939453,-25.200000762939453
3.997,70.6002197265625,15.016432762145996,-29.95625114440918,-67.14854431152344,56.756507873535156,65.54976654052734,-28.650001525878906,-13.200000762939453,-25.200000762939453
4.007,70.33206939697266,16.433799743652344,-31.29700469970703,-66.74884796142578,50.76110076904297,76.4747314453125,-29.250001907348633,-13.800000190734863,-26.100000381469727
4.017,71.02159881591797,17.583017349243164,-32.982521057128906,-75.40888214111328,58.355281829833984,65.949462890625,-29.55000114440918,-14.550000190734863,-26.100000381469727
4.027,69.25946807861328,18.88546371459961,-34.591426849365234,-63.551300048828125,57.15620040893555,58.222049713134766,-29.55000114440918,-14.550000190734863,-26.100000381469727
4.046,69.79576873779297,20.149600982666016,-34.74465560913086,-43.43338394165039,48.49617004394531,70.21286010742188,-27.900001525878906,-15.15000057220459,-25.200000762939453
4.051,68.64655303955078,19.460071563720703,-36.27694320678711,-34.64012145996094,53.159263610839844,58.4885139465332,-29.55000114440918,-14.250000953674316,-26.100000381469727
4.057,67.76548767089844,18.502389907836914,-34.897884368896484,-35.839202880859375,60.35375213623047,51.4272575378418,-29.400001525878906,-14.100000381469727,-25.500001907348633
4.067,67.38241577148438,18.081010818481445,-35.5874137878418,-32.77488327026367,53.95865249633789,54.89126968383789,-29.400001525878906,-14.100000381469727,-25.500001907348633
4.077,67.91871643066406,16.395492553710938,-34.51481246948242,-29.84379768371582,54.75803756713867,55.95711898803711,-29.400001525878906,-14.100000381469727,-25.500001907348633
4.087,67.45903015136719,15.131354331970215,-34.24666213989258,-38.77029037475586,63.28483963012695,49.82848358154297,-30.000001907348633,-14.550000190734863,-25.650001525878906
4.107,67.03765106201172,13.79060173034668,-34.32327651977539,-40.635528564453125,69.4134750366211,41.967838287353516,-30.150001525878906,-15.600000381469727,-25.200000762939453
4.11,66.8844223022461,13.024456977844238,-33.7869758605957,-49.29555892944336,61.552833557128906,43.69984436035156,-30.000001907348633,-15.750000953674316,-24.900001525878906
4.117,69.3360824584961,13.867216110229492,-34.05512619018555,-37.17151641845703,54.62480926513672,32.108726501464844,-29.250001907348633,-16.950000762939453,-24.150001525878906
4.127,68.83808898925781,15.514427185058594,-35.47249221801758,-41.83460998535156,54.22511291503906,40.36906433105469,-29.250001907348633,-16.950000762939453,-24.150001525878906
4.137,68.91470336914062,17.276559829711914,-36.66001510620117,-39.16998291015625,44.76569747924805,52.89280319213867,-29.400001525878906,-15.600000381469727,-22.950000762939453
4.147,68.53163146972656,17.889474868774414,-38.99675750732422,-42.90045928955078,43.43338394165039,62.75191116333008,-31.200000762939453,-14.40000057220459,-24.750001907348633
4.167,67.11426544189453,17.889474868774414,-41.10365295410156,-49.42878723144531,61.41960144042969,46.63093185424805,-30.000001907348633,-15.450000762939453,-23.850000381469727
4.17,65.08397674560547,16.66364288330078,-42.559329986572266,-50.36140823364258,66.74884796142578,59.55436325073242,-29.700000762939453,-14.100000381469727,-22.5
4.177,66.76950073242188,17.544710159301758,-38.728607177734375,-46.09800720214844,62.085758209228516,66.882080078125,-29.700000762939453,-14.100000381469727,-22.5
4.187,67.53564453125,18.004396438598633,-34.9744987487793,-49.82848358154297,63.950992584228516,64.88361358642578,-30.450000762939453,-16.350000381469727,-24.0
4.197,70.75344848632812,19.574993133544922,-34.74465560913086,-51.027565002441406,53.69218826293945,64.48391723632812,-31.950000762939453,-16.80000114440918,-22.200000762939453
4.207,72.74542236328125,19.843143463134766,-34.591426849365234,-42.90045928955078,36.771820068359375,75.5421142578125,-31.650001525878906,-15.600000381469727,-24.450000762939453
4.227,73.0518798828125,22.06496238708496,-38.34553527832031,-48.62940216064453,36.372127532958984,77.67381286621094,-31.950000762939453,-15.600000381469727,-23.25
4.231,72.28573608398438,24.05693817138672,-40.758888244628906,-48.09647750854492,41.035221099853516,77.00765228271484,-31.950000762939453,-15.600000381469727,-23.25
4.237,73.39664459228516,23.712173461914062,-39.72459411621094,-44.89892578125,31.975496292114258,85.80091857910156,-31.950000762939453,-15.600000381469727,-23.25
4.247,73.43495178222656,22.60126495361328,-38.843528747558594,-38.23736572265625,40.635528564453125,77.54058074951172,-32.25,-17.400001525878906,-23.100000381469727
4.257,75.23539733886719,23.44402313232422,-40.145973205566406,-38.23736572265625,42.101070404052734,70.21286010742188,-31.200000762939453,-16.350000381469727,-22.950000762939453
4.267,74.2394027709961,27.427974700927734,-39.87782287597656,-30.90964698791504,44.09954071044922,76.20826721191406,-32.70000076293945,-16.350000381469727,-22.5
4.287,73.32003021240234,28.61549949645996,-41.83149337768555,-7.327718257904053,37.304744720458984,76.60796356201172,-32.70000076293945,-16.350000381469727,-21.75
4.29,72.89865112304688,30.14778709411621,-41.5250358581543,6.794793128967285,44.76569747924805,80.60489654541016,-32.70000076293945,-16.350000381469727,-21.75
4.297,72.86034393310547,27.198131561279297,-41.02703857421875,3.0643184185028076,47.430320739746094,61.28636932373047,-31.80000114440918,-17.700000762939453,-22.05000114440918
4.307,72.93695831298828,26.585216522216797,-39.341522216796875,23.848390579223633,48.62940216064453,66.21592712402344,-33.150001525878906,-17.100000381469727,-22.5
4.317,74.77571105957031,26.087221145629883,-41.41011428833008,25.980091094970703,54.89126968383789,53.558956146240234,-31.650001525878906,-17.55000114440918,-22.200000762939453
4.327,78.03182220458984,27.925968170166016,-44.93437576293945,37.17151641845703,70.07962799072266,52.493106842041016,-31.500001907348633,-18.900001525878906,-20.850000381469727
4.347,83.6629867553711,31.41192626953125,-44.0150032043457,58.355281829833984,71.01225280761719,38.23736572265625,-31.500001907348633,-18.900001525878906,-20.850000381469727
4.352,88.10662078857422,32.21637725830078,-43.44039535522461,95.26033782958984,62.085758209228516,34.10719680786133,-31.500001907348633,-18.900001525878906,-20.850000381469727
4.357,91.78411865234375,31.794998168945312,-36.35355758666992,103.52066802978516,54.091880798339844,31.975496292114258,-31.500001907348633,-18.900001525878906,-19.80000114440918
4.367,92.62687683105469,29.4582576751709,-33.863590240478516,92.06278228759766,47.297088623046875,11.724349021911621,-33.30000305175781,-19.650001525878906,-20.55000114440918
4.377,90.40505981445312,24.861391067504883,-28.577192306518555,82.86982727050781,26.513015747070312,8.793261528015137,-32.70000076293945,-19.5,-20.400001525878906
4.387,86.1146469116211,21.107282638549805,-22.409727096557617,59.82082748413086,-7.860642910003662,-11.058192253112793,-33.900001525878906,-19.80000114440918,-20.700000762939453
4.407,83.85452270507812,16.970102310180664,-22.792800903320312,33.17457962036133,-19.185298919677734,-37.17151641845703,-33.900001525878906,-19.80000114440918,-20.700000762939453
4.41,79.5641098022461,14.633360862731934,-22.17988395690918,4.396630764007568,-54.75803756713867,-51.29402542114258,-32.400001525878906,-20.55000114440918,-20.400001525878906
4.417,75.9249267578125,12.756306648254395,-26.66183090209961,-9.859111785888672,-60.88667678833008,-52.093414306640625,-33.30000305175781,-19.650001525878906,-19.5
4.427,74.7374038696289,13.21599292755127,-31.52684783935547,-41.701377868652344,-55.82388687133789,-85.66768646240234,-34.05000305175781,-20.100000381469727,-21.600000381469727
4.437,74.04786682128906,16.05072784423828,-32.40791320800781,-50.09494400024414,-55.95711898803711,-98.19142150878906,-32.400001525878906,-17.55000114440918,-22.200000762939453
4.447,72.97526550292969,20.76251792907715,-34.43819808959961,-42.633995056152344,-64.61714935302734,-104.5865249633789,-32.400001525878906,-17.55000114440918,-22.200000762939453
4.466,72.55388641357422,24.401702880859375,-35.47249221801758,-22.116384506225586,-68.34762573242188,-118.44257354736328,-32.400001525878906,-17.55000114440918,-22.200000762939453
4.47,69.71915435791016,26.393678665161133,-34.62973403930664,5.062787055969238,-68.21439361572266,-130.03369140625,-32.70000076293945,-16.80000114440918,-21.150001525878906
4.477,67.76548767089844,26.66183090209961,-33.51882553100586,18.91883659362793,-69.01377868652344,-136.29556274414062,-31.200000762939453,-17.55000114440918,-21.75
4.487,66.99934387207031,25.321077346801758,-31.028854370117188,46.497703552246094,-70.07962799072266,-144.42266845703125,-33.0,-17.400001525878906,-22.05000114440918
4.497,67.5739517211914,25.665842056274414,-29.34333610534668,55.69065856933594,-57.422664642333984,-154.814697265625,-31.05000114440918,-15.450000762939453,-23.55000114440918
4.507,68.7997817993164,24.325088500976562,-29.113492965698242,65.016845703125,-71.54517364501953,-156.14700317382812,-31.05000114440918,-15.450000762939453,-23.55000114440918
4.527,70.90667724609375,23.252487182617188,-25.81907081604004,80.47166442871094,-84.86830139160156,-152.1500701904297,-31.650001525878906,-15.600000381469727,-23.25
4.53,71.94097137451172,20.76251792907715,-24.286781311035156,73.81010437011719,-84.33537292480469,-158.4119415283203,-30.450000762939453,-15.600000381469727,-24.750001907348633
4.537,74.3160171508789,17.851167678833008,-21.835119247436523,76.74119567871094,-88.46553802490234,-158.14547729492188,-30.450000762939453,-15.600000381469727,-24.0
4.547,74.85232543945312,17.889474868774414,-21.720197677612305,68.21439361572266,-93.2618637084961,-157.0796356201172,-30.450000762939453,-15.600000381469727,-24.450000762939453
4.557,78.29997253417969,19.345149993896484,-22.984336853027344,71.81163787841797,-101.65543365478516,-162.27565002441406,-30.450000762939453,-15.600000381469727,-24.450000762939453
4.567,79.21934509277344,20.41775131225586,-24.401702880859375,60.48698043823242,-101.9218978881836,-165.07350158691406,-30.450000762939453,-15.600000381469727,-24.450000762939453
4.587,80.90486145019531,20.915746688842773,-23.75048065185547,57.15620040893555,-101.2557373046875,-159.61102294921875,-28.500001907348633,-13.500000953674316,-25.350000381469727
4.59,82.16899871826172,21.45204734802246,-23.21417999267578,67.68146514892578,-118.44257354736328,-161.2097930908203,-28.80000114440918,-14.550000190734863,-26.100000381469727
4.597,84.3525161743164,21.56696891784668,-21.413740158081055,60.75344467163086,-112.04747009277344,-159.74424743652344,-30.000001907348633,-13.050000190734863,-24.900001525878906
4.607,85.96141815185547,21.87342643737793,-20.724210739135742,46.764163970947266,-118.44257354736328,-164.80703735351562,-28.200000762939453,-13.200000762939453,-27.30000114440918
4.617,87.30216979980469,23.060951232910156,-20.83913230895996,50.76110076904297,-127.90198516845703,-155.08116149902344,-28.200000762939453,-13.200000762939453,-27.30000114440918
4.627,86.84248352050781,23.63555908203125,-19.460071563720703,49.16232681274414,-133.49769592285156,-154.28176879882812,-27.30000114440918,-12.300000190734863,-26.400001525878906
4.647,84.9654312133789,19.843143463134766,-17.1999454498291,33.70750427246094,-127.36906433105469,-174.1332244873047,-27.900001525878906,-13.200000762939453,-27.750001907348633
4.651,82.74361419677734,19.115306854248047,-17.8128604888916,30.643184661865234,-135.62939453125,-177.73046875,-26.700000762939453,-10.5,-28.500001907348633
4.657,81.441162109375,21.107282638549805,-19.460071563720703,32.37519073486328,-138.42726135253906,-184.5252685546875,-26.700000762939453,-10.5,-28.500001907348633
4.667,80.67501831054688,21.337125778198242,-19.268535614013672,15.854516983032227,-126.03675079345703,-187.1898956298828,-26.700000762939453,-10.5,-28.500001907348633
4.677,79.67903137207031,20.83913230895996,-21.337125778198242,7.06125545501709,-121.64012145996094,-201.84532165527344,-26.700000762939453,-10.5,-28.500001907348633
4.687,76.84429931640625,20.341136932373047,-20.877439498901367,9.592649459838867,-126.43644714355469,-200.91270446777344,-25.200000762939453,-10.5,-31.05000114440918
4.706,76.99752807617188,20.724210739135742,-20.187908172607422,3.3307809829711914,-128.16845703125,-206.6416473388672,-25.80000114440918,-9.600000381469727,-30.450000762939453
4.71,75.3503189086914,20.072986602783203,-20.11129379272461,-14.522205352783203,-132.6983184814453,-200.77947998046875,-24.450000762939453,-8.25,-31.350000381469727
4.717,74.50755310058594,20.30282974243164,-19.881450653076172,-14.92189884185791,-132.29861450195312,-223.82847595214844,-24.450000762939453,-8.25,-31.350000381469727
4.727,74.58417510986328,21.337125778198242,-20.072986602783203,-28.24502182006836,-129.90045166015625,-224.3614044189453,-24.450000762939453,-8.25,-31.350000381469727
4.737,74.81401824951172,22.333112716674805,-19.49837875366211,-31.44257164001465,-127.90198516845703,-232.48851013183594,-22.80000114440918,-6.450000286102295,-31.500001907348633
4.747,75.15878295898438,24.05693817138672,-22.103269577026367,-23.581928253173828,-127.5022964477539,-239.28330993652344,-22.5,-7.200000286102295,-32.25
4.766,72.59219360351562,25.550920486450195,-23.597251892089844,-13.456355094909668,-126.5696792602539,-253.53904724121094,-22.80000114440918,-6.900000095367432,-33.0
4.77,74.2394027709961,28.309040069580078,-22.562957763671875,1.8652373552322388,-129.36753845214844,-235.4196014404297,-20.55000114440918,-6.150000095367432,-33.75
4.777,76.23138427734375,28.61549949645996,-22.869415283203125,9.459418296813965,-126.7029037475586,-221.43031311035156,-20.55000114440918,-6.150000095367432,-33.75
4.787,74.6990966796875,27.427974700927734,-23.290794372558594,16.25421142578125,-122.43950653076172,-213.70291137695312,-20.55000114440918,-6.150000095367432,-33.75
4.797,74.50755310058594,24.325088500976562,-24.861391067504883,15.987748146057129,-125.50382232666016,-214.7687530517578,-19.650001525878906,-4.350000381469727,-33.30000305175781
4.807,72.59219360351562,22.448034286499023,-24.746469497680664,4.263399600982666,-120.70750427246094,-212.5038299560547,-19.5,-4.200000286102295,-33.45000076293945
4.826,73.664794921875,25.09123420715332,-24.861391067504883,-8.39356803894043,-116.57733154296875,-204.90963745117188,-19.5,-3.0,-33.45000076293945
4.83,72.05589294433594,25.129541397094727,-23.099258422851562,-17.186830520629883,-116.31086730957031,-186.25726318359375,-18.450000762939453,-3.6000001430511475,-33.900001525878906
4.837,68.87639617919922,23.673866271972656,-26.54690933227539,-27.978559494018555,-106.98468017578125,-182.39356994628906,-18.450000762939453,-3.6000001430511475,-33.900001525878906
4.847,68.30178833007812,23.52063751220703,-24.24847412109375,-41.434913635253906,-102.05513000488281,-181.99386596679688,-18.30000114440918,-1.8000000715255737,-35.25
4.857,67.42072296142578,24.9763126373291,-23.44402313232422,-35.306278228759766,-98.85757446289062,-174.26646423339844,-16.80000114440918,-1.5,-34.20000076293945
4.867,65.54366302490234,28.232425689697266,-22.256498336791992,-27.445634841918945,-94.86064147949219,-162.94180297851562,-16.05000114440918,-1.0500000715255737,-35.55000305175781
4.887,63.283538818359375,31.067161560058594,-24.823083877563477,-19.584991455078125,-82.33690643310547,-161.07656860351562,-15.450000762939453,-0.15000000596046448,-35.10000228881836
4.89,62.555702209472656,31.450233459472656,-28.692113876342773,6.794793128967285,-83.13629150390625,-154.41500854492188,-15.450000762939453,-0.15000000596046448,-35.10000228881836
4.897,57.15438461303711,26.12552833557129,-29.266721725463867,13.323123931884766,-81.27105712890625,-153.0826873779297,-13.200000762939453,-0.45000001788139343,-35.85000228881836
4.907,56.65638732910156,24.36339569091797,-29.64979362487793,29.444103240966797,-76.87442779541016,-152.016845703125,-13.950000762939453,0.15000000596046448,-34.650001525878906
4.917,55.85193634033203,26.470293045043945,-28.53888511657715,24.64777946472168,-71.01225280761719,-154.814697265625,-15.15000057220459,0.45000001788139343,-36.900001525878906
4.927,55.085792541503906,27.964275360107422,-29.266721725463867,30.509952545166016,-72.47779083251953,-132.9647674560547,-13.200000762939453,0.45000001788139343,-37.650001525878906
4.947,51.02522659301758,27.925968170166016,-28.500577926635742,30.24349021911621,-68.74732208251953,-129.6339874267578,-13.800000190734863,0.30000001192092896,-35.55000305175781
4.951,49.68447494506836,25.014619827270508,-28.577192306518555,24.781009674072266,-71.54517364501953,-108.71669006347656,-13.800000190734863,0.30000001192092896,-35.55000305175781
4.957,47.34773254394531,24.095245361328125,-26.278757095336914,9.592649459838867,-60.48698043823242,-116.57733154296875,-12.15000057220459,1.350000023841858,-35.85000228881836
4.967,48.535255432128906,24.938005447387695,-27.236438751220703,8.260336875915527,-60.75344467163086,-100.18988800048828,-12.750000953674316,0.75,-35.25
4.977,47.615882873535156,24.24847412109375,-26.700138092041016,-4.796324729919434,-58.355281829833984,-104.18682861328125,-12.450000762939453,0.45000001788139343,-37.650001525878906
4.987,47.309425354003906,25.627534866333008,-28.577192306518555,-6.5283308029174805,-53.159263610839844,-93.39509582519531,-12.0,0.0,-36.75
5.007,47.615882873535156,25.014619827270508,-31.90991973876953,-10.92496109008789,-54.22511291503906,-100.3231201171875,-12.0,0.0,-36.75
5.011,46.16020965576172,27.121517181396484,-33.71036148071289,-22.116384506225586,-43.03369140625,-77.54058074951172,-10.800000190734863,1.8000000715255737,-36.75
5.017,46.390052795410156,28.92195701599121,-33.17405700683594,-25.980091094970703,-40.635528564453125,-68.34762573242188,-10.5,1.0500000715255737,-36.0
5.027,46.88804626464844,30.875625610351562,-34.3998908996582,-30.643184661865234,-34.24042892456055,-56.09035110473633,-10.050000190734863,2.25,-37.05000305175781
5.037,44.85776138305664,31.335311889648438,-33.13574981689453,-25.980091094970703,-38.50382614135742,-37.4379768371582,-9.75,3.0,-36.75
5.047,43.4020881652832,33.71036148071289,-32.369606018066406,-35.17304611206055,-31.042879104614258,-27.84532928466797,-10.65000057220459,2.4000000953674316,-37.20000076293945
5.067,42.1379508972168,34.9744987487793,-33.863590240478516,-31.842266082763672,-29.31087303161621,-33.17457962036133,-9.450000762939453,3.6000001430511475,-36.60000228881836
5.071,35.35757064819336,35.817256927490234,-34.897884368896484,-26.246553421020508,-30.643184661865234,-21.45022964477539,-9.450000762939453,3.6000001430511475,-36.60000228881836
5.077,34.55311965942383,34.897884368896484,-35.395877838134766,-25.04747200012207,-27.84532928466797,-9.592649459838867,-9.15000057220459,1.6500000953674316,-36.60000228881836
5.087,34.3998908996582,35.97048568725586,-34.93619155883789,-17.586523056030273,-11.724349021911621,-13.456355094909668,-9.450000762939453,0.9000000357627869,-37.650001525878906
5.097,33.17405700683594,35.510799407958984,-35.702335357666016,-25.04747200012207,-9.326186180114746,-0.1332312375307083,-9.450000762939453,3.1500000953674316,-35.10000228881836
5.107,30.99054718017578,31.83330535888672,-33.978511810302734,-10.258805274963379,-13.856048583984375,8.39356803894043,-9.450000762939453,3.1500000953674316,-35.10000228881836
5.126,29.76471519470215,34.284969329833984,-32.10145568847656,-12.523736000061035,-6.128636837005615,5.329249382019043,-9.450000762939453,3.1500000953674316,-35.10000228881836
5.13,29.03687858581543,36.69832229614258,-33.51882553100586,-3.4640121459960938,-7.72741174697876,11.058192253112793,-9.300000190734863,3.0,-37.05000305175781
5.137,28.692113876342773,36.46847915649414,-33.82528305053711,5.8621745109558105,-8.926492691040039,11.857580184936523,-10.5,3.0,-37.05000305175781
5.147,27.504589080810547,37.234622955322266,-36.16202163696289,3.86370587348938,-0.1332312375307083,25.580398559570312,-11.25,2.700000047683716,-36.75
5.157,26.01060676574707,37.27293395996094,-36.69832229614258,7.460949420928955,1.4655436277389526,29.977027893066406,-9.300000190734863,2.700000047683716,-37.05000305175781
5.167,27.236438751220703,37.54108428955078,-36.58340072631836,20.91730499267578,-4.130168437957764,46.231239318847656,-9.300000190734863,2.700000047683716,-37.05000305175781
5.186,27.083209991455078,37.11970138549805,-34.93619155883789,18.119447708129883,7.72741174697876,60.22052001953125,-10.65000057220459,3.1500000953674316,-37.20000076293945
5.19,26.96828842163086,34.82126998901367,-35.93217849731445,25.846860885620117,2.131699800491333,77.00765228271484,-10.65000057220459,3.1500000953674316,-37.20000076293945
5.197,27.46628189086914,36.66001510620117,-35.74064254760742,23.848390579223633,14.655436515808105,71.2787094116211,-10.5,2.25,-37.05000305175781
5.207,28.61549949645996,35.05111312866211,-35.510799407958984,29.044410705566406,15.188361167907715,92.99540710449219,-10.050000190734863,3.450000047683716,-37.05000305175781
5.217,29.917943954467773,34.13174057006836,-34.74465560913086,15.987748146057129,22.382848739624023,102.8545150756836,-10.050000190734863,0.75,-37.05000305175781
5.227,31.7183837890625,31.986534118652344,-33.365596771240234,-3.7304747104644775,30.24349021911621,109.11638641357422,-10.050000190734863,0.75,-37.05000305175781
5.246,33.863590240478516,31.258697509765625,-34.05512619018555,-12.25727367401123,27.84532928466797,121.10719299316406,-9.75,2.700000047683716,-36.30000305175781
5.25,35.395877838134766,33.90189743041992,-36.88985824584961,-13.323123931884766,37.03828430175781,132.16539001464844,-10.65000057220459,3.1500000953674316,-36.150001525878906
5.257,35.66402816772461,33.557132720947266,-38.15399932861328,-19.85145378112793,53.95865249633789,131.0995330810547,-10.800000190734863,2.25,-35.55000305175781
5.267,38.000770568847656,35.54910659790039,-37.617698669433594,-13.456355094909668,57.822357177734375,145.88819885253906,-12.0,1.0500000715255737,-37.05000305175781
5.277,47.117889404296875,38.69029998779297,-30.301015853881836,-13.856048583984375,45.831546783447266,173.6002960205078,-12.0,1.0500000715255737,-37.05000305175781
5.287,58.80159378051758,40.91211700439453,-32.02484130859375,-22.915773391723633,51.29402542114258,181.99386596679688,-12.0,1.0500000715255737,-37.05000305175781
5.307,66.5013427734375,42.21456527709961,-38.03907775878906,-14.12251091003418,54.62480926513672,190.25421142578125,-12.90000057220459,0.15000000596046448,-35.85000228881836
5.31,73.74140930175781,43.785160064697266,-41.83149337768555,7.860642910003662,67.28177642822266,205.5758056640625,-13.200000762939453,0.9000000357627869,-35.85000228881836
5.317,73.54987335205078,44.091617584228516,-41.37180709838867,19.85145378112793,73.0107192993164,220.36447143554688,-12.300000190734863,0.75,-36.30000305175781
5.327,74.58417510986328,43.63193130493164,-42.82748031616211,17.053598403930664,94.86064147949219,221.5635528564453,-13.050000190734863,0.0,-34.5
5.337,75.69508361816406,36.16202163696289,-43.4020881652832,15.321592330932617,111.5145492553711,220.6309356689453,-13.050000190734863,0.0,-34.5
5.347,75.9249267578125,31.641769409179688,-44.78114700317383,10.658498764038086,122.17304229736328,221.43031311035156,-16.200000762939453,-2.4000000953674316,-36.60000228881836
5.363,74.96724700927734,29.84132957458496,-48.68848419189453,15.45482349395752,139.7595672607422,216.90045166015625,-16.200000762939453,-2.1000001430511475,-33.900001525878906
5.367,75.61846923828125,31.60346221923828,-47.69249725341797,14.655436515808105,141.4915771484375,222.4961700439453,-16.200000762939453,-2.1000001430511475,-33.900001525878906
5.377,76.537841796875,31.986534118652344,-46.696510314941406,33.4410400390625,139.89280700683594,219.29861450195312,-16.5,-3.750000238418579,-34.5
5.387,80.56009674072266,32.75267791748047,-48.30541229248047,44.23276901245117,147.62020874023438,221.29708862304688,-16.80000114440918,-3.0,-34.20000076293945
5.397,83.96944427490234,32.56114196777344,-48.4969482421875,53.29249572753906,156.5467071533203,227.02603149414062,-16.80000114440918,-3.0,-34.20000076293945
5.407,88.41307830810547,34.13174057006836,-45.50898742675781,77.4073486328125,153.882080078125,242.6140899658203,-18.150001525878906,-3.1500000953674316,-32.55000305175781
5.427,92.39703369140625,34.55311965942383,-44.398075103759766,85.93415069580078,160.41041564941406,244.87901306152344,-19.950000762939453,-5.550000190734863,-32.55000305175781
5.43,101.93553161621094,26.163835525512695,-41.754878997802734,90.99693298339844,173.73353576660156,237.2848358154297,-21.0,-6.150000095367432,-32.70000076293945
5.437,103.54443359375,25.665842056274414,-40.79719543457031,95.52679443359375,166.93873596191406,235.55282592773438,-21.0,-6.150000095367432,-32.70000076293945
5.447,106.34086608886719,23.903709411621094,-38.65199279785156,87.26646423339844,164.00765991210938,224.09494018554688,-21.0,-6.150000095367432,-32.70000076293945
5.457,105.80455780029297,22.37141990661621,-42.29117965698242,91.66309356689453,153.0826873779297,211.43797302246094,-20.700000762939453,-9.0,-31.05000114440918
5.467,98.25804138183594,20.264522552490234,-41.48672866821289,75.94180297851562,158.545166015625,184.92495727539062,-21.0,-8.40000057220459,-31.500001907348633
5.48,90.2518310546875,16.855180740356445,-42.59763717651367,67.94792938232422,153.882080078125,186.92343139648438,-23.25,-11.100000381469727,-29.400001525878906
5.487,85.96141815185547,14.326903343200684,-39.80120849609375,54.75803756713867,154.41500854492188,164.67381286621094,-23.25,-11.100000381469727,-29.400001525878906
5.497,84.19928741455078,13.675680160522461,-39.30321502685547,17.186830520629883,159.8774871826172,156.81317138671875,-24.0,-11.100000381469727,-30.450000762939453
5.507,85.42511749267578,13.062764167785645,-38.46045684814453,5.728943347930908,161.7427215576172,149.21897888183594,-24.0,-11.100000381469727,-30.450000762939453
5.517,85.69326782226562,14.135366439819336,-36.58340072631836,-1.5987749099731445,146.68759155273438,150.01837158203125,-25.950000762939453,-12.450000762939453,-29.55000114440918
5.527,85.65496063232422,19.19192123413086,-36.2003288269043,-6.5283308029174805,137.62786865234375,151.6171417236328,-25.950000762939453,-13.200000762939453,-27.750001907348633
5.546,86.95740509033203,23.903709411621094,-35.89387130737305,9.459418296813965,126.83613586425781,162.80857849121094,-26.250001907348633,-14.550000190734863,-27.150001525878906
5.55,82.55207824707031,23.02264404296875,-37.11970138549805,5.196018218994141,130.43338012695312,153.0826873779297,-26.250001907348633,-14.550000190734863,-27.150001525878906
5.557,80.33025360107422,22.06496238708496,-36.27694320678711,16.25421142578125,115.77794647216797,151.75038146972656,-26.250001907348633,-14.550000190734863,-27.150001525878906
5.567,78.75965881347656,20.64759635925293,-37.54108428955078,24.781009674072266,126.83613586425781,132.9647674560547,-25.950000762939453,-14.40000057220459,-27.000001907348633
5.577,76.34630584716797,21.796812057495117,-35.702335357666016,21.45022964477539,116.71056365966797,127.90198516845703,-27.750001907348633,-16.5,-26.850000381469727
5.596,73.74140930175781,18.579004287719727,-35.0128059387207,21.050535202026367,112.71363067626953,126.7029037475586,-28.500001907348633,-16.5,-26.850000381469727
5.599,70.5619125366211,17.046716690063477,-34.32327651977539,1.5987749099731445,117.37671661376953,113.24655151367188,-27.900001525878906,-17.100000381469727,-25.500001907348633
5.607,67.03765106201172,17.697938919067383,-33.672054290771484,-10.392036437988281,123.77182006835938,111.64777374267578,-27.900001525878906,-17.100000381469727,-25.500001907348633
5.617,65.58197021484375,16.89348793029785,-33.59543991088867,-8.39356803894043,115.91117858886719,105.65237426757812,-27.900001525878906,-17.100000381469727,-25.500001907348633
5.627,63.55168914794922,16.66364288330078,-33.71036148071289,-12.923430442810059,122.03981018066406,95.12710571289062,-28.200000762939453,-17.100000381469727,-26.250001907348633
5.637,65.46704864501953,18.923770904541016,-35.702335357666016,-16.78713607788086,121.77335357666016,99.12403869628906,-29.250001907348633,-18.450000762939453,-24.150001525878906
5.657,67.07595825195312,20.800825119018555,-34.85957717895508,1.9984685182571411,109.915771484375,95.79325866699219,-28.650001525878906,-17.850000381469727,-24.450000762939453
5.661,67.11426544189453,21.298818588256836,-36.08540725708008,7.194486618041992,118.30934143066406,80.07197570800781,-28.650001525878906,-17.850000381469727,-24.450000762939453
5.667,68.37840270996094,21.183897018432617,-35.85556411743164,15.588054656982422,119.5084228515625,73.27718353271484,-29.700000762939453,-19.05000114440918,-24.750001907348633
5.677,66.42472839355469,21.490354537963867,-35.05111312866211,18.385910034179688,109.24961853027344,81.27105712890625,-32.25,-20.100000381469727,-22.350000381469727
5.687,66.07996368408203,18.923770904541016,-33.63374710083008,23.315465927124023,96.72587585449219,75.5421142578125,-29.55000114440918,-19.200000762939453,-22.05000114440918
5.697,65.08397674560547,16.012420654296875,-29.611486434936523,18.2526798248291,87.13323211669922,71.41194152832031,-30.30000114440918,-18.900001525878906,-22.350000381469727
5.716,65.58197021484375,14.173673629760742,-32.13976287841797,-0.2664624750614166,86.73353576660156,50.62786865234375,-30.450000762939453,-20.55000114440918,-21.75
5.72,64.12629699707031,14.97812557220459,-30.760704040527344,-4.396630764007568,79.2725830078125,52.093414306640625,-30.450000762939453,-20.55000114440918,-21.75
5.727,65.00736236572266,17.8128604888916,-31.028854370117188,2.2649309635162354,72.21133422851562,50.36140823364258,-31.80000114440918,-20.850000381469727,-22.05000114440918
5.737,65.12228393554688,16.81687355041504,-31.10546875,-12.25727367401123,68.88054656982422,42.76722717285156,-31.650001525878906,-20.55000114440918,-21.150001525878906
5.747,64.58598327636719,13.943830490112305,-28.883649826049805,-2.2649309635162354,59.95405578613281,44.23276901245117,-31.500001907348633,-21.150001525878906,-20.850000381469727
5.758,62.70893096923828,13.062764167785645,-28.92195701599121,-14.655436515808105,58.222049713134766,36.5053596496582,-31.05000114440918,-20.400001525878906,-22.350000381469727
5.777,60.985107421875,12.02846908569336,-29.4582576751709,-29.444103240966797,66.882080078125,18.652372360229492,-31.05000114440918,-20.400001525878906,-22.350000381469727
5.781,60.02742385864258,11.72201156616211,-30.4925537109375,-21.45022964477539,63.81776428222656,13.456355094909668,-31.950000762939453,-20.25,-21.450000762939453
5.787,60.372188568115234,13.024456977844238,-30.454246520996094,-23.182235717773438,64.75038146972656,10.125574111938477,-31.200000762939453,-21.450000762939453,-19.650001525878906
5.797,61.5980224609375,13.48414421081543,-29.64979362487793,-17.852985382080078,63.151607513427734,10.92496109008789,-31.650001525878906,-21.0,-20.700000762939453
5.807,62.40247344970703,13.79060173034668,-28.73042106628418,-15.854516983032227,67.94792938232422,-4.396630764007568,-33.0,-20.400001525878906,-20.850000381469727
5.817,62.63231658935547,12.02846908569336,-27.044902801513672,-11.058192253112793,59.55436325073242,-7.860642910003662,-31.500001907348633,-20.400001525878906,-19.80000114440918
5.836,62.172630310058594,11.568782806396484,-24.66985511779785,-2.797856092453003,53.026031494140625,-3.597243309020996,-31.500001907348633,-20.400001525878906,-19.80000114440918
5.84,61.40648651123047,9.27034854888916,-26.12552833557129,-22.782541275024414,42.76722717285156,-12.523736000061035,-33.30000305175781,-20.400001525878906,-20.100000381469727
5.847,57.23099899291992,8.121131896972656,-24.018630981445312,-22.915773391723633,36.238895416259766,-14.255742073059082,-31.80000114440918,-21.600000381469727,-19.05000114440918
5.857,57.805606842041016,7.814674377441406,-24.325088500976562,-21.583459854125977,29.044410705566406,1.9984685182571411,-31.80000114440918,-19.200000762939453,-18.0
5.867,57.805606842041016,7.1251444816589355,-24.24847412109375,-33.4410400390625,22.782541275024414,0.6661561727523804,-32.70000076293945,-20.55000114440918,-18.900001525878906
5.877,61.40648651123047,8.542511940002441,-25.857378005981445,-37.83767318725586,29.444103240966797,4.529861927032471,-32.70000076293945,-20.55000114440918,-18.900001525878906
5.897,60.52541732788086,8.465897560119629,-27.504589080810547,-41.035221099853516,31.709033966064453,0.1332312375307083,-32.55000305175781,-20.400001525878906,-19.5
5.901,63.24523162841797,9.576807022094727,-27.389667510986328,-28.378253936767578,29.577335357666016,9.192955017089844,-31.950000762939453,-19.80000114440918,-17.700000762939453
5.907,64.24121856689453,9.385271072387695,-25.052927017211914,-34.10719680786133,36.905052185058594,0.7993874549865723,-32.55000305175781,-19.650001525878906,-17.25
5.917,66.04165649414062,8.465897560119629,-23.597251892089844,-32.77488327026367,35.306278228759766,15.588054656982422,-32.55000305175781,-19.650001525878906,-19.5
5.927,67.61225891113281,6.550535678863525,-22.83110809326172,-29.177640914916992,25.980091094970703,19.85145378112793,-31.500001907348633,-21.900001525878906,-19.05000114440918
5.937,67.99533081054688,5.056553840637207,-21.87342643737793,-30.509952545166016,33.97396469116211,18.385910034179688,-31.500001907348633,-21.900001525878906,-19.05000114440918
5.957,68.761474609375,6.129156112670898,-20.724210739135742,-43.56661605834961,36.10566711425781,-0.7993874549865723,-32.400001525878906,-20.55000114440918,-17.400001525878906
5.96,70.94498443603516,8.96389102935791,-21.720197677612305,-28.24502182006836,32.5084228515625,20.784072875976562,-33.0,-19.650001525878906,-17.55000114440918
5.967,69.60423278808594,10.917559623718262,-24.13355255126953,-13.456355094909668,30.509952545166016,28.378253936767578,-31.650001525878906,-19.80000114440918,-18.150001525878906
5.977,66.8844223022461,11.492168426513672,-25.20615577697754,-13.58958625793457,43.43338394165039,11.724349021911621,-33.75,-20.100000381469727,-16.80000114440918
5.987,66.34811401367188,11.070788383483887,-25.550920486450195,1.0658499002456665,43.96630859375,10.92496109008789,-33.75,-20.100000381469727,-16.80000114440918
5.997,67.15257263183594,10.917559623718262,-24.78477668762207,18.385910034179688,35.03981399536133,19.98468589782715,-32.55000305175781,-20.400001525878906,-18.0
6.017,68.761474609375,10.687716484069824,-24.631547927856445,21.183767318725586,33.04134750366211,18.2526798248291,-33.150001525878906,-20.25,-17.400001525878906
6.021,67.42072296142578,11.91354751586914,-25.321077346801758,29.444103240966797,31.309341430664062,14.12251091003418,-34.95000076293945,-18.75,-17.100000381469727
6.027,67.61225891113281,11.798625946044922,-26.66183090209961,32.77488327026367,32.90811538696289,19.584991455078125,-33.900001525878906,-20.25,-16.650001525878906
6.037,67.76548767089844,10.764330863952637,-27.77273941040039,37.4379768371582,36.63859176635742,10.791729927062988,-33.75,-19.200000762939453,-16.05000114440918
6.047,69.25946807861328,9.84495735168457,-28.92195701599121,35.705970764160156,37.4379768371582,5.8621745109558105,-33.75,-19.200000762939453,-16.05000114440918
6.057,72.24742889404297,11.377246856689453,-28.07919692993164,37.70444107055664,46.09800720214844,8.39356803894043,-34.80000305175781,-20.100000381469727,-15.000000953674316
6.077,75.42693328857422,15.705963134765625,-31.794998168945312,45.69831466674805,37.304744720458984,-1.7320060729980469,-33.45000076293945,-20.25,-15.15000057220459
6.08,77.30398559570312,18.617311477661133,-26.01060676574707,51.027565002441406,28.378253936767578,-5.995405673980713,-33.45000076293945,-21.450000762939453,-15.15000057220459
6.087,83.27991485595703,17.92778205871582,-34.170047760009766,56.22358322143555,26.779478073120117,-6.5283308029174805,-33.45000076293945,-20.25,-13.65000057220459
6.097,83.50975799560547,17.966089248657227,-33.7486686706543,76.60796356201172,14.655436515808105,0.39969372749328613,-33.45000076293945,-20.25,-13.65000057220459
6.107,87.3404769897461,18.272546768188477,-29.22841453552246,76.07503509521484,-9.72588062286377,2.6646246910095215,-33.900001525878906,-21.0,-14.850000381469727
6.117,92.24380493164062,17.62132453918457,-25.89568519592285,64.21745300292969,-22.649311065673828,-5.462480545043945,-34.20000076293945,-18.30000114440918,-15.15000057220459
6.137,94.84869384765625,15.207969665527344,-25.81907081604004,60.88667678833008,-45.298622131347656,-9.326186180114746,-34.05000305175781,-20.100000381469727,-16.5
6.141,95.92129516601562,14.518439292907715,-24.210166931152344,38.90352249145508,-69.4134750366211,-19.584991455078125,-35.25,-20.850000381469727,-13.500000953674316
6.147,95.42330169677734,12.947842597961426,-26.31706428527832,26.513015747070312,-77.67381286621094,-23.581928253173828,-35.25,-20.850000381469727,-13.500000953674316
6.157,94.69546508789062,12.986149787902832,-26.240449905395508,-2.2649309635162354,-78.73966217041016,-43.03369140625,-35.25,-20.850000381469727,-13.500000953674316
6.167,93.2780990600586,15.85919189453125,-29.15180015563965,-18.119447708129883,-87.9326171875,-47.696781158447266,-34.05000305175781,-21.150001525878906,-15.000000953674316
6.177,89.1792221069336,18.004396438598633,-32.331298828125,-24.51454734802246,-94.72740936279297,-60.75344467163086,-34.650001525878906,-20.25,-15.600000381469727
6.197,88.37477111816406,19.306842803955078,-33.40390396118164,-20.784072875976562,-78.20673370361328,-79.0061264038086,-33.45000076293945,-19.05000114440918,-15.90000057220459
6.2,89.8304443359375,21.490354537963867,-34.13174057006836,2.398162364959717,-97.25880432128906,-86.86676788330078,-33.45000076293945,-19.5,-17.100000381469727
6.207,100.05847930908203,27.083209991455078,-27.849353790283203,5.196018218994141,-104.7197494506836,-80.07197570800781,-33.45000076293945,-19.5,-17.100000381469727
6.217,107.94976806640625,28.155811309814453,-25.550920486450195,-4.663093090057373,-112.04747009277344,-82.7365951538086,-32.55000305175781,-18.450000762939453,-16.80000114440918
6.227,112.77647399902344,28.19411849975586,-27.121517181396484,-1.4655436277389526,-115.91117858886719,-87.53292083740234,-33.0,-18.450000762939453,-16.80000114440918
6.237,114.07892608642578,25.857378005981445,-25.474306106567383,-10.125574111938477,-131.0995330810547,-93.92802429199219,-32.55000305175781,-16.950000762939453,-18.30000114440918
6.256,108.98406219482422,23.482330322265625,-26.508602142333984,-25.846860885620117,-138.16079711914062,-102.05513000488281,-31.80000114440918,-18.450000762939453,-18.75
6.26,101.78230285644531,20.226215362548828,-26.508602142333984,-39.43644714355469,-126.03675079345703,-118.97549438476562,-32.55000305175781,-19.200000762939453,-18.30000114440918
6.267,95.76806640625,19.80483627319336,-27.044902801513672,-44.23276901245117,-118.04287719726562,-126.7029037475586,-32.55000305175781,-19.200000762939453,-18.30000114440918
6.277,93.31640625,23.558944702148438,-25.70414924621582,-47.56355285644531,-119.37519073486328,-128.16845703125,-33.0,-17.700000762939453,-18.75
6.287,93.04825592041016,26.12552833557129,-23.980323791503906,-49.42878723144531,-113.64624786376953,-142.15773010253906,-31.650001525878906,-16.350000381469727,-20.400001525878906
6.297,90.44336700439453,25.51261329650879,-22.792800903320312,-54.75803756713867,-124.70443725585938,-138.56048583984375,-31.80000114440918,-14.550000190734863,-20.100000381469727
6.318,87.91508483886719,24.554933547973633,-20.95405387878418,-52.493106842041016,-141.22511291503906,-134.29708862304688,-30.30000114440918,-15.000000953674316,-20.55000114440918
6.321,85.88480377197266,23.060951232910156,-22.141576766967773,-53.29249572753906,-145.2220458984375,-151.48391723632812,-30.450000762939453,-14.40000057220459,-19.950000762939453
6.327,84.46743774414062,23.482330322265625,-23.597251892089844,-64.48391723632812,-139.35987854003906,-152.1500701904297,-30.450000762939453,-14.40000057220459,-19.950000762939453
6.337,81.24962615966797,24.325088500976562,-24.095245361328125,-62.21898651123047,-142.5574188232422,-149.3522186279297,-29.700000762939453,-13.200000762939453,-22.5
6.347,76.80599212646484,22.754493713378906,-26.96828842163086,-59.02143859863281,-140.5589599609375,-164.00765991210938,-30.000001907348633,-14.550000190734863,-22.05000114440918
6.357,73.664794921875,22.984336853027344,-27.811046600341797,-59.287899017333984,-122.57273864746094,-172.93414306640625,-28.500001907348633,-12.750000953674316,-22.350000381469727
6.377,71.97927856445312,24.210166931152344,-29.190107345581055,-43.69984436035156,-116.17764282226562,-185.5911102294922,-28.200000762939453,-12.15000057220459,-23.25
6.38,73.0518798828125,25.780763626098633,-27.351360321044922,-35.03981399536133,-109.64930725097656,-181.59417724609375,-27.450000762939453,-9.75,-24.450000762939453
6.387,72.86034393310547,25.28277015686035,-25.550920486450195,-19.85145378112793,-111.24808502197266,-180.66156005859375,-27.450000762939453,-9.75,-24.450000762939453
6.397,71.51959228515625,24.210166931152344,-24.66985511779785,-26.513015747070312,-111.38131713867188,-183.7258758544922,-28.500001907348633,-9.15000057220459,-24.900001525878906
6.407,69.60423278808594,21.835119247436523,-22.754493713378906,-23.98162269592285,-117.24349212646484,-179.32923889160156,-26.700000762939453,-7.500000476837158,-26.250001907348633
6.417,68.60824584960938,20.072986602783203,-21.911733627319336,-26.513015747070312,-119.5084228515625,-185.99081420898438,-26.700000762939453,-7.500000476837158,-26.250001907348633
6.438,66.5013427734375,18.23423957824707,-21.14558982849121,-43.43338394165039,-114.84532928466797,-191.32005310058594,-26.700000762939453,-7.500000476837158,-26.250001907348633
6.442,64.6242904663086,19.115306854248047,-21.796812057495117,-46.897396087646484,-115.37825012207031,-182.7932586669922,-24.900001525878906,-7.500000476837158,-27.30000114440918
6.447,64.0496826171875,20.609289169311523,-23.63555908203125,-40.635528564453125,-123.63858795166016,-176.6646270751953,-24.30000114440918,-7.650000095367432,-26.100000381469727
6.457,61.67463684082031,21.6818904876709,-22.946029663085938,-41.568145751953125,-108.18376159667969,-185.72434997558594,-24.150001525878906,-5.850000381469727,-27.750001907348633
6.467,60.44880294799805,22.141576766967773,-25.474306106567383,-32.5084228515625,-99.12403869628906,-184.92495727539062,-23.400001525878906,-5.850000381469727,-28.80000114440918
6.477,61.40648651123047,22.7161865234375,-24.631547927856445,-8.526799201965332,-95.66002655029297,-181.19448852539062,-23.400001525878906,-5.850000381469727,-28.80000114440918
6.497,61.52140808105469,24.59324073791504,-23.405715942382812,-3.3307809829711914,-96.45941925048828,-173.73353576660156,-21.900001525878906,-4.800000190734863,-28.05000114440918
6.501,62.90046691894531,25.129541397094727,-22.48634147644043,10.258805274963379,-79.0061264038086,-179.9954071044922,-22.650001525878906,-4.050000190734863,-28.05000114440918
6.507,61.52140808105469,22.946029663085938,-23.175872802734375,14.92189884185791,-90.19754791259766,-165.4731903076172,-21.900001525878906,-3.6000001430511475,-29.55000114440918
6.517,59.79758071899414,23.52063751220703,-24.44001007080078,20.91730499267578,-79.40581512451172,-155.34762573242188,-23.25,-4.200000286102295,-30.150001525878906
6.527,59.29958724975586,22.48634147644043,-26.470293045043945,24.11485481262207,-68.74732208251953,-161.34303283691406,-23.25,-4.200000286102295,-30.150001525878906
6.537,60.10403823852539,22.17988395690918,-23.290794372558594,33.04134750366211,-66.48238372802734,-159.21133422851562,-22.200000762939453,-3.1500000953674316,-29.55000114440918
6.556,60.33388137817383,23.673866271972656,-21.26051139831543,44.09954071044922,-74.8759536743164,-143.4900360107422,-19.950000762939453,-4.050000190734863,-29.55000114440918
6.56,57.76729965209961,21.98834800720215,-25.28277015686035,45.03215789794922,-65.15007781982422,-147.4869842529297,-21.150001525878906,-2.1000001430511475,-30.30000114440918
6.567,58.07375717163086,22.946029663085938,-25.244462966918945,54.35834503173828,-60.48698043823242,-140.02603149414062,-19.650001525878906,-2.4000000953674316,-31.350000381469727
6.577,58.9165153503418,22.026655197143555,-26.96828842163086,64.75038146972656,-59.4211311340332,-139.89280700683594,-19.950000762939453,-2.8500001430511475,-31.05000114440918
6.587,57.57576370239258,21.0689754486084,-25.5892276763916,68.74732208251953,-68.88054656982422,-118.57579803466797,-19.950000762939453,-2.8500001430511475,-31.05000114440918
6.597,57.1160774230957,21.643583297729492,-25.321077346801758,62.21898651123047,-59.287899017333984,-121.50688934326172,-20.400001525878906,-1.350000023841858,-31.350000381469727
6.616,57.15438461303711,20.877439498901367,-23.9420166015625,59.4211311340332,-59.55436325073242,-106.85145568847656,-19.05000114440918,-1.0500000715255737,-30.450000762939453
6.62,56.120086669921875,19.19192123413086,-23.44402313232422,51.560489654541016,-67.01531219482422,-93.2618637084961,-16.950000762939453,-2.4000000953674316,-31.80000114440918
6.627,53.859962463378906,16.740259170532227,-20.915746688842773,45.298622131347656,-71.54517364501953,-87.9326171875,-17.400001525878906,-0.9000000357627869,-31.05000114440918
6.637,54.12811279296875,18.34916114807129,-19.460071563720703,32.64165496826172,-69.4134750366211,-83.5359878540039,-17.400001525878906,-0.9000000357627869,-31.05000114440918
6.647,51.7530632019043,19.038692474365234,-21.605276107788086,31.975496292114258,-71.54517364501953,-63.551300048828125,-17.400001525878906,-2.8500001430511475,-32.55000305175781
6.657,48.650177001953125,16.740259170532227,-23.405715942382812,25.7136287689209,-71.54517364501953,-58.08882141113281,-17.55000114440918,-2.700000047683716,-31.500001907348633
6.676,46.42835998535156,15.591041564941406,-23.558944702148438,12.124042510986328,-65.54976654052734,-68.4808578491211,-16.200000762939453,-0.9000000357627869,-32.55000305175781
6.68,45.279144287109375,14.786589622497559,-24.018630981445312,1.9984685182571411,-66.21592712402344,-51.027565002441406,-15.90000057220459,-1.6500000953674316,-32.55000305175781
6.687,44.512996673583984,14.480132102966309,-25.28277015686035,0.1332312375307083,-66.34915924072266,-45.96477508544922,-16.05000114440918,0.0,-32.70000076293945
6.697,43.51700973510742,14.36521053314209,-25.5892276763916,-19.31852912902832,-61.81929397583008,-43.69984436035156,-16.05000114440918,0.0,-32.70000076293945
6.707,42.59763717651367,15.322891235351562,-26.01060676574707,-35.839202880859375,-42.500762939453125,-43.30015182495117,-15.000000953674316,-1.5,-33.45000076293945
6.717,40.260894775390625,16.1656494140625,-26.240449905395508,-37.304744720458984,-49.16232681274414,-31.842266082763672,-15.000000953674316,-1.5,-32.70000076293945
6.733,38.99675750732422,16.28057098388672,-23.75048065185547,-48.76263427734375,-43.43338394165039,-37.17151641845703,-14.250000953674316,-1.5,-33.75
6.737,38.34553527832031,19.268535614013672,-27.734432220458984,-50.22817611694336,-40.76875686645508,-29.577335357666016,-14.40000057220459,-1.350000023841858,-32.10000228881836
6.747,38.07738494873047,20.341136932373047,-29.64979362487793,-27.578866958618164,-49.02909469604492,-23.448698043823242,-14.40000057220459,-1.350000023841858,-32.10000228881836
6.757,37.88584899902344,24.171859741210938,-31.488540649414062,-9.592649459838867,-34.10719680786133,-7.194486618041992,-13.500000953674316,-0.30000001192092896,-33.0
6.767,40.567352294921875,27.542896270751953,-32.82929229736328,-1.7320060729980469,-23.715160369873047,11.591117858886719,-15.000000953674316,0.0,-33.0
6.787,46.58158874511719,30.454246520996094,-35.54910659790039,12.523736000061035,-23.315465927124023,31.309341430664062,-13.65000057220459,-0.45000001788139343,-33.30000305175781
6.79,54.62610626220703,30.415939331054688,-34.85957717895508,24.64777946472168,-17.053598403930664,68.21439361572266,-12.15000057220459,-0.45000001788139343,-33.60000228881836
6.797,65.16059112548828,32.40791320800781,-36.736629486083984,15.588054656982422,-13.056661605834961,78.3399658203125,-13.800000190734863,-0.30000001192092896,-33.45000076293945
6.807,70.71514129638672,31.22039031982422,-39.18829345703125,-7.460949420928955,1.1990811824798584,87.9326171875,-13.800000190734863,-0.30000001192092896,-33.45000076293945
6.817,75.73339080810547,32.52283477783203,-43.55531692504883,-33.04134750366211,13.722817420959473,98.4578857421875,-13.65000057220459,-1.350000023841858,-33.60000228881836
6.827,78.29997253417969,33.978511810302734,-40.988731384277344,-47.830013275146484,19.052066802978516,113.77947998046875,-13.200000762939453,-1.350000023841858,-32.10000228881836
6.846,79.14273071289062,34.782962799072266,-43.24885940551758,-69.4134750366211,41.568145751953125,96.99234008789062,-13.800000190734863,-0.75,-33.45000076293945
6.851,78.26166534423828,33.7486686706543,-41.29519271850586,-82.47013854980469,48.76263427734375,97.12557220458984,-13.950000762939453,-0.9000000357627869,-31.80000114440918
6.857,76.15476989746094,39.80120849609375,-41.180267333984375,-76.60796356201172,39.9693717956543,108.3169937133789,-13.950000762939453,-0.9000000357627869,-31.80000114440918
6.867,76.03984832763672,39.68628692626953,-41.5633430480957,-62.75191116333008,50.76110076904297,99.52373504638672,-15.15000057220459,-0.9000000357627869,-31.05000114440918
6.877,73.74140930175781,41.25688552856445,-42.7508659362793,-51.560489654541016,54.091880798339844,98.99080657958984,-14.550000190734863,-1.0500000715255737,-31.950000762939453
6.887,74.00955963134766,42.52102279663086,-40.7205810546875,-26.912710189819336,53.42572784423828,98.19142150878906,-15.450000762939453,-1.350000023841858,-31.80000114440918
6.907,76.03984832763672,41.448421478271484,-41.754878997802734,6.9280242919921875,40.36906433105469,105.25267791748047,-13.950000762939453,-2.1000001430511475,-32.55000305175781
6.91,76.80599212646484,41.41011428833008,-45.010990142822266,27.84532928466797,57.689125061035156,115.64471435546875,-16.650001525878906,-0.9000000357627869,-32.10000228881836
6.917,77.30398559570312,42.02302932739258,-49.49293899536133,41.967838287353516,58.888206481933594,119.37519073486328,-16.650001525878906,-0.9000000357627869,-32.10000228881836
6.927,80.59840393066406,41.37180709838867,-51.982906341552734,71.2787094116211,73.9433364868164,133.76416015625,-16.05000114440918,-1.5,-31.500001907348633
6.937,85.38681030273438,41.25688552856445,-55.928550720214844,89.39816284179688,89.13169860839844,129.2342987060547,-16.5,-3.450000047683716,-30.900001525878906
6.947,87.4170913696289,41.60165023803711,-56.618080139160156,113.3797836303711,104.05359649658203,140.82542419433594,-17.25,-2.25,-30.450000762939453
6.967,83.24160766601562,43.44039535522461,-51.29337692260742,122.9724349975586,121.77335357666016,149.3522186279297,-16.80000114440918,-2.700000047683716,-30.450000762939453
6.971,76.69107055664062,35.204341888427734,-50.37400436401367,118.97549438476562,141.22511291503906,140.5589599609375,-18.450000762939453,-4.350000381469727,-29.55000114440918
6.977,77.8019790649414,25.5892276763916,-38.537071228027344,107.65084075927734,142.15773010253906,142.29095458984375,-18.450000762939453,-4.350000381469727,-29.55000114440918
6.987,80.59840393066406,20.379444122314453,-33.7869758605957,84.73506927490234,136.69525146484375,142.95712280273438,-18.150001525878906,-6.300000190734863,-29.850000381469727
6.997,86.68925476074219,13.21599292755127,-28.423961639404297,56.62327575683594,112.71363067626953,151.48391723632812,-18.75,-8.100000381469727,-30.450000762939453
7.007,89.7921371459961,11.185709953308105,-30.79901123046875,21.050535202026367,94.72740936279297,134.03062438964844,-19.05000114440918,-8.100000381469727,-30.450000762939453
7.027,90.8264389038086,16.1656494140625,-34.32327651977539,-9.192955017089844,92.19601440429688,141.4915771484375,-20.400001525878906,-7.050000190734863,-30.30000114440918
7.031,87.99169921875,19.919757843017578,-40.22258758544922,-34.10719680786133,101.12251281738281,160.8101043701172,-20.55000114440918,-8.100000381469727,-29.400001525878906
7.037,84.00775146484375,20.264522552490234,-40.64396667480469,-35.57273864746094,93.92802429199219,172.134765625,-20.55000114440918,-8.100000381469727,-29.400001525878906
7.047,82.36053466796875,20.64759635925293,-39.91613006591797,-54.091880798339844,96.45941925048828,184.6584930419922,-20.55000114440918,-8.850000381469727,-28.650001525878906
7.057,82.4371566772461,19.49837875366211,-38.34553527832031,-81.67074584960938,99.65696716308594,171.86830139160156,-20.55000114440918,-10.050000190734863,-28.200000762939453
7.067,78.49150848388672,17.31486701965332,-36.8515510559082,-94.0612564086914,100.9892807006836,182.52679443359375,-21.75,-11.100000381469727,-29.400001525878906
7.087,74.54586791992188,17.353174209594727,-36.2386360168457,-110.04900360107422,109.38284301757812,172.40121459960938,-21.75,-11.100000381469727,-29.400001525878906
7.09,71.48128509521484,19.306842803955078,-33.978511810302734,-99.25727081298828,101.12251281738281,173.6002960205078,-21.900001525878906,-8.25,-27.30000114440918
7.097,69.10623931884766,20.83913230895996,-30.79901123046875,-91.79632568359375,103.52066802978516,173.86676025390625,-21.900001525878906,-8.25,-27.30000114440918
7.107,68.22517395019531,22.792800903320312,-31.794998168945312,-71.54517364501953,103.52066802978516,164.67381286621094,-22.200000762939453,-10.200000762939453,-27.30000114440918
7.117,64.96905517578125,25.09123420715332,-29.611486434936523,-53.82542037963867,106.31852722167969,152.54977416992188,-22.200000762939453,-7.800000190734863,-26.250001907348633
7.127,64.58598327636719,25.5892276763916,-28.423961639404297,-25.580398559570312,112.98008728027344,147.0872802734375,-23.400001525878906,-10.200000762939453,-25.80000114440918
7.147,64.0496826171875,23.903709411621094,-28.577192306518555,1.4655436277389526,104.32006072998047,142.82388305664062,-23.400001525878906,-10.200000762939453,-25.80000114440918
7.151,63.20692443847656,24.018630981445312,-29.917943954467773,31.44257164001465,104.32006072998047,131.36599731445312,-23.55000114440918,-10.350000381469727,-26.850000381469727
7.157,63.24523162841797,20.379444122314453,-30.186094284057617,24.11485481262207,118.30934143066406,125.50382232666016,-23.55000114440918,-10.350000381469727,-26.850000381469727
7.167,62.555702209472656,20.034679412841797,-28.577192306518555,19.31852912902832,115.51148223876953,136.56201171875,-22.80000114440918,-11.850000381469727,-26.850000381469727
7.177,62.13432312011719,16.089035034179688,-29.879636764526367,6.395099639892578,123.50535583496094,130.1669158935547,-23.400001525878906,-12.15000057220459,-24.750001907348633
7.187,60.563724517822266,12.986149787902832,-26.470293045043945,-4.263399600982666,122.70597076416016,114.97856140136719,-23.400001525878906,-12.15000057220459,-24.750001907348633
7.207,60.29557418823242,14.020444869995117,-22.48634147644043,-13.722817420959473,127.10260009765625,112.98008728027344,-25.950000762939453,-12.450000762939453,-25.200000762939453
7.21,60.87018585205078,14.67166805267334,-21.911733627319336,-14.255742073059082,116.44409942626953,115.51148223876953,-25.200000762939453,-13.65000057220459,-23.25
7.217,55.928550720214844,12.29662036895752,-26.278757095336914,-21.45022964477539,125.23736572265625,92.46247863769531,-27.30000114440918,-13.800000190734863,-23.100000381469727
7.227,54.894256591796875,14.173673629760742,-28.462270736694336,-18.119447708129883,126.16998291015625,89.66461944580078,-26.250001907348633,-13.500000953674316,-23.100000381469727
7.237,54.166419982910156,14.518439292907715,-29.64979362487793,-11.724349021911621,120.84072875976562,94.86064147949219,-26.250001907348633,-13.500000953674316,-23.100000381469727
7.247,53.055511474609375,13.905523300170898,-27.044902801513672,-10.392036437988281,120.70750427246094,85.93415069580078,-27.30000114440918,-12.750000953674316,-24.150001525878906
7.266,53.09381866455078,12.526463508605957,-26.048913955688477,-31.709033966064453,120.70750427246094,90.06431579589844,-26.700000762939453,-14.850000381469727,-22.200000762939453
7.27,50.335697174072266,8.65743350982666,-23.558944702148438,-52.3598747253418,110.58192443847656,83.66921997070312,-27.750001907348633,-15.450000762939453,-21.600000381469727
7.277,48.228797912597656,6.665457725524902,-21.6818904876709,-51.4272575378418,104.7197494506836,84.60183715820312,-27.750001907348633,-13.050000190734863,-22.350000381469727
7.287,48.841712951660156,9.117119789123535,-21.337125778198242,-64.48391723632812,103.52066802978516,85.13475799560547,-27.750001907348633,-13.050000190734863,-22.350000381469727
7.297,50.948612213134766,11.338939666748047,-19.421764373779297,-58.62174606323242,100.9892807006836,77.27411651611328,-29.700000762939453,-15.15000057220459,-21.150001525878906
7.307,53.59181213378906,13.752294540405273,-23.367408752441406,-34.64012145996094,96.72587585449219,75.67534637451172,-28.05000114440918,-14.250000953674316,-20.55000114440918
7.327,55.660400390625,16.089035034179688,-23.482330322265625,-10.92496109008789,91.3966293334961,72.87748718261719,-30.30000114440918,-15.000000953674316,-19.5
7.33,57.001155853271484,17.161638259887695,-25.933992385864258,13.323123931884766,95.9264907836914,57.822357177734375,-28.80000114440918,-15.750000953674316,-19.80000114440918
7.337,59.29958724975586,16.855180740356445,-27.849353790283203,35.306278228759766,90.4640121459961,58.754974365234375,-28.500001907348633,-15.450000762939453,-18.75
7.347,58.9548225402832,15.476119995117188,-27.427974700927734,37.70444107055664,92.46247863769531,53.95865249633789,-28.500001907348633,-15.450000762939453,-18.75
7.357,61.29156494140625,11.990161895751953,-24.36339569091797,24.781009674072266,91.3966293334961,54.35834503173828,-29.250001907348633,-15.750000953674316,-19.05000114440918
7.367,62.44078063964844,7.661445617675781,-22.06496238708496,18.91883659362793,87.53292083740234,53.69218826293945,-31.05000114440918,-17.400001525878906,-18.0
7.386,64.39444732666016,4.520252704620361,-21.911733627319336,7.194486618041992,81.8039779663086,64.3506851196289,-29.250001907348633,-16.950000762939453,-18.0
7.39,64.7009048461914,2.911349296569824,-23.712173461914062,-7.06125545501709,88.33231353759766,58.08882141113281,-30.450000762939453,-15.90000057220459,-18.900001525878906
7.397,67.22918701171875,7.546523571014404,-22.37141990661621,-16.520673751831055,89.7978515625,51.29402542114258,-30.450000762939453,-15.90000057220459,-18.900001525878906
7.407,69.91069030761719,9.423578262329102,-25.09123420715332,-9.992342948913574,82.33690643310547,59.15467071533203,-30.000001907348633,-15.000000953674316,-18.0
7.417,71.97927856445312,11.760318756103516,-24.89969825744629,5.329249382019043,85.13475799560547,52.226646423339844,-29.250001907348633,-17.400001525878906,-16.5
