time,accel_x,accel_y,accel_z,gyro_x,gyro_y,gyro_z,mag_x,mag_y,mag_z
0.0,71.2514419555664,25.51261329650879,18.387468338012695,8.926492691040039,-3.7304747104644775,4.529861927032471,-30.450000762939453,-16.80000114440918,27.000001907348633
0.009,70.33206939697266,28.577192306518555,20.072986602783203,0.2664624750614166,3.86370587348938,-2.797856092453003,-30.750001907348633,-16.5,26.850000381469727
0.019,69.91069030761719,28.73042106628418,19.881450653076172,-1.5987749099731445,7.460949420928955,-4.396630764007568,-31.650001525878906,-15.90000057220459,25.200000762939453
0.029,70.29376220703125,28.53888511657715,19.268535614013672,9.059723854064941,4.796324729919434,1.9984685182571411,-31.650001525878906,-15.90000057220459,25.200000762939453
0.039,71.05990600585938,29.84132957458496,20.149600982666016,12.790199279785156,-0.7993874549865723,-2.6646246910095215,-31.650001525878906,-15.90000057220459,25.200000762939453
0.059,70.14053344726562,30.415939331054688,20.915746688842773,-5.8621745109558105,8.39356803894043,-10.125574111938477,-31.650001525878906,-16.80000114440918,25.80000114440918
0.063,68.49332427978516,28.117504119873047,20.532672882080078,-6.9280242919921875,12.656967163085938,-11.591117858886719,-30.150001525878906,-16.80000114440918,25.500001907348633
0.069,68.68486022949219,27.619510650634766,19.651607513427734,-3.4640121459960938,-5.196018218994141,-7.860642910003662,-31.500001907348633,-15.450000762939453,26.850000381469727
0.079,68.41670989990234,27.236438751220703,20.149600982666016,-8.926492691040039,4.929555892944336,-4.263399600982666,-30.450000762939453,-15.90000057220459,25.200000762939453
0.089,70.71514129638672,27.77273941040039,19.68991470336914,-5.728943347930908,7.860642910003662,-13.989279747009277,-30.450000762939453,-15.90000057220459,25.200000762939453
0.1,69.87238311767578,27.198131561279297,19.80483627319336,-6.661561965942383,9.192955017089844,-8.660030364990234,-30.900001525878906,-15.90000057220459,26.250001907348633
0.119,70.44699096679688,27.542896270751953,20.034679412841797,-7.9938740730285645,2.2649309635162354,-1.9984685182571411,-32.55000305175781,-16.950000762939453,26.100000381469727
0.123,71.55789947509766,27.58120346069336,20.456058502197266,1.9984685182571411,0.6661561727523804,0.5329249501228333,-30.000001907348633,-15.450000762939453,25.650001525878906
0.129,69.25946807861328,26.85336685180664,21.720197677612305,-1.5987749099731445,2.9310872554779053,-2.131699800491333,-31.200000762939453,-15.15000057220459,25.80000114440918
0.139,69.06793212890625,27.313053131103516,20.915746688842773,-0.39969372749328613,1.0658499002456665,-3.7304747104644775,-31.500001907348633,-15.750000953674316,26.100000381469727
0.149,70.14053344726562,28.19411849975586,20.187908172607422,-2.6646246910095215,14.522205352783203,-3.4640121459960938,-31.500001907348633,-15.750000953674316,26.100000381469727
0.159,70.33206939697266,27.504589080810547,19.038692474365234,-3.4640121459960938,5.196018218994141,-3.597243309020996,-31.80000114440918,-15.450000762939453,27.450000762939453
0.179,69.79576873779297,26.43198585510254,20.226215362548828,0.2664624750614166,-1.1990811824798584,-3.597243309020996,-32.70000076293945,-15.15000057220459,27.30000114440918
0.183,70.94498443603516,27.696125030517578,19.49837875366211,3.4640121459960938,-2.2649309635162354,-6.395099639892578,-31.80000114440918,-15.450000762939453,26.850000381469727
0.189,71.213134765625,27.542896270751953,21.337125778198242,-5.196018218994141,4.663093090057373,-7.9938740730285645,-31.05000114440918,-14.550000190734863,26.400001525878906
0.199,71.67282104492188,27.044902801513672,20.494365692138672,-1.9984685182571411,-1.4655436277389526,-2.797856092453003,-31.05000114440918,-14.550000190734863,26.400001525878906
0.209,69.56592559814453,26.2021427154541,20.456058502197266,-3.197549819946289,-5.329249382019043,-2.6646246910095215,-30.150001525878906,-15.90000057220459,25.500001907348633
0.219,69.52761840820312,26.623523712158203,19.80483627319336,-10.658498764038086,3.4640121459960938,-5.595712184906006,-31.500001907348633,-16.200000762939453,26.400001525878906
0.239,69.9489974975586,25.742456436157227,21.14558982849121,-10.258805274963379,1.5987749099731445,-12.25727367401123,-30.750001907348633,-14.550000190734863,26.100000381469727
0.242,69.60423278808594,27.313053131103516,21.14558982849121,-7.594180583953857,-0.6661561727523804,-3.597243309020996,-29.400001525878906,-15.15000057220459,25.500001907348633
0.249,70.10222625732422,27.696125030517578,20.685903549194336,-7.860642910003662,8.793261528015137,-9.326186180114746,-31.05000114440918,-15.000000953674316,27.150001525878906
0.259,70.94498443603516,27.083209991455078,20.64759635925293,-11.191424369812012,6.9280242919921875,-4.663093090057373,-31.05000114440918,-15.000000953674316,27.150001525878906
0.269,69.75746154785156,27.657817840576172,20.494365692138672,-2.131699800491333,-4.929555892944336,0.0,-30.000001907348633,-16.5,24.900001525878906
0.279,69.25946807861328,27.811046600341797,20.64759635925293,0.1332312375307083,0.2664624750614166,-4.663093090057373,-32.55000305175781,-16.200000762939453,25.650001525878906
0.299,69.45100402832031,28.38565444946289,20.64759635925293,-8.260336875915527,5.728943347930908,-11.457886695861816,-32.400001525878906,-15.600000381469727,25.80000114440918
0.303,70.48529815673828,28.19411849975586,20.609289169311523,-3.197549819946289,5.595712184906006,-3.0643184185028076,-30.750001907348633,-16.5,24.900001525878906
0.309,70.94498443603516,28.61549949645996,20.264522552490234,-0.6661561727523804,-2.797856092453003,7.194486618041992,-30.750001907348633,-16.5,24.900001525878906
0.319,70.25545501708984,28.92195701599121,20.685903549194336,-6.9280242919921875,7.72741174697876,-9.72588062286377,-30.750001907348633,-16.200000762939453,27.450000762939453
0.329,69.22116088867188,28.07919692993164,20.609289169311523,-10.392036437988281,7.460949420928955,-11.324655532836914,-30.450000762939453,-17.100000381469727,27.30000114440918
0.339,69.71915435791016,27.198131561279297,21.6818904876709,-0.39969372749328613,1.7320060729980469,1.1990811824798584,-31.200000762939453,-17.100000381469727,25.80000114440918
0.359,69.52761840820312,27.504589080810547,21.337125778198242,-2.797856092453003,-2.398162364959717,2.9310872554779053,-31.650001525878906,-15.600000381469727,26.55000114440918
0.363,70.0256118774414,27.006595611572266,20.41775131225586,-6.128636837005615,2.531393527984619,1.4655436277389526,-31.500001907348633,-15.450000762939453,26.850000381469727
0.369,71.09821319580078,28.19411849975586,21.298818588256836,-7.460949420928955,-2.797856092453003,5.196018218994141,-31.500001907348633,-15.450000762939453,26.850000381469727
0.379,69.14454650878906,27.236438751220703,20.724210739135742,-3.597243309020996,-0.1332312375307083,5.196018218994141,-31.500001907348633,-14.550000190734863,26.400001525878906
0.389,68.87639617919922,27.46628189086914,20.724210739135742,-10.525267601013184,-0.6661561727523804,-10.525267601013184,-31.200000762939453,-16.350000381469727,25.80000114440918
0.4,69.06793212890625,27.121517181396484,20.724210739135742,-3.597243309020996,-4.263399600982666,-6.395099639892578,-33.0,-16.200000762939453,26.100000381469727
0.419,69.52761840820312,27.427974700927734,21.26051139831543,-5.196018218994141,-0.5329249501228333,-9.059723854064941,-30.900001525878906,-15.15000057220459,26.250001907348633
0.423,70.48529815673828,27.504589080810547,21.222204208374023,-1.3323123455047607,-2.2649309635162354,0.2664624750614166,-30.900001525878906,-15.15000057220459,26.250001907348633
0.429,68.87639617919922,27.083209991455078,20.187908172607422,-11.058192253112793,1.1990811824798584,-5.462480545043945,-30.900001525878906,-15.15000057220459,26.250001907348633
0.439,68.49332427978516,27.925968170166016,21.183897018432617,-1.0658499002456665,-5.8621745109558105,-1.1990811824798584,-30.30000114440918,-16.200000762939453,27.450000762939453
0.449,68.26348114013672,28.155811309814453,21.98834800720215,-3.4640121459960938,-0.7993874549865723,-2.797856092453003,-31.500001907348633,-16.200000762939453,24.900001525878906
0.459,69.3743896484375,27.504589080810547,21.98834800720215,-6.794793128967285,4.130168437957764,-6.661561965942383,-30.750001907348633,-15.750000953674316,24.900001525878906
0.479,68.56993865966797,27.734432220458984,21.528661727905273,-5.329249382019043,3.7304747104644775,-5.462480545043945,-33.45000076293945,-15.90000057220459,26.250001907348633
0.483,69.48931121826172,27.964275360107422,21.911733627319336,5.462480545043945,5.995405673980713,-0.7993874549865723,-33.45000076293945,-15.90000057220459,26.250001907348633
0.489,69.60423278808594,27.236438751220703,21.37543296813965,1.1990811824798584,13.989279747009277,-13.456355094909668,-31.05000114440918,-15.450000762939453,26.100000381469727
0.499,69.64253997802734,27.083209991455078,21.107282638549805,6.794793128967285,13.58958625793457,10.92496109008789,-31.05000114440918,-13.800000190734863,25.650001525878906
0.509,69.60423278808594,27.27474594116211,20.800825119018555,-0.6661561727523804,9.326186180114746,7.327718257904053,-31.80000114440918,-15.750000953674316,24.900001525878906
0.519,69.91069030761719,26.240449905395508,21.030668258666992,0.5329249501228333,6.261868000030518,7.9938740730285645,-31.650001525878906,-15.90000057220459,25.80000114440918
0.538,70.33206939697266,27.619510650634766,20.41775131225586,-2.531393527984619,9.459418296813965,5.462480545043945,-31.650001525878906,-15.90000057220459,25.80000114440918
0.542,70.33206939697266,28.309040069580078,19.766529083251953,4.796324729919434,2.6646246910095215,2.398162364959717,-31.650001525878906,-15.90000057220459,25.80000114440918
0.549,70.06391906738281,29.688100814819336,20.264522552490234,1.7320060729980469,5.329249382019043,2.797856092453003,-32.55000305175781,-16.200000762939453,26.100000381469727
0.559,70.29376220703125,29.22841453552246,20.41775131225586,0.7993874549865723,10.92496109008789,-3.86370587348938,-31.200000762939453,-15.90000057220459,27.000001907348633
0.569,68.53163146972656,28.807035446166992,20.264522552490234,2.531393527984619,16.12097930908203,-1.9984685182571411,-30.30000114440918,-16.950000762939453,26.400001525878906
0.579,68.30178833007812,29.4582576751709,19.843143463134766,9.192955017089844,1.0658499002456665,3.3307809829711914,-31.950000762939453,-15.90000057220459,26.250001907348633
0.599,67.91871643066406,30.186094284057617,18.923770904541016,10.125574111938477,-2.131699800491333,1.0658499002456665,-31.950000762939453,-15.90000057220459,26.250001907348633
0.603,68.99131774902344,29.190107345581055,18.88546371459961,3.86370587348938,12.923430442810059,-8.793261528015137,-30.450000762939453,-14.850000381469727,25.80000114440918
0.609,70.33206939697266,28.8453426361084,19.574993133544922,17.586523056030273,6.661561965942383,-2.9310872554779053,-30.450000762939453,-14.850000381469727,25.80000114440918
0.619,70.79175567626953,28.653806686401367,19.230228424072266,14.255742073059082,6.5283308029174805,-1.0658499002456665,-29.700000762939453,-15.600000381469727,26.55000114440918
0.629,72.97526550292969,27.88766098022461,19.919757843017578,2.6646246910095215,16.78713607788086,-4.929555892944336,-28.950000762939453,-15.90000057220459,27.000001907348633
0.639,73.6264877319336,27.964275360107422,19.958065032958984,4.396630764007568,12.25727367401123,-13.056661605834961,-30.900001525878906,-16.350000381469727,27.750001907348633
0.658,71.90266418457031,26.585216522216797,20.83913230895996,-2.9310872554779053,0.7993874549865723,-4.396630764007568,-30.900001525878906,-16.350000381469727,27.750001907348633
0.662,68.07194519042969,23.597251892089844,20.800825119018555,-7.860642910003662,-8.127105712890625,-9.992342948913574,-31.200000762939453,-15.90000057220459,27.000001907348633
0.669,67.22918701171875,22.562957763671875,21.720197677612305,-16.520673751831055,-5.995405673980713,-17.32006072998047,-31.200000762939453,-15.90000057220459,27.000001907348633
0.679,68.64655303955078,23.44402313232422,19.766529083251953,-5.728943347930908,-11.857580184936523,-7.860642910003662,-31.80000114440918,-15.750000953674316,26.100000381469727
0.689,69.29777526855469,25.052927017211914,20.072986602783203,-6.395099639892578,-5.728943347930908,-5.8621745109558105,-29.55000114440918,-15.750000953674316,26.100000381469727
0.7,71.51959228515625,26.85336685180664,19.536685943603516,1.9984685182571411,-3.197549819946289,4.929555892944336,-29.55000114440918,-15.750000953674316,26.100000381469727
0.718,71.7877426147461,26.891674041748047,20.264522552490234,-5.595712184906006,11.191424369812012,-2.131699800491333,-32.25,-15.450000762939453,25.650001525878906
0.721,70.06391906738281,26.66183090209961,21.337125778198242,-0.39969372749328613,5.595712184906006,-8.39356803894043,-31.500001907348633,-16.5,26.850000381469727
0.729,71.40467071533203,27.236438751220703,20.992361068725586,-10.125574111938477,7.06125545501709,-7.327718257904053,-31.200000762939453,-16.5,26.850000381469727
0.739,69.3743896484375,26.54690933227539,20.532672882080078,-3.7304747104644775,8.526799201965332,-5.595712184906006,-31.05000114440918,-17.400001525878906,27.150001525878906
0.749,69.75746154785156,27.734432220458984,19.153614044189453,-7.327718257904053,-3.86370587348938,-9.592649459838867,-31.05000114440918,-17.400001525878906,27.150001525878906
0.759,69.06793212890625,28.768728256225586,19.99637222290039,-5.329249382019043,-0.7993874549865723,-3.0643184185028076,-31.05000114440918,-17.400001525878906,27.150001525878906
0.778,69.45100402832031,28.500577926635742,18.77054214477539,-7.594180583953857,-1.1990811824798584,-14.255742073059082,-31.650001525878906,-15.15000057220459,26.55000114440918
0.782,67.34410858154297,29.496564865112305,19.115306854248047,-11.324655532836914,-2.131699800491333,-18.652372360229492,-30.900001525878906,-14.850000381469727,26.55000114440918
0.789,68.41670989990234,29.84132957458496,18.464082717895508,-5.8621745109558105,-3.86370587348938,-12.124042510986328,-31.500001907348633,-16.200000762939453,26.100000381469727
0.799,67.30580139160156,30.339323043823242,19.230228424072266,-9.326186180114746,2.531393527984619,-15.321592330932617,-31.500001907348633,-16.200000762939453,26.100000381469727
0.809,67.34410858154297,29.573179244995117,19.230228424072266,-12.790199279785156,-1.5987749099731445,-8.127105712890625,-30.150001525878906,-15.600000381469727,27.30000114440918
0.819,68.49332427978516,30.79901123046875,18.693927764892578,-2.531393527984619,-5.728943347930908,-4.796324729919434,-32.55000305175781,-15.750000953674316,26.100000381469727
0.838,69.18285369873047,29.381643295288086,19.651607513427734,-3.7304747104644775,-8.127105712890625,-8.260336875915527,-32.25,-15.750000953674316,26.400001525878906
0.841,69.02962493896484,29.381643295288086,21.75850486755371,-15.987748146057129,-2.531393527984619,-15.987748146057129,-31.650001525878906,-16.350000381469727,24.450000762939453
0.849,69.02962493896484,28.998571395874023,21.98834800720215,-12.923430442810059,-7.9938740730285645,-11.191424369812012,-32.25,-16.200000762939453,27.150001525878906
0.859,68.761474609375,28.040889739990234,21.37543296813965,-12.656967163085938,-12.390504837036133,-7.327718257904053,-32.25,-16.200000762939453,27.150001525878906
0.869,68.60824584960938,27.964275360107422,22.7161865234375,-15.721285820007324,-7.594180583953857,-6.395099639892578,-31.500001907348633,-15.750000953674316,27.150001525878906
0.879,68.41670989990234,26.623523712158203,22.141576766967773,-20.38437843322754,-1.0658499002456665,-5.728943347930908,-31.950000762939453,-16.350000381469727,27.750001907348633
0.899,68.60824584960938,25.5892276763916,20.685903549194336,-12.390504837036133,-11.191424369812012,11.857580184936523,-31.950000762939453,-15.90000057220459,25.500001907348633
0.903,69.56592559814453,27.083209991455078,20.187908172607422,-16.78713607788086,-2.131699800491333,14.655436515808105,-31.650001525878906,-14.850000381469727,25.80000114440918
0.909,69.45100402832031,25.89568519592285,21.030668258666992,-16.78713607788086,6.5283308029174805,19.052066802978516,-31.650001525878906,-14.850000381469727,25.80000114440918
0.919,70.90667724609375,26.623523712158203,20.30282974243164,-19.98468589782715,10.525267601013184,19.45176124572754,-31.650001525878906,-14.850000381469727,25.80000114440918
0.929,70.6002197265625,25.20615577697754,20.187908172607422,1.4655436277389526,6.128636837005615,31.042879104614258,-32.25,-15.000000953674316,26.400001525878906
0.939,70.06391906738281,26.43198585510254,20.64759635925293,-2.531393527984619,14.522205352783203,28.644716262817383,-30.150001525878906,-16.350000381469727,25.200000762939453
0.958,70.44699096679688,27.121517181396484,20.11129379272461,10.125574111938477,19.85145378112793,29.84379768371582,-30.450000762939453,-17.55000114440918,26.250001907348633
0.961,69.56592559814453,31.488540649414062,19.728221893310547,18.385910034179688,8.660030364990234,35.03981399536133,-30.450000762939453,-17.55000114440918,26.250001907348633
0.969,68.91470336914062,32.75267791748047,20.532672882080078,14.655436515808105,13.989279747009277,36.5053596496582,-30.450000762939453,-17.55000114440918,26.250001907348633
0.979,66.8844223022461,34.85957717895508,20.64759635925293,10.258805274963379,19.584991455078125,27.445634841918945,-31.05000114440918,-16.5,25.650001525878906
0.989,66.38642120361328,35.93217849731445,20.64759635925293,10.525267601013184,18.91883659362793,28.111791610717773,-31.05000114440918,-16.950000762939453,26.400001525878906
1.008,65.50535583496094,36.88985824584961,21.6818904876709,7.594180583953857,17.586523056030273,27.445634841918945,-28.80000114440918,-16.5,24.600000381469727
1.012,66.4630355834961,38.38384246826172,21.222204208374023,-5.196018218994141,6.128636837005615,32.24195861816406,-30.000001907348633,-17.400001525878906,26.100000381469727
1.019,65.54366302490234,38.57537841796875,21.98834800720215,-16.25421142578125,18.119447708129883,1.3323123455047607,-30.000001907348633,-17.400001525878906,26.100000381469727
1.029,64.0496826171875,38.728607177734375,21.222204208374023,-19.052066802978516,10.258805274963379,3.0643184185028076,-30.000001907348633,-17.400001525878906,26.100000381469727
1.039,61.90447998046875,39.226600646972656,22.448034286499023,-28.511484146118164,21.716691970825195,-19.718223571777344,-31.950000762939453,-15.600000381469727,27.000001907348633
1.049,60.257266998291016,38.537071228027344,20.685903549194336,-23.848390579223633,14.522205352783203,-18.119447708129883,-30.750001907348633,-17.700000762939453,26.100000381469727
1.059,61.90447998046875,37.57939147949219,18.157625198364258,-9.859111785888672,15.055130004882812,-14.255742073059082,-30.750001907348633,-16.950000762939453,26.850000381469727
1.073,64.12629699707031,37.88584899902344,17.889474868774414,12.390504837036133,23.848390579223633,-14.12251091003418,-30.900001525878906,-17.55000114440918,27.30000114440918
1.08,67.80379486083984,36.27694320678711,18.962078094482422,12.790199279785156,34.24042892456055,-22.649311065673828,-30.900001525878906,-17.55000114440918,27.30000114440918
1.089,67.68887329101562,35.702335357666016,20.30282974243164,11.191424369812012,46.764163970947266,-25.313934326171875,-31.950000762939453,-16.80000114440918,27.000001907348633
1.1,67.11426544189453,34.55311965942383,20.64759635925293,-3.197549819946289,49.16232681274414,-37.304744720458984,-31.05000114440918,-16.5,26.850000381469727
1.109,66.5396499633789,32.292991638183594,22.026655197143555,-11.324655532836914,45.56508255004883,-18.2526798248291,-30.450000762939453,-17.100000381469727,28.05000114440918
1.129,63.32184600830078,30.37763023376465,22.218191146850586,-16.65390396118164,39.30321502685547,-25.980091094970703,-30.900001525878906,-16.350000381469727,28.05000114440918
1.132,63.01538848876953,30.454246520996094,23.099258422851562,-14.12251091003418,26.246553421020508,-14.12251091003418,-31.05000114440918,-17.700000762939453,27.900001525878906
1.139,65.00736236572266,31.373619079589844,22.026655197143555,-8.793261528015137,29.7105655670166,-0.2664624750614166,-31.05000114440918,-17.700000762939453,27.900001525878906
1.149,67.45903015136719,32.292991638183594,21.413740158081055,-8.793261528015137,39.9693717956543,-6.661561965942383,-31.200000762939453,-16.80000114440918,28.500001907348633
1.159,70.6002197265625,33.71036148071289,19.919757843017578,-1.8652373552322388,50.4946403503418,0.7993874549865723,-30.750001907348633,-16.950000762939453,27.900001525878906
1.169,70.71514129638672,32.52283477783203,19.268535614013672,-7.72741174697876,62.485450744628906,4.396630764007568,-31.950000762939453,-15.600000381469727,28.80000114440918
1.188,70.83006286621094,30.14778709411621,18.655620574951172,-10.258805274963379,83.13629150390625,0.0,-30.750001907348633,-17.400001525878906,27.900001525878906
1.192,67.4973373413086,28.309040069580078,17.42978858947754,-6.128636837005615,83.00305938720703,13.056661605834961,-30.750001907348633,-17.400001525878906,27.900001525878906
1.199,65.19889831542969,26.54690933227539,16.970102310180664,-9.192955017089844,79.9387435913086,4.529861927032471,-29.700000762939453,-16.80000114440918,28.05000114440918
1.209,65.46704864501953,26.585216522216797,17.00840950012207,-6.5283308029174805,83.13629150390625,12.923430442810059,-31.05000114440918,-16.950000762939453,28.200000762939453
1.219,67.95702362060547,28.040889739990234,16.203956604003906,-10.658498764038086,84.06890869140625,22.249616622924805,-29.700000762939453,-16.80000114440918,30.30000114440918
1.229,69.79576873779297,31.565155029296875,16.970102310180664,1.3323123455047607,78.60643005371094,21.583459854125977,-28.650001525878906,-18.75,30.30000114440918
1.249,70.29376220703125,32.331298828125,16.778566360473633,-0.9326186776161194,76.34149932861328,22.51607894897461,-28.80000114440918,-17.700000762939453,28.650001525878906
1.253,68.1868667602539,32.86759948730469,15.744270324707031,1.4655436277389526,64.75038146972656,22.116384506225586,-28.80000114440918,-17.700000762939453,28.650001525878906
1.259,65.65858459472656,32.369606018066406,15.514427185058594,-7.06125545501709,54.22511291503906,13.58958625793457,-29.700000762939453,-18.75,29.850000381469727
1.269,65.35212707519531,31.41192626953125,16.1656494140625,-0.39969372749328613,27.17917251586914,17.453292846679688,-31.05000114440918,-16.950000762939453,30.150001525878906
1.279,66.30980682373047,32.56114196777344,15.361198425292969,-14.388973236083984,11.857580184936523,24.64777946472168,-29.55000114440918,-18.450000762939453,31.200000762939453
1.289,67.53564453125,32.331298828125,18.4257755279541,-41.83460998535156,9.859111785888672,6.128636837005615,-29.400001525878906,-18.30000114440918,31.350000381469727
1.309,66.8844223022461,31.182083129882812,21.413740158081055,-57.422664642333984,2.797856092453003,5.462480545043945,-29.400001525878906,-18.30000114440918,31.350000381469727
1.313,65.2755126953125,30.837318420410156,22.524648666381836,-59.82082748413086,-19.45176124572754,-1.0658499002456665,-29.250001907348633,-17.700000762939453,31.500001907348633
1.319,64.31783294677734,29.419950485229492,23.788787841796875,-67.94792938232422,-18.119447708129883,-0.5329249501228333,-29.250001907348633,-17.700000762939453,31.500001907348633
1.329,64.96905517578125,29.22841453552246,23.367408752441406,-71.81163787841797,-18.91883659362793,-1.1990811824798584,-28.500001907348633,-19.200000762939453,31.950000762939453
1.339,66.11827087402344,29.075185775756836,25.627534866333008,-69.4134750366211,-31.042879104614258,2.398162364959717,-28.950000762939453,-17.55000114440918,31.350000381469727
1.349,66.61626434326172,27.504589080810547,27.044902801513672,-83.5359878540039,-16.387441635131836,-3.0643184185028076,-29.250001907348633,-18.450000762939453,32.25
1.369,69.10623931884766,27.198131561279297,28.19411849975586,-96.8591079711914,-25.846860885620117,-5.062787055969238,-29.250001907348633,-18.450000762939453,32.25
1.373,70.14053344726562,27.657817840576172,29.381643295288086,-121.10719299316406,-30.509952545166016,-11.724349021911621,-28.650001525878906,-19.05000114440918,29.850000381469727
1.379,70.94498443603516,27.313053131103516,31.067161560058594,-114.04593658447266,-37.97090148925781,6.395099639892578,-28.650001525878906,-19.05000114440918,29.850000381469727
1.389,69.83407592773438,26.66183090209961,32.02484130859375,-131.63246154785156,-41.434913635253906,3.7304747104644775,-29.400001525878906,-19.05000114440918,30.30000114440918
1.399,64.47106170654297,25.359384536743164,31.450233459472656,-121.64012145996094,-44.76569747924805,-4.796324729919434,-28.950000762939453,-19.80000114440918,29.55000114440918
1.409,62.172630310058594,25.780763626098633,31.143775939941406,-118.44257354736328,-49.56201934814453,1.4655436277389526,-28.950000762939453,-19.80000114440918,29.55000114440918
1.429,61.71294403076172,26.929981231689453,27.849353790283203,-106.58499145507812,-37.03828430175781,-5.462480545043945,-28.80000114440918,-20.100000381469727,31.500001907348633
1.432,61.90447998046875,26.96828842163086,27.198131561279297,-86.0673828125,-33.97396469116211,-0.5329249501228333,-28.80000114440918,-20.100000381469727,30.150001525878906
1.439,60.64033889770508,29.84132957458496,25.052927017211914,-72.34455871582031,-18.652372360229492,13.456355094909668,-28.80000114440918,-20.100000381469727,30.150001525878906
1.449,61.942787170410156,31.60346221923828,25.129541397094727,-54.75803756713867,-9.326186180114746,15.588054656982422,-29.250001907348633,-18.900001525878906,30.450000762939453
1.459,63.704917907714844,34.85957717895508,27.504589080810547,-46.63093185424805,-0.39969372749328613,28.644716262817383,-30.750001907348633,-21.150001525878906,30.150001525878906
1.469,69.02962493896484,39.60967254638672,31.83330535888672,-33.30780792236328,2.6646246910095215,36.771820068359375,-30.750001907348633,-21.150001525878906,30.150001525878906
1.489,76.4995346069336,43.51700973510742,36.2003288269043,-16.78713607788086,-7.06125545501709,43.69984436035156,-28.950000762939453,-21.0,28.80000114440918
1.493,83.24160766601562,47.57757568359375,41.180267333984375,-23.715160369873047,-14.655436515808105,41.967838287353516,-29.55000114440918,-22.80000114440918,30.150001525878906
1.5,92.20549774169922,47.76911163330078,41.02703857421875,-40.76875686645508,2.531393527984619,40.36906433105469,-28.80000114440918,-22.80000114440918,30.150001525878906
1.509,93.85270690917969,44.6279182434082,40.52904510498047,-44.23276901245117,8.926492691040039,13.056661605834961,-28.80000114440918,-22.80000114440918,31.500001907348633
1.519,90.21351623535156,40.260894775390625,38.38384246826172,-61.01990509033203,21.583459854125977,3.0643184185028076,-28.80000114440918,-22.80000114440918,31.500001907348633
1.529,82.70530700683594,40.33750915527344,36.928165435791016,-65.41653442382812,37.70444107055664,3.0643184185028076,-28.80000114440918,-22.80000114440918,31.500001907348633
1.549,76.30799865722656,40.069358825683594,32.599449157714844,-58.4885139465332,48.8958625793457,13.456355094909668,-29.55000114440918,-21.600000381469727,28.200000762939453
1.552,74.6990966796875,42.061336517333984,26.12552833557129,-27.445634841918945,86.60030364990234,31.44257164001465,-28.200000762939453,-22.200000762939453,31.05000114440918
1.559,78.989501953125,38.15399932861328,18.655620574951172,13.323123931884766,124.57120513916016,33.30780792236328,-27.750001907348633,-22.80000114440918,29.700000762939453
1.569,83.58637237548828,35.28095626831055,1.455674648284912,184.92495727539062,184.79173278808594,35.439510345458984,-27.750001907348633,-22.80000114440918,29.700000762939453
1.579,97.33866119384766,44.091617584228516,-37.11970138549805,295.6401062011719,154.28176879882812,54.89126968383789,-28.500001907348633,-21.900001525878906,31.500001907348633
1.589,98.06649780273438,49.37801742553711,-13.445837020874023,210.2388916015625,64.61714935302734,35.972434997558594,-27.900001525878906,-22.5,32.85000228881836
1.609,99.40725708007812,37.88584899902344,12.90953540802002,46.497703552246094,-60.75344467163086,-11.191424369812012,-27.750001907348633,-20.850000381469727,32.25
1.612,96.80236053466797,32.25468444824219,24.938005447387695,-85.26799011230469,-209.97242736816406,-46.63093185424805,-28.05000114440918,-20.850000381469727,33.45000076293945
1.619,89.90705871582031,32.905906677246094,19.919757843017578,-105.11944580078125,-246.74424743652344,-67.5482406616211,-28.05000114440918,-20.850000381469727,33.45000076293945
1.629,83.7012939453125,35.77894973754883,9.308655738830566,-83.80245208740234,-242.21438598632812,-72.21133422851562,-28.05000114440918,-20.850000381469727,33.45000076293945
1.639,73.89463806152344,38.15399932861328,1.4173674583435059,-25.580398559570312,-225.96017456054688,-63.018375396728516,-28.500001907348633,-21.900001525878906,31.200000762939453
1.649,64.85413360595703,41.21857833862305,1.0342950820922852,43.03369140625,-218.49923706054688,-46.897396087646484,-29.250001907348633,-22.80000114440918,29.400001525878906
1.668,58.76328659057617,40.22258758544922,2.1068975925445557,76.07503509521484,-206.37518310546875,-63.81776428222656,-30.000001907348633,-21.600000381469727,28.950000762939453
1.672,55.58378601074219,37.809234619140625,1.8770540952682495,130.56661987304688,-213.30320739746094,-81.27105712890625,-28.650001525878906,-21.75,29.55000114440918
1.679,54.894256591796875,35.089420318603516,0.38307225704193115,158.9448699951172,-233.9540557861328,-81.53751373291016,-28.650001525878906,-21.75,29.55000114440918
1.689,55.85193634033203,31.756690979003906,-1.8770540952682495,189.85450744628906,-250.20826721191406,-98.32465362548828,-30.750001907348633,-21.150001525878906,28.200000762939453
1.699,58.15037155151367,28.807035446166992,-1.5322890281677246,191.71975708007812,-249.80856323242188,-126.96936798095703,-31.80000114440918,-20.100000381469727,28.200000762939453
1.709,60.64033889770508,25.51261329650879,-0.4213795065879822,185.5911102294922,-242.21438598632812,-116.57733154296875,-30.30000114440918,-19.650001525878906,26.850000381469727
1.729,65.16059112548828,23.21417999267578,4.252102375030518,172.6676788330078,-237.15159606933594,-119.90811157226562,-31.950000762939453,-18.75,25.80000114440918
1.732,72.4772720336914,21.720197677612305,16.855180740356445,142.15773010253906,-209.4394989013672,-93.12863159179688,-32.400001525878906,-19.05000114440918,25.200000762939453
1.739,75.46524047851562,21.528661727905273,18.272546768188477,121.10719299316406,-183.85910034179688,-98.99080657958984,-32.400001525878906,-19.05000114440918,25.200000762939453
1.749,81.05809020996094,21.37543296813965,24.36339569091797,110.58192443847656,-176.53138732910156,-81.40428924560547,-33.45000076293945,-19.5,24.750001907348633
1.759,86.765869140625,22.754493713378906,27.811046600341797,96.99234008789062,-167.73812866210938,-45.831546783447266,-32.25,-17.700000762939453,23.850000381469727
1.769,92.81841278076172,22.639572143554688,29.113492965698242,89.5313949584961,-148.15313720703125,-73.9433364868164,-33.150001525878906,-17.55000114440918,23.25
1.789,96.64913177490234,24.66985511779785,29.611486434936523,91.13016510009766,-148.15313720703125,-67.14854431152344,-34.05000305175781,-16.950000762939453,24.150001525878906
1.793,101.89722442626953,26.355371475219727,33.25067138671875,85.13475799560547,-140.82542419433594,-56.356815338134766,-34.05000305175781,-16.950000762939453,24.150001525878906
1.799,99.2923355102539,27.542896270751953,29.075185775756836,73.0107192993164,-121.3736572265625,-48.362937927246094,-33.900001525878906,-17.850000381469727,22.5
1.809,93.9293212890625,26.048913955688477,29.190107345581055,107.78407287597656,-106.4517593383789,-14.12251091003418,-33.900001525878906,-16.80000114440918,22.950000762939453
1.819,85.69326782226562,20.341136932373047,26.12552833557129,157.4793243408203,-93.52832794189453,5.196018218994141,-33.0,-17.400001525878906,22.350000381469727
1.829,76.4995346069336,16.510414123535156,20.95405387878418,187.05665588378906,-92.99540710449219,7.594180583953857,-33.75,-16.950000762939453,23.850000381469727
1.849,74.12448120117188,17.353174209594727,17.276559829711914,174.66615295410156,-95.79325866699219,-18.119447708129883,-34.5,-15.750000953674316,20.850000381469727
1.853,67.95702362060547,20.915746688842773,9.653421401977539,147.8866729736328,-129.10107421875,-4.130168437957764,-34.5,-15.750000953674316,20.850000381469727
1.859,68.07194519042969,21.528661727905273,7.5848307609558105,114.04593658447266,-135.22970581054688,-10.525267601013184,-34.20000076293945,-16.350000381469727,22.200000762939453
1.869,66.07996368408203,23.788787841796875,4.098873138427734,74.60948944091797,-131.7657012939453,-17.32006072998047,-34.20000076293945,-15.90000057220459,22.950000762939453
1.879,64.7009048461914,20.685903549194336,2.6431987285614014,47.163856506347656,-120.70750427246094,-17.453292846679688,-34.20000076293945,-16.350000381469727,21.150001525878906
1.889,63.62830352783203,21.030668258666992,6.856993675231934,53.82542037963867,-116.57733154296875,-14.255742073059082,-33.0,-16.5,19.80000114440918
1.905,63.475074768066406,19.536685943603516,9.730035781860352,51.29402542114258,-91.66309356689453,-20.251148223876953,-33.0,-16.5,19.80000114440918
1.909,65.73519897460938,17.8128604888916,12.29662036895752,43.16691970825195,-81.93721008300781,-21.716691970825195,-34.20000076293945,-15.15000057220459,21.150001525878906
1.919,64.47106170654297,18.04270362854004,12.22000503540039,32.5084228515625,-73.9433364868164,-18.91883659362793,-34.95000076293945,-14.850000381469727,20.700000762939453
1.929,65.39043426513672,16.548721313476562,11.41555404663086,16.920366287231445,-60.48698043823242,-34.50688934326172,-34.95000076293945,-15.600000381469727,19.950000762939453
1.939,65.00736236572266,16.203956604003906,9.615114212036133,-15.188361167907715,-61.68606185913086,-55.29096221923828,-33.45000076293945,-14.40000057220459,21.450000762939453
1.949,64.7009048461914,17.92778205871582,6.244078159332275,-49.16232681274414,-58.08882141113281,-76.20826721191406,-36.150001525878906,-15.600000381469727,20.400001525878906
1.967,63.36015319824219,22.48634147644043,2.7964274883270264,-75.67534637451172,-56.22358322143555,-70.3460922241211,-34.5,-14.550000190734863,18.75
1.97,64.96905517578125,24.746469497680664,-1.455674648284912,-73.41041564941406,-56.756507873535156,-71.81163787841797,-34.5,-14.550000190734863,18.75
1.979,65.2755126953125,26.66183090209961,-3.064578056335449,-46.897396087646484,-56.22358322143555,-76.4747314453125,-34.5,-15.750000953674316,19.5
1.989,66.34811401367188,25.70414924621582,-2.7964274883270264,-23.448698043823242,-48.22970962524414,-58.62174606323242,-34.5,-13.800000190734863,18.30000114440918
1.999,66.73119354248047,21.605276107788086,-6.856993675231934,-9.059723854064941,-29.977027893066406,-48.8958625793457,-35.55000305175781,-14.250000953674316,19.5
2.018,65.12228393554688,19.958065032958984,-4.903325080871582,-2.531393527984619,-15.987748146057129,-51.560489654541016,-35.55000305175781,-14.250000953674316,19.5
2.022,60.1806526184082,18.54069709777832,-2.0685901641845703,0.2664624750614166,-2.797856092453003,-22.382848739624023,-35.400001525878906,-15.15000057220459,19.650001525878906
2.029,56.235008239746094,17.12333106994629,2.3367409706115723,-9.859111785888672,-3.9969370365142822,-30.24349021911621,-34.80000305175781,-14.250000953674316,20.100000381469727
2.039,53.74504089355469,17.12333106994629,2.2218191623687744,-43.56661605834961,14.522205352783203,-31.176109313964844,-34.20000076293945,-13.65000057220459,18.150001525878906
2.049,52.289363861083984,17.046716690063477,1.4939818382263184,-62.21898651123047,19.718223571777344,-15.45482349395752,-34.80000305175781,-13.500000953674316,20.850000381469727
2.059,49.14817428588867,18.004396438598633,0.5363011956214905,-74.74272155761719,16.25421142578125,-5.062787055969238,-36.75,-13.500000953674316,20.100000381469727
2.069,49.109867095947266,21.796812057495117,0.8427590131759644,-80.07197570800781,18.519142150878906,7.72741174697876,-36.75,-13.500000953674316,20.100000381469727
2.082,49.45463180541992,25.20615577697754,3.141192674636841,-92.99540710449219,27.84532928466797,11.857580184936523,-35.55000305175781,-14.250000953674316,20.55000114440918
2.089,50.41231155395508,32.331298828125,2.3750481605529785,-70.61255645751953,27.17917251586914,34.50688934326172,-34.95000076293945,-14.40000057220459,20.400001525878906
2.099,52.4042854309082,38.000770568847656,-0.8044517636299133,-68.88054656982422,44.49923324584961,44.89892578125,-36.0,-14.550000190734863,19.80000114440918
2.109,54.01319122314453,39.41813659667969,-3.2561142444610596,-78.60643005371094,41.035221099853516,34.906585693359375,-35.70000076293945,-14.850000381469727,19.950000762939453
2.119,56.04347229003906,41.71657180786133,-7.010222434997559,-104.5865249633789,41.434913635253906,25.18070411682129,-35.70000076293945,-14.850000381469727,19.950000762939453
2.139,62.01940155029297,44.398075103759766,-12.90953540802002,-133.76416015625,28.77794647216797,20.38437843322754,-35.70000076293945,-14.850000381469727,19.950000762939453
2.142,69.29777526855469,45.777137756347656,-17.161638259887695,-184.5252685546875,34.373661041259766,-6.128636837005615,-34.650001525878906,-15.600000381469727,20.700000762939453
2.149,78.64473724365234,51.7913703918457,-21.720197677612305,-204.7764129638672,33.97396469116211,-23.315465927124023,-34.650001525878906,-15.600000381469727,20.700000762939453
2.159,81.93915557861328,57.23099899291992,-19.536685943603516,-208.5068817138672,3.4640121459960938,-41.035221099853516,-35.70000076293945,-15.600000381469727,22.5
2.169,84.12267303466797,64.93074798583984,-17.8128604888916,-170.66921997070312,-11.990811347961426,-51.960182189941406,-34.650001525878906,-16.80000114440918,22.200000762939453
2.179,78.83627319335938,72.20912170410156,-15.591041564941406,-100.72281646728516,-21.050535202026367,-59.15467071533203,-34.650001525878906,-16.80000114440918,22.200000762939453
2.198,74.2777099609375,75.9632339477539,-19.153614044189453,-28.911178588867188,-22.51607894897461,-65.15007781982422,-34.5,-15.000000953674316,20.850000381469727
2.203,69.56592559814453,76.76768493652344,-22.60126495361328,87.26646423339844,-14.255742073059082,-47.430320739746094,-36.0,-16.950000762939453,22.05000114440918
2.209,67.91871643066406,73.89463806152344,-26.470293045043945,130.43338012695312,12.523736000061035,-35.839202880859375,-36.0,-16.950000762939453,22.05000114440918
2.219,66.73119354248047,67.22918701171875,-27.313053131103516,219.69830322265625,27.31240463256836,-1.8652373552322388,-34.5,-15.750000953674316,20.850000381469727
2.229,66.27149963378906,49.18648147583008,-21.87342643737793,293.37518310546875,48.22970962524414,17.586523056030273,-34.5,-15.750000953674316,20.850000381469727
2.239,66.19488525390625,32.44622039794922,-16.127342224121094,303.2342834472656,61.41960144042969,42.90045928955078,-34.5,-15.750000953674316,20.850000381469727
2.259,64.54767608642578,21.528661727905273,-8.427590370178223,282.84991455078125,83.93567657470703,32.77488327026367,-35.400001525878906,-14.100000381469727,21.450000762939453
2.263,64.0496826171875,14.020444869995117,-1.1109095811843872,234.62020874023438,102.18836212158203,60.62021255493164,-34.5,-14.550000190734863,23.850000381469727
2.269,69.91069030761719,9.691728591918945,9.998186111450195,192.7855987548828,94.32771301269531,75.67534637451172,-34.5,-14.550000190734863,23.850000381469727
2.279,79.29595947265625,10.994174003601074,13.675680160522461,108.84992218017578,78.60643005371094,85.66768646240234,-33.900001525878906,-15.15000057220459,24.750001907348633
2.289,110.094970703125,14.211980819702148,8.772355079650879,18.2526798248291,30.90964698791504,93.66156005859375,-33.900001525878906,-15.15000057220459,24.750001907348633
2.3,149.70465087890625,16.05072784423828,-12.7946138381958,-39.03675079345703,-5.8621745109558105,97.7917251586914,-34.5,-15.450000762939453,24.900001525878906
2.319,182.11256408691406,15.361198425292969,-33.097442626953125,-39.30321502685547,-53.29249572753906,58.222049713134766,-34.20000076293945,-16.200000762939453,25.350000381469727
2.323,163.03555297851562,19.68991470336914,-26.43198585510254,-55.95711898803711,-92.46247863769531,5.595712184906006,-34.5,-15.750000953674316,26.100000381469727
2.329,77.8019790649414,39.26490783691406,-21.720197677612305,-45.16539001464844,-77.80704498291016,5.995405673980713,-34.5,-16.5,26.100000381469727
2.339,47.99895477294922,43.13393783569336,-15.322891235351562,-13.989279747009277,-42.500762939453125,9.326186180114746,-34.5,-16.5,26.100000381469727
2.349,23.367408752441406,43.63193130493164,0.038307227194309235,-21.183767318725586,3.597243309020996,8.926492691040039,-34.20000076293945,-16.350000381469727,25.500001907348633
2.359,17.851167678833008,35.16603469848633,8.312667846679688,-32.90811538696289,45.43185043334961,38.77029037475586,-34.20000076293945,-17.850000381469727,24.750001907348633
2.379,18.732234954833984,20.76251792907715,8.580819129943848,-27.445634841918945,75.5421142578125,66.08269500732422,-33.30000305175781,-17.700000762939453,26.100000381469727
2.383,27.46628189086914,14.36521053314209,14.020444869995117,7.327718257904053,93.66156005859375,86.73353576660156,-34.5,-16.950000762939453,25.350000381469727
2.389,52.09782791137695,19.153614044189453,19.345149993896484,7.194486618041992,99.12403869628906,105.25267791748047,-34.5,-16.950000762939453,25.350000381469727
2.399,65.96504211425781,23.13756561279297,21.75850486755371,11.591117858886719,93.79479217529297,116.31086730957031,-32.70000076293945,-16.350000381469727,26.55000114440918
2.409,82.97345733642578,24.746469497680664,21.911733627319336,6.5283308029174805,72.34455871582031,140.82542419433594,-33.75,-19.200000762939453,27.900001525878906
2.419,91.4393539428711,18.54069709777832,16.127342224121094,-10.125574111938477,79.9387435913086,133.6309356689453,-33.30000305175781,-18.900001525878906,28.950000762939453
2.439,89.14091491699219,15.24627685546875,8.848969459533691,-52.75957107543945,89.5313949584961,81.93721008300781,-33.75,-18.450000762939453,29.400001525878906
2.443,84.39082336425781,20.76251792907715,4.137180328369141,-132.43185424804688,121.64012145996094,32.108726501464844,-32.55000305175781,-19.650001525878906,27.150001525878906
2.449,77.87859344482422,30.569168090820312,9.461885452270508,-157.21286010742188,118.44257354736328,19.45176124572754,-32.55000305175781,-19.650001525878906,27.150001525878906
2.459,72.51557922363281,34.3998908996582,16.58702850341797,-187.1898956298828,104.5865249633789,10.658498764038086,-32.70000076293945,-19.80000114440918,28.500001907348633
2.469,66.11827087402344,37.34954833984375,21.26051139831543,-189.85450744628906,80.33843994140625,26.379785537719727,-33.150001525878906,-20.55000114440918,30.30000114440918
2.479,63.01538848876953,34.476505279541016,20.41775131225586,-179.4624786376953,59.287899017333984,32.64165496826172,-31.950000762939453,-21.450000762939453,31.05000114440918
2.499,60.1423454284668,33.05913543701172,17.697938919067383,-177.99693298339844,62.485450744628906,13.989279747009277,-33.75,-21.150001525878906,30.150001525878906
2.503,58.418521881103516,32.44622039794922,14.67166805267334,-117.77641296386719,49.69525146484375,44.36600112915039,-33.75,-21.150001525878906,30.150001525878906
2.509,56.618080139160156,33.40390396118164,8.96389102935791,-92.99540710449219,49.69525146484375,43.16691970825195,-33.75,-21.150001525878906,30.150001525878906
2.519,58.61005783081055,31.182083129882812,8.006210327148438,-55.55742645263672,71.01225280761719,28.77794647216797,-30.900001525878906,-22.200000762939453,30.600000381469727
2.529,62.670623779296875,28.38565444946289,4.6734819412231445,-21.050535202026367,88.99846649169922,41.168453216552734,-31.80000114440918,-21.600000381469727,30.900001525878906
2.539,67.65056610107422,32.178070068359375,7.086836814880371,18.519142150878906,105.5191421508789,45.03215789794922,-31.80000114440918,-24.30000114440918,32.25
2.559,69.22116088867188,35.85556411743164,8.848969459533691,56.62327575683594,129.10107421875,57.15620040893555,-31.650001525878906,-24.150001525878906,31.05000114440918
2.563,69.79576873779297,38.8818359375,10.955866813659668,97.92495727539062,164.00765991210938,68.34762573242188,-31.650001525878906,-24.150001525878906,31.05000114440918
2.569,71.32805633544922,39.41813659667969,14.288596153259277,104.85298156738281,180.79478454589844,68.61408996582031,-30.900001525878906,-23.25,32.55000305175781
2.579,70.17884063720703,39.762901306152344,15.054739952087402,110.58192443847656,174.26646423339844,66.21592712402344,-29.55000114440918,-24.30000114440918,34.5
2.589,70.67683410644531,39.954437255859375,16.70195198059082,95.12710571289062,172.53445434570312,44.23276901245117,-30.000001907348633,-23.850000381469727,33.45000076293945
2.599,69.75746154785156,39.035064697265625,15.629348754882812,89.5313949584961,163.6079559326172,32.77488327026367,-28.200000762939453,-24.150001525878906,34.650001525878906
2.619,68.99131774902344,35.702335357666016,13.522451400756836,96.99234008789062,151.75038146972656,21.583459854125977,-28.200000762939453,-24.150001525878906,34.650001525878906
2.622,69.18285369873047,31.488540649414062,9.117119789123535,106.85145568847656,155.34762573242188,7.327718257904053,-28.200000762939453,-24.150001525878906,34.650001525878906
2.629,71.55789947509766,24.823083877563477,6.052541732788086,108.45022583007812,160.94332885742188,4.396630764007568,-28.650001525878906,-24.150001525878906,36.150001525878906
2.639,72.4006576538086,23.673866271972656,6.971915245056152,110.04900360107422,147.35374450683594,-0.9326186776161194,-27.30000114440918,-21.900001525878906,37.05000305175781
2.649,69.71915435791016,21.183897018432617,10.879252433776855,99.92343139648438,136.9617156982422,-4.263399600982666,-28.200000762939453,-23.25,36.900001525878906
2.659,67.45903015136719,20.76251792907715,12.373234748840332,77.54058074951172,127.5022964477539,-16.920366287231445,-28.650001525878906,-23.25,36.900001525878906
2.679,64.47106170654297,18.387468338012695,13.943830490112305,60.22052001953125,115.77794647216797,-11.724349021911621,-28.650001525878906,-23.25,36.900001525878906
2.683,62.70893096923828,19.49837875366211,15.897499084472656,50.62786865234375,73.14395141601562,-12.923430442810059,-27.900001525878906,-21.450000762939453,40.20000076293945
2.689,60.1806526184082,19.728221893310547,17.31486701965332,35.57273864746094,68.21439361572266,-23.581928253173828,-26.700000762939453,-21.450000762939453,40.95000076293945
2.7,60.985107421875,20.95405387878418,17.851167678833008,35.839202880859375,41.168453216552734,-23.182235717773438,-27.30000114440918,-21.600000381469727,41.10000228881836
2.709,61.82786560058594,23.558944702148438,19.80483627319336,29.84379768371582,23.04900360107422,-21.716691970825195,-25.200000762939453,-20.25,42.0
2.719,64.24121856689453,26.087221145629883,22.639572143554688,10.125574111938477,3.9969370365142822,-34.64012145996094,-26.250001907348633,-20.400001525878906,41.85000228881836
2.738,69.68084716796875,29.419950485229492,23.52063751220703,-18.385910034179688,10.92496109008789,-38.10413360595703,-26.250001907348633,-20.400001525878906,41.85000228881836
2.742,72.66880798339844,31.450233459472656,22.256498336791992,-53.69218826293945,17.32006072998047,-48.76263427734375,-26.400001525878906,-19.80000114440918,40.650001525878906
2.749,73.74140930175781,32.40791320800781,20.609289169311523,-74.20980072021484,22.382848739624023,-43.69984436035156,-27.000001907348633,-19.650001525878906,41.85000228881836
2.759,72.70711517333984,31.488540649414062,20.226215362548828,-118.44257354736328,43.69984436035156,-54.89126968383789,-26.700000762939453,-19.5,42.45000076293945
2.769,70.6002197265625,29.803022384643555,21.0689754486084,-130.96630859375,50.4946403503418,-54.35834503173828,-25.950000762939453,-20.55000114440918,40.20000076293945
2.779,66.73119354248047,28.768728256225586,22.754493713378906,-144.02296447753906,39.569679260253906,-50.36140823364258,-25.950000762939453,-20.55000114440918,40.20000076293945
2.799,63.704917907714844,27.88766098022461,22.869415283203125,-156.28024291992188,46.231239318847656,-46.497703552246094,-25.650001525878906,-21.450000762939453,41.25
2.803,63.092002868652344,26.891674041748047,23.290794372558594,-168.80397033691406,51.693721771240234,-47.430320739746094,-25.80000114440918,-20.850000381469727,41.10000228881836
2.809,60.90849304199219,25.129541397094727,24.171859741210938,-172.40121459960938,52.493106842041016,-44.89892578125,-25.80000114440918,-20.850000381469727,41.55000305175781
2.819,61.866172790527344,25.359384536743164,24.325088500976562,-173.2006072998047,48.62940216064453,-31.44257164001465,-25.650001525878906,-21.75,41.70000076293945
2.829,62.479087829589844,25.167848587036133,24.36339569091797,-176.9310760498047,58.355281829833984,-39.43644714355469,-26.400001525878906,-22.200000762939453,43.20000076293945
2.839,62.977081298828125,23.712173461914062,24.13355255126953,-177.46400451660156,65.949462890625,-31.575803756713867,-26.400001525878906,-22.200000762939453,43.20000076293945
2.859,63.896453857421875,21.796812057495117,21.98834800720215,-161.7427215576172,68.61408996582031,-11.191424369812012,-24.750001907348633,-22.350000381469727,42.60000228881836
2.863,66.5013427734375,21.720197677612305,20.264522552490234,-152.68299865722656,94.86064147949219,-9.592649459838867,-26.400001525878906,-23.25,43.20000076293945
2.869,70.33206939697266,21.107282638549805,21.37543296813965,-141.22511291503906,101.78866577148438,-6.261868000030518,-26.400001525878906,-23.25,43.20000076293945
2.879,71.90266418457031,20.226215362548828,20.072986602783203,-112.71363067626953,103.12097930908203,17.186830520629883,-25.650001525878906,-24.450000762939453,43.20000076293945
2.889,75.69508361816406,19.843143463134766,21.413740158081055,-79.67227935791016,111.64777374267578,26.113323211669922,-25.650001525878906,-24.450000762939453,43.20000076293945
2.9,77.95520782470703,20.41775131225586,19.919757843017578,-29.7105655670166,120.30780792236328,43.43338394165039,-25.650001525878906,-24.900001525878906,42.75
2.918,78.9511947631836,19.421764373779297,20.072986602783203,31.575803756713867,116.57733154296875,56.49004364013672,-24.30000114440918,-25.05000114440918,43.35000228881836
2.922,75.42693328857422,19.651607513427734,21.643583297729492,35.57273864746094,112.18070220947266,64.61714935302734,-24.150001525878906,-26.400001525878906,44.70000076293945
2.929,75.46524047851562,20.264522552490234,22.60126495361328,33.97396469116211,100.05665588378906,60.88667678833008,-24.150001525878906,-26.400001525878906,44.70000076293945
2.939,74.89063262939453,21.337125778198242,24.13355255126953,7.860642910003662,82.07044219970703,53.42572784423828,-22.950000762939453,-24.150001525878906,45.75
2.949,77.87859344482422,22.448034286499023,26.96828842163086,-14.788667678833008,48.362937927246094,56.22358322143555,-22.950000762939453,-24.150001525878906,45.75
2.959,80.52178955078125,24.746469497680664,27.925968170166016,-51.560489654541016,20.517610549926758,51.82695007324219,-23.400001525878906,-24.150001525878906,46.05000305175781
2.978,80.13871765136719,28.462270736694336,28.232425689697266,-85.4012222290039,6.661561965942383,39.03675079345703,-24.750001907348633,-25.80000114440918,47.400001525878906
2.982,77.763671875,32.982521057128906,26.43198585510254,-96.8591079711914,-28.378253936767578,41.434913635253906,-24.30000114440918,-26.55000114440918,45.900001525878906
2.989,76.92091369628906,34.05512619018555,27.236438751220703,-97.5252685546875,-45.96477508544922,34.50688934326172,-24.30000114440918,-26.55000114440918,45.900001525878906
3.0,75.84831237792969,35.817256927490234,27.811046600341797,-105.91883087158203,-50.4946403503418,24.781009674072266,-24.30000114440918,-26.55000114440918,45.900001525878906
3.009,75.31201171875,37.73262023925781,27.121517181396484,-104.18682861328125,-57.422664642333984,7.9938740730285645,-24.30000114440918,-26.55000114440918,45.900001525878906
3.019,75.84831237792969,41.180267333984375,26.738445281982422,-92.86217498779297,-69.28024291992188,8.526799201965332,-21.900001525878906,-27.150001525878906,45.75
3.038,75.65677642822266,42.865787506103516,27.58120346069336,-115.37825012207031,-81.40428924560547,13.58958625793457,-25.200000762939453,-28.350000381469727,44.70000076293945
3.041,70.94498443603516,48.4969482421875,26.815059661865234,-126.5696792602539,-67.01531219482422,17.186830520629883,-23.55000114440918,-30.150001525878906,44.400001525878906
3.049,70.5619125366211,49.14817428588867,27.389667510986328,-124.17151641845703,-71.41194152832031,17.586523056030273,-23.55000114440918,-30.150001525878906,44.400001525878906
3.059,73.35833740234375,50.642154693603516,26.891674041748047,-94.59417724609375,-79.9387435913086,26.779478073120117,-23.55000114440918,-30.150001525878906,44.400001525878906
3.069,77.87859344482422,58.76328659057617,27.657817840576172,-51.82695007324219,-62.21898651123047,20.784072875976562,-24.450000762939453,-29.55000114440918,43.5
3.079,83.7012939453125,62.70893096923828,29.22841453552246,0.1332312375307083,-56.49004364013672,27.445634841918945,-24.750001907348633,-30.150001525878906,42.30000305175781
3.099,89.29414367675781,67.99533081054688,27.044902801513672,58.222049713134766,-41.035221099853516,20.517610549926758,-25.200000762939453,-30.30000114440918,44.25
3.103,87.26386260986328,63.24523162841797,19.230228424072266,69.54670715332031,5.728943347930908,-10.258805274963379,-25.200000762939453,-30.30000114440918,44.25
3.109,84.19928741455078,60.10403823852539,17.12333106994629,67.01531219482422,35.03981399536133,-23.848390579223633,-25.200000762939453,-30.30000114440918,44.25
3.119,76.30799865722656,54.587799072265625,9.615114212036133,93.66156005859375,66.74884796142578,-38.77029037475586,-24.750001907348633,-28.500001907348633,46.35000228881836
3.129,71.44297790527344,42.32948684692383,-18.502389907836914,207.17457580566406,50.4946403503418,-26.113323211669922,-25.950000762939453,-27.900001525878906,44.70000076293945
3.139,77.1507568359375,39.456443786621094,-23.099258422851562,261.13323974609375,-19.31852912902832,-23.848390579223633,-25.80000114440918,-27.750001907348633,46.650001525878906
3.156,81.51777648925781,35.5874137878418,-7.010222434997559,176.7978515625,-137.3614044189453,-31.176109313964844,-25.500001907348633,-25.80000114440918,46.650001525878906
3.159,77.1507568359375,22.448034286499023,12.679692268371582,147.35374450683594,-172.134765625,-54.89126968383789,-25.500001907348633,-25.80000114440918,46.650001525878906
3.169,76.42292022705078,21.030668258666992,17.276559829711914,96.8591079711914,-213.16998291015625,-59.55436325073242,-26.55000114440918,-25.05000114440918,47.400001525878906
3.179,72.70711517333984,13.330915451049805,18.464082717895508,73.27718353271484,-249.27565002441406,-83.80245208740234,-26.700000762939453,-23.25,46.05000305175781
3.189,70.44699096679688,11.492168426513672,10.84094524383545,88.865234375,-281.7840576171875,-83.66921997070312,-30.30000114440918,-23.850000381469727,45.150001525878906
3.208,68.7231674194336,9.806650161743164,0.9576807022094727,115.37825012207031,-293.64166259765625,-88.33231353759766,-29.400001525878906,-22.5,45.0
3.212,69.25946807861328,12.181697845458984,-4.750096321105957,111.24808502197266,-270.1929626464844,-87.66615295410156,-30.150001525878906,-21.0,43.20000076293945
3.219,68.49332427978516,19.843143463134766,6.090848922729492,104.45329284667969,-260.0673828125,-89.26493072509766,-30.150001525878906,-21.0,43.20000076293945
3.229,68.1485595703125,24.89969825744629,15.284584045410156,94.59417724609375,-258.06890869140625,-89.26493072509766,-32.55000305175781,-20.850000381469727,41.55000305175781
3.239,66.99934387207031,28.883649826049805,24.210166931152344,77.94027709960938,-247.41041564941406,-90.99693298339844,-33.0,-21.600000381469727,41.55000305175781
3.249,68.49332427978516,28.692113876342773,27.427974700927734,66.74884796142578,-221.96324157714844,-97.92495727539062,-33.900001525878906,-20.25,41.70000076293945
3.259,75.8866195678711,27.542896270751953,27.27474594116211,79.13935852050781,-211.5712127685547,-103.12097930908203,-35.400001525878906,-18.30000114440918,40.650001525878906
3.272,84.19928741455078,27.044902801513672,26.355371475219727,81.67074584960938,-181.19448852539062,-100.58958435058594,-35.400001525878906,-18.30000114440918,40.650001525878906
3.279,93.31640625,27.313053131103516,25.20615577697754,71.54517364501953,-152.28330993652344,-96.99234008789062,-36.75,-18.150001525878906,39.30000305175781
3.289,97.49188995361328,28.270732879638672,24.823083877563477,57.422664642333984,-131.89892578125,-97.92495727539062,-37.05000305175781,-16.5,40.05000305175781
3.299,100.13509368896484,28.270732879638672,25.321077346801758,47.0306282043457,-126.83613586425781,-82.47013854980469,-37.80000305175781,-16.200000762939453,38.25
3.309,100.90123748779297,28.92195701599121,27.389667510986328,22.249616622924805,-118.70903015136719,-75.00918579101562,-38.70000076293945,-15.600000381469727,38.400001525878906
3.329,96.26605987548828,26.929981231689453,26.738445281982422,11.591117858886719,-106.31852722167969,-66.08269500732422,-37.650001525878906,-14.100000381469727,39.150001525878906
3.332,86.57433319091797,22.48634147644043,23.82709503173828,30.776416778564453,-116.44409942626953,-57.822357177734375,-37.650001525878906,-14.100000381469727,39.150001525878906
3.339,75.9249267578125,20.532672882080078,17.1999454498291,60.22052001953125,-114.3124008178711,-51.82695007324219,-39.0,-14.250000953674316,38.55000305175781
3.349,71.59620666503906,22.524648666381836,12.258312225341797,67.01531219482422,-96.32618713378906,-45.43185043334961,-39.900001525878906,-12.15000057220459,37.95000076293945
3.359,64.27952575683594,24.554933547973633,7.2783732414245605,104.32006072998047,-68.34762573242188,-10.92496109008789,-39.30000305175781,-11.550000190734863,36.75
3.369,62.057708740234375,19.919757843017578,3.2561142444610596,165.2067413330078,-45.69831466674805,25.04747200012207,-40.20000076293945,-12.15000057220459,36.150001525878906
3.388,59.91250228881836,14.67166805267334,8.159439086914062,192.11944580078125,-24.781009674072266,7.327718257904053,-40.20000076293945,-12.15000057220459,36.150001525878906
3.392,64.81582641601562,10.304644584655762,16.81687355041504,191.18682861328125,-66.08269500732422,20.91730499267578,-40.05000305175781,-11.550000190734863,36.30000305175781
3.399,68.53163146972656,8.274360656738281,21.911733627319336,144.95558166503906,-97.65850067138672,-15.321592330932617,-40.05000305175781,-10.800000190734863,36.0
3.409,68.60824584960938,10.955866813659668,17.046716690063477,85.00152587890625,-110.44869232177734,-29.177640914916992,-39.30000305175781,-9.15000057220459,36.75
3.419,64.47106170654297,15.705963134765625,11.645397186279297,29.84379768371582,-104.85298156738281,-43.30015182495117,-42.0,-9.15000057220459,35.55000305175781
3.429,62.479087829589844,21.0689754486084,8.887276649475098,-0.1332312375307083,-92.59571075439453,-33.97396469116211,-40.20000076293945,-10.200000762939453,35.85000228881836
3.449,61.48310089111328,20.264522552490234,7.8529815673828125,-25.447166442871094,-78.47319793701172,-35.03981399536133,-40.20000076293945,-10.200000762939453,35.85000228881836
3.452,58.418521881103516,20.034679412841797,6.818686485290527,-42.36753463745117,-51.160797119140625,-52.89280319213867,-40.80000305175781,-8.850000381469727,34.95000076293945
3.459,56.733001708984375,20.494365692138672,4.8267107009887695,-39.16998291015625,-37.4379768371582,-65.949462890625,-41.55000305175781,-9.600000381469727,34.95000076293945
3.469,57.499149322509766,19.99637222290039,2.604891538619995,-40.635528564453125,-35.17304611206055,-55.95711898803711,-42.30000305175781,-8.40000057220459,34.20000076293945
3.479,57.15438461303711,24.171859741210938,2.030282974243164,-34.50688934326172,-39.30321502685547,-65.68299865722656,-40.80000305175781,-8.40000057220459,33.75
3.489,57.95883560180664,26.815059661865234,1.7621324062347412,-31.842266082763672,-23.715160369873047,-63.684532165527344,-40.80000305175781,-8.40000057220459,33.75
3.509,60.7552604675293,22.946029663085938,-1.1492167711257935,-10.525267601013184,-34.64012145996094,-68.21439361572266,-40.5,-7.200000286102295,33.75
3.513,61.78955841064453,20.41775131225586,-1.9919757843017578,11.857580184936523,-7.194486618041992,-58.4885139465332,-43.650001525878906,-6.750000476837158,34.35000228881836
3.519,61.21495056152344,18.272546768188477,0.6129156351089478,24.64777946472168,0.39969372749328613,-54.62480926513672,-42.75,-6.150000095367432,33.45000076293945
3.529,59.37620162963867,18.464082717895508,1.6855180263519287,33.4410400390625,21.716691970825195,-48.49617004394531,-41.70000076293945,-8.25,35.10000228881836
3.539,54.166419982910156,19.574993133544922,3.754108190536499,20.38437843322754,34.64012145996094,-29.177640914916992,-41.70000076293945,-5.850000381469727,33.900001525878906
3.549,51.02522659301758,19.843143463134766,5.018246650695801,-17.986217498779297,62.21898651123047,-38.23736572265625,-41.70000076293945,-5.850000381469727,33.900001525878906
3.569,49.87601089477539,23.367408752441406,7.6997528076171875,-55.02450180053711,61.81929397583008,-32.24195861816406,-43.5,-6.150000095367432,34.5
3.573,50.5272331237793,28.040889739990234,7.738059997558594,-94.9938735961914,71.2787094116211,-13.989279747009277,-43.05000305175781,-4.5,33.75
3.579,51.82967758178711,34.3615837097168,8.734047889709473,-111.91423797607422,57.822357177734375,-22.51607894897461,-41.400001525878906,-5.550000190734863,34.650001525878906
3.59,52.71074295043945,38.49876403808594,6.627150535583496,-121.64012145996094,58.355281829833984,-9.326186180114746,-40.80000305175781,-5.400000095367432,35.55000305175781
3.599,55.507171630859375,40.83550262451172,2.719813108444214,-136.82847595214844,72.61102294921875,1.4655436277389526,-40.80000305175781,-5.400000095367432,35.55000305175781
3.609,57.805606842041016,41.86980056762695,-4.788403511047363,-118.17610931396484,71.14547729492188,2.6646246910095215,-40.80000305175781,-5.400000095367432,35.55000305175781
3.629,61.06172180175781,42.02302932739258,-10.879252433776855,-113.24655151367188,80.07197570800781,8.926492691040039,-41.55000305175781,-5.700000286102295,36.75
3.633,64.96905517578125,41.448421478271484,-16.089035034179688,-106.71822357177734,64.3506851196289,15.588054656982422,-41.400001525878906,-5.550000190734863,37.20000076293945
3.639,72.28573608398438,43.93838882446289,-24.516624450683594,-102.72128295898438,52.75957107543945,19.052066802978516,-41.400001525878906,-5.550000190734863,37.20000076293945
3.649,76.00154113769531,46.84973907470703,-26.12552833557129,-93.52832794189453,38.63705825805664,5.329249382019043,-41.400001525878906,-5.550000190734863,37.650001525878906
3.659,78.52981567382812,54.54949188232422,-24.66985511779785,-77.14088439941406,43.83307647705078,-0.6661561727523804,-41.400001525878906,-5.550000190734863,37.650001525878906
3.669,76.07815551757812,63.398460388183594,-22.946029663085938,-49.56201934814453,35.306278228759766,-16.78713607788086,-41.70000076293945,-6.300000190734863,37.95000076293945
3.689,73.7031021118164,70.52360534667969,-19.651607513427734,-10.92496109008789,22.51607894897461,-33.4410400390625,-41.70000076293945,-7.050000190734863,37.650001525878906
3.693,71.2514419555664,75.2737045288086,-16.58702850341797,40.102603912353516,26.246553421020508,-52.226646423339844,-42.75,-5.400000095367432,39.60000228881836
3.699,74.92893981933594,74.04786682128906,-19.345149993896484,72.47779083251953,20.91730499267578,-55.69065856933594,-42.75,-5.400000095367432,39.60000228881836
3.709,77.8019790649414,70.10222625732422,-20.30282974243164,138.2940216064453,4.529861927032471,-55.29096221923828,-42.75,-5.400000095367432,39.60000228881836
3.719,81.13470458984375,62.479087829589844,-24.823083877563477,193.05206298828125,2.9310872554779053,-45.43185043334961,-42.75,-5.400000095367432,39.60000228881836
3.729,81.55608367919922,51.94459915161133,-23.13756561279297,233.68759155273438,20.117916107177734,-36.238895416259766,-41.400001525878906,-3.6000001430511475,39.45000076293945
3.75,81.09639739990234,39.99274444580078,-18.081010818481445,247.14395141601562,18.385910034179688,3.597243309020996,-40.5,-2.25,39.30000305175781
3.754,77.26567840576172,28.653806686401367,-9.806650161743164,209.03981018066406,37.97090148925781,30.643184661865234,-41.55000305175781,-2.25,38.55000305175781
3.76,74.81401824951172,14.020444869995117,-2.719813108444214,186.25726318359375,30.509952545166016,48.76263427734375,-41.55000305175781,-2.25,38.55000305175781
3.769,76.19307708740234,11.338939666748047,-1.455674648284912,144.1562042236328,52.226646423339844,51.960182189941406,-41.55000305175781,-2.25,38.55000305175781
3.779,83.01176452636719,12.947842597961426,4.596867084503174,119.24195861816406,51.027565002441406,76.74119567871094,-41.55000305175781,-0.75,37.80000305175781
3.789,104.770263671875,19.958065032958984,7.163451671600342,98.19142150878906,54.091880798339844,104.85298156738281,-40.95000076293945,0.15000000596046448,38.400001525878906
3.809,136.4120330810547,26.163835525512695,0.3064578175544739,37.4379768371582,58.754974365234375,120.04134368896484,-42.45000076293945,-0.15000000596046448,37.95000076293945
3.812,162.7674102783203,30.837318420410156,-10.228029251098633,-15.588054656982422,37.304744720458984,103.12097930908203,-41.400001525878906,-0.45000001788139343,38.400001525878906
3.819,130.3594970703125,29.84132957458496,-4.6734819412231445,-27.71209716796875,-10.258805274963379,83.00305938720703,-41.400001525878906,-0.45000001788139343,38.400001525878906
3.829,87.83847045898438,38.03907775878906,-14.709975242614746,-14.655436515808105,-40.76875686645508,63.418067932128906,-41.400001525878906,-0.45000001788139343,38.400001525878906
3.839,43.74685287475586,43.478702545166016,-15.093047142028809,45.16539001464844,-31.575803756713867,31.44257164001465,-41.400001525878906,-0.45000001788139343,37.20000076293945
3.849,21.030668258666992,41.41011428833008,-4.865017890930176,91.52986145019531,6.395099639892578,45.96477508544922,-41.55000305175781,-1.5,39.0
3.869,16.318878173828125,35.702335357666016,6.473921298980713,106.05206298828125,64.084228515625,67.68146514892578,-40.95000076293945,-0.75,37.5
3.872,21.87342643737793,24.44001007080078,11.760318756103516,130.30015563964844,130.56661987304688,76.60796356201172,-40.95000076293945,-0.45000001788139343,38.70000076293945
3.879,37.11970138549805,17.583017349243164,26.585216522216797,142.15773010253906,108.050537109375,92.46247863769531,-40.95000076293945,-0.45000001788139343,38.70000076293945
3.889,50.144161224365234,18.23423957824707,33.32728576660156,138.8269500732422,81.93721008300781,118.70903015136719,-41.55000305175781,-0.30000001192092896,37.80000305175781
3.899,71.13652038574219,20.685903549194336,35.5874137878418,96.99234008789062,63.418067932128906,119.5084228515625,-41.400001525878906,-0.15000000596046448,38.70000076293945
3.909,86.42110443115234,22.141576766967773,29.688100814819336,46.364471435546875,66.34915924072266,123.77182006835938,-42.0,-0.75,39.0
3.928,92.47364807128906,17.12333106994629,22.37141990661621,-12.25727367401123,82.7365951538086,81.00459289550781,-39.900001525878906,-1.350000023841858,39.45000076293945
3.932,80.02379608154297,12.373234748840332,14.709975242614746,-86.73353576660156,111.64777374267578,22.382848739624023,-39.900001525878906,-1.350000023841858,39.45000076293945
3.939,74.77571105957031,13.867216110229492,17.046716690063477,-107.65084075927734,115.64471435546875,16.25421142578125,-41.25,-0.75,38.25
3.949,67.26749420166016,16.740259170532227,19.19192123413086,-127.10260009765625,93.79479217529297,36.238895416259766,-39.900001525878906,-2.4000000953674316,42.0
3.959,62.2109375,17.544710159301758,19.574993133544922,-133.49769592285156,74.8759536743164,58.888206481933594,-40.20000076293945,-2.1000001430511475,39.900001525878906
3.969,59.49112319946289,15.974113464355469,18.54069709777832,-134.5635528564453,72.47779083251953,58.754974365234375,-39.0,-3.0,39.60000228881836
3.988,59.83588790893555,15.744270324707031,15.169661521911621,-110.848388671875,64.3506851196289,52.3598747253418,-39.0,-3.0,39.60000228881836
3.992,60.64033889770508,17.1999454498291,13.713987350463867,-74.20980072021484,79.9387435913086,72.0781021118164,-40.80000305175781,-2.25,42.30000305175781
3.999,63.24523162841797,22.677879333496094,15.361198425292969,-67.68146514892578,92.46247863769531,64.61714935302734,-40.05000305175781,-3.0,40.80000305175781
4.009,66.00334930419922,24.823083877563477,17.50640296936035,-62.085758209228516,109.51607513427734,57.822357177734375,-37.5,-4.200000286102295,42.60000228881836
4.019,71.05990600585938,28.423961639404297,20.379444122314453,-77.00765228271484,117.9096450805664,49.16232681274414,-39.0,-4.950000286102295,40.35000228881836
4.029,74.62248229980469,36.008792877197266,24.018630981445312,-101.9218978881836,115.51148223876953,41.035221099853516,-38.400001525878906,-4.350000381469727,43.5
4.05,73.28172302246094,43.05732345581055,25.51261329650879,-113.77947998046875,120.70750427246094,26.379785537719727,-38.400001525878906,-4.350000381469727,43.5
4.053,68.95301055908203,48.80340576171875,19.958065032958984,-110.98162078857422,122.3062744140625,39.43644714355469,-39.150001525878906,-4.800000190734863,43.20000076293945
4.059,68.37840270996094,48.42033386230469,15.437812805175781,-110.848388671875,127.36906433105469,37.304744720458984,-37.05000305175781,-4.950000286102295,43.05000305175781
4.069,66.00334930419922,48.30541229248047,12.334927558898926,-118.44257354736328,146.9540557861328,28.378253936767578,-37.80000305175781,-6.150000095367432,43.650001525878906
4.079,63.51338195800781,48.228797912597656,10.381258964538574,-105.91883087158203,164.4073486328125,29.31087303161621,-36.75,-6.900000095367432,44.400001525878906
4.089,60.90849304199219,44.66622543334961,9.730035781860352,-66.61561584472656,155.21438598632812,29.977027893066406,-36.75,-6.900000095367432,44.400001525878906
4.108,59.337894439697266,37.73262023925781,7.048529624938965,-15.987748146057129,165.60643005371094,-0.9326186776161194,-36.30000305175781,-7.200000286102295,46.650001525878906
4.112,59.49112319946289,27.504589080810547,6.512228488922119,-2.131699800491333,152.949462890625,-2.398162364959717,-36.30000305175781,-7.200000286102295,46.650001525878906
4.119,59.49112319946289,27.657817840576172,5.822698593139648,18.519142150878906,136.69525146484375,-6.395099639892578,-36.30000305175781,-7.650000095367432,46.35000228881836
4.129,61.751251220703125,23.597251892089844,4.022258758544922,39.30321502685547,113.64624786376953,-15.45482349395752,-34.80000305175781,-7.650000095367432,47.10000228881836
4.139,63.93476104736328,22.141576766967773,7.508216381072998,37.17151641845703,105.91883087158203,-35.17304611206055,-34.80000305175781,-7.650000095367432,46.650001525878906
4.149,67.07595825195312,25.28277015686035,9.959878921508789,42.23430252075195,98.85757446289062,-32.37519073486328,-34.80000305175781,-7.650000095367432,46.650001525878906
4.168,69.3743896484375,28.19411849975586,13.713987350463867,35.839202880859375,78.60643005371094,-25.7136287689209,-34.95000076293945,-7.050000190734863,48.750003814697266
4.172,73.58818054199219,29.419950485229492,18.157625198364258,7.594180583953857,67.14854431152344,-33.84073257446289,-33.75,-5.400000095367432,49.20000076293945
4.179,74.3160171508789,28.423961639404297,18.464082717895508,-8.660030364990234,61.9525260925293,-20.38437843322754,-34.95000076293945,-6.300000190734863,49.35000228881836
4.189,76.42292022705078,28.500577926635742,19.99637222290039,-25.18070411682129,43.30015182495117,-24.51454734802246,-34.5,-5.400000095367432,48.45000076293945
4.199,76.69107055664062,27.46628189086914,20.570980072021484,-50.4946403503418,40.502296447753906,-23.182235717773438,-34.5,-5.400000095367432,48.45000076293945
4.209,77.22737121582031,27.006595611572266,16.970102310180664,-89.66461944580078,49.42878723144531,-44.23276901245117,-34.5,-5.400000095367432,48.45000076293945
4.228,76.23138427734375,25.474306106567383,16.510414123535156,-106.31852722167969,50.76110076904297,-39.9693717956543,-31.950000762939453,-5.850000381469727,49.80000305175781
4.231,66.5396499633789,24.401702880859375,15.782577514648438,-104.5865249633789,51.960182189941406,-45.16539001464844,-31.950000762939453,-5.850000381469727,49.80000305175781
4.239,65.00736236572266,23.63555908203125,16.1656494140625,-96.59264373779297,53.026031494140625,-43.43338394165039,-33.30000305175781,-4.5,48.150001525878906
4.249,64.20291137695312,25.09123420715332,15.897499084472656,-88.99846649169922,49.96171569824219,-39.70290756225586,-35.400001525878906,-5.550000190734863,48.30000305175781
4.259,61.36817932128906,23.482330322265625,16.433799743652344,-70.47932434082031,43.30015182495117,-32.77488327026367,-35.400001525878906,-5.550000190734863,48.30000305175781
4.269,62.74723815917969,21.835119247436523,16.05072784423828,-68.4808578491211,44.63246536254883,-25.7136287689209,-33.900001525878906,-4.800000190734863,50.10000228881836
4.288,64.47106170654297,22.946029663085938,15.935806274414062,-71.67840576171875,50.36140823364258,-28.24502182006836,-31.650001525878906,-7.050000190734863,48.30000305175781
4.292,65.39043426513672,22.7161865234375,16.395492553710938,-61.552833557128906,42.101070404052734,-21.716691970825195,-32.25,-6.900000095367432,51.000003814697266
4.299,66.57795715332031,23.252487182617188,17.276559829711914,-58.754974365234375,46.764163970947266,-10.125574111938477,-33.150001525878906,-6.750000476837158,49.05000305175781
4.309,67.22918701171875,21.950040817260742,18.693927764892578,-64.21745300292969,50.4946403503418,-5.728943347930908,-31.650001525878906,-6.750000476837158,49.80000305175781
4.319,68.91470336914062,22.48634147644043,20.226215362548828,-65.54976654052734,44.23276901245117,-3.4640121459960938,-31.650001525878906,-6.750000476837158,49.80000305175781
4.329,71.7877426147461,22.409727096557617,22.409727096557617,-58.754974365234375,37.57120895385742,6.261868000030518,-32.55000305175781,-5.700000286102295,49.20000076293945
4.348,70.98329162597656,21.911733627319336,22.946029663085938,-82.33690643310547,27.71209716796875,5.462480545043945,-33.0,-5.700000286102295,48.900001525878906
4.352,69.71915435791016,22.026655197143555,24.823083877563477,-84.73506927490234,19.718223571777344,7.72741174697876,-33.0,-5.700000286102295,48.900001525878906
4.359,68.53163146972656,21.950040817260742,24.095245361328125,-87.39968872070312,12.523736000061035,12.25727367401123,-32.70000076293945,-7.050000190734863,49.05000305175781
4.369,66.80780792236328,23.060951232910156,25.780763626098633,-87.9326171875,1.8652373552322388,18.652372360229492,-32.70000076293945,-7.050000190734863,49.05000305175781
4.379,67.03765106201172,22.06496238708496,25.857378005981445,-97.12557220458984,-2.797856092453003,7.9938740730285645,-31.500001907348633,-6.900000095367432,49.20000076293945
4.389,68.87639617919922,23.597251892089844,26.738445281982422,-103.12097930908203,-7.194486618041992,-0.7993874549865723,-32.55000305175781,-7.650000095367432,49.95000076293945
4.402,68.45501708984375,24.24847412109375,28.07919692993164,-102.45481872558594,-23.98162269592285,11.324655532836914,-31.200000762939453,-6.300000190734863,48.750003814697266
4.409,70.90667724609375,25.81907081604004,29.34333610534668,-107.78407287597656,-15.321592330932617,5.462480545043945,-33.0,-8.850000381469727,48.150001525878906
4.419,73.77971649169922,25.780763626098633,30.224401473999023,-107.65084075927734,-14.92189884185791,4.796324729919434,-33.0,-8.100000381469727,48.900001525878906
4.429,76.88260650634766,28.653806686401367,30.722396850585938,-103.25421142578125,-15.854516983032227,4.929555892944336,-33.0,-8.100000381469727,48.900001525878906
4.439,80.71332550048828,28.883649826049805,30.454246520996094,-95.52679443359375,-9.059723854064941,9.992342948913574,-33.150001525878906,-9.0,48.750003814697266
4.449,80.94316864013672,29.803022384643555,29.22841453552246,-99.12403869628906,14.12251091003418,6.395099639892578,-32.25,-9.15000057220459,49.650001525878906
4.466,78.72135162353516,30.032865524291992,28.73042106628418,-84.86830139160156,8.260336875915527,11.058192253112793,-32.55000305175781,-9.15000057220459,49.650001525878906
4.469,72.66880798339844,32.10145568847656,26.54690933227539,-80.8713607788086,10.125574111938477,21.45022964477539,-32.55000305175781,-9.15000057220459,49.650001525878906
4.479,72.01758575439453,33.51882553100586,25.359384536743164,-70.3460922241211,19.31852912902832,11.591117858886719,-32.55000305175781,-9.15000057220459,49.650001525878906
4.489,71.8643569946289,36.46847915649414,23.290794372558594,-72.61102294921875,30.643184661865234,13.856048583984375,-32.55000305175781,-10.050000190734863,48.150001525878906
4.499,73.77971649169922,42.7508659362793,20.187908172607422,-61.01990509033203,31.709033966064453,29.577335357666016,-32.400001525878906,-10.5,47.55000305175781
4.519,73.28172302246094,46.23682403564453,19.958065032958984,-60.48698043823242,40.36906433105469,49.69525146484375,-33.150001525878906,-11.700000762939453,49.35000228881836
4.523,75.31201171875,51.33168411254883,23.21417999267578,-42.500762939453125,34.64012145996094,45.298622131347656,-31.650001525878906,-11.700000762939453,48.30000305175781
4.529,78.56812286376953,57.76729965209961,28.768728256225586,-24.11485481262207,16.387441635131836,54.35834503173828,-31.650001525878906,-11.700000762939453,48.30000305175781
4.539,80.63671112060547,62.2109375,31.373619079589844,8.260336875915527,-9.592649459838867,63.418067932128906,-31.650001525878906,-11.700000762939453,48.30000305175781
4.549,85.88480377197266,71.36636352539062,34.32327651977539,23.04900360107422,-20.517610549926758,56.889739990234375,-31.200000762939453,-10.5,48.0
4.559,90.21351623535156,74.04786682128906,34.32327651977539,37.304744720458984,-27.045940399169922,44.76569747924805,-31.950000762939453,-10.5,50.10000228881836
4.578,90.78813171386719,69.29777526855469,27.925968170166016,19.31852912902832,-13.58958625793457,6.5283308029174805,-33.75,-10.800000190734863,48.900001525878906
4.582,87.72354888916016,56.65638732910156,18.502389907836914,-21.716691970825195,36.238895416259766,-46.764163970947266,-31.650001525878906,-11.40000057220459,48.750003814697266
4.589,82.59038543701172,45.394065856933594,1.9536685943603516,-25.18070411682129,74.47626495361328,-65.28330993652344,-31.650001525878906,-11.40000057220459,48.750003814697266
4.6,79.6407241821289,29.994558334350586,-23.290794372558594,138.8269500732422,27.31240463256836,-66.08269500732422,-31.80000114440918,-11.850000381469727,48.45000076293945
4.609,85.76988220214844,19.07699966430664,-30.26270866394043,238.75038146972656,-62.618682861328125,-31.709033966064453,-31.80000114440918,-10.350000381469727,47.70000076293945
4.619,88.41307830810547,17.42978858947754,-13.560758590698242,171.06890869140625,-136.56201171875,-47.297088623046875,-31.05000114440918,-9.600000381469727,48.900001525878906
4.639,84.54405212402344,21.337125778198242,6.512228488922119,75.27565002441406,-171.7350616455078,-49.42878723144531,-31.80000114440918,-8.850000381469727,49.20000076293945
4.643,77.49552154541016,23.02264404296875,20.76251792907715,7.327718257904053,-243.5467071533203,-66.61561584472656,-33.45000076293945,-9.450000762939453,47.25
4.649,72.36235046386719,20.30282974243164,23.44402313232422,7.06125545501709,-275.5221862792969,-78.87289428710938,-33.45000076293945,-9.450000762939453,47.25
4.659,72.09420013427734,17.544710159301758,15.437812805175781,27.445634841918945,-289.7779541015625,-94.0612564086914,-34.05000305175781,-6.450000286102295,45.150001525878906
4.669,69.75746154785156,16.625335693359375,4.175487995147705,90.86370086669922,-307.2312316894531,-96.59264373779297,-35.400001525878906,-7.050000190734863,42.45000076293945
4.679,71.97927856445312,16.81687355041504,-2.604891538619995,120.84072875976562,-290.7105712890625,-90.73047637939453,-33.150001525878906,-4.800000190734863,42.0
4.698,69.9873046875,21.298818588256836,-0.1149216815829277,114.84532928466797,-270.0597229003906,-103.7871322631836,-33.150001525878906,-4.800000190734863,42.0
4.703,67.99533081054688,24.66985511779785,11.224017143249512,114.57886505126953,-260.4670715332031,-99.65696716308594,-33.150001525878906,-4.800000190734863,42.0
4.709,68.1102523803711,28.73042106628418,21.45204734802246,115.91117858886719,-249.27565002441406,-115.2450180053711,-37.05000305175781,-3.0,37.80000305175781
4.719,71.36636352539062,29.95625114440918,23.02264404296875,96.32618713378906,-228.35833740234375,-105.65237426757812,-37.20000076293945,-1.6500000953674316,36.900001525878906
4.729,75.8866195678711,31.028854370117188,26.2021427154541,75.00918579101562,-207.70750427246094,-101.9218978881836,-38.25,-0.30000001192092896,36.75
4.739,84.00775146484375,31.143775939941406,26.01060676574707,71.14547729492188,-185.99081420898438,-99.3905029296875,-39.0,-0.30000001192092896,35.55000305175781
4.759,91.59258270263672,31.488540649414062,25.89568519592285,49.42878723144531,-159.8774871826172,-95.26033782958984,-39.0,-0.30000001192092896,35.55000305175781
4.763,95.53822326660156,29.266721725463867,26.738445281982422,24.64777946472168,-117.50994873046875,-88.33231353759766,-38.70000076293945,0.15000000596046448,33.30000305175781
4.769,97.37696838378906,26.54690933227539,27.236438751220703,28.77794647216797,-111.11485290527344,-86.86676788330078,-37.80000305175781,0.30000001192092896,33.0
4.779,95.99790954589844,26.508602142333984,26.815059661865234,36.63859176635742,-85.53445434570312,-66.21592712402344,-38.55000305175781,-0.75,32.70000076293945
4.789,91.05628204345703,24.938005447387695,28.692113876342773,31.709033966064453,-67.5482406616211,-74.07656860351562,-37.5,0.75,30.450000762939453
4.799,81.17301177978516,22.677879333496094,25.70414924621582,23.315465927124023,-66.61561584472656,-46.764163970947266,-37.5,0.75,30.450000762939453
4.819,73.97125244140625,16.740259170532227,20.379444122314453,43.96630859375,-100.58958435058594,-55.82388687133789,-37.5,0.75,30.450000762939453
4.822,65.9267349243164,17.31486701965332,15.093047142028809,91.3966293334961,-95.79325866699219,-41.168453216552734,-37.650001525878906,3.1500000953674316,29.55000114440918
4.829,60.21895980834961,19.230228424072266,3.7158010005950928,125.23736572265625,-78.87289428710938,-25.7136287689209,-39.30000305175781,3.450000047683716,30.450000762939453
4.839,57.53745651245117,19.421764373779297,0.8044517636299133,185.99081420898438,-32.77488327026367,-1.1990811824798584,-37.80000305175781,3.750000238418579,28.650001525878906
4.849,56.618080139160156,17.00840950012207,5.4013190269470215,236.61868286132812,-2.9310872554779053,23.715160369873047,-37.20000076293945,2.1000001430511475,29.250001907348633
4.859,60.29557418823242,10.994174003601074,15.897499084472656,229.69065856933594,-1.4655436277389526,3.86370587348938,-37.20000076293945,2.1000001430511475,29.250001907348633
4.879,60.87018585205078,11.72201156616211,21.107282638549805,217.69984436035156,-23.182235717773438,-16.78713607788086,-36.75,4.200000286102295,27.900001525878906
4.883,62.2109375,12.832921028137207,22.06496238708496,156.01377868652344,-43.96630859375,-26.113323211669922,-37.95000076293945,5.550000190734863,27.750001907348633
4.889,63.62830352783203,17.583017349243164,19.919757843017578,118.97549438476562,-62.618682861328125,-17.053598403930664,-37.95000076293945,4.350000381469727,27.30000114440918
4.899,64.89244079589844,19.536685943603516,17.583017349243164,49.69525146484375,-59.68759536743164,-46.364471435546875,-37.20000076293945,5.100000381469727,27.30000114440918
4.909,65.00736236572266,18.923770904541016,13.330915451049805,14.655436515808105,-71.2787094116211,-61.15313720703125,-37.20000076293945,5.100000381469727,27.30000114440918
4.919,64.16460418701172,18.655620574951172,9.193734169006348,-14.92189884185791,-71.54517364501953,-75.27565002441406,-37.20000076293945,5.100000381469727,27.30000114440918
4.939,63.66661071777344,19.80483627319336,4.750096321105957,-28.77794647216797,-64.3506851196289,-98.32465362548828,-37.650001525878906,6.750000476837158,26.250001907348633
4.942,61.559715270996094,22.562957763671875,-1.37906014919281,-20.517610549926758,-56.49004364013672,-88.19908142089844,-38.25,7.200000286102295,26.100000381469727
4.949,59.72096633911133,21.0689754486084,-2.604891538619995,-20.517610549926758,-37.57120895385742,-97.12557220458984,-37.80000305175781,6.450000286102295,26.100000381469727
4.959,59.68265914916992,18.4257755279541,-3.6774938106536865,-19.31852912902832,-17.719755172729492,-94.19448852539062,-38.400001525878906,7.050000190734863,25.200000762939453
4.969,58.61005783081055,17.161638259887695,-2.75812029838562,-9.592649459838867,19.052066802978516,-74.8759536743164,-38.400001525878906,7.050000190734863,25.200000762939453
4.979,57.84391403198242,16.35718536376953,2.873042106628418,15.188361167907715,22.649311065673828,-51.693721771240234,-38.55000305175781,8.40000057220459,24.600000381469727
4.999,56.005165100097656,13.254301071166992,7.469909191131592,21.983154296875,41.83460998535156,-29.444103240966797,-35.70000076293945,7.500000476837158,24.750001907348633
5.003,55.009178161621094,11.72201156616211,11.91354751586914,13.722817420959473,40.635528564453125,-0.6661561727523804,-37.05000305175781,8.40000057220459,26.100000381469727
5.009,53.09381866455078,12.373234748840332,15.131354331970215,-14.788667678833008,44.49923324584961,-13.056661605834961,-36.150001525878906,9.0,24.450000762939453
5.019,53.43858337402344,12.411541938781738,15.131354331970215,-50.22817611694336,23.98162269592285,2.398162364959717,-35.55000305175781,7.650000095367432,26.400001525878906
5.029,54.85594940185547,14.09705924987793,11.185709953308105,-109.51607513427734,14.255742073059082,-10.92496109008789,-35.55000305175781,7.650000095367432,26.400001525878906
5.039,61.90447998046875,17.966089248657227,3.907337188720703,-163.4747314453125,-7.594180583953857,-10.92496109008789,-35.400001525878906,8.700000762939453,25.500001907348633
5.058,66.61626434326172,23.558944702148438,-3.7158010005950928,-207.4410400390625,-38.37059783935547,-14.655436515808105,-36.45000076293945,6.750000476837158,25.500001907348633
5.062,71.28974914550781,30.14778709411621,-12.411541938781738,-220.76416015625,-50.89433288574219,-3.3307809829711914,-36.75,9.600000381469727,25.650001525878906
5.069,73.16680145263672,36.928165435791016,-19.843143463134766,-207.0413360595703,-44.89892578125,-4.796324729919434,-36.45000076293945,8.700000762939453,26.250001907348633
5.079,74.50755310058594,42.1379508972168,-23.558944702148438,-189.45481872558594,-22.782541275024414,4.130168437957764,-36.45000076293945,8.700000762939453,26.250001907348633
5.089,73.51156616210938,48.956634521484375,-26.048913955688477,-150.6845245361328,-4.929555892944336,13.456355094909668,-36.75,6.450000286102295,28.200000762939453
5.1,73.39664459228516,52.94058609008789,-21.950040817260742,-108.983154296875,27.445634841918945,27.31240463256836,-34.80000305175781,4.5,25.350000381469727
5.118,74.08617401123047,56.80961608886719,-18.272546768188477,-73.54364013671875,43.69984436035156,3.0643184185028076,-36.150001525878906,7.800000190734863,25.200000762939453
5.122,68.761474609375,60.7935676574707,-6.435614109039307,-24.64777946472168,39.83613967895508,14.12251091003418,-35.55000305175781,7.200000286102295,25.350000381469727
5.129,67.76548767089844,62.364166259765625,-4.941632270812988,-22.649311065673828,38.50382614135742,-0.2664624750614166,-35.400001525878906,7.050000190734863,25.500001907348633
5.139,66.5013427734375,63.36015319824219,-7.086836814880371,-38.37059783935547,36.5053596496582,-19.98468589782715,-35.400001525878906,7.050000190734863,25.500001907348633
5.149,66.4630355834961,61.90447998046875,-9.27034854888916,-47.297088623046875,-4.263399600982666,-32.24195861816406,-34.80000305175781,6.150000095367432,27.150001525878906
5.159,70.71514129638672,60.831878662109375,-13.867216110229492,-45.96477508544922,-29.7105655670166,-61.28636932373047,-34.95000076293945,7.500000476837158,26.55000114440918
5.179,72.55388641357422,57.0777702331543,-19.38345718383789,-27.978559494018555,-26.113323211669922,-70.87902069091797,-36.150001525878906,7.050000190734863,26.250001907348633
5.183,74.43093872070312,55.507171630859375,-22.7161865234375,30.776416778564453,-24.914241790771484,-48.8958625793457,-36.30000305175781,6.900000095367432,26.850000381469727
5.189,75.08216857910156,52.02121353149414,-21.37543296813965,56.22358322143555,-16.920366287231445,-31.176109313964844,-36.30000305175781,6.900000095367432,26.850000381469727
5.2,77.45721435546875,49.531246185302734,-19.345149993896484,78.3399658203125,-5.728943347930908,-8.526799201965332,-35.400001525878906,6.750000476837158,24.750001907348633
5.209,79.41088104248047,45.73883056640625,-17.889474868774414,107.91730499267578,4.396630764007568,-5.062787055969238,-35.70000076293945,7.050000190734863,25.200000762939453
5.219,79.18103790283203,44.512996673583984,-18.195932388305664,140.29249572753906,7.460949420928955,39.30321502685547,-34.05000305175781,6.900000095367432,26.400001525878906
5.239,74.92893981933594,41.48672866821289,-16.510414123535156,148.95252990722656,31.309341430664062,54.091880798339844,-34.80000305175781,8.40000057220459,24.600000381469727
5.243,67.26749420166016,35.43418502807617,-6.512228488922119,165.73965454101562,66.48238372802734,68.61408996582031,-34.80000305175781,8.40000057220459,24.600000381469727
5.249,67.03765106201172,35.510799407958984,-1.9919757843017578,160.8101043701172,88.73200225830078,69.14701080322266,-34.80000305175781,8.40000057220459,24.600000381469727
5.259,73.0135726928711,33.40390396118164,8.006210327148438,156.14700317382812,81.00459289550781,100.85604858398438,-33.900001525878906,7.800000190734863,25.500001907348633
5.269,93.58455657958984,33.71036148071289,10.802638053894043,133.23123168945312,89.66461944580078,129.10107421875,-34.80000305175781,6.900000095367432,26.400001525878906
5.279,118.79071044921875,33.94020462036133,10.802638053894043,94.32771301269531,88.73200225830078,150.2848358154297,-34.80000305175781,8.40000057220459,25.350000381469727
5.298,138.44232177734375,27.427974700927734,4.711789131164551,50.89433288574219,61.41960144042969,134.96324157714844,-34.20000076293945,6.750000476837158,25.500001907348633
5.303,99.10079956054688,19.80483627319336,-11.03248119354248,-18.385910034179688,-9.592649459838867,68.21439361572266,-34.05000305175781,5.700000286102295,25.650001525878906
5.309,77.68705749511719,25.435998916625977,-8.619126319885254,-40.502296447753906,-24.914241790771484,30.509952545166016,-34.05000305175781,5.700000286102295,25.650001525878906
5.319,53.974884033203125,34.284969329833984,-5.439626216888428,-21.050535202026367,-17.186830520629883,-11.591117858886719,-33.30000305175781,5.700000286102295,26.100000381469727
5.329,34.74465560913086,43.63193130493164,-0.38307225704193115,18.91883659362793,9.592649459838867,-3.4640121459960938,-34.650001525878906,5.100000381469727,24.450000762939453
5.339,32.63775634765625,39.839515686035156,7.010222434997559,44.76569747924805,75.8085708618164,18.385910034179688,-33.30000305175781,6.150000095367432,24.600000381469727
5.357,36.39186477661133,24.708162307739258,12.986149787902832,70.07962799072266,122.03981018066406,51.693721771240234,-33.150001525878906,5.850000381469727,25.80000114440918
5.361,46.58158874511719,13.713987350463867,26.623523712158203,67.14854431152344,118.30934143066406,55.29096221923828,-34.05000305175781,5.850000381469727,25.80000114440918
5.369,52.32767105102539,13.407529830932617,28.500577926635742,54.091880798339844,92.72894287109375,52.89280319213867,-34.05000305175781,5.400000095367432,26.850000381469727
5.379,64.73921203613281,12.60307788848877,27.15982437133789,29.577335357666016,77.80704498291016,67.5482406616211,-33.45000076293945,3.1500000953674316,26.55000114440918
5.389,75.08216857910156,12.22000503540039,23.099258422851562,-4.929555892944336,67.814697265625,73.81010437011719,-34.5,5.700000286102295,25.650001525878906
5.408,81.86254119873047,12.564770698547363,17.92778205871582,-43.16691970825195,66.48238372802734,58.754974365234375,-33.900001525878906,5.100000381469727,26.55000114440918
5.412,79.21934509277344,9.883264541625977,14.595053672790527,-91.79632568359375,81.40428924560547,32.64165496826172,-33.900001525878906,5.100000381469727,26.55000114440918
5.419,71.59620666503906,9.959878921508789,14.901511192321777,-122.03981018066406,81.8039779663086,42.101070404052734,-33.900001525878906,5.100000381469727,26.55000114440918
5.429,69.25946807861328,11.798625946044922,16.35718536376953,-139.49310302734375,58.62174606323242,34.10719680786133,-32.70000076293945,4.800000190734863,28.500001907348633
5.439,67.42072296142578,13.024456977844238,19.68991470336914,-154.28176879882812,44.63246536254883,37.304744720458984,-32.25,4.350000381469727,27.750001907348633
5.449,69.02962493896484,18.502389907836914,20.83913230895996,-160.01071166992188,32.64165496826172,40.9019889831543,-33.150001525878906,3.1500000953674316,30.30000114440918
5.459,70.06391906738281,25.665842056274414,21.87342643737793,-130.56661987304688,29.177640914916992,71.81163787841797,-33.150001525878906,3.1500000953674316,30.30000114440918
5.474,70.86837005615234,30.91393280029297,21.528661727905273,-75.27565002441406,47.9632453918457,96.99234008789062,-33.30000305175781,2.700000047683716,29.700000762939453
5.48,67.4973373413086,36.008792877197266,20.532672882080078,-51.82695007324219,63.551300048828125,93.92802429199219,-34.5,2.25,28.650001525878906
5.489,68.1868667602539,39.456443786621094,18.88546371459961,-30.90964698791504,101.12251281738281,93.52832794189453,-32.400001525878906,1.350000023841858,29.55000114440918
5.5,70.29376220703125,43.287166595458984,19.115306854248047,-8.39356803894043,125.90351867675781,89.66461944580078,-32.70000076293945,1.6500000953674316,28.05000114440918
5.509,68.41670989990234,46.926353454589844,17.00840950012207,10.392036437988281,157.21286010742188,97.7917251586914,-32.70000076293945,1.6500000953674316,28.05000114440918
5.529,65.77350616455078,45.93036651611328,14.595053672790527,0.2664624750614166,179.9954071044922,92.3292465209961,-32.70000076293945,1.6500000953674316,28.05000114440918
5.532,65.35212707519531,42.02302932739258,14.480132102966309,-4.130168437957764,199.44715881347656,73.0107192993164,-31.200000762939453,0.45000001788139343,30.600000381469727
5.539,63.704917907714844,35.66402816772461,12.143390655517578,-1.9984685182571411,196.78253173828125,54.091880798339844,-32.55000305175781,-0.30000001192092896,31.950000762939453
5.549,61.90447998046875,32.52283477783203,12.60307788848877,-15.45482349395752,207.70750427246094,45.69831466674805,-32.55000305175781,-1.0500000715255737,32.70000076293945
5.559,61.06172180175781,28.768728256225586,12.411541938781738,-16.387441635131836,194.38436889648438,29.177640914916992,-30.450000762939453,0.45000001788139343,32.10000228881836
5.569,60.02742385864258,28.040889739990234,14.67166805267334,-9.72588062286377,170.93568420410156,14.522205352783203,-30.450000762939453,0.45000001788139343,32.10000228881836
5.579,61.21495056152344,28.92195701599121,15.552734375,-16.387441635131836,139.49310302734375,5.329249382019043,-29.250001907348633,-1.0500000715255737,34.95000076293945
5.592,61.636329650878906,30.37763023376465,16.242263793945312,-6.261868000030518,110.04900360107422,-7.06125545501709,-31.200000762939453,-1.6500000953674316,33.60000228881836
5.6,62.2109375,28.960264205932617,15.782577514648438,4.929555892944336,90.06431579589844,-13.58958625793457,-30.750001907348633,0.0,35.55000305175781
5.609,64.89244079589844,29.15180015563965,15.284584045410156,17.453292846679688,65.949462890625,-28.24502182006836,-29.400001525878906,-0.45000001788139343,36.150001525878906
5.619,68.41670989990234,29.419950485229492,16.66364288330078,15.055130004882812,62.21898651123047,-44.49923324584961,-28.200000762939453,-0.15000000596046448,35.10000228881836
5.629,71.7877426147461,27.964275360107422,15.476119995117188,-13.323123931884766,63.551300048828125,-52.626338958740234,-28.200000762939453,-0.15000000596046448,35.10000228881836
5.649,73.51156616210938,29.075185775756836,15.284584045410156,-32.90811538696289,54.89126968383789,-48.76263427734375,-29.55000114440918,0.30000001192092896,36.30000305175781
5.653,72.09420013427734,27.542896270751953,14.135366439819336,-78.3399658203125,63.684532165527344,-52.093414306640625,-28.500001907348633,0.30000001192092896,36.75
5.659,69.64253997802734,26.815059661865234,16.203956604003906,-96.19295501708984,59.4211311340332,-47.297088623046875,-27.900001525878906,0.15000000596046448,35.85000228881836
5.669,68.30178833007812,26.087221145629883,18.004396438598633,-94.9938735961914,44.89892578125,-40.635528564453125,-28.500001907348633,-0.75,37.05000305175781
5.679,67.03765106201172,23.712173461914062,19.651607513427734,-95.79325866699219,30.776416778564453,-43.96630859375,-28.500001907348633,-0.75,37.05000305175781
5.689,68.56993865966797,21.14558982849121,18.11931800842285,-105.78560638427734,34.50688934326172,-52.3598747253418,-28.05000114440918,-1.0500000715255737,37.05000305175781
5.709,69.22116088867188,23.3291015625,17.774553298950195,-105.5191421508789,25.447166442871094,-44.23276901245117,-27.30000114440918,-1.5,36.75
5.713,67.95702362060547,23.980323791503906,18.4257755279541,-104.85298156738281,31.176109313964844,-39.9693717956543,-27.900001525878906,-2.1000001430511475,36.900001525878906
5.719,64.66259765625,24.171859741210938,17.468095779418945,-108.58345794677734,36.771820068359375,-32.77488327026367,-27.150001525878906,-1.6500000953674316,36.900001525878906
5.729,64.0113754272461,25.014619827270508,18.4257755279541,-102.72128295898438,35.439510345458984,-19.185298919677734,-27.900001525878906,-1.350000023841858,37.20000076293945
5.739,63.13031005859375,25.474306106567383,19.99637222290039,-70.74578857421875,35.17304611206055,-8.793261528015137,-27.900001525878906,-1.350000023841858,37.20000076293945
5.749,65.12228393554688,24.325088500976562,21.298818588256836,-52.093414306640625,34.50688934326172,-9.459418296813965,-27.450000762939453,-1.350000023841858,38.70000076293945
5.769,68.68486022949219,25.28277015686035,20.877439498901367,-49.69525146484375,48.76263427734375,-4.796324729919434,-27.900001525878906,-0.15000000596046448,37.95000076293945
5.772,70.90667724609375,24.823083877563477,20.41775131225586,-46.231239318847656,51.29402542114258,5.595712184906006,-27.150001525878906,-0.9000000357627869,39.150001525878906
5.779,72.63050079345703,23.865402221679688,22.103269577026367,-53.42572784423828,57.422664642333984,2.131699800491333,-27.000001907348633,-1.0500000715255737,37.05000305175781
5.789,72.13250732421875,21.87342643737793,22.524648666381836,-69.01377868652344,67.5482406616211,2.131699800491333,-27.000001907348633,-1.0500000715255737,37.05000305175781
5.799,71.90266418457031,20.456058502197266,24.095245361328125,-87.53292083740234,68.08116149902344,-9.859111785888672,-27.450000762939453,-1.6500000953674316,37.95000076293945
5.809,71.05990600585938,20.264522552490234,25.09123420715332,-92.46247863769531,48.76263427734375,6.794793128967285,-27.750001907348633,-2.700000047683716,38.25
5.829,69.9489974975586,22.48634147644043,26.470293045043945,-99.92343139648438,41.434913635253906,11.058192253112793,-26.400001525878906,-3.1500000953674316,37.95000076293945
5.833,71.13652038574219,22.90772247314453,26.355371475219727,-97.25880432128906,31.709033966064453,8.127105712890625,-27.000001907348633,-3.750000238418579,39.30000305175781
5.839,71.71112823486328,24.05693817138672,26.776752471923828,-92.3292465209961,27.71209716796875,9.326186180114746,-27.450000762939453,-3.1500000953674316,39.150001525878906
5.849,71.8643569946289,23.788787841796875,26.163835525512695,-91.66309356689453,32.77488327026367,23.98162269592285,-27.450000762939453,-3.1500000953674316,39.150001525878906
5.859,73.12849426269531,25.89568519592285,24.44001007080078,-84.06890869140625,38.10413360595703,22.915773391723633,-25.950000762939453,-4.350000381469727,38.400001525878906
5.869,74.04786682128906,24.78477668762207,25.39769172668457,-82.6033706665039,41.568145751953125,23.04900360107422,-26.250001907348633,-5.400000095367432,39.30000305175781
5.889,74.6607894897461,25.244462966918945,24.938005447387695,-79.53904724121094,38.10413360595703,26.779478073120117,-25.950000762939453,-4.800000190734863,39.150001525878906
5.893,73.51156616210938,25.51261329650879,25.359384536743164,-78.87289428710938,31.709033966064453,32.108726501464844,-26.700000762939453,-4.350000381469727,39.45000076293945
5.899,72.89865112304688,27.619510650634766,26.66183090209961,-81.8039779663086,33.30780792236328,26.64624786376953,-26.700000762939453,-4.350000381469727,39.45000076293945
5.909,72.86034393310547,30.109479904174805,27.657817840576172,-67.68146514892578,19.185298919677734,39.70290756225586,-26.400001525878906,-6.750000476837158,39.900001525878906
5.919,73.89463806152344,31.641769409179688,27.389667510986328,-61.81929397583008,1.0658499002456665,32.77488327026367,-25.80000114440918,-5.400000095367432,38.25
5.929,76.61445617675781,34.32327651977539,27.236438751220703,-62.085758209228516,4.263399600982666,14.655436515808105,-25.650001525878906,-5.550000190734863,40.95000076293945
5.95,77.61044311523438,36.430171966552734,29.95625114440918,-57.955589294433594,-9.592649459838867,24.248085021972656,-26.55000114440918,-4.5,39.30000305175781
5.953,80.2536392211914,40.873809814453125,29.84132957458496,-52.226646423339844,-19.052066802978516,38.37059783935547,-25.80000114440918,-6.900000095367432,40.05000305175781
5.959,79.6024169921875,46.658203125,27.121517181396484,-70.3460922241211,-16.25421142578125,26.912710189819336,-25.80000114440918,-6.900000095367432,40.05000305175781
5.969,80.44517517089844,47.15619659423828,26.31706428527832,-75.5421142578125,-1.8652373552322388,28.378253936767578,-27.150001525878906,-5.550000190734863,39.900001525878906
5.979,78.49150848388672,48.68848419189453,23.673866271972656,-76.07503509521484,-1.3323123455047607,19.718223571777344,-25.80000114440918,-8.40000057220459,40.80000305175781
5.989,75.12047576904297,51.21676254272461,24.286781311035156,-61.41960144042969,-4.263399600982666,28.378253936767578,-25.80000114440918,-7.200000286102295,39.60000228881836
6.009,77.1124496459961,57.53745651245117,26.12552833557129,-39.43644714355469,-7.9938740730285645,43.16691970825195,-24.750001907348633,-8.100000381469727,39.30000305175781
6.012,81.32624053955078,63.704917907714844,26.891674041748047,6.261868000030518,-24.51454734802246,39.43644714355469,-24.750001907348633,-8.100000381469727,39.30000305175781
6.019,85.96141815185547,67.80379486083984,25.474306106567383,33.17457962036133,-34.906585693359375,42.90045928955078,-24.750001907348633,-8.100000381469727,39.30000305175781
6.029,89.7921371459961,65.58197021484375,20.456058502197266,49.96171569824219,-21.45022964477539,13.323123931884766,-28.80000114440918,-8.40000057220459,38.25
6.039,91.32443237304688,52.94058609008789,-3.485957622528076,105.5191421508789,-38.63705825805664,-21.183767318725586,-26.400001525878906,-9.450000762939453,38.400001525878906
6.049,92.7034912109375,41.180267333984375,-27.121517181396484,192.3859100341797,-105.78560638427734,-28.511484146118164,-27.30000114440918,-8.100000381469727,39.30000305175781
6.069,92.43534088134766,34.782962799072266,-26.776752471923828,227.1592559814453,-169.20367431640625,-30.110260009765625,-27.750001907348633,-8.100000381469727,38.55000305175781
6.073,90.97966766357422,37.656005859375,-15.476119995117188,211.9709014892578,-209.57273864746094,-66.74884796142578,-28.650001525878906,-6.300000190734863,36.60000228881836
6.079,88.18323516845703,20.187908172607422,-2.4133553504943848,159.8774871826172,-232.88819885253906,-74.74272155761719,-28.650001525878906,-6.300000190734863,36.60000228881836
6.089,81.4028549194336,22.409727096557617,8.121131896972656,56.756507873535156,-283.5160827636719,-78.20673370361328,-29.55000114440918,-6.900000095367432,37.5
6.099,67.30580139160156,22.48634147644043,22.37141990661621,-14.522205352783203,-318.6891174316406,-117.50994873046875,-28.80000114440918,-7.200000286102295,35.55000305175781
6.109,59.68265914916992,22.869415283203125,21.14558982849121,-24.248085021972656,-318.2894287109375,-132.6983184814453,-30.450000762939453,-6.300000190734863,33.900001525878906
6.129,59.644351959228516,20.072986602783203,12.29662036895752,-2.2649309635162354,-283.11639404296875,-134.96324157714844,-30.450000762939453,-6.300000190734863,33.900001525878906
6.133,62.172630310058594,24.78477668762207,15.705963134765625,28.378253936767578,-231.68911743164062,-147.75344848632812,-31.05000114440918,-5.700000286102295,32.25
6.139,60.41049575805664,28.155811309814453,20.64759635925293,47.430320739746094,-218.0995330810547,-155.747314453125,-31.05000114440918,-5.700000286102295,32.25
6.149,61.29156494140625,31.10546875,19.574993133544922,107.11791229248047,-181.19448852539062,-152.68299865722656,-33.30000305175781,-3.450000047683716,29.700000762939453
6.159,68.60824584960938,35.66402816772461,17.62132453918457,160.41041564941406,-139.35987854003906,-134.69677734375,-33.150001525878906,-4.350000381469727,28.80000114440918
6.169,80.1770248413086,37.311241149902344,19.460071563720703,185.99081420898438,-88.19908142089844,-114.84532928466797,-33.900001525878906,-3.1500000953674316,29.850000381469727
6.188,88.71953582763672,38.69029998779297,20.83913230895996,213.8361358642578,-50.4946403503418,-103.7871322631836,-33.900001525878906,-3.1500000953674316,29.850000381469727
6.192,96.30436706542969,36.2003288269043,25.550920486450195,227.29249572753906,-22.249616622924805,-75.27565002441406,-34.5,-2.700000047683716,28.950000762939453
6.199,106.87716674804688,33.7869758605957,31.986534118652344,226.09341430664062,-27.17917251586914,-75.94180297851562,-34.5,-2.700000047683716,28.950000762939453
6.209,112.20186614990234,31.143775939941406,29.381643295288086,259.6676940917969,-88.06584930419922,-69.67993927001953,-35.25,-1.8000000715255737,28.200000762939453
6.219,115.419677734375,23.597251892089844,16.1656494140625,280.3185119628906,-146.0214385986328,-42.633995056152344,-34.20000076293945,0.15000000596046448,25.500001907348633
6.229,106.80055236816406,20.30282974243164,8.08282470703125,276.1883544921875,-168.27105712890625,-72.87748718261719,-34.20000076293945,0.15000000596046448,25.500001907348633
6.249,95.49991607666016,11.530475616455078,5.171475887298584,268.8606262207031,-125.23736572265625,-59.68759536743164,-34.20000076293945,0.15000000596046448,25.500001907348633
6.252,76.5761489868164,11.109095573425293,17.046716690063477,261.6661376953125,-92.19601440429688,-18.652372360229492,-34.5,1.0500000715255737,22.80000114440918
6.259,73.77971649169922,9.078812599182129,20.532672882080078,246.3445587158203,-104.18682861328125,-12.523736000061035,-34.80000305175781,1.8000000715255737,23.100000381469727
6.269,70.75344848632812,4.252102375030518,27.849353790283203,179.19601440429688,-128.16845703125,-25.580398559570312,-35.25,1.0500000715255737,22.350000381469727
6.279,73.16680145263672,0.689530074596405,26.776752471923828,116.57733154296875,-152.016845703125,-47.297088623046875,-35.25,1.0500000715255737,22.350000381469727
6.289,71.59620666503906,0.2298433631658554,23.252487182617188,64.21745300292969,-173.73353576660156,-43.43338394165039,-35.55000305175781,1.5,20.850000381469727
6.306,67.15257263183594,5.4013190269470215,20.41775131225586,0.2664624750614166,-172.80091857910156,-37.03828430175781,-34.95000076293945,4.050000190734863,20.700000762939453
6.309,65.81181335449219,3.1028854846954346,15.131354331970215,-23.315465927124023,-157.34608459472656,-38.63705825805664,-35.70000076293945,1.350000023841858,18.450000762939453
6.319,64.43275451660156,3.9456443786621094,12.7946138381958,-38.90352249145508,-133.76416015625,-33.84073257446289,-35.55000305175781,3.0,19.5
6.329,61.636329650878906,3.332728862762451,15.207969665527344,-66.08269500732422,-117.64318084716797,-39.43644714355469,-36.900001525878906,2.1000001430511475,18.450000762939453
6.339,57.53745651245117,4.443638324737549,16.318878173828125,-83.26952362060547,-101.65543365478516,-29.84379768371582,-36.900001525878906,2.1000001430511475,18.450000762939453
6.349,53.09381866455078,4.8267107009887695,15.399505615234375,-83.93567657470703,-78.3399658203125,-41.035221099853516,-37.05000305175781,2.700000047683716,19.05000114440918
6.369,50.41231155395508,5.899312973022461,11.492168426513672,-61.01990509033203,-81.93721008300781,-31.042879104614258,-36.900001525878906,2.4000000953674316,17.400001525878906
6.372,48.152183532714844,11.185709953308105,10.342951774597168,-69.14701080322266,-61.552833557128906,-49.82848358154297,-36.900001525878906,2.4000000953674316,17.400001525878906
6.379,48.11387634277344,11.338939666748047,10.764330863952637,-74.34303283691406,-62.35221862792969,-45.298622131347656,-37.20000076293945,2.8500001430511475,17.100000381469727
6.389,49.18648147583008,15.85919189453125,10.955866813659668,-79.13935852050781,-81.00459289550781,-38.23736572265625,-37.20000076293945,2.8500001430511475,17.100000381469727
6.4,50.335697174072266,18.4257755279541,8.65743350982666,-92.06278228759766,-67.5482406616211,-41.568145751953125,-37.05000305175781,3.450000047683716,16.05000114440918
6.409,50.83369064331055,21.56696891784668,4.63517427444458,-96.32618713378906,-45.298622131347656,-40.36906433105469,-37.5,1.8000000715255737,17.25
6.425,51.1784553527832,24.66985511779785,4.8267107009887695,-96.72587585449219,-13.58958625793457,-29.444103240966797,-36.900001525878906,2.8500001430511475,18.150001525878906
6.43,52.289363861083984,24.66985511779785,5.018246650695801,-99.79019927978516,-0.7993874549865723,-34.24042892456055,-37.5,3.0,18.75
6.439,50.41231155395508,25.933992385864258,5.937620162963867,-103.7871322631836,22.915773391723633,-42.76722717285156,-38.70000076293945,2.4000000953674316,17.100000381469727
6.449,48.228797912597656,28.462270736694336,8.65743350982666,-106.18529510498047,37.4379768371582,-23.848390579223633,-38.70000076293945,2.4000000953674316,17.100000381469727
6.459,46.73481750488281,31.756690979003906,8.121131896972656,-123.63858795166016,48.49617004394531,-29.977027893066406,-36.30000305175781,1.8000000715255737,17.55000114440918
6.469,47.80741882324219,34.85957717895508,5.70777702331543,-139.89280700683594,42.76722717285156,-27.978559494018555,-37.5,2.25,18.30000114440918
6.488,47.730804443359375,38.537071228027344,2.6431987285614014,-164.67381286621094,43.03369140625,-15.854516983032227,-37.650001525878906,2.1000001430511475,19.200000762939453
6.492,52.902278900146484,46.96466064453125,-5.51624059677124,-168.5375213623047,59.02143859863281,-11.457886695861816,-37.650001525878906,2.1000001430511475,19.200000762939453
6.499,54.894256591796875,47.96064758300781,-6.89530086517334,-143.88973999023438,50.09494400024414,1.0658499002456665,-37.650001525878906,2.1000001430511475,19.200000762939453
6.509,59.26128005981445,50.5655403137207,-8.35097599029541,-131.63246154785156,58.754974365234375,-1.4655436277389526,-39.0,2.25,18.30000114440918
6.519,62.40247344970703,51.40829849243164,-11.568782806396484,-108.3169937133789,71.41194152832031,13.856048583984375,-37.650001525878906,2.8500001430511475,19.950000762939453
6.538,66.30980682373047,50.25908279418945,-14.863204002380371,-92.59571075439453,74.47626495361328,28.378253936767578,-36.75,2.25,21.30000114440918
6.542,70.33206939697266,49.18648147583008,-18.157625198364258,-97.65850067138672,65.41653442382812,24.64777946472168,-36.45000076293945,1.350000023841858,20.700000762939453
6.549,76.03984832763672,48.99494171142578,-25.780763626098633,-108.84992218017578,55.69065856933594,3.0643184185028076,-37.05000305175781,1.0500000715255737,22.350000381469727
6.559,79.14273071289062,53.055511474609375,-27.542896270751953,-115.91117858886719,15.321592330932617,-11.191424369812012,-37.05000305175781,1.0500000715255737,22.350000381469727
6.569,84.69728088378906,61.98109436035156,-30.415939331054688,-117.24349212646484,-18.652372360229492,-31.709033966064453,-37.95000076293945,1.6500000953674316,22.5
6.579,87.83847045898438,68.7231674194336,-29.190107345581055,-100.9892807006836,-30.643184661865234,-63.551300048828125,-37.20000076293945,0.45000001788139343,21.75
6.589,88.83445739746094,72.86034393310547,-28.117504119873047,-43.56661605834961,-36.372127532958984,-88.73200225830078,-37.95000076293945,-0.45000001788139343,22.200000762939453
6.602,87.22555541992188,76.72937774658203,-27.542896270751953,46.09800720214844,-28.111791610717773,-76.07503509521484,-37.5,1.0500000715255737,22.350000381469727
6.609,82.32222747802734,74.81401824951172,-28.960264205932617,99.79019927978516,-10.392036437988281,-66.34915924072266,-37.5,1.0500000715255737,22.350000381469727
6.619,78.9511947631836,70.71514129638672,-29.305028915405273,153.21592712402344,8.660030364990234,-55.02450180053711,-36.30000305175781,1.5,22.05000114440918
6.629,76.46122741699219,63.168617248535156,-24.478317260742188,196.915771484375,1.7320060729980469,-28.111791610717773,-37.80000305175781,1.0500000715255737,21.30000114440918
6.639,71.44297790527344,52.82566452026367,-22.06496238708496,224.76109313964844,11.724349021911621,-8.526799201965332,-38.25,1.0500000715255737,20.55000114440918
6.658,66.99934387207031,42.980709075927734,-18.387468338012695,221.03062438964844,27.31240463256836,4.663093090057373,-37.20000076293945,1.6500000953674316,21.75
6.662,63.896453857421875,30.454246520996094,-10.228029251098633,227.02603149414062,32.64165496826172,51.4272575378418,-39.150001525878906,2.8500001430511475,20.400001525878906
6.669,67.76548767089844,15.820884704589844,2.75812029838562,211.9709014892578,20.117916107177734,59.55436325073242,-39.150001525878906,2.8500001430511475,20.400001525878906
6.679,81.4028549194336,11.03248119354248,9.040505409240723,171.60183715820312,17.053598403930664,87.39968872070312,-36.900001525878906,2.8500001430511475,20.700000762939453
6.689,107.56669616699219,11.91354751586914,9.040505409240723,117.11026000976562,17.986217498779297,124.17151641845703,-40.20000076293945,2.4000000953674316,21.150001525878906
6.7,135.875732421875,11.41555404663086,1.800439715385437,61.28636932373047,34.24042892456055,143.09034729003906,-37.5,2.25,20.55000114440918
6.719,159.97097778320312,10.649409294128418,-12.60307788848877,52.626338958740234,44.09954071044922,128.03521728515625,-39.45000076293945,0.45000001788139343,20.400001525878906
6.723,144.1501007080078,1.9153614044189453,-10.266336441040039,-29.177640914916992,26.379785537719727,78.47319793701172,-39.45000076293945,0.45000001788139343,20.400001525878906
6.729,66.30980682373047,24.823083877563477,-5.2480902671813965,-60.22052001953125,29.7105655670166,59.02143859863281,-39.0,1.0500000715255737,20.100000381469727
6.739,42.980709075927734,30.569168090820312,-1.800439715385437,-34.24042892456055,56.356815338134766,26.246553421020508,-39.45000076293945,-0.45000001788139343,21.150001525878906
6.749,21.98834800720215,38.115692138671875,5.822698593139648,-12.124042510986328,96.32618713378906,29.444103240966797,-36.900001525878906,-0.45000001788139343,22.5
6.759,22.7161865234375,33.13574981689453,18.655620574951172,15.588054656982422,123.2388916015625,69.94640350341797,-38.400001525878906,-0.9000000357627869,20.400001525878906
6.778,29.266721725463867,26.85336685180664,21.413740158081055,22.782541275024414,126.96936798095703,93.79479217529297,-38.55000305175781,-1.5,20.850000381469727
6.782,38.99675750732422,22.984336853027344,24.44001007080078,11.990811347961426,106.71822357177734,102.18836212158203,-38.55000305175781,-1.5,20.850000381469727
6.789,61.29156494140625,22.026655197143555,29.305028915405273,-8.39356803894043,91.79632568359375,104.7197494506836,-40.20000076293945,-1.350000023841858,22.5
6.8,74.2777099609375,21.107282638549805,28.07919692993164,-35.57273864746094,65.016845703125,109.24961853027344,-39.75,-1.8000000715255737,23.850000381469727
6.809,84.50574493408203,19.38345718383789,25.435998916625977,-74.20980072021484,50.36140823364258,97.12557220458984,-39.45000076293945,-1.6500000953674316,23.25
6.819,85.38681030273438,16.012420654296875,18.88546371459961,-113.77947998046875,65.15007781982422,49.96171569824219,-38.400001525878906,-5.100000381469727,24.0
6.839,79.75564575195312,18.04270362854004,15.054739952087402,-148.55282592773438,71.54517364501953,32.90811538696289,-38.400001525878906,-5.100000381469727,24.0
6.843,71.74943542480469,19.268535614013672,13.943830490112305,-168.27105712890625,68.88054656982422,28.911178588867188,-40.05000305175781,-3.750000238418579,24.900001525878906
6.849,64.35614013671875,24.05693817138672,17.276559829711914,-173.6002960205078,66.61561584472656,31.176109313964844,-40.05000305175781,-3.750000238418579,24.900001525878906
6.859,63.168617248535156,26.240449905395508,16.510414123535156,-171.3353729248047,64.61714935302734,26.912710189819336,-38.400001525878906,-3.6000001430511475,25.80000114440918
6.869,63.24523162841797,27.58120346069336,16.66364288330078,-151.2174530029297,65.28330993652344,39.569679260253906,-39.45000076293945,-4.350000381469727,25.200000762939453
6.879,65.50535583496094,30.837318420410156,15.820884704589844,-118.30934143066406,70.87902069091797,58.08882141113281,-39.30000305175781,-6.450000286102295,25.650001525878906
6.898,67.88040924072266,32.02484130859375,14.326903343200684,-90.33078002929688,86.60030364990234,59.82082748413086,-39.30000305175781,-6.450000286102295,25.650001525878906
6.903,70.71514129638672,35.12772750854492,16.35718536376953,-44.76569747924805,92.3292465209961,85.93415069580078,-39.900001525878906,-5.850000381469727,26.55000114440918
6.909,72.66880798339844,36.16202163696289,19.766529083251953,-31.309341430664062,97.7917251586914,92.46247863769531,-39.900001525878906,-5.850000381469727,26.55000114440918
6.919,74.58417510986328,34.51481246948242,18.4257755279541,-49.82848358154297,103.92036437988281,74.60948944091797,-39.0,-6.900000095367432,26.850000381469727
6.929,73.74140930175781,32.9442138671875,21.950040817260742,-80.07197570800781,113.91270446777344,61.15313720703125,-39.30000305175781,-8.100000381469727,28.950000762939453
6.939,72.59219360351562,33.63374710083008,22.946029663085938,-76.20826721191406,107.65084075927734,50.4946403503418,-39.30000305175781,-8.100000381469727,28.950000762939453
6.959,71.213134765625,38.2689208984375,18.004396438598633,-64.48391723632812,118.57579803466797,56.62327575683594,-37.95000076293945,-8.700000762939453,28.05000114440918
6.963,70.10222625732422,39.72459411621094,12.947842597961426,-41.701377868652344,140.95864868164062,52.226646423339844,-37.80000305175781,-8.100000381469727,30.150001525878906
6.969,67.4973373413086,37.11970138549805,7.354987621307373,-30.110260009765625,164.14088439941406,50.22817611694336,-37.80000305175781,-8.100000381469727,30.150001525878906
6.979,66.19488525390625,35.6257209777832,5.4013190269470215,-0.6661561727523804,178.13015747070312,56.356815338134766,-38.400001525878906,-9.450000762939453,30.600000381469727
6.989,63.896453857421875,32.063148498535156,5.324704647064209,19.98468589782715,197.0489959716797,49.56201934814453,-38.25,-10.350000381469727,32.25
7.0,63.32184600830078,27.811046600341797,8.810662269592285,37.70444107055664,193.05206298828125,46.364471435546875,-38.25,-10.350000381469727,32.25
7.019,62.057708740234375,25.550920486450195,10.955866813659668,51.027565002441406,177.19754028320312,41.30168533325195,-37.20000076293945,-9.75,33.30000305175781
7.023,62.09601593017578,25.780763626098633,12.7946138381958,47.297088623046875,148.68606567382812,29.31087303161621,-36.75,-10.050000190734863,33.0
7.029,63.55168914794922,22.37141990661621,13.522451400756836,39.43644714355469,136.16232299804688,25.980091094970703,-36.45000076293945,-9.450000762939453,35.10000228881836
