time,accel_x,accel_y,accel_z,gyro_x,gyro_y,gyro_z,mag_x,mag_y,mag_z
0.0,3.7160534858703613,-8.616554260253906,2.7732813358306885,0.025961771607398987,-0.019547687843441963,0.0022907445672899485,-22.405729293823242,49.25460433959961,-67.4364242553711
0.009,3.723231792449951,-8.676374435424805,2.770888566970825,0.03420845419168472,-0.04337143152952194,0.00427605677396059,-22.990352630615234,49.53229904174805,-68.25489044189453
0.019,3.803391456604004,-8.71226692199707,2.737389087677002,0.04520402476191521,-0.06108652427792549,0.007024950347840786,-23.136510848999023,49.283836364746094,-67.04180145263672
0.029,3.8261232376098633,-8.766105651855469,2.7625136375427246,0.054367005825042725,-0.0659734457731247,0.009621127508580685,-22.75650405883789,49.69307327270508,-67.3487319946289
0.039,3.823730707168579,-8.799604415893555,2.794816732406616,0.05406157299876213,-0.0630718320608139,0.005497787147760391,-22.508039474487305,49.37152862548828,-67.46565246582031
0.059,3.744767427444458,-8.687142372131348,2.7972095012664795,0.04108068719506264,-0.04352414980530739,-0.006108652334660292,-22.917274475097656,49.035369873046875,-67.5971908569336
0.063,3.6777684688568115,-8.534001350402832,2.764906644821167,0.015577062964439392,0.0039706239476799965,-0.025503622367978096,-22.405729293823242,49.795379638671875,-67.87489318847656
0.069,3.6610186100006104,-8.513663291931152,2.723031997680664,0.006261368282139301,0.012522736564278603,-0.029626963660120964,-22.902660369873047,49.31306457519531,-67.46565246582031
0.079,3.7052857875823975,-8.58664321899414,2.699103832244873,0.0,0.016493361443281174,-0.03252857178449631,-22.537269592285156,49.42999267578125,-67.5094985961914
0.089,3.702892780303955,-8.652446746826172,2.691925287246704,0.015118913725018501,0.001527163083665073,-0.026419920846819878,-22.66880989074707,49.15229415893555,-67.24642181396484
0.1,3.6741790771484375,-8.73499870300293,2.7553350925445557,0.025045473128557205,-0.014966198243200779,-0.01710422709584236,-22.522653579711914,49.210758209228516,-68.12335968017578
0.119,3.6741790771484375,-8.784051895141602,2.796013355255127,0.03329215571284294,-0.018936822190880775,-0.01038470957428217,-22.771120071411133,49.590763092041016,-68.40104675292969
0.123,3.6287152767181396,-8.72782039642334,2.8043882846832275,0.03436116874217987,-0.007941247895359993,-0.006261368282139301,-22.72727394104004,49.50307083129883,-67.23180389404297
0.129,3.603590726852417,-8.681159973144531,2.796013355255127,0.031154125928878784,-0.007941247895359993,-0.010079275816679,-22.698041915893555,49.89768981933594,-67.52411651611328
0.139,3.61435866355896,-8.653642654418945,2.78165602684021,0.022143863141536713,-0.00931569468230009,-0.01664607785642147,-22.537269592285156,49.6784553527832,-68.10873413085938
0.149,3.638286828994751,-8.665606498718262,2.7493531703948975,0.02122756652534008,-0.01191187184303999,-0.01817324012517929,-22.610347747802734,49.283836364746094,-68.35720825195312
0.159,3.6370902061462402,-8.701499938964844,2.7182462215423584,0.024129178375005722,-0.018020525574684143,-0.018020525574684143,-22.054954528808594,49.73691940307617,-68.62028503417969
0.179,3.6191442012786865,-8.7505521774292,2.7385854721069336,0.03145955875515938,-0.01618792861700058,-0.01618792861700058,-22.332651138305664,49.50307083129883,-67.45103454589844
0.183,3.6430721282958984,-8.816354751586914,2.7972095012664795,0.027947084978222847,-0.018020525574684143,-0.014813481830060482,-22.712656021118164,49.44460678100586,-68.69336700439453
0.189,3.597608804702759,-8.793622970581055,2.779263496398926,0.02321287989616394,-0.01313360221683979,-0.01542434748262167,-22.82958221435547,49.4007568359375,-68.56182098388672
0.199,3.445664644241333,-8.699106216430664,2.78165602684021,0.01817324012517929,0.0050396379083395,-0.016340645030140877,-22.493423461914062,49.576148986816406,-67.65565490722656
0.209,3.43489670753479,-8.681159973144531,2.83669114112854,0.003817907767370343,0.024434609338641167,-0.020158551633358,-22.683425903320312,49.34230041503906,-67.37796020507812
0.219,3.455235719680786,-8.675178527832031,2.83669114112854,-0.011301006190478802,0.03344487026333809,-0.023976460099220276,-22.595731735229492,49.4007568359375,-67.65565490722656
0.239,3.5054850578308105,-8.678768157958984,2.80558443069458,-0.013286319561302662,0.03527746722102165,-0.02626720443367958,-22.274188995361328,49.41537857055664,-67.58258056640625
0.242,3.5808589458465576,-8.707481384277344,2.8342983722686768,-0.0018325956771150231,0.029168814420700073,-0.016493361443281174,-22.288803100585938,49.80999755859375,-67.69950103759766
0.249,3.6323046684265137,-8.6967134475708,2.864208459854126,0.003817907767370343,0.026572639122605324,-0.013591751456260681,-22.508039474487305,49.605377197265625,-67.74334716796875
0.259,3.672982692718506,-8.71944522857666,2.8630123138427734,0.014202617108821869,0.022449297830462456,-0.00855211354792118,-22.508039474487305,49.42999267578125,-67.69950103759766
0.269,3.655036449432373,-8.640481948852539,2.854637384414673,0.022602012380957603,0.02229658141732216,-0.0044287727214396,-22.405729293823242,48.99152374267578,-67.7287368774414
0.279,3.6873395442962646,-8.636893272399902,2.8689942359924316,0.02229658141732216,0.021991148591041565,-0.005803219974040985,-22.128032684326172,49.34230041503906,-66.93949127197266
0.299,3.754338502883911,-8.70389175415039,2.8450660705566406,0.020616700872778893,0.018936822190880775,-0.007941247895359993,-22.37649917602539,49.45922088623047,-66.9979476928711
0.303,3.76151704788208,-8.689535140991211,2.803191661834717,0.026419920846819878,0.020158551633358,-0.01160643994808197,-22.84419822692871,49.18152618408203,-68.21105194091797
0.309,3.7531421184539795,-8.684749603271484,2.7912275791168213,0.02932153083384037,0.020158551633358,-0.010537425056099892,-22.347267150878906,49.32768249511719,-68.07950592041016
0.319,3.6873395442962646,-8.656035423278809,2.8187451362609863,0.028710665181279182,0.021838432177901268,-0.010995574295520782,-22.683425903320312,49.32768249511719,-67.87489318847656
0.329,3.623929738998413,-8.656035423278809,2.8342983722686768,0.020311269909143448,0.027947084978222847,-0.013439035043120384,-22.5518856048584,49.15229415893555,-67.64103698730469
0.339,3.5880372524261475,-8.731410026550293,2.857030153274536,0.01160643994808197,0.03191770985722542,-0.016340645030140877,-22.93189239501953,49.473838806152344,-68.28413391113281
0.359,3.6526436805725098,-8.754141807556152,2.867797613143921,0.007635815534740686,0.0277943667024374,-0.015271631069481373,-22.888044357299805,49.283836364746094,-67.69950103759766
0.363,3.6610186100006104,-8.744569778442383,2.880958318710327,0.0073303827084600925,0.0277943667024374,-0.013439035043120384,-22.917274475097656,49.13768005371094,-68.40104675292969
0.369,3.651447057723999,-8.701499938964844,2.8893332481384277,0.005803219974040985,0.03145955875515938,-0.0138971833512187,-22.66880989074707,49.25460433959961,-68.34259033203125
0.379,3.631108045578003,-8.572286605834961,2.8737800121307373,0.0029016099870204926,0.037110064178705215,-0.01572977937757969,-22.771120071411133,49.7223014831543,-67.33411407470703
0.389,3.644268751144409,-8.559126853942871,2.878565549850464,0.0003054326225537807,0.030695976689457893,-0.015577062964439392,-22.464191436767578,49.54691696166992,-68.21105194091797
0.4,3.662214994430542,-8.57946491241455,2.871387243270874,-0.005955935921519995,0.019853120669722557,-0.01542434748262167,-22.347267150878906,49.35691452026367,-68.25489044189453
0.419,3.676571846008301,-8.61894702911377,2.902493953704834,-0.0027488935738801956,0.022907447069883347,-0.020005837082862854,-23.00497055053711,49.45922088623047,-68.54721069335938
0.423,3.6670005321502686,-8.583054542541504,2.935993194580078,-0.0018325956771150231,0.022907447069883347,-0.02122756652534008,-22.917274475097656,49.34230041503906,-68.16720581054688
0.429,3.6873395442962646,-8.559126853942871,2.9479572772979736,-0.003512475173920393,0.02382374368607998,-0.022602012380957603,-22.639577865600586,49.35691452026367,-68.1964340209961
0.439,3.676571846008301,-8.520841598510742,2.9443681240081787,-0.002138028386980295,0.021380282938480377,-0.024434609338641167,-22.917274475097656,49.34230041503906,-68.63490295410156
0.449,3.671786069869995,-8.506484031677246,2.9659035205841064,0.0018325956771150231,0.02321287989616394,-0.024129178375005722,-23.063430786132812,49.31306457519531,-68.28413391113281
0.459,3.6562328338623047,-8.57946491241455,2.9587249755859375,0.013286319561302662,0.02076941914856434,-0.020311269909143448,-22.902660369873047,49.4007568359375,-67.3487319946289
0.479,3.669393539428711,-8.59621524810791,2.974278450012207,0.026419920846819878,0.01313360221683979,-0.016798794269561768,-22.975738525390625,49.56153106689453,-67.02719116210938
0.483,3.671786069869995,-8.652446746826172,2.9036900997161865,0.053908854722976685,-0.006108652334660292,-0.002138028386980295,-23.31189727783203,49.80999755859375,-67.5971908569336
0.489,3.6335010528564453,-8.666803359985352,2.880958318710327,0.07223481684923172,-0.01572977937757969,0.01160643994808197,-22.771120071411133,49.239986419677734,-67.11487579345703
0.499,3.5186455249786377,-8.62612533569336,2.827119827270508,0.10384708642959595,-0.02229658141732216,0.033597588539123535,-23.39959144592285,49.210758209228516,-67.8164291381836
0.509,3.5018956661224365,-8.676374435424805,2.8666014671325684,0.10980302840471268,-0.02122756652534008,0.03344487026333809,-22.84419822692871,49.06460189819336,-67.0125732421875
0.519,3.5988051891326904,-8.784051895141602,2.874976396560669,0.09682214260101318,-0.020005837082862854,0.027030786499381065,-22.75650405883789,49.239986419677734,-67.99181365966797
0.538,3.8141591548919678,-8.81396198272705,2.794816732406616,0.06872233748435974,-0.011453723534941673,0.01863138936460018,-22.522653579711914,48.976905822753906,-67.7287368774414
0.542,3.8261232376098633,-8.763712882995605,2.7804598808288574,0.06673702597618103,-0.011759155429899693,0.016035212203860283,-23.078046798706055,49.37152862548828,-68.44490051269531
0.549,3.871586799621582,-8.647661209106445,2.7696919441223145,0.05910121276974678,-0.015577062964439392,0.01038470957428217,-22.917274475097656,48.78690719604492,-68.12335968017578
0.559,3.899104356765747,-8.517251968383789,2.7326035499572754,0.05115996673703194,-0.026419920846819878,0.00015271631127689034,-23.29728126525879,49.26921844482422,-68.69336700439453
0.569,3.9242289066314697,-8.39162826538086,2.6763720512390137,0.04841107130050659,-0.04581489413976669,-0.010079275816679,-22.917274475097656,49.32768249511719,-68.16720581054688
0.579,3.9278182983398438,-8.443074226379395,2.6452653408050537,0.05009094625711441,-0.06612616032361984,-0.01710422709584236,-23.151124954223633,49.18152618408203,-68.2695083618164
0.599,3.896711587905884,-8.539983749389648,2.6739792823791504,0.0656680166721344,-0.10613783448934555,-0.0377209298312664,-22.961122512817383,49.37152862548828,-68.2695083618164
0.603,3.7710883617401123,-8.668000221252441,2.6703901290893555,0.07208210229873657,-0.10690141469240189,-0.03955352306365967,-22.712656021118164,49.839229583740234,-67.30487823486328
0.609,3.7663025856018066,-8.729016304016113,2.691925287246704,0.07925976812839508,-0.11026117950677872,-0.04214970022439957,-22.72727394104004,49.166908264160156,-67.96258544921875
0.619,3.717249870300293,-8.903693199157715,2.737389087677002,0.08414668589830399,-0.10842858254909515,-0.047800205647945404,-23.268049240112305,49.225372314453125,-67.14410400390625
0.629,3.6502509117126465,-9.046065330505371,2.7565317153930664,0.08949175477027893,-0.08964447677135468,-0.052228979766368866,-23.12189483642578,49.4007568359375,-68.44490051269531
0.639,3.524627685546875,-8.994619369506836,2.8486552238464355,0.08200865983963013,-0.049785517156124115,-0.057421330362558365,-23.39959144592285,49.26921844482422,-67.52411651611328
0.658,3.111865520477295,-8.526823043823242,2.871387243270874,-0.014813481830060482,0.02535090781748295,-0.08735372871160507,-23.180356979370117,49.25460433959961,-67.4364242553711
0.662,3.0664021968841553,-8.46461009979248,2.8378875255584717,-0.03940080478787422,0.04306599870324135,-0.0936150997877121,-22.771120071411133,49.15229415893555,-67.74334716796875
0.669,3.1070802211761475,-8.513663291931152,2.8079774379730225,-0.0656680166721344,0.06444628536701202,-0.09743300080299377,-23.092662811279297,49.42999267578125,-67.62641906738281
0.679,3.315255641937256,-8.599804878234863,2.7696919441223145,-0.06536258012056351,0.06062837690114975,-0.09086620807647705,-23.01958465576172,49.53229904174805,-67.91873931884766
0.689,3.504288673400879,-8.72662353515625,2.7804598808288574,-0.03680463135242462,0.032070424407720566,-0.07330382615327835,-23.01958465576172,49.18152618408203,-67.67027282714844
0.7,3.5712878704071045,-8.793622970581055,2.80558443069458,0.003054326167330146,0.006261368282139301,-0.04535674676299095,-23.268049240112305,49.38614273071289,-68.02104949951172
0.718,3.5772697925567627,-8.827122688293457,2.847459077835083,0.06123923882842064,-0.0010690141934901476,-0.01237002108246088,-23.85267448425293,49.6199951171875,-67.94796752929688
0.721,3.576073169708252,-8.788837432861328,2.8283162117004395,0.0630718320608139,0.005803219974040985,-0.011453723534941673,-23.414207458496094,49.80999755859375,-67.69950103759766
0.729,3.6047871112823486,-8.72782039642334,2.7672994136810303,0.05925392732024193,0.01313360221683979,-0.016951510682702065,-23.428821563720703,49.18152618408203,-67.80181884765625
0.739,3.6263227462768555,-8.639286041259766,2.719442844390869,0.04764748737215996,0.02382374368607998,-0.03084869496524334,-22.93189239501953,49.82461166381836,-68.70797729492188
0.749,3.6873395442962646,-8.593822479248047,2.6871397495269775,0.02672535367310047,0.03176499158143997,-0.043218713253736496,-22.902660369873047,49.73691940307617,-68.7518310546875
0.759,3.796213150024414,-8.591429710388184,2.6632113456726074,-0.0027488935738801956,0.034666601568460464,-0.054367005825042725,-23.10727882385254,49.38614273071289,-68.5764389038086
0.778,3.860819101333618,-8.47059154510498,2.6225335597991943,-0.02519819140434265,0.044287726283073425,-0.0731511116027832,-23.092662811279297,49.4007568359375,-68.98567962646484
0.782,3.8763725757598877,-8.445466995239258,2.6081764698028564,-0.02687807008624077,0.04856378585100174,-0.07559457421302795,-23.12189483642578,50.01461410522461,-68.47412872314453
0.789,3.9038898944854736,-8.425127983093262,2.640479564666748,-0.03298672288656235,0.04688390716910362,-0.08216137439012527,-22.902660369873047,49.75153350830078,-68.4887466430664
0.799,3.950549840927124,-8.433503150939941,2.6261227130889893,-0.03833179175853729,0.031154125928878784,-0.08552113175392151,-23.03420066833496,49.18152618408203,-68.92721557617188
0.809,3.972085475921631,-8.50289535522461,2.63449764251709,-0.03741549327969551,0.021838432177901268,-0.08002334833145142,-22.74188804626465,49.45922088623047,-68.25489044189453
0.819,3.937389612197876,-8.59621524810791,2.7290141582489014,-0.035124752670526505,0.031154125928878784,-0.07269296050071716,-23.10727882385254,49.44460678100586,-67.96258544921875
0.838,3.8739798069000244,-8.634500503540039,2.915654182434082,-0.04734205827116966,0.051923543214797974,-0.07773260027170181,-23.12189483642578,48.94767761230469,-68.59104919433594
0.841,3.8356947898864746,-8.593822479248047,2.9204399585723877,-0.05604688450694084,0.056810468435287476,-0.07910704612731934,-23.414207458496094,48.75767135620117,-68.34259033203125
0.849,3.799802303314209,-8.530412673950195,2.8965117931365967,-0.06582073122262955,0.06215553730726242,-0.07422012835741043,-22.332651138305664,49.31306457519531,-68.62028503417969
0.859,3.6646077632904053,-8.49332332611084,2.933600664138794,-0.07376197725534439,0.07437284290790558,-0.06062837690114975,-23.10727882385254,48.88921356201172,-68.76644134521484
0.869,3.5341989994049072,-8.50050163269043,2.950350046157837,-0.07925976812839508,0.09453140199184418,-0.04092797264456749,-22.814966201782227,49.26921844482422,-68.09412384033203
0.879,3.510270595550537,-8.530412673950195,2.8701906204223633,-0.07254024595022202,0.1114829033613205,-0.012522736564278603,-23.136510848999023,49.32768249511719,-67.53873443603516
0.899,3.5473594665527344,-8.673981666564941,2.8187451362609863,-0.01817324012517929,0.11194105446338654,0.06918048858642578,-23.048816680908203,49.07921600341797,-68.5325927734375
0.903,3.507877826690674,-8.713462829589844,2.81276273727417,0.0013744467869400978,0.10674870014190674,0.09697485715150833,-22.66880989074707,49.853843688964844,-67.74334716796875
0.909,3.4779675006866455,-8.702695846557617,2.799602508544922,0.024129178375005722,0.10201448947191238,0.14477506279945374,-22.47880744934082,49.34230041503906,-67.83104705810547
0.919,3.397808074951172,-8.61176872253418,2.77447772026062,0.051770828664302826,0.08414668589830399,0.20387627184391022,-22.65419578552246,49.45922088623047,-68.24028015136719
0.929,3.4671998023986816,-8.635696411132812,2.761317014694214,0.07162395119667053,0.04581489413976669,0.24663683772087097,-23.00497055053711,49.54691696166992,-68.89797973632812
0.939,3.665804386138916,-8.659625053405762,2.7565317153930664,0.08124507963657379,-0.01542434748262167,0.26969701051712036,-22.94650650024414,49.56153106689453,-68.02104949951172
0.958,4.185046672821045,-8.525627136230469,2.7804598808288574,0.10170906037092209,-0.10903944075107574,0.2909245789051056,-22.72727394104004,49.34230041503906,-69.10260009765625
0.961,4.267599105834961,-8.50887680053711,2.7864418029785156,0.10430524498224258,-0.11667525768280029,0.2906191349029541,-22.771120071411133,49.38614273071289,-67.97720336914062
0.969,4.399204254150391,-8.37846851348877,2.78165602684021,0.11392636597156525,-0.13118331134319305,0.28359419107437134,-22.069570541381836,49.26921844482422,-68.21105194091797
0.979,4.621737003326416,-8.24566650390625,2.8342983722686768,0.12095130980014801,-0.12018773704767227,0.27152958512306213,-21.806488037109375,49.020755767822266,-68.70797729492188
0.989,4.758127689361572,-8.188239097595215,2.8558335304260254,0.12751811742782593,-0.09086620807647705,0.24694228172302246,-21.8503360748291,49.093833923339844,-68.18181610107422
1.008,4.914857387542725,-8.141578674316406,2.940778970718384,0.13041973114013672,-0.04749477282166481,0.20830504596233368,-21.26571273803711,48.62613296508789,-67.392578125
1.012,4.991427898406982,-8.123632431030273,3.001795768737793,0.1215621829032898,0.025045473128557205,0.13607022166252136,-21.499561309814453,48.8599853515625,-67.94796752929688
1.019,4.998606204986572,-8.02074146270752,3.012563705444336,0.11071932315826416,0.09086620807647705,0.058795779943466187,-21.616485595703125,49.020755767822266,-68.4887466430664
1.029,4.980660438537598,-7.713263511657715,2.957528829574585,0.09697485715150833,0.15057827532291412,-0.016035212203860283,-21.76264190673828,49.18152618408203,-68.92721557617188
1.039,4.97348165512085,-7.576872825622559,2.871387243270874,0.08384125679731369,0.18127425014972687,-0.07162395119667053,-21.894182205200195,48.684593200683594,-68.18181610107422
1.049,4.97348165512085,-7.645068168640137,2.6835503578186035,0.08811730891466141,0.16203199326992035,-0.10781770944595337,-21.938030242919922,48.611515045166016,-68.2695083618164
1.059,4.960321426391602,-7.807779788970947,2.568694829940796,0.13072516024112701,0.08384125679731369,-0.12812897562980652,-21.28032684326172,48.78690719604492,-69.07337188720703
1.073,4.8777689933776855,-8.203792572021484,2.6967110633850098,0.2298380434513092,-0.07009679079055786,-0.14477506279945374,-21.54340934753418,48.17304992675781,-68.5764389038086
1.08,4.735395908355713,-8.335397720336914,2.7529425621032715,0.27901268005371094,-0.11453723162412643,-0.1472185254096985,-21.514177322387695,49.020755767822266,-68.89797973632812
1.089,4.48414945602417,-8.341379165649414,2.840280294418335,0.3309362530708313,-0.11957687139511108,-0.15042555332183838,-22.011106491088867,48.494590759277344,-68.92721557617188
1.1,4.214956760406494,-8.231308937072754,2.9659035205841064,0.35506540536880493,-0.06688974052667618,-0.14508049190044403,-22.025724411010742,48.50920867919922,-69.52645111083984
1.109,3.975674629211426,-8.02791976928711,3.049652338027954,0.3433062732219696,0.009621127508580685,-0.13988813757896423,-21.981876373291016,48.655364990234375,-69.81876373291016
1.129,3.91705060005188,-7.8448686599731445,3.0448665618896484,0.2968805134296417,0.07635815441608429,-0.1235474944114685,-22.186494827270508,48.75767135620117,-69.14644622802734
1.132,4.073780536651611,-8.01954460144043,3.0173492431640625,0.25106561183929443,0.09498954564332962,-0.0913243517279625,-21.631101608276367,48.611515045166016,-69.2487564086914
1.139,4.226921081542969,-8.289934158325195,2.963510751724243,0.2448042333126068,0.07727444916963577,-0.0633772686123848,-22.04033851623535,48.77228546142578,-69.32183837890625
1.149,4.329812526702881,-8.593822479248047,2.8354947566986084,0.2820670008659363,0.04306599870324135,-0.027183502912521362,-21.864952087402344,48.43613052368164,-70.44723510742188
1.159,4.2484564781188965,-8.70389175415039,2.733799695968628,0.3649919927120209,0.01863138936460018,0.003054326167330146,-22.186494827270508,48.36305236816406,-69.86261749267578
1.169,4.052245140075684,-8.597411155700684,2.623729705810547,0.49754971265792847,0.01924225501716137,0.027947084978222847,-22.361881256103516,48.041507720947266,-70.05261993408203
1.188,3.7184462547302246,-8.288737297058105,2.5567307472229004,0.5881105065345764,0.038026362657547,0.03985895588994026,-21.601871490478516,48.17304992675781,-70.46185302734375
1.192,3.507877826690674,-8.055437088012695,2.4526431560516357,0.6612616181373596,0.07024950534105301,0.047800205647945404,-21.894182205200195,47.89535140991211,-71.11955261230469
1.199,3.542573928833008,-8.02791976928711,2.400001049041748,0.6869179010391235,0.07971791177988052,0.06414084881544113,-21.777257919311523,48.216896057128906,-71.83572387695312
1.209,3.702892780303955,-8.264808654785156,2.3533408641815186,0.6976081132888794,0.07223481684923172,0.09666942805051804,-21.718795776367188,47.82227325439453,-71.26570892333984
1.219,3.964907169342041,-8.566305160522461,2.2779672145843506,0.7002043128013611,0.04382958263158798,0.13011428713798523,-21.806488037109375,47.77842712402344,-72.30342102050781
1.229,4.2795634269714355,-8.769694328308105,2.2983059883117676,0.6896668672561646,0.023976460099220276,0.14752395451068878,-22.09880256652832,47.00379943847656,-71.64572143554688
1.249,4.321437358856201,-8.627321243286133,2.283949136734009,0.6458372473716736,0.024892758578062057,0.16371189057826996,-21.616485595703125,47.04764938354492,-72.2157211303711
1.253,4.303491592407227,-8.376075744628906,2.1894326210021973,0.5340489149093628,0.023976460099220276,0.16920965909957886,-21.55802345275879,47.07687759399414,-72.7272720336914
1.259,4.25084924697876,-8.318647384643555,2.1020946502685547,0.4326452910900116,0.00931569468230009,0.16294831037521362,-21.54340934753418,46.98918533325195,-73.13650512695312
1.269,4.1383867263793945,-8.390432357788086,2.1032910346984863,0.28527405858039856,0.008704829961061478,0.15302173793315887,-21.075708389282227,46.375328063964844,-73.07804870605469
1.279,3.974478244781494,-8.49332332611084,2.3437697887420654,0.1492038369178772,0.12095130980014801,0.13439035415649414,-20.768781661987305,45.995323181152344,-72.66880798339844
1.289,3.9218363761901855,-8.438288688659668,2.799602508544922,0.07208210229873657,0.2641991972923279,0.1036943718791008,-20.973400115966797,46.57994842529297,-73.26805114746094
1.309,3.940978765487671,-8.282755851745605,3.032902479171753,-0.004734205547720194,0.3776674270629883,0.06979135423898697,-20.666471481323242,46.57994842529297,-73.69190216064453
1.313,3.889533042907715,-8.079365730285645,3.115455150604248,-0.09498954564332962,0.4763221740722656,0.038026362657547,-21.046478271484375,46.550716400146484,-73.96959686279297
1.319,3.7902309894561768,-8.043473243713379,3.1932218074798584,-0.11682797223329544,0.4944954216480255,0.03237585723400116,-20.973400115966797,46.44840621948242,-73.83805847167969
1.329,3.754338502883911,-8.120043754577637,3.31884503364563,-0.16325373947620392,0.5222897529602051,0.028405234217643738,-20.98801612854004,46.316864013671875,-73.7942123413086
1.339,3.704089403152466,-8.312665939331055,3.524627685546875,-0.194713294506073,0.5535966157913208,0.03084869496524334,-20.783395767211914,46.21455764770508,-72.7272720336914
1.349,3.561716318130493,-8.449056625366211,3.6598219871520996,-0.21838431060314178,0.6105597615242004,0.0328340083360672,-20.1110782623291,46.33148193359375,-72.74188995361328
1.369,3.449253797531128,-8.678768157958984,3.8979079723358154,-0.23839014768600464,0.6974554061889648,0.02733621932566166,-19.774919509887695,46.46302032470703,-73.61882019042969
1.373,3.428914785385132,-8.860621452331543,4.139583110809326,-0.28527405858039856,0.8532260060310364,0.02626720443367958,-19.599531173706055,45.68839645385742,-73.12189483642578
1.379,3.348755121231079,-8.767301559448242,4.1347975730896,-0.30543261766433716,0.9269880056381226,0.02122756652534008,-19.321834564208984,46.50687026977539,-72.90266418457031
1.389,3.2793633937835693,-8.220541954040527,4.177868366241455,-0.3381139039993286,0.9857837557792664,0.005803219974040985,-19.014907836914062,46.44840621948242,-73.20958709716797
1.399,3.3332018852233887,-7.864011287689209,4.116851329803467,-0.38347065448760986,0.9947940707206726,-0.014049900695681572,-18.737211227416992,46.57994842529297,-72.9465103149414
1.409,3.579662799835205,-7.715656280517578,3.9601213932037354,-0.4030183255672455,0.9628763198852539,-0.019853120669722557,-18.751827239990234,46.57994842529297,-72.74188995361328
1.429,3.723231792449951,-7.562515735626221,3.675375461578369,-0.3715587854385376,0.896291971206665,-0.0022907445672899485,-19.00029182434082,46.78456497192383,-71.98188018798828
1.432,4.082155227661133,-7.360321998596191,3.4337005615234375,-0.24862214922904968,0.7244861125946045,0.04856378585100174,-18.16720199584961,46.682254791259766,-71.70417785644531
1.439,4.242474555969238,-7.454838752746582,3.4444680213928223,-0.16768251359462738,0.6224716901779175,0.08536841720342636,-18.298744201660156,46.872257232666016,-71.30956268310547
1.449,4.631308078765869,-7.7515482902526855,3.6813576221466064,-0.07712173461914062,0.48899760842323303,0.15256358683109283,-17.962583541870117,46.76995086669922,-71.83572387695312
1.459,5.072783946990967,-8.35453987121582,4.116851329803467,-0.02687807008624077,0.3666718602180481,0.2278527319431305,-17.87489128112793,46.56533432006836,-71.28032684326172
1.469,5.61116886138916,-9.134600639343262,4.632504463195801,-0.019394971430301666,0.2617557644844055,0.2996293902397156,-17.918737411499023,46.57994842529297,-71.30956268310547
1.489,5.998805999755859,-10.086943626403809,5.117051124572754,-0.059864792972803116,0.16203199326992035,0.35506540536880493,-17.15872573852539,46.521484375,-71.51417541503906
1.493,6.020341396331787,-11.274980545043945,5.511867046356201,-0.08216137439012527,0.1797470897436142,0.3484986424446106,-16.617948532104492,46.302249908447266,-71.00263214111328
1.5,5.72722053527832,-11.479565620422363,5.435296535491943,-0.04856378585100174,0.251676470041275,0.2964223325252533,-17.114879608154297,46.59456253051758,-71.95264434814453
1.509,5.245067119598389,-11.125428199768066,5.218746185302734,0.057421330362558365,0.3761402666568756,0.15882496535778046,-16.2525577545166,46.726104736328125,-71.09032440185547
1.519,5.182853698730469,-10.353742599487305,5.054837703704834,0.16233743727207184,0.4709770977497101,0.04612032324075699,-16.369482040405273,46.46302032470703,-71.92341613769531
1.529,5.12901496887207,-9.57368278503418,4.622933387756348,0.270766019821167,0.5167919993400574,0.024587325751781464,-16.311019897460938,46.33148193359375,-72.33264923095703
1.549,5.437689304351807,-8.995816230773926,3.706482172012329,0.4239404797554016,0.4847215414047241,0.09896016865968704,-16.07716941833496,46.15609359741211,-72.30342102050781
1.552,5.37906551361084,-9.29491901397705,2.991028070449829,0.6963863968849182,0.28817567229270935,0.21242839097976685,-15.624086380004883,46.19994354248047,-72.30342102050781
1.559,5.466403484344482,-9.711270332336426,1.9669002294540405,0.8828530311584473,0.03420845419168472,0.2597704529762268,-16.194095611572266,46.097633361816406,-72.74188995361328
1.569,7.543373107910156,-11.142178535461426,-3.8811581134796143,1.326341152191162,-1.0403034687042236,0.3013092875480652,-15.52177619934082,46.15609359741211,-73.28266143798828
1.579,7.156932353973389,-12.701102256774902,-2.6488544940948486,1.3590223789215088,-2.3544270992279053,0.4437935948371887,-16.384098052978516,45.45454788208008,-74.39344787597656
1.589,3.796213150024414,-13.532608032226562,1.2646067142486572,0.64217209815979,-1.8866573572158813,0.34345895051956177,-16.822566986083984,44.82607650756836,-74.93423461914062
1.609,2.4741785526275635,-13.603196144104004,2.8833510875701904,-1.2554807662963867,0.4036291837692261,-0.2971859276294708,-16.15024757385254,45.191463470458984,-74.40806579589844
1.612,3.3714869022369385,-12.522836685180664,2.895315170288086,-1.4483615159988403,0.5809328556060791,-0.36193764209747314,-16.369482040405273,44.7822265625,-74.14498901367188
1.619,4.467399597167969,-11.151749610900879,1.8221343755722046,-1.8364136219024658,0.8423831462860107,-0.479834645986557,-16.13563346862793,44.76761245727539,-74.14498901367188
1.629,5.375475883483887,-9.528219223022461,0.8063812255859375,-1.959502935409546,0.7082982659339905,-0.5225951671600342,-16.559486389160156,45.24992752075195,-73.80882263183594
1.639,5.903093338012695,-8.246862411499023,0.5000999569892883,-1.8220582008361816,0.19837848842144012,-0.45646902918815613,-16.2525577545166,46.287635803222656,-72.2157211303711
1.649,5.9198431968688965,-7.204788684844971,0.6927221417427063,-1.7001906633377075,-0.24724771082401276,-0.40622538328170776,-16.398714065551758,46.63841247558594,-72.09880065917969
1.668,5.583651542663574,-6.842276096343994,0.7082754373550415,-1.6727017164230347,-0.9640980362892151,-0.49846601486206055,-17.04180145263672,47.80765914916992,-70.85647583007812
1.672,5.154139518737793,-6.946363925933838,0.3361915946006775,-1.6919440031051636,-1.035416603088379,-0.5253441333770752,-16.88102912902832,47.661502838134766,-71.06109619140625
1.679,4.791627407073975,-7.100700855255127,0.12203395366668701,-1.7672330141067505,-1.2319624423980713,-0.6143776774406433,-17.100261688232422,47.76381301879883,-69.77491760253906
1.689,4.268795490264893,-7.324429988861084,0.06221338361501694,-1.9223928451538086,-1.5039501190185547,-0.7686211466789246,-17.69950294494629,48.36305236816406,-69.96492004394531
1.699,3.479163885116577,-7.5146589279174805,0.3649054169654846,-1.990351676940918,-1.6119205951690674,-0.8643743395805359,-18.459514617919922,49.020755767822266,-69.6287612915039
1.709,3.073580503463745,-7.8795647621154785,0.8087739944458008,-1.9656115770339966,-1.5920674800872803,-0.9100365042686462,-19.044137954711914,49.239986419677734,-68.44490051269531
1.729,2.6273193359375,-8.788837432861328,2.26959228515625,-1.7064520120620728,-1.3469579219818115,-0.8272642493247986,-20.2718505859375,50.07307434082031,-67.48026275634766
1.732,2.6213371753692627,-8.935996055603027,2.489731788635254,-1.6224581003189087,-1.2528846263885498,-0.7730499505996704,-20.154926300048828,50.08769607543945,-67.0125732421875
1.739,2.544766664505005,-9.512666702270508,3.0376882553100586,-1.4996742010116577,-1.100168228149414,-0.6945537328720093,-20.46185302734375,50.43846893310547,-66.55948638916016
1.749,2.599801778793335,-10.64686393737793,3.785445213317871,-1.3842206001281738,-0.9080511927604675,-0.6091853976249695,-20.37415885925293,50.555397033691406,-66.31101989746094
1.759,2.9180471897125244,-11.20798110961914,3.9948172569274902,-1.2976304292678833,-0.7987062931060791,-0.5532912015914917,-20.608009338378906,51.06694030761719,-65.88716125488281
1.769,3.170490026473999,-11.70449161529541,4.04985237121582,-1.2095131874084473,-0.7686211466789246,-0.5412266254425049,-21.397253036499023,51.593101501464844,-65.94563293457031
1.789,3.473181962966919,-12.364910125732422,4.265206336975098,-1.0810787677764893,-0.7625125646591187,-0.498924195766449,-21.48494529724121,51.53464126586914,-64.70330047607422
1.793,3.387040376663208,-12.301501274108887,4.145565032958984,-1.0590876340866089,-0.7031058669090271,-0.44974952936172485,-22.04033851623535,51.30078887939453,-64.63021850585938
1.799,3.623929738998413,-11.698509216308594,3.9361932277679443,-1.0144944190979004,-0.658970832824707,-0.31963521242141724,-22.610347747802734,51.62232971191406,-64.99561309814453
1.809,3.2961132526397705,-10.613364219665527,3.6634113788604736,-0.9045386910438538,-0.848644495010376,-0.09911288321018219,-22.566499710083008,51.6807975769043,-64.55714416503906
1.819,2.77447772026062,-9.748359680175781,3.129812002182007,-0.7733554244041443,-1.204473614692688,0.03176499158143997,-22.44957733154297,51.87080001831055,-63.78252029418945
1.829,2.482553482055664,-9.236295700073242,2.496910333633423,-0.6919575929641724,-1.4772248268127441,0.028405234217643738,-22.522653579711914,51.54925537109375,-63.51943588256836
1.849,2.5160529613494873,-8.644071578979492,1.5972089767456055,-0.9048441052436829,-1.3298536539077759,-0.014202617108821869,-23.238819122314453,51.914642333984375,-63.5925178527832
1.853,2.4885356426239014,-8.683552742004395,1.3435698747634888,-0.949284553527832,-1.2684615850448608,-0.03344487026333809,-22.873428344726562,51.72464370727539,-63.76790237426758
1.859,2.609373092651367,-8.426324844360352,0.865005373954773,-1.0543533563613892,-1.0415252447128296,-0.0685696229338646,-23.00497055053711,52.265419006347656,-62.70096206665039
1.869,2.386840581893921,-8.09850788116455,0.5670989155769348,-1.0806206464767456,-0.734107255935669,-0.09376781433820724,-23.428821563720703,52.323883056640625,-63.709442138671875
1.879,2.5770697593688965,-7.816154956817627,0.9272187352180481,-1.0169378519058228,-0.4873177409172058,-0.12370020896196365,-22.66880989074707,52.499271392822266,-63.168663024902344
1.889,2.709871768951416,-7.733603000640869,1.3483555316925049,-0.9101892113685608,-0.43799036741256714,-0.1264491081237793,-23.01958465576172,53.0985107421875,-62.525577545166016
1.905,2.421536445617676,-7.9142608642578125,1.798206090927124,-0.7576255798339844,-0.45036038756370544,-0.1085812970995903,-23.428821563720703,53.142356872558594,-62.37942123413086
1.909,2.273181438446045,-7.928617477416992,1.8089739084243774,-0.7047857642173767,-0.42806383967399597,-0.11163561791181564,-23.355743408203125,53.18620300292969,-62.27711486816406
1.919,2.094916343688965,-7.9788665771484375,1.6342978477478027,-0.5810855627059937,-0.33108893036842346,-0.1388191282749176,-23.341127395629883,53.05466079711914,-62.07249069213867
1.929,2.0171494483947754,-8.051847457885742,1.514656662940979,-0.5021312236785889,-0.182648703455925,-0.24098633229732513,-23.370359420776367,52.718502044677734,-61.8971061706543
1.939,2.035095691680908,-8.01954460144043,1.2526426315307617,-0.48319438099861145,0.058337628841400146,-0.42730024456977844,-24.042678833007812,53.25928497314453,-61.619407653808594
1.949,2.465803623199463,-7.99681282043457,0.7549355626106262,-0.5108360648155212,0.322536826133728,-0.5597052574157715,-23.77959632873535,53.2008171081543,-61.88248825073242
1.967,3.3714869022369385,-8.02672290802002,0.12083754688501358,-0.4922046661376953,0.5426010489463806,-0.6087271571159363,-24.144987106323242,53.449283599853516,-61.59017562866211
1.97,3.427718162536621,-8.067400932312012,0.09092725813388824,-0.4827362596988678,0.5387831330299377,-0.598953366279602,-23.83806037902832,53.55158996582031,-61.16632843017578
1.979,3.6849467754364014,-8.109275817871094,-0.04905286058783531,-0.44119739532470703,0.42470404505729675,-0.5644394755363464,-23.735750198364258,53.66851806640625,-61.034786224365234
1.989,3.346362352371216,-8.079365730285645,-0.32901307940483093,-0.379652738571167,0.24113905429840088,-0.4973970353603363,-24.32037353515625,53.244667053222656,-61.18094253540039
1.999,2.8977081775665283,-7.892724990844727,-0.33738797903060913,-0.2451096773147583,0.06123923882842064,-0.44715335965156555,-24.802688598632812,53.61005783081055,-61.18094253540039
2.018,2.4849462509155273,-7.457231521606445,0.02153540402650833,-0.12996158003807068,-0.04749477282166481,-0.39309176802635193,-24.48114585876465,53.244667053222656,-60.69862747192383
2.022,2.091326951980591,-6.935595989227295,0.4570291042327881,-0.013286319561302662,-0.006719517521560192,-0.30604347586631775,-25.168079376220703,53.7562141418457,-60.435546875
2.029,2.0362918376922607,-6.722634792327881,0.4977070689201355,0.03191770985722542,0.06505714356899261,-0.25213462114334106,-25.13884925842285,53.17158508300781,-61.312477111816406
2.039,1.935793399810791,-6.465406894683838,0.4630111753940582,0.07590001076459885,0.22143864631652832,-0.18341228365898132,-25.109615325927734,53.50774383544922,-62.101722717285156
2.049,2.137986898422241,-6.192624568939209,0.37806597352027893,0.11484266072511673,0.4395175576210022,-0.08475754410028458,-25.270387649536133,53.34697341918945,-60.771705627441406
2.059,2.548356056213379,-6.0538411140441895,0.43190446496009827,0.14813482761383057,0.5748242139816284,-0.03436116874217987,-25.445777893066406,53.5369758605957,-61.45863342285156
2.069,3.2434709072113037,-6.123232841491699,0.5730810165405273,0.16111570596694946,0.6559165120124817,0.018020525574684143,-24.729610443115234,53.97544479370117,-61.8971061706543
2.082,4.039084434509277,-6.244070529937744,0.727418065071106,0.18295413255691528,0.6580545902252197,0.1134682148694992,-24.48114585876465,53.5369758605957,-61.45863342285156
2.089,4.660021781921387,-6.311069488525391,0.37926235795021057,0.21731530129909515,0.611934244632721,0.1918116807937622,-24.261911392211914,53.96083068847656,-61.80941390991211
2.099,4.993820667266846,-6.501298904418945,-0.02512463741004467,0.2952006161212921,0.526107668876648,0.3150537610054016,-23.706518173217773,53.30312728881836,-62.145572662353516
2.109,5.151747226715088,-6.900899887084961,-0.5108676552772522,0.31322115659713745,0.5942191481590271,0.3283400535583496,-23.618824005126953,52.79158401489258,-62.525577545166016
2.119,5.3455657958984375,-7.558926582336426,-1.0923235416412354,0.30482175946235657,0.7670939564704895,0.28939738869667053,-23.268049240112305,53.28851318359375,-61.970184326171875
2.139,5.558526992797852,-8.398807525634766,-1.6773686408996582,0.2935207188129425,0.9992228150367737,0.2099849283695221,-23.180356979370117,53.30312728881836,-63.00789260864258
2.142,6.096912384033203,-9.483952522277832,-2.228914260864258,0.2808452844619751,1.433700680732727,0.0022907445672899485,-22.74188804626465,53.61005783081055,-62.86173629760742
2.149,6.720242023468018,-10.15035343170166,-2.262413740158081,0.24465152621269226,1.6190983057022095,-0.13576479256153107,-22.814966201782227,52.98158645629883,-63.2563591003418
2.159,8.336593627929688,-10.783255577087402,-1.9609181880950928,0.1088867262005806,1.6882787942886353,-0.30741792917251587,-22.522653579711914,52.8792724609375,-63.44636154174805
2.169,9.732806205749512,-10.360921859741211,-1.6893328428268433,-0.0835358202457428,1.449125051498413,-0.4466952085494995,-22.434959411621094,53.025428771972656,-63.168663024902344
2.179,10.408778190612793,-9.538987159729004,-1.891526222229004,-0.2073887437582016,0.945772111415863,-0.5132794976234436,-22.39111328125,53.17158508300781,-62.759429931640625
2.198,10.721041679382324,-8.780462265014648,-2.344965934753418,-0.20845776796340942,0.36713001132011414,-0.5102251768112183,-22.303421020507812,53.25928497314453,-63.56328582763672
2.203,10.37527847290039,-8.141578674316406,-2.8247268199920654,-0.0910189226269722,-0.5470298528671265,-0.40683624148368835,-22.683425903320312,53.46390151977539,-63.34404754638672
2.209,9.734002113342285,-8.092525482177734,-2.8522443771362305,0.021074850112199783,-1.0074695348739624,-0.27488934993743896,-22.902660369873047,52.76234817504883,-62.68634796142578
2.219,7.838886737823486,-8.037490844726562,-2.5292134284973145,0.18799376487731934,-1.6751452684402466,-0.038637224584817886,-23.341127395629883,53.36158752441406,-63.460975646972656
2.229,5.064409255981445,-7.960920810699463,-1.7264214754104614,0.34315353631973267,-2.239431858062744,0.09285151958465576,-22.990352630615234,53.55158996582031,-63.50482177734375
2.239,3.177668571472168,-7.820940971374512,-0.8458627462387085,0.5025893449783325,-2.448347806930542,0.17440202832221985,-23.633440017700195,53.37620544433594,-64.13329315185547
2.259,1.9082759618759155,-7.728816986083984,0.008374879136681557,0.6780603528022766,-2.3322834968566895,0.3222314119338989,-23.911136627197266,53.01081466674805,-64.36714172363281
2.263,0.8937192559242249,-8.306683540344238,1.4189437627792358,0.8017606139183044,-1.9668333530426025,0.4660901725292206,-23.531131744384766,53.17158508300781,-65.87255096435547
2.269,0.8422735333442688,-9.568897247314453,1.903490424156189,0.8223773241043091,-1.6577354669570923,0.546571671962738,-23.66267204284668,52.38234329223633,-66.31101989746094
2.279,0.6795615553855896,-13.094721794128418,1.5170494318008423,0.6739370822906494,-1.0910053253173828,0.6499606370925903,-23.458053588867188,52.484657287597656,-66.57410430908203
2.289,1.137787103652954,-17.763118743896484,-0.41036906838417053,0.314442902803421,-0.38438695669174194,0.7385360598564148,-23.428821563720703,52.80619812011719,-67.07102966308594
2.3,1.7312071323394775,-21.97568130493164,-3.1716861724853516,-0.08368853479623795,0.2330450862646103,0.7600690722465515,-23.39959144592285,52.718502044677734,-67.15872192382812
2.319,2.3126630783081055,-22.715065002441406,-3.4265217781066895,-0.3309362530708313,0.3410155177116394,0.5096142888069153,-22.508039474487305,52.265419006347656,-66.89564514160156
2.323,4.995017051696777,-11.36112117767334,-2.4945175647735596,-0.7380779385566711,0.4308127164840698,0.16569718718528748,-22.288803100585938,52.703887939453125,-67.48026275634766
2.329,5.824130058288574,-6.532405376434326,-1.7132608890533447,-0.6959282159805298,0.36713001132011414,0.07773260027170181,-22.186494827270508,52.280033111572266,-67.94796752929688
2.339,5.9306111335754395,-2.8139593601226807,-0.16869398951530457,-0.38117989897727966,0.14553864300251007,0.031612277030944824,-22.785736083984375,52.35311508178711,-66.5302505493164
2.349,4.883750915527344,-1.8640087842941284,1.239482045173645,-0.08704829961061478,0.1039998009800911,0.1215621829032898,-22.464191436767578,52.17772674560547,-66.61795043945312
2.359,3.166900634765625,-1.6103696823120117,1.550549030303955,0.2727513313293457,0.19837848842144012,0.3205515146255493,-21.92341423034668,52.74773406982422,-67.11487579345703
2.379,2.0650060176849365,-2.83669114112854,1.8616158962249756,0.5711589455604553,0.22128592431545258,0.4375322163105011,-22.215726852416992,52.484657287597656,-67.52411651611328
2.383,2.5459630489349365,-5.734399318695068,2.5124638080596924,0.7338019013404846,0.035582900047302246,0.6391177773475647,-21.791873931884766,52.22157287597656,-67.75796508789062
2.389,2.9958138465881348,-7.691728115081787,2.8390841484069824,0.7403686046600342,-0.06902776658535004,0.7901541590690613,-21.061092376708984,52.13387680053711,-68.44490051269531
2.399,3.190828800201416,-9.937392234802246,3.0388846397399902,0.7099781036376953,-0.1290452778339386,0.9981537461280823,-21.134170532226562,51.6807975769043,-68.18181610107422
2.409,2.7936203479766846,-11.24028491973877,2.623729705810547,0.655458390712738,-0.09224064648151398,1.160185694694519,-20.08184814453125,51.286170959472656,-69.35106658935547
2.419,1.9489539861679077,-11.181659698486328,1.5517455339431763,0.6041457653045654,-0.006261368282139301,1.1071932315826416,-19.99415397644043,51.56386947631836,-69.84799194335938
2.439,2.132004976272583,-10.476973533630371,0.8925228118896484,0.654542088508606,0.3023782968521118,0.8298604488372803,-18.868751525878906,51.49079132080078,-71.06109619140625
2.443,3.148954391479492,-9.667003631591797,1.2143574953079224,0.8956811428070068,1.00197172164917,0.3176499307155609,-19.131834030151367,51.403099060058594,-70.91493225097656
2.449,3.9421751499176025,-9.232706069946289,2.011167287826538,0.9317222237586975,1.1820242404937744,0.2041817009449005,-18.488744735717773,50.950016021728516,-70.75416564941406
2.459,4.559523582458496,-8.676374435424805,2.7912275791168213,0.8326093554496765,1.449125051498413,0.13271047174930573,-18.25489616394043,50.42385482788086,-70.92955017089844
2.469,4.614558219909668,-8.096115112304688,2.827119827270508,0.6623306274414062,1.5184582471847534,0.18035796284675598,-17.670272827148438,50.02922821044922,-72.15726470947266
2.479,4.48414945602417,-7.670192718505859,2.44785737991333,0.5241223573684692,1.5126550197601318,0.20387627184391022,-17.670272827148438,50.13154220581055,-71.98188018798828
2.499,4.624129772186279,-7.272984027862549,2.14516544342041,0.45173484086990356,1.4227051734924316,0.18784105777740479,-16.924875259399414,49.649227142333984,-72.53726959228516
2.503,4.967499732971191,-7.141378879547119,1.5984054803848267,0.37858372926712036,1.0312931537628174,0.24877485632896423,-16.164865493774414,50.0,-72.2741928100586
2.509,4.78684139251709,-7.113861083984375,1.3004990816116333,0.38377609848976135,0.7816020846366882,0.32238414883613586,-16.179479598999023,49.63460922241211,-72.37649536132812
2.519,4.201796531677246,-7.4632134437561035,0.9224331378936768,0.49067750573158264,0.42959097027778625,0.3400992155075073,-16.13563346862793,49.80999755859375,-72.87342834472656
2.529,4.35254430770874,-7.983652591705322,1.1210373640060425,0.6646214127540588,0.18585574626922607,0.3045163154602051,-15.770242691040039,49.6199951171875,-73.12189483642578
2.539,4.901697158813477,-8.419146537780762,1.4488540887832642,0.8399397134780884,-0.05253440886735916,0.3260492980480194,-15.667933464050293,49.18152618408203,-74.33499145507812
2.559,5.31685209274292,-8.545965194702148,1.7754743099212646,1.0057896375656128,-0.3425426781177521,0.4092797338962555,-15.22946548461914,48.465362548828125,-74.90499877929688
2.563,5.30129861831665,-8.62612533569336,2.018345832824707,1.2910637855529785,-0.7959573864936829,0.5334380269050598,-15.068693161010742,48.75767135620117,-74.83192443847656
2.569,5.312066078186035,-8.70508861541748,2.2013967037200928,1.3878858089447021,-0.8608618378639221,0.560468852519989,-15.594855308532715,47.80765914916992,-75.56270599365234
2.579,5.260620594024658,-8.732605934143066,2.3784656524658203,1.419803500175476,-0.8654433488845825,0.5424483418464661,-15.156386375427246,47.456886291503906,-77.11195373535156
2.589,5.140979290008545,-8.746962547302246,2.3162522315979004,1.379333734512329,-0.8284859657287598,0.45555275678634644,-15.580240249633789,47.01841354370117,-77.30196380615234
2.599,4.718646049499512,-8.707481384277344,2.0506489276885986,1.3006848096847534,-0.7605272531509399,0.3400992155075073,-15.302543640136719,46.916107177734375,-78.45658874511719
2.619,4.381258010864258,-8.706284523010254,1.5804593563079834,1.2234103679656982,-0.8246680498123169,0.12721268832683563,-15.638701438903809,46.71148681640625,-79.3919906616211
2.622,3.6335010528564453,-8.891729354858398,1.0564311742782593,1.2370021343231201,-0.8561276793479919,0.08368853479623795,-15.536393165588379,46.901493072509766,-80.04969024658203
2.629,3.262613534927368,-8.924031257629395,1.1389836072921753,1.2551753520965576,-0.8871290683746338,0.03145955875515938,-16.033323287963867,46.170711517333984,-80.50277709960938
2.639,2.8893332481384277,-8.841479301452637,1.4584254026412964,1.253190040588379,-0.8816311955451965,-0.0073303827084600925,-16.13563346862793,45.84916687011719,-81.18971252441406
2.649,2.5698914527893066,-8.673981666564941,1.734796404838562,1.1904237270355225,-0.8155050873756409,-0.021991148591041565,-16.23794174194336,45.32300567626953,-81.64279174804688
2.659,2.389233350753784,-8.474181175231934,1.9465612173080444,1.0734429359436035,-0.6982190012931824,-0.03497203439474106,-16.2525577545166,45.08915710449219,-81.32125091552734
2.679,2.337787628173828,-8.225327491760254,2.0482561588287354,0.8875871896743774,-0.5540547966957092,-0.06994406878948212,-17.04180145263672,44.46068572998047,-82.9435806274414
2.683,2.5160529613494873,-7.799405097961426,2.3186450004577637,0.6659957766532898,-0.42500948905944824,-0.1033889427781105,-16.778718948364258,44.59222412109375,-83.77667236328125
2.689,2.638087034225464,-7.7515482902526855,2.4358932971954346,0.5383250117301941,-0.35323283076286316,-0.12690724432468414,-17.377958297729492,43.978370666503906,-83.10435485839844
2.7,2.9994029998779297,-7.786244869232178,2.640479564666748,0.37659841775894165,-0.2843577563762665,-0.15882496535778046,-16.866413116455078,43.978370666503906,-83.586669921875
2.709,3.284149169921875,-8.103293418884277,2.8414766788482666,0.24144448339939117,-0.24190261960029602,-0.19608773291110992,-17.173341751098633,44.27068328857422,-84.20052337646484
2.719,3.4947173595428467,-8.593822479248047,3.0652055740356445,0.10201448947191238,-0.11133018881082535,-0.2577851414680481,-17.97719955444336,44.19760513305664,-83.4697494506836
2.738,3.806980848312378,-9.036494255065918,3.0903303623199463,0.044745877385139465,0.22770002484321594,-0.3275764584541321,-18.021047592163086,44.051448822021484,-84.31745147705078
2.742,3.812962770462036,-9.06401252746582,2.8833510875701904,0.07590001076459885,0.34956762194633484,-0.3428480923175812,-17.947969436645508,44.256065368652344,-84.02513885498047
2.749,3.717249870300293,-8.934799194335938,2.823530673980713,0.14523321390151978,0.5444336533546448,-0.36682456731796265,-18.269512176513672,44.28529739379883,-85.06285095214844
2.759,3.5952160358428955,-8.662017822265625,2.9144580364227295,0.25076019763946533,0.7878634333610535,-0.39248090982437134,-17.947969436645508,44.03683090209961,-84.37591552734375
2.769,3.5461630821228027,-8.360522270202637,3.036491870880127,0.33796119689941406,1.0235047340393066,-0.41493022441864014,-17.78719711303711,43.992984771728516,-84.0835952758789
2.779,3.5294132232666016,-7.963313102722168,3.13220477104187,0.36163219809532166,1.1505646705627441,-0.4199698567390442,-17.80181312561035,44.24144744873047,-84.79976654052734
2.799,3.497110366821289,-7.84127950668335,3.1956145763397217,0.3723223805427551,1.225701093673706,-0.4053090810775757,-17.26103401184082,43.379127502441406,-84.71206665039062
2.803,3.28773832321167,-7.697710037231445,3.2614171504974365,0.3672827482223511,1.3019065856933594,-0.3730859160423279,-17.553346633911133,44.21221923828125,-85.42823791503906
2.809,3.212364435195923,-7.668996334075928,3.3056843280792236,0.3686571717262268,1.3367259502410889,-0.3579670190811157,-16.778718948364258,43.91990661621094,-85.01899719238281
2.819,3.1920251846313477,-7.726424217224121,3.3499515056610107,0.3810271620750427,1.3970487117767334,-0.3159700334072113,-16.32563591003418,43.7006721496582,-84.77053833007812
2.829,3.1034910678863525,-7.7515482902526855,3.2554352283477783,0.41202861070632935,1.4019356966018677,-0.2791654169559479,-16.06255531311035,43.817596435546875,-83.71820831298828
2.839,3.0484561920166016,-7.82692289352417,3.0903303623199463,0.46639561653137207,1.3744467496871948,-0.24159719049930573,-15.916398048400879,43.686058044433594,-85.41361999511719
2.859,2.926422119140625,-8.13679313659668,2.8929224014282227,0.6446155309677124,1.2594513893127441,-0.11621711403131485,-14.937153816223145,43.20374298095703,-84.1859130859375
2.863,2.8869404792785645,-8.323433876037598,2.8654050827026367,0.6960809230804443,1.218370795249939,-0.07528913766145706,-14.776381492614746,43.14527893066406,-84.97515106201172
2.869,2.9132614135742188,-8.689535140991211,2.932404041290283,0.7666358351707458,1.134682059288025,-0.007177666295319796,-14.381760597229004,43.15989685058594,-85.39900970458984
2.879,2.943171739578247,-9.293722152709961,2.963510751724243,0.8405505418777466,0.9747881889343262,0.09437867254018784,-14.060215950012207,43.08681869506836,-86.05670928955078
2.889,3.1824538707733154,-9.633503913879395,2.8797619342803955,0.9042332768440247,0.730900228023529,0.20845776796340942,-13.563285827636719,42.58988571166992,-85.83747100830078
2.9,3.211167812347412,-9.750751495361328,2.720639228820801,0.9618072509765625,0.39125916361808777,0.3280346393585205,-13.417129516601562,42.633731842041016,-87.03595733642578
2.918,2.882154941558838,-9.542576789855957,2.8283162117004395,0.9676104784011841,-0.18875734508037567,0.46074509620666504,-13.154048919677734,41.77141189575195,-87.05056762695312
2.922,2.8115665912628174,-9.518648147583008,2.880958318710327,0.9295841455459595,-0.24388794600963593,0.4766275882720947,-13.022507667541504,41.888336181640625,-87.07979583740234
2.929,2.74337100982666,-9.591629981994629,3.1680970191955566,0.8391761183738708,-0.24953843653202057,0.4899139106273651,-12.496346473693848,41.522945404052734,-88.14674377441406
2.939,2.768495798110962,-9.863214492797852,3.4504499435424805,0.6640104651451111,-0.14614950120449066,0.48380523920059204,-12.116340637207031,40.99678421020508,-87.7813491821289
2.949,2.922832727432251,-10.15633487701416,3.6323046684265137,0.4616613984107971,0.06902776658535004,0.4456261694431305,-12.847121238708496,40.64601135253906,-88.55597686767578
2.959,3.3032915592193604,-10.293922424316406,3.702892780303955,0.2541199326515198,0.3423899710178375,0.39813143014907837,-13.124817848205566,40.70447540283203,-87.37211608886719
2.978,4.219742774963379,-9.903892517089844,3.6502509117126465,-0.08994990587234497,0.7429648041725159,0.3263547420501709,-11.721718788146973,40.74831771850586,-87.92750549316406
2.982,4.368097305297852,-9.783055305480957,3.665804386138916,-0.16661350429058075,0.7828238010406494,0.3006984293460846,-12.028646469116211,40.73370361328125,-88.14674377441406
2.989,4.6432719230651855,-9.600004196166992,3.6801609992980957,-0.27351492643356323,0.8138251900672913,0.2557998299598694,-11.911721229553223,40.529083251953125,-88.4244384765625
3.0,4.901697158813477,-9.474380493164062,3.649054527282715,-0.38728857040405273,0.8211556077003479,0.18906280398368835,-11.32709789276123,40.64601135253906,-88.05905151367188
3.009,5.219942569732666,-9.538987159729004,3.651447057723999,-0.4648684561252594,0.803135097026825,0.11988230049610138,-11.078632354736328,41.099090576171875,-88.05905151367188
3.019,5.437689304351807,-9.509077072143555,3.710071325302124,-0.526413083076477,0.7799221873283386,0.055436018854379654,-10.596317291259766,41.23063278198242,-87.7813491821289
3.038,6.094519138336182,-8.825925827026367,3.6610186100006104,-0.6075054407119751,0.9100365042686462,0.10919215530157089,-9.397836685180664,41.522945404052734,-87.25518798828125
3.041,6.159125328063965,-8.803194046020508,3.6670005321502686,-0.6133086681365967,0.9550877809524536,0.14645493030548096,-9.339374542236328,41.698333740234375,-87.53288269042969
3.049,6.4905314445495605,-8.894121170043945,3.726821184158325,-0.6224716901779175,0.972955584526062,0.17669276893138885,-9.324758529663086,41.683719635009766,-86.88980102539062
3.059,7.52303409576416,-9.476773262023926,3.8333017826080322,-0.6168211698532104,0.854295015335083,0.1872301995754242,-8.52090072631836,41.56679153442383,-86.87518310546875
3.069,8.569893836975098,-10.110871315002441,3.912264823913574,-0.5833762884140015,0.5244278311729431,0.20265454053878784,-8.900906562805176,42.37065124511719,-86.74363708496094
3.079,9.235098838806152,-10.694720268249512,3.9182469844818115,-0.485027015209198,-0.023060161620378494,0.19578230381011963,-8.842443466186523,42.41449737548828,-86.29055786132812
3.099,8.519644737243652,-10.511669158935547,2.977867603302002,-0.08338310569524765,-0.5313000082969666,0.032681290060281754,-9.237065315246582,42.56065368652344,-87.38672637939453
3.103,8.080561637878418,-10.167102813720703,2.66560435295105,-0.014202617108821869,-0.5429064631462097,-0.004123340360820293,-9.17860221862793,42.75065612792969,-87.72288513183594
3.109,7.396214485168457,-9.559326171875,2.117647886276245,0.17928895354270935,-0.5710062980651855,-0.11499537527561188,-9.280911445617676,42.882198333740234,-87.4013442993164
3.119,6.489335060119629,-8.669196128845215,-0.6580261588096619,0.4554000496864319,-0.6653849482536316,-0.23457224667072296,-9.58784008026123,42.823734283447266,-87.89827728271484
3.129,6.4905314445495605,-9.622735977172852,-2.8941190242767334,0.48090362548828125,-1.543809175491333,-0.2428189367055893,-9.792458534240723,42.75065612792969,-88.62905883789062
3.139,4.949553489685059,-11.030911445617676,-1.1545369625091553,-0.05604688450694084,-2.1345157623291016,-0.15622878074645996,-10.96170711517334,43.02835464477539,-88.43905639648438
3.156,2.504088878631592,-10.63011360168457,1.2454640865325928,-1.0464122295379639,-1.5302174091339111,-0.22678370773792267,-12.306343078613281,43.30604934692383,-89.62291717529297
3.159,2.1678972244262695,-10.317851066589355,1.8939191102981567,-1.1606439352035522,-1.3898711204528809,-0.26022857427597046,-12.964046478271484,43.96375274658203,-89.68138122558594
3.169,1.6929219961166382,-9.774680137634277,2.493321180343628,-1.5514450073242188,-0.9586002826690674,-0.4132503271102905,-13.563285827636719,44.70914840698242,-90.07599639892578
3.179,1.4979069232940674,-9.261420249938965,2.008774518966675,-1.9460639953613281,-0.6782131195068359,-0.5864306092262268,-14.250219345092773,44.94300079345703,-88.43905639648438
3.189,1.7012969255447388,-8.901299476623535,0.5778666734695435,-2.1902573108673096,-0.7214318513870239,-0.6404921412467957,-15.258696556091309,46.521484375,-87.284423828125
3.208,1.8975082635879517,-8.648857116699219,-0.16390834748744965,-2.2883012294769287,-0.9234755635261536,-0.6624833345413208,-16.033323287963867,47.60304260253906,-86.9482650756836
3.212,2.4119651317596436,-8.453842163085938,0.6819544434547424,-2.2018637657165527,-1.0059423446655273,-0.6574437022209167,-17.187957763671875,48.81613540649414,-86.4220962524414
3.219,2.9312076568603516,-8.328218460083008,1.836491346359253,-2.1253528594970703,-0.9485209584236145,-0.6646214127540588,-17.3341121673584,49.590763092041016,-86.15901947021484
3.229,3.4648072719573975,-8.195417404174805,3.135793924331665,-2.0198259353637695,-0.8086328506469727,-0.6742424964904785,-18.18181800842285,50.160770416259766,-85.13592529296875
3.239,3.561716318130493,-8.427520751953125,3.829712390899658,-1.9396498203277588,-0.6944010853767395,-0.6959282159805298,-18.956445693969727,51.695411682128906,-85.01899719238281
3.249,3.5473594665527344,-9.06401252746582,3.838087320327759,-1.8258761167526245,-0.6229298114776611,-0.7435756921768188,-19.26337242126465,51.87080001831055,-84.62438201904297
3.259,3.610769271850586,-9.996016502380371,3.7363924980163574,-1.6757559776306152,-0.6204863786697388,-0.7996225953102112,-20.315698623657227,52.58695983886719,-83.49897766113281
3.272,3.7124643325805664,-11.078767776489258,3.620340585708618,-1.4492777585983276,-0.6617197394371033,-0.8251261711120605,-21.397253036499023,54.282371520996094,-82.19818115234375
3.279,3.531806230545044,-11.624332427978516,3.5473594665527344,-1.2618948221206665,-0.6420193314552307,-0.8156577944755554,-22.230342864990234,54.75007247924805,-81.847412109375
3.289,3.460021495819092,-12.107682228088379,3.5545380115509033,-1.0951286554336548,-0.5624541640281677,-0.797179102897644,-23.151124954223633,55.2762336730957,-81.5112533569336
3.299,3.4408788681030273,-12.380464553833008,3.6430721282958984,-0.9758571982383728,-0.4349360466003418,-0.7370089292526245,-23.677288055419922,55.378543853759766,-81.2481689453125
3.309,3.335594892501831,-12.154342651367188,3.6813576221466064,-0.9257662296295166,-0.25503623485565186,-0.627358615398407,-23.998830795288086,55.94855499267578,-80.8681640625
3.329,3.180061101913452,-11.040483474731445,3.3200414180755615,-0.9075930714607239,-0.1264491081237793,-0.5145012736320496,-24.75884246826172,56.76702880859375,-80.28353881835938
3.332,3.0556344985961914,-9.562914848327637,2.568694829940796,-0.8764389157295227,-0.23289236426353455,-0.45173484086990356,-25.40192985534668,56.5770263671875,-80.02046203613281
3.339,3.3415768146514893,-9.083154678344727,2.1571295261383057,-0.862541675567627,-0.42699480056762695,-0.4254676401615143,-25.76732063293457,56.95703125,-79.40660858154297
3.349,3.3894331455230713,-8.050651550292969,1.3124631643295288,-0.8255844116210938,-0.6311764717102051,-0.32498031854629517,-26.571178436279297,57.556270599365234,-79.83045959472656
3.359,3.280559778213501,-7.3914289474487305,0.8985048532485962,-0.6495024561882019,-0.8610145449638367,-0.08475754410028458,-27.214263916015625,57.65857696533203,-79.62583923339844
3.369,2.6811578273773193,-7.171289443969727,1.2275179624557495,-0.38087448477745056,-1.1728612184524536,0.1485929638147354,-27.813507080078125,57.68781280517578,-78.2519760131836
3.388,2.0135602951049805,-7.800601482391357,2.062613010406494,-0.19104810059070587,-1.5490015745162964,0.23151792585849762,-27.769657135009766,58.0970458984375,-79.18737030029297
3.392,0.9296115636825562,-9.05444049835205,2.8450660705566406,-0.4182899594306946,-1.5871806144714355,0.08964447677135468,-27.477344512939453,58.25782012939453,-79.2312240600586
3.399,0.8626124858856201,-9.072386741638184,2.5399811267852783,-0.65958172082901,-1.2921327352523804,-0.06902776658535004,-28.558900833129883,58.30166244506836,-78.47120666503906
3.409,1.4189437627792358,-8.295915603637695,1.7754743099212646,-0.8454374670982361,-0.7825183272361755,-0.25213462114334106,-29.275066375732422,58.95936965942383,-77.95966339111328
3.419,2.1607186794281006,-7.808976650238037,1.5002998113632202,-0.8327620029449463,-0.3810271620750427,-0.31062498688697815,-29.71353530883789,59.13475799560547,-77.4334945678711
3.429,2.4574286937713623,-7.429713726043701,1.345962643623352,-0.7499897480010986,-0.09666942805051804,-0.28817567229270935,-29.90353775024414,59.456298828125,-77.79888916015625
3.449,2.4646072387695312,-7.172485828399658,1.3016955852508545,-0.6061310172080994,0.1843285858631134,-0.30024024844169617,-31.175094604492188,60.02630615234375,-77.53580474853516
3.452,2.630908489227295,-6.874579429626465,0.9547362327575684,-0.46013423800468445,0.2926044464111328,-0.37980544567108154,-31.321250915527344,60.30400466918945,-77.08272552490234
3.459,2.7672994136810303,-6.929614543914795,0.7621140480041504,-0.3637702465057373,0.2929098606109619,-0.45753806829452515,-31.145864486694336,60.01169204711914,-76.70272064208984
3.469,2.96111798286438,-7.031309127807617,0.5288137793540955,-0.25641068816185,0.2971859276294708,-0.5586362481117249,-31.964338302612305,60.099388122558594,-77.31657409667969
3.479,3.579662799835205,-7.258627414703369,0.5551348328590393,-0.23380866646766663,0.30482175946235657,-0.5462662577629089,-32.21280288696289,60.216312408447266,-77.1850357055664
3.489,3.4671998023986816,-7.4835524559021,0.25363919138908386,-0.2554943859577179,0.22388210892677307,-0.4920519292354584,-32.32973098754883,60.0555419921875,-76.27886199951172
3.509,3.1106693744659424,-7.640282154083252,0.0729810893535614,-0.23228150606155396,0.10491610318422318,-0.47830748558044434,-32.2274169921875,60.406314849853516,-76.98041534423828
3.513,2.8079774379730225,-7.441678524017334,0.2883351147174835,-0.1261436641216278,-0.11652254313230515,-0.44394633173942566,-33.162818908691406,60.786319732666016,-76.2057876586914
3.519,2.6775684356689453,-7.18086051940918,0.4666004180908203,-0.031612277030944824,-0.2324342280626297,-0.40622538328170776,-33.22127914428711,60.596317291259766,-76.11809539794922
3.529,2.531606435775757,-6.719045639038086,0.7357929348945618,0.11163561791181564,-0.2996293902397156,-0.3471241593360901,-33.9082145690918,60.216312408447266,-76.46886444091797
3.539,2.3976082801818848,-6.308676719665527,0.8997012972831726,0.2964223325252533,-0.18127425014972687,-0.2932153046131134,-34.27360534667969,60.93247604370117,-76.22040557861328
3.549,2.726621150970459,-6.137589454650879,1.200000524520874,0.4124867618083954,0.07712173461914062,-0.2617557644844055,-34.6243782043457,60.596317291259766,-76.45425415039062
3.569,3.238685369491577,-6.228517055511475,1.3698909282684326,0.4893030524253845,0.3378084599971771,-0.22999075055122375,-34.49283981323242,60.391700744628906,-76.48348236083984
3.573,3.957728624343872,-6.436692714691162,1.3698909282684326,0.5302309989929199,0.7438811659812927,-0.17669276893138885,-34.229759216308594,60.01169204711914,-77.11195373535156
3.579,4.468596458435059,-6.604190349578857,1.239482045173645,0.5199990272521973,0.85994553565979,-0.15317445993423462,-34.82899475097656,59.95323181152344,-77.1850357055664
3.59,5.054837703704834,-6.771687984466553,0.818345308303833,0.4993823170661926,1.0276280641555786,-0.08888089656829834,-34.419761657714844,59.85091781616211,-77.76966094970703
3.599,5.42572546005249,-7.080362319946289,-0.06580261886119843,0.5348125100135803,1.0482447147369385,-0.04688390716910362,-34.2443733215332,59.80707550048828,-77.97428131103516
3.609,5.660221576690674,-7.430910587310791,-0.7920242547988892,0.5855143666267395,1.0128145217895508,0.023518310859799385,-34.58053207397461,59.93861389160156,-78.82198333740234
3.629,5.474778175354004,-8.048258781433105,-1.4715858697891235,0.5905539989471436,0.9272934198379517,0.1036943718791008,-34.44898986816406,59.54399108886719,-79.36276245117188
3.633,5.582455158233643,-8.971887588500977,-2.4670000076293945,0.5041165351867676,0.864068865776062,0.1368338167667389,-33.77667236328125,59.71937942504883,-79.75737762451172
3.639,5.996413230895996,-9.396614074707031,-2.7625136375427246,0.445931613445282,0.8345946073532104,0.12461650371551514,-34.47822189331055,59.95323181152344,-80.80970764160156
3.649,7.097111225128174,-9.747162818908691,-2.7361927032470703,0.36102133989334106,0.7727445363998413,0.08704829961061478,-34.02513885498047,59.22244644165039,-79.75737762451172
3.659,8.161917686462402,-9.604789733886719,-2.472982168197632,0.3029891550540924,0.6279694437980652,0.0009162978385575116,-34.03975296020508,59.8363037109375,-79.83045959472656
3.669,9.214759826660156,-9.182456970214844,-2.1511476039886475,0.26633724570274353,0.41813725233078003,-0.12140946835279465,-33.586673736572266,59.19321823120117,-79.84507751464844
3.689,9.888339042663574,-8.915657043457031,-1.8412768840789795,0.2477058470249176,0.16814064979553223,-0.2431243658065796,-33.9666748046875,59.74861526489258,-80.04969024658203
3.693,9.975677490234375,-9.20159912109375,-1.9310078620910645,0.19425514340400696,-0.29428431391716003,-0.4086688458919525,-34.200523376464844,59.95323181152344,-80.8681640625
3.699,9.827322959899902,-9.45045280456543,-2.111665964126587,0.16172656416893005,-0.5960517525672913,-0.451582133769989,-34.77053451538086,59.52937698364258,-80.64893341064453
3.709,8.830711364746094,-10.065407752990723,-2.544766664505005,0.10659598559141159,-1.0407615900039673,-0.44806966185569763,-35.340545654296875,59.71937942504883,-81.17509460449219
3.719,7.501498699188232,-10.207781791687012,-2.5914268493652344,0.07788532227277756,-1.483638882637024,-0.3572034239768982,-36.0859375,59.865535736083984,-79.88892364501953
3.729,5.959324836730957,-10.003194808959961,-2.0997018814086914,0.11682797223329544,-1.8668041229248047,-0.22968532145023346,-36.7436408996582,59.280914306640625,-80.69277954101562
3.75,4.206582069396973,-9.767501831054688,-1.270588755607605,0.1843285858631134,-2.0476202964782715,-0.0555887334048748,-38.04443359375,59.80707550048828,-80.51739501953125
3.754,1.867598056793213,-9.343972206115723,-0.25004997849464417,0.2539672255516052,-1.8295413255691528,0.22449298202991486,-38.55597686767578,59.70476150512695,-80.4443130493164
3.76,1.168893814086914,-9.2315092086792,0.14356935024261475,0.2811506986618042,-1.5841262340545654,0.3269656002521515,-38.658287048339844,59.690147399902344,-80.76585388183594
3.769,1.275374412536621,-9.8871431350708,0.7956134676933289,0.3597996234893799,-1.244943380355835,0.4335615932941437,-39.155216217041016,59.39783477783203,-80.327392578125
3.779,2.108076810836792,-12.17228889465332,1.215553879737854,0.42500948905944824,-1.0056369304656982,0.5531384348869324,-39.27214050292969,59.74861526489258,-80.108154296875
3.789,2.8701906204223633,-15.725629806518555,0.7286145091056824,0.44135013222694397,-0.8509352803230286,0.6887505650520325,-39.038291931152344,59.7778434753418,-80.50277709960938
3.809,3.249452829360962,-19.28973960876465,-0.5718846321105957,0.43707406520843506,-0.13759739696979523,0.9414960145950317,-39.60830307006836,59.61707305908203,-79.84507751464844
3.812,3.634697675704956,-18.044275283813477,-0.39003005623817444,0.32391127943992615,0.016951510682702065,0.877966046333313,-39.43291473388672,59.58784103393555,-80.48816680908203
3.819,4.377668857574463,-12.860225677490234,-1.3148560523986816,0.032070424407720566,0.2119702398777008,0.7267768979072571,-38.7459831237793,59.310142517089844,-81.14586639404297
3.829,6.246463775634766,-6.850651264190674,-1.891526222229004,-0.27030786871910095,0.1794416606426239,0.5532912015914917,-38.4828987121582,59.80707550048828,-80.99971008300781
3.839,6.27876615524292,-2.912065029144287,-0.6999006271362305,-0.3474296033382416,-0.26633724570274353,0.35292738676071167,-38.190589904785156,59.80707550048828,-80.22508239746094
3.849,5.272584438323975,-1.2921241521835327,0.8291130065917969,0.021074850112199783,-0.6985243558883667,0.313373863697052,-38.570594787597656,59.42707061767578,-80.16661834716797
3.869,3.5461630821228027,-1.6546367406845093,1.8185451030731201,0.5016730427742004,-0.8249735236167908,0.4896084666252136,-39.05290985107422,59.865535736083984,-80.21046447753906
3.872,2.641676187515259,-3.834498167037964,3.297309398651123,0.9660834074020386,-1.0323622226715088,0.6533203721046448,-38.67290496826172,59.310142517089844,-80.29815673828125
3.879,2.537588357925415,-5.8372907638549805,4.150351047515869,0.9628763198852539,-1.1424707174301147,0.7287622690200806,-39.389068603515625,59.36860275268555,-80.69277954101562
3.889,2.5076780319213867,-8.536395072937012,4.552344799041748,0.7483099102973938,-1.1456778049468994,0.8468118906021118,-39.05290985107422,59.047061920166016,-80.4443130493164
3.899,2.4466609954833984,-10.423134803771973,4.159922122955322,0.49037206172943115,-0.8520042896270752,0.9505062699317932,-39.53522491455078,59.09090805053711,-80.99971008300781
3.909,1.872383713722229,-11.416156768798828,3.160918712615967,0.4625777006149292,-0.4752531349658966,0.8964447379112244,-39.00905990600586,59.00321578979492,-80.327392578125
3.928,1.2370892763137817,-10.073782920837402,2.2085752487182617,0.8326093554496765,0.44104471802711487,0.35216379165649414,-38.775211334228516,58.76936340332031,-81.55509948730469
3.932,1.4249258041381836,-9.473184585571289,2.3569302558898926,0.8668177723884583,0.530536413192749,0.29107728600502014,-38.08827590942383,58.79859924316406,-81.10202026367188
3.939,1.7419748306274414,-8.769694328308105,2.63449764251709,0.8938485383987427,0.7602217793464661,0.18157969415187836,-38.29289627075195,58.9739875793457,-81.89126586914062
3.949,2.1332013607025146,-8.108078956604004,2.7014968395233154,0.7664831280708313,1.0106765031814575,0.21853703260421753,-38.08827590942383,58.90090560913086,-82.30049896240234
3.959,2.214557409286499,-7.674978256225586,2.5328028202056885,0.6152939796447754,1.0865764617919922,0.34406986832618713,-37.48904037475586,58.50628662109375,-83.06050872802734
3.969,2.2432711124420166,-7.484748840332031,2.221735715866089,0.5001459121704102,1.049924612045288,0.4356996417045593,-36.919029235839844,58.360130310058594,-82.4466552734375
3.988,2.5471596717834473,-7.434499740600586,2.042273998260498,0.5369505286216736,0.7008151412010193,0.5115996599197388,-36.115169525146484,58.22858810424805,-83.1628189086914
3.992,3.156132936477661,-7.636693477630615,2.2013967037200928,0.5624541640281677,0.6487388610839844,0.5170974135398865,-35.82286071777344,57.760887145996094,-83.22128295898438
3.999,3.4025938510894775,-7.87358283996582,2.4023938179016113,0.68325275182724,0.48319438099861145,0.5293146967887878,-35.355159759521484,58.30166244506836,-82.46126556396484
4.009,3.5150563716888428,-8.388039588928223,2.801995277404785,0.8289440870285034,0.4639521539211273,0.4631885588169098,-35.74978256225586,56.927799224853516,-82.82665252685547
4.019,4.205385684967041,-9.142974853515625,3.2554352283477783,0.93095862865448,0.5994114875793457,0.3597996234893799,-35.3843879699707,57.366268157958984,-83.9666748046875
4.029,5.117051124572754,-9.2315092086792,3.4325039386749268,0.9524915814399719,0.764955997467041,0.3032945990562439,-35.311309814453125,56.86933517456055,-84.58053588867188
4.05,6.269195556640625,-8.553144454956055,2.8773691654205322,0.9161451458930969,0.8988881707191467,0.3170390725135803,-34.46360778808594,56.65010070800781,-85.80824279785156
4.053,6.1842498779296875,-8.322237014770508,2.468196392059326,0.9305005073547363,0.90728759765625,0.3171917796134949,-33.995906829833984,56.76702880859375,-86.4659423828125
4.059,6.071787357330322,-8.084151268005371,2.1272192001342773,1.0002918243408203,0.9541714787483215,0.299476683139801,-33.601287841796875,56.620872497558594,-86.62671661376953
4.069,6.306283950805664,-7.609175682067871,1.6331013441085815,1.1290316581726074,0.9657779335975647,0.26022857427597046,-33.29435729980469,55.93394088745117,-86.90441131591797
4.079,6.228517055511475,-7.499105453491211,1.574477195739746,1.2105822563171387,0.8652905821800232,0.25732696056365967,-32.32973098754883,55.64162826538086,-86.90441131591797
4.089,5.608776569366455,-7.4285173416137695,1.361515998840332,1.2420417070388794,0.6432411074638367,0.2499965876340866,-32.57819366455078,54.54545593261719,-87.72288513183594
4.108,4.073780536651611,-7.558926582336426,1.0121638774871826,1.2777773141860962,0.15531249344348907,0.03527746722102165,-31.71587371826172,54.42852783203125,-89.46214294433594
4.112,3.9840495586395264,-7.6283183097839355,1.0049854516983032,1.2321151494979858,0.05971207842230797,-0.016951510682702065,-32.373573303222656,53.7562141418457,-88.8482894897461
4.119,3.61435866355896,-7.806583404541016,0.8566304445266724,1.1288789510726929,-0.08460482954978943,-0.06062837690114975,-32.35895919799805,53.78544235229492,-89.12598419189453
4.129,3.3439693450927734,-8.127222061157227,0.9966105818748474,0.9767735004425049,-0.26251932978630066,-0.12186761200428009,-32.69511795043945,53.08388900756836,-88.77521514892578
4.139,3.284149169921875,-8.405985832214355,1.32921302318573,0.855516791343689,-0.37568211555480957,-0.19776761531829834,-33.01666259765625,52.937740325927734,-90.35369873046875
4.149,3.583251953125,-8.752944946289062,1.8352948427200317,0.7600690722465515,-0.38667771220207214,-0.23640485107898712,-33.425899505615234,52.528499603271484,-90.4998550415039
4.168,3.6191442012786865,-9.165706634521484,2.3784656524658203,0.5810855627059937,-0.20097467303276062,-0.19394971430301666,-33.41128158569336,52.718502044677734,-90.8798599243164
4.172,3.5988051891326904,-9.287740707397461,2.496910333633423,0.5393940210342407,-0.1235474944114685,-0.18524488806724548,-33.22127914428711,52.41157531738281,-91.53756713867188
4.179,3.542573928833008,-9.523433685302734,2.664407968521118,0.4778493344783783,-0.012064589187502861,-0.1814269870519638,-33.425899505615234,52.1192626953125,-90.99678039550781
4.189,3.460021495819092,-9.716055870056152,2.7565317153930664,0.3937026560306549,0.15683965384960175,-0.19685132801532745,-33.352821350097656,52.20695877075195,-91.27448272705078
4.199,3.2757742404937744,-9.629914283752441,2.568694829940796,0.34162637591362,0.35643988847732544,-0.21792617440223694,-33.732826232910156,52.47003936767578,-91.0406265258789
4.209,3.0544381141662598,-9.422935485839844,2.3820548057556152,0.3448334336280823,0.6352998614311218,-0.2690861225128174,-33.84975051879883,51.62232971191406,-91.37679290771484
4.228,3.2817561626434326,-8.36411190032959,2.258824348449707,0.37048977613449097,0.8101600408554077,-0.3152064383029938,-33.87898254394531,51.169246673583984,-90.99678039550781
4.231,3.25663161277771,-8.123632431030273,2.2444677352905273,0.37262779474258423,0.8055785298347473,-0.32039880752563477,-33.46974563598633,51.388484954833984,-90.64601135253906
4.239,3.2949166297912598,-7.971688270568848,2.2743778228759766,0.3666718602180481,0.7739662528038025,-0.3228422701358795,-33.71821212768555,51.11078643798828,-91.66909790039062
4.249,3.221935510635376,-7.7802629470825195,2.252842426300049,0.35292738676071167,0.7028005123138428,-0.30741792917251587,-33.572052001953125,50.90616989135742,-91.88833618164062
4.259,3.2231318950653076,-7.822136878967285,2.2408783435821533,0.3530800938606262,0.6154467463493347,-0.27382034063339233,-33.33820343017578,50.789241790771484,-90.9675521850586
4.269,3.06999135017395,-8.006383895874023,2.306680917739868,0.36942076683044434,0.5661193132400513,-0.24327708780765533,-33.22127914428711,50.336158752441406,-91.2598648071289
4.288,3.0340988636016846,-8.102097511291504,2.379662036895752,0.3891211450099945,0.5015203952789307,-0.144622340798378,-32.987430572509766,50.760013580322266,-91.71295166015625
4.292,3.0077779293060303,-8.159524917602539,2.4011974334716797,0.3920227587223053,0.5009095072746277,-0.13072516024112701,-33.30897521972656,50.86231994628906,-92.13680267333984
4.299,3.0233314037323,-8.281558990478516,2.462214469909668,0.398589551448822,0.4934263825416565,-0.08857545256614685,-33.48435974121094,50.70154571533203,-92.2391128540039
4.309,2.904886484146118,-8.525627136230469,2.630908489227295,0.3839287757873535,0.48090362548828125,-0.03649919852614403,-33.031280517578125,50.19000244140625,-92.58988189697266
4.319,2.943171739578247,-8.822336196899414,2.9587249755859375,0.34345895051956177,0.4917464852333069,-0.0022907445672899485,-32.70973205566406,50.39461898803711,-91.93218231201172
4.329,2.878565549850464,-8.999405860900879,3.095116138458252,0.27748554944992065,0.5085453391075134,0.029168814420700073,-33.19205093383789,50.30692672729492,-92.7068099975586
4.348,2.8426733016967773,-8.788837432861328,3.2482566833496094,0.15012012422084808,0.6120869517326355,0.06643159687519073,-31.774335861206055,50.160770416259766,-92.75065612792969
4.352,2.8390841484069824,-8.651249885559082,3.2961132526397705,0.1371392458677292,0.6275113224983215,0.0708603635430336,-32.02280044555664,50.263084411621094,-92.76527404785156
4.359,2.8618156909942627,-8.528019905090332,3.3607192039489746,0.09147706627845764,0.6759223937988281,0.08460482954978943,-31.613563537597656,50.0584602355957,-91.91757202148438
4.369,2.902493953704834,-8.440681457519531,3.451646566390991,0.020922133699059486,0.7273877859115601,0.08964447677135468,-31.64279556274414,49.780765533447266,-92.31218719482422
4.379,3.018545627593994,-8.537590980529785,3.592823028564453,-0.027641652151942253,0.7470881938934326,0.0858265683054924,-31.350481033325195,50.350772857666016,-91.81525421142578
4.389,3.135793924331665,-8.63330364227295,3.7220354080200195,-0.07467827200889587,0.7620543241500854,0.08429940044879913,-31.365097045898438,49.82461166381836,-91.96141052246094
4.402,3.249452829360962,-8.782855033874512,3.889533042907715,-0.12660181522369385,0.7910704612731934,0.07971791177988052,-30.795087814331055,50.02922821044922,-91.3475570678711
4.409,3.387040376663208,-8.96112060546875,3.9864423274993896,-0.1488984078168869,0.8077166080474854,0.07131851464509964,-30.327388763427734,50.21923065185547,-91.65448760986328
4.419,3.586841106414795,-9.339186668395996,4.060619831085205,-0.16065755486488342,0.8188648223876953,0.06139195337891579,-30.37123680114746,50.11692810058594,-91.28910064697266
4.429,3.87876558303833,-9.82971477508545,4.033102512359619,-0.13316862285137177,0.8188648223876953,0.062460970133543015,-29.435836791992188,50.42385482788086,-91.18678283691406
4.439,4.003191947937012,-9.984052658081055,3.9349966049194336,-0.06398813426494598,0.7988590598106384,0.06704245507717133,-29.231218338012695,50.760013580322266,-91.47909545898438
4.449,4.0833516120910645,-9.835697174072266,3.8632121086120605,0.01970040239393711,0.765566885471344,0.07208210229873657,-29.201988220214844,50.2776985168457,-91.74217987060547
4.466,4.442275047302246,-9.123832702636719,3.6957144737243652,0.07712173461914062,0.6728680729866028,0.1111774668097496,-29.041215896606445,50.760013580322266,-90.90909576416016
4.469,4.49252462387085,-9.053244590759277,3.6263227462768555,0.08338310569524765,0.6223189830780029,0.12812897562980652,-28.763521194458008,50.263084411621094,-90.44139099121094
4.479,4.809573173522949,-8.871389389038086,3.2099714279174805,0.11530081182718277,0.5444336533546448,0.1537853181362152,-28.412744522094727,51.213096618652344,-91.33293914794922
4.489,5.2701921463012695,-8.940781593322754,2.926422119140625,0.1843285858631134,0.526107668876648,0.19593501091003418,-28.588130950927734,50.3215446472168,-90.73370361328125
4.499,5.903093338012695,-9.006584167480469,2.8929224014282227,0.2678644061088562,0.530536413192749,0.2690861225128174,-28.80736541748047,50.13154220581055,-91.28910064697266
4.519,6.535995006561279,-9.162117958068848,3.0687947273254395,0.31581732630729675,0.5091561675071716,0.3462078869342804,-28.310436248779297,49.91230773925781,-90.47062683105469
4.523,7.485945224761963,-9.751948356628418,3.7639100551605225,0.24174991250038147,0.34376442432403564,0.41004326939582825,-27.55042266845703,50.146156311035156,-91.17217254638672
4.529,8.183452606201172,-10.159924507141113,4.098905086517334,0.14126259088516235,0.22311851382255554,0.4332561492919922,-27.681964874267578,50.02922821044922,-91.42063903808594
4.539,9.262616157531738,-10.837093353271484,4.455435752868652,-0.02382374368607998,0.016798794269561768,0.4764748811721802,-27.871967315673828,50.10231018066406,-90.95294189453125
4.549,9.818947792053223,-11.320443153381348,4.60857629776001,-0.17531833052635193,-0.20906862616539001,0.5057964324951172,-27.50657844543457,50.146156311035156,-90.71908569335938
4.559,9.312865257263184,-11.314461708068848,4.164707660675049,-0.25045475363731384,-0.3488040566444397,0.4288273751735687,-27.696578979492188,50.48231506347656,-89.71060943603516
4.578,7.648657321929932,-10.85623550415039,3.1082763671875,-0.09346237778663635,-0.19685132801532745,0.0659734457731247,-27.491960525512695,49.88307571411133,-90.33908081054688
4.582,5.8337016105651855,-9.658628463745117,1.1964112520217896,0.27382034063339233,0.14034628868103027,-0.3494149148464203,-27.798887252807617,50.87693786621094,-90.30985260009766
4.589,4.996213436126709,-9.458827018737793,-1.5481561422348022,0.5412266254425049,0.2232712358236313,-0.5148066878318787,-28.28120231628418,50.40924072265625,-89.15521240234375
4.6,5.0285162925720215,-11.425727844238281,-3.8979079723358154,0.43737950921058655,-0.7142542004585266,-0.5410738587379456,-28.675825119018555,49.95615005493164,-90.90909576416016
4.609,2.9766714572906494,-12.199806213378906,-2.334198474884033,-0.27382034063339233,-1.9002490043640137,-0.35781431198120117,-28.924291610717773,49.91230773925781,-90.26599884033203
4.619,1.6163517236709595,-11.480762481689453,0.004785645287483931,-0.9941831827163696,-1.563051462173462,-0.2542726695537567,-30.108156204223633,49.98538589477539,-89.3598403930664
4.639,2.0865414142608643,-10.249655723571777,2.4466609954833984,-1.3849842548370361,-0.7774786949157715,-0.3149010241031647,-30.9266300201416,50.64308547973633,-88.8482894897461
4.643,2.550748825073242,-9.649056434631348,3.142972707748413,-1.8568775653839111,-0.17363843321800232,-0.4720461070537567,-31.4674072265625,51.783103942871094,-88.10289764404297
4.649,2.5232315063476562,-9.415757179260254,2.524427890777588,-2.109928607940674,-0.052381694316864014,-0.5864306092262268,-31.540485382080078,52.19234085083008,-86.65595245361328
4.659,2.7326035499572754,-8.941977500915527,1.1772687435150146,-2.3067798614501953,-0.2028072625398636,-0.7162394523620605,-31.949722290039062,52.42618942260742,-85.64746856689453
4.669,2.8618156909942627,-8.921639442443848,0.22133608162403107,-2.381610870361328,-0.7206682562828064,-0.7597636580467224,-32.63665771484375,53.66851806640625,-83.63052368164062
4.679,2.909672260284424,-8.666803359985352,0.3960121273994446,-2.2939515113830566,-0.9598219990730286,-0.7612908482551575,-33.49897384643555,54.41391372680664,-82.76819610595703
4.698,3.2757742404937744,-8.36411190032959,1.6067804098129272,-2.1736111640930176,-0.9906706809997559,-0.7704537510871887,-34.47822189331055,54.38468551635742,-80.80970764160156
4.703,3.613162040710449,-8.37966537475586,2.77447772026062,-2.0424277782440186,-0.9957103133201599,-0.827111542224884,-36.30517578125,54.73545837402344,-79.7719955444336
4.709,3.7052857875823975,-8.525627136230469,3.214756965637207,-1.9879082441329956,-0.9642508029937744,-0.8452848196029663,-36.23209762573242,55.04238510131836,-79.53814697265625
4.719,3.8177483081817627,-9.044869422912598,3.5605199337005615,-1.8484783172607422,-0.8657487034797668,-0.8552113175392151,-36.87518310546875,55.72931671142578,-78.6319808959961
4.729,3.7986059188842773,-9.866804122924805,3.662214994430542,-1.6493360996246338,-0.7220426797866821,-0.8295549750328064,-37.45980453491211,56.007015228271484,-76.95117950439453
4.739,3.7387852668762207,-10.89452075958252,3.6981072425842285,-1.4680618047714233,-0.5948300361633301,-0.792750358581543,-38.38058853149414,56.313941955566406,-76.01578521728516
4.759,3.6634113788604736,-11.430513381958008,3.748356580734253,-1.2762501239776611,-0.43936482071876526,-0.7400632500648499,-39.374454498291016,56.78164291381836,-76.17655181884766
4.763,3.5365920066833496,-11.729616165161133,3.7435710430145264,-0.9865473508834839,-0.2701551616191864,-0.6727153658866882,-39.47676086425781,56.927799224853516,-75.41654968261719
4.769,3.5533413887023926,-11.760723114013672,3.757927656173706,-0.8930849432945251,-0.2483167201280594,-0.6563746333122253,-39.4621467590332,56.34317398071289,-74.27652740478516
4.779,3.5569305419921875,-11.35394287109375,3.803391456604004,-0.6879869699478149,-0.28130343556404114,-0.5723807215690613,-40.93832015991211,56.79625701904297,-73.45805358886719
4.789,3.0101706981658936,-10.189834594726562,3.5533413887023926,-0.5920811891555786,-0.33169981837272644,-0.4761694371700287,-40.6021614074707,56.25548553466797,-73.06343078613281
4.799,2.4059829711914062,-9.452845573425293,3.018545627593994,-0.5755877494812012,-0.29245173931121826,-0.3943135142326355,-41.34756088256836,56.56240463256836,-73.7503662109375
4.819,2.4921247959136963,-8.733802795410156,2.2504496574401855,-0.6969972848892212,-0.3517056703567505,-0.3877466917037964,-41.683719635009766,56.942413330078125,-72.33264923095703
4.822,3.0867412090301514,-7.645068168640137,0.8207381367683411,-0.826195240020752,-0.7498371005058289,-0.30283644795417786,-41.639869689941406,56.913185119628906,-71.51417541503906
4.829,3.231506824493408,-6.997809410095215,0.5706881880760193,-0.6925684809684753,-1.0375546216964722,-0.19624045491218567,-42.326805114746094,56.59164047241211,-71.76264190673828
4.839,2.9204399585723877,-6.5072808265686035,0.9655039310455322,-0.34574970602989197,-1.474017858505249,-0.0138971833512187,-42.239112854003906,56.810874938964844,-71.2072525024414
4.849,2.2097716331481934,-6.953542709350586,1.956132411956787,-0.027488935738801956,-1.8909332752227783,0.1359175145626068,-42.56065368652344,57.16164779663086,-70.5349349975586
4.859,1.4045867919921875,-7.745566368103027,2.7397818565368652,0.01664607785642147,-1.9810359477996826,0.0809396430850029,-43.15989685058594,56.56240463256836,-69.26337432861328
4.879,1.55413818359375,-7.93579626083374,2.908475875854492,-0.12797626852989197,-1.8254181146621704,-0.0024434609804302454,-43.90529251098633,56.75241470336914,-69.76030731201172
4.883,1.4931212663650513,-8.093722343444824,2.803191661834717,-0.337503045797348,-1.4773775339126587,-0.1420261561870575,-44.27068328857422,56.86933517456055,-68.88336181640625
4.889,1.6785650253295898,-8.187042236328125,2.5567307472229004,-0.42119157314300537,-1.0603092908859253,-0.17791450023651123,-44.21221923828125,56.708560943603516,-68.50336456298828
4.899,1.903490424156189,-8.218149185180664,2.066202163696289,-0.48670685291290283,-0.5381722450256348,-0.2460259646177292,-44.72376251220703,56.22624588012695,-68.1964340209961
4.909,2.1607186794281006,-8.203792572021484,1.561316728591919,-0.5170974135398865,-0.17379117012023926,-0.3871358335018158,-45.24992752075195,56.48933029174805,-67.8164291381836
4.919,2.5351955890655518,-7.977670669555664,0.995414137840271,-0.5354233980178833,0.058337628841400146,-0.5438227653503418,-45.556854248046875,56.5770263671875,-67.8164291381836
4.939,2.882154941558838,-7.630711555480957,0.45104703307151794,-0.5230533480644226,0.1488984078168869,-0.6954700946807861,-45.52762222290039,56.22624588012695,-65.41946411132812
4.942,2.932404041290283,-7.241877555847168,-0.06699903309345245,-0.43447789549827576,0.1725694239139557,-0.7609853744506836,-45.84916687011719,56.65010070800781,-66.16486358642578
4.949,2.5914268493652344,-7.1988067626953125,-0.19381862878799438,-0.33139437437057495,0.17287485301494598,-0.7693847417831421,-46.15609359741211,56.13855743408203,-65.72639465332031
4.959,2.4394824504852295,-7.069594383239746,-0.03469592705368996,-0.15393804013729095,0.16783522069454193,-0.7260133028030396,-46.550716400146484,56.182403564453125,-65.82870483398438
4.969,2.444268226623535,-6.937989234924316,0.5204389095306396,0.03252857178449631,0.06520986557006836,-0.6099489331245422,-47.00379943847656,55.773162841796875,-65.41946411132812
4.979,2.1260228157043457,-6.859025955200195,1.0959126949310303,0.24068090319633484,-0.12797626852989197,-0.4193589985370636,-47.38380432128906,55.33469772338867,-66.12101745605469
4.999,1.672582983970642,-6.7070817947387695,1.7264214754104614,0.3588833212852478,-0.19715675711631775,-0.28939738869667053,-47.909969329833984,54.75007247924805,-65.78485870361328
5.003,1.4488540887832642,-6.650850296020508,2.159522294998169,0.3888157308101654,-0.060475654900074005,-0.12767083942890167,-47.866119384765625,55.23238754272461,-66.54487609863281
5.009,1.3651052713394165,-6.6759748458862305,2.117647886276245,0.36331209540367126,0.03985895588994026,-0.08475754410028458,-48.099971771240234,54.53084182739258,-65.8140869140625
5.019,1.32921302318573,-6.874579429626465,1.7048860788345337,0.2802344262599945,0.33169981837272644,-0.04092797264456749,-47.734580993652344,55.378543853759766,-66.5302505493164
5.029,1.688136339187622,-7.4835524559021,1.0013961791992188,0.15454889833927155,0.8087855577468872,-0.036651913076639175,-47.76381301879883,54.73545837402344,-67.53873443603516
5.039,2.197807550430298,-8.34855842590332,-0.1459621787071228,-0.07406741380691528,1.2469285726547241,-0.07910704612731934,-47.69073486328125,54.37007141113281,-67.36334228515625
5.058,3.425325632095337,-9.012566566467285,-1.015753149986267,-0.3627012372016907,1.7467690706253052,-0.13576479256153107,-47.20841979980469,54.50160598754883,-67.4364242553711
5.062,4.730610370635986,-9.181260108947754,-2.014756679534912,-0.4050036370754242,1.7692184448242188,-0.12568552792072296,-46.945335388183594,54.29698944091797,-67.99181365966797
5.069,5.454439163208008,-9.113064765930176,-2.449054002761841,-0.4031710624694824,1.71989107131958,-0.09239336103200912,-46.53609848022461,54.16544723510742,-67.45103454589844
5.079,6.327819347381592,-9.010172843933105,-2.74337100982666,-0.3045163154602051,1.5668693780899048,-0.0064140851609408855,-46.56533432006836,54.691612243652344,-67.56796264648438
5.089,7.025327205657959,-8.837889671325684,-2.480160713195801,-0.055436018854379654,1.2484557628631592,0.11911872029304504,-45.64455032348633,53.843902587890625,-67.7287368774414
5.1,7.618746757507324,-8.863015174865723,-1.852044701576233,0.17180584371089935,0.9315694570541382,0.18616119027137756,-46.00994110107422,53.97544479370117,-67.40718841552734
5.118,8.177471160888672,-8.58066177368164,-0.5682953596115112,0.36483925580978394,0.30940327048301697,0.1765400469303131,-45.615318298339844,53.829288482666016,-68.09412384033203
5.122,8.26839828491211,-8.435895919799805,-0.39840495586395264,0.3715587854385376,0.25182920694351196,0.156686931848526,-45.93686294555664,53.522361755371094,-67.99181365966797
5.129,8.207381248474121,-8.318647384643555,-0.44745784997940063,0.3747658133506775,0.14049901068210602,0.08491026610136032,-45.51300811767578,53.59543991088867,-67.65565490722656
5.139,7.920242786407471,-8.439485549926758,-0.751346230506897,0.25793784856796265,0.21884246170520782,-0.08124507963657379,-45.77608871459961,53.46390151977539,-67.83104705810547
5.149,7.7383880615234375,-8.981459617614746,-1.377069354057312,0.052228979766368866,0.3819434940814972,-0.2681698203086853,-44.986846923828125,52.83543014526367,-68.2695083618164
5.159,7.697710037231445,-9.189635276794434,-2.0207386016845703,-0.1537853181362152,0.39385536313056946,-0.4560109078884125,-45.86378479003906,52.703887939453125,-68.03565979003906
5.179,7.680960178375244,-9.1716890335083,-2.3748762607574463,-0.20295996963977814,-0.06765332818031311,-0.4876231551170349,-45.90762710571289,52.923118591308594,-68.07950592041016
5.183,7.136592864990234,-9.34157943725586,-2.366501569747925,-0.16859880089759827,-0.2255619913339615,-0.4170682430267334,-46.112247467041016,53.244667053222656,-66.91026306152344
5.189,6.811169624328613,-9.588040351867676,-2.255235195159912,-0.13041973114013672,-0.41951167583465576,-0.29367345571517944,-46.4191780090332,52.8792724609375,-67.71411895751953
5.2,6.296712398529053,-9.870392799377441,-1.9896320104599,-0.08888089656829834,-0.6475171446800232,-0.11407908797264099,-46.550716400146484,52.98158645629883,-67.56796264648438
5.209,6.037091255187988,-9.763912200927734,-1.9070795774459839,-0.020158551633358,-0.8781187534332275,0.0656680166721344,-46.872257232666016,53.04004669189453,-66.54487609863281
5.219,5.614758491516113,-9.2315092086792,-1.7551352977752686,0.09162978827953339,-1.0763444900512695,0.24129176139831543,-46.521484375,52.86465835571289,-67.20257568359375
5.239,4.932803630828857,-7.948956489562988,-0.882951557636261,0.4225660264492035,-1.2741122245788574,0.48609599471092224,-46.69687271118164,52.76234817504883,-65.9894790649414
5.243,4.652843475341797,-7.990830898284912,-0.12681959569454193,0.525496780872345,-1.3240504264831543,0.5206099152565002,-46.53609848022461,52.893890380859375,-66.16486358642578
5.249,4.408775806427002,-8.666803359985352,1.054038405418396,0.6459900140762329,-1.3194688558578491,0.5942191481590271,-46.667640686035156,52.923118591308594,-66.16486358642578
5.259,4.254438400268555,-10.9962158203125,1.7419748306274414,0.703411340713501,-1.2568551301956177,0.7373143434524536,-46.740718841552734,52.908504486083984,-66.73487091064453
5.269,4.063012599945068,-14.029118537902832,1.734796404838562,0.7225008606910706,-1.1461358070373535,0.9301950335502625,-46.667640686035156,52.484657287597656,-66.26717376708984
5.279,3.3272199630737305,-16.74856185913086,1.2299107313156128,0.7107416987419128,-0.9127854108810425,1.1342240571975708,-46.43379211425781,52.689273834228516,-66.72026062011719
5.298,1.8699908256530762,-13.922637939453125,-0.8757730722427368,0.2681698203086853,-0.10537425428628922,0.8659014701843262,-45.67377853393555,52.47003936767578,-67.0125732421875
5.303,2.7529425621032715,-11.296515464782715,-1.057627558708191,0.06979135423898697,0.10064005106687546,0.6366742849349976,-45.732242584228516,52.77696990966797,-67.30487823486328
5.309,4.323830604553223,-7.786244869232178,-0.6125625967979431,-0.16065755486488342,0.2675589621067047,0.3142901659011841,-45.235313415527344,52.0169563293457,-68.03565979003906
5.319,5.769094944000244,-4.493720531463623,0.15194423496723175,-0.2396118938922882,0.16691893339157104,0.0064140851609408855,-44.85530471801758,52.718502044677734,-67.07102966308594
5.329,5.773880958557129,-3.4947173595428467,1.1186444759368896,-0.01618792861700058,-0.07528913766145706,0.0004581489192787558,-44.75299835205078,52.22157287597656,-66.48640441894531
5.339,4.232903003692627,-3.617947816848755,1.8149559497833252,0.5111414790153503,-0.37461310625076294,0.24144448339939117,-44.69453430175781,52.47003936767578,-67.02719116210938
5.357,1.9094724655151367,-5.676971435546875,3.390629768371582,0.9769262671470642,-0.5919284224510193,0.4323398768901825,-44.75299835205078,52.17772674560547,-67.27565002441406
5.361,1.8233308792114258,-6.1196441650390625,3.538984537124634,0.9292787909507751,-0.5885686278343201,0.4619668424129486,-45.01607894897461,52.13387680053711,-67.37796020507812
5.369,1.5828521251678467,-7.932206630706787,3.713660717010498,0.7790058851242065,-0.5377141237258911,0.5028948187828064,-44.7822265625,51.63694763183594,-67.5533447265625
5.379,1.4584254026412964,-9.250652313232422,3.2518458366394043,0.5910121202468872,-0.3686571717262268,0.5467243790626526,-44.986846923828125,52.13387680053711,-67.97720336914062
5.389,1.4823535680770874,-9.878767967224121,2.6428725719451904,0.5181664228439331,-0.09117163717746735,0.5535966157913208,-44.21221923828125,51.388484954833984,-68.37181854248047
5.408,1.042074203491211,-9.842875480651855,2.1092729568481445,0.56810462474823,0.30863967537879944,0.46792274713516235,-43.802982330322266,51.7392578125,-68.07950592041016
5.412,0.9882357120513916,-9.008976936340332,2.0781664848327637,0.6430883407592773,0.6806565523147583,0.3205515146255493,-43.452205657958984,51.31540298461914,-69.20491027832031
5.419,1.2215359210968018,-8.738588333129883,2.2887346744537354,0.6282749176025391,0.8936958909034729,0.27229318022727966,-43.65682601928711,51.72464370727539,-68.8687515258789
5.429,1.7048860788345337,-8.639286041259766,2.5471596717834473,0.5293146967887878,1.0958921909332275,0.2718350291252136,-43.23297119140625,51.53464126586914,-70.2718505859375
5.439,2.1367905139923096,-8.764909744262695,2.761317014694214,0.3992004096508026,1.2082915306091309,0.2926044464111328,-42.98450469970703,51.12540054321289,-69.20491027832031
5.449,2.977867603302002,-8.895318031311035,3.0101706981658936,0.266184538602829,1.2541064023971558,0.35506540536880493,-42.22449493408203,50.90616989135742,-70.62261962890625
5.459,4.170689582824707,-8.671588897705078,3.014956474304199,0.2350304126739502,1.1314750909805298,0.4824308156967163,-42.18064880371094,51.198482513427734,-70.57878112792969
5.474,5.139782905578613,-8.25284481048584,2.849851608276367,0.3727805018424988,0.6815729141235352,0.6800457239151001,-41.49371337890625,51.183860778808594,-71.64572143554688
5.48,5.321637153625488,-8.225327491760254,2.7553350925445557,0.46441027522087097,0.5180137157440186,0.7286095023155212,-41.27448272705078,51.25694274902344,-71.30956268310547
5.489,5.647061347961426,-8.335397720336914,2.68953275680542,0.6861543655395508,0.27030786871910095,0.7829765677452087,-40.777549743652344,51.4615592956543,-71.52879333496094
5.5,6.222535133361816,-8.219346046447754,2.6500511169433594,0.9454666376113892,0.039248090237379074,0.8130615949630737,-39.944461822509766,50.87693786621094,-72.23033905029297
5.509,6.004787921905518,-7.9657063484191895,2.306680917739868,1.1575895547866821,-0.08032877743244171,0.8190175890922546,-39.65214920043945,51.00847625732422,-72.65419006347656
5.529,5.43290376663208,-7.869993209838867,2.1750757694244385,1.3458887338638306,-0.06734789162874222,0.7874053120613098,-39.66676330566406,50.584625244140625,-72.88804626464844
5.532,4.916053771972656,-7.7144598960876465,1.9633108377456665,1.5167783498764038,-0.0039706239476799965,0.6918048858642578,-39.35983657836914,49.91230773925781,-73.38497924804688
5.539,4.364508152008057,-7.6151580810546875,1.8424733877182007,1.5882495641708374,0.016493361443281174,0.6009386777877808,-39.374454498291016,49.86845779418945,-73.7503662109375
5.549,3.9003007411956787,-7.558926582336426,1.8089739084243774,1.6201673746109009,0.06673702597618103,0.40133848786354065,-38.73136520385742,49.98538589477539,-74.65653228759766
5.559,3.720839262008667,-7.70967435836792,1.987239122390747,1.5589280128479004,0.10018189251422882,0.24984388053417206,-38.585208892822266,49.45922088623047,-75.09500122070312
5.569,3.748356580734253,-7.83410120010376,2.122433662414551,1.4141530990600586,0.12370020896196365,0.13255774974822998,-38.35136032104492,49.32768249511719,-76.00116729736328
5.579,3.8739798069000244,-7.953742504119873,2.2013967037200928,1.2157745361328125,0.15012012422084808,0.041691552847623825,-38.36597442626953,48.88921356201172,-76.80502319335938
5.592,4.034298896789551,-8.031509399414062,2.1188442707061768,0.9418014883995056,0.11423180252313614,-0.050854530185461044,-38.468284606933594,48.17304992675781,-76.92195129394531
5.6,4.035495281219482,-8.158329010009766,2.080559253692627,0.7481572031974792,0.006108652334660292,-0.11743884533643723,-38.760597229003906,48.041507720947266,-78.09120178222656
5.609,3.961317777633667,-8.591429710388184,2.1990039348602295,0.5991060733795166,-0.09941831976175308,-0.1918116807937622,-38.658287048339844,47.82227325439453,-77.57965087890625
5.619,3.6909286975860596,-8.903693199157715,2.1894326210021973,0.5022839307785034,-0.11881328374147415,-0.2756529450416565,-38.848289489746094,47.8807373046875,-77.46273040771484
5.629,3.649054527282715,-9.129814147949219,2.1655044555664062,0.4622722566127777,-0.007177666295319796,-0.3494149148464203,-39.228294372558594,47.41303634643555,-77.69657897949219
5.649,3.4157540798187256,-9.040083885192871,2.0685951709747314,0.4612032473087311,0.182648703455925,-0.38606685400009155,-38.38058853149414,47.19380569458008,-77.75504302978516
5.653,3.166900634765625,-8.784051895141602,2.2815563678741455,0.48288896679878235,0.555429220199585,-0.384234219789505,-38.395206451416016,46.4191780090332,-77.97428131103516
5.659,3.2303104400634766,-8.658428192138672,2.5016961097717285,0.4524984359741211,0.7020369172096252,-0.3663664162158966,-38.32212829589844,46.69687271118164,-77.9450454711914
5.669,3.1310083866119385,-8.520841598510742,2.579462766647339,0.38087448477745056,0.792750358581543,-0.34437528252601624,-38.599822998046875,46.360713958740234,-77.9888916015625
5.679,3.0664021968841553,-8.634500503540039,2.6045873165130615,0.3022255599498749,0.8097019195556641,-0.3510947823524475,-38.13212585449219,46.360713958740234,-79.09967803955078
5.689,2.981456995010376,-8.601000785827637,2.489731788635254,0.25014930963516235,0.8217664957046509,-0.3663664162158966,-37.89827346801758,46.33148193359375,-78.69043731689453
5.709,3.148954391479492,-8.506484031677246,2.4717857837677,0.23228150606155396,0.831845760345459,-0.35674530267715454,-37.53288269042969,45.96609115600586,-78.90967559814453
5.713,3.2027928829193115,-8.021937370300293,2.39401912689209,0.24449880421161652,0.8516988754272461,-0.3026837408542633,-37.69365692138672,46.19994354248047,-78.42736053466797
5.719,3.328416109085083,-7.867600917816162,2.4885356426239014,0.25564709305763245,0.8552113175392151,-0.25213462114334106,-37.88365936279297,46.097633361816406,-79.34814453125
5.729,3.5294132232666016,-7.83410120010376,2.641676187515259,0.2580905556678772,0.7861835360527039,-0.16783522069454193,-37.32826614379883,46.63841247558594,-79.6843032836914
5.739,3.6155548095703125,-7.93459939956665,2.7314069271087646,0.2557998299598694,0.6417139768600464,-0.09712757170200348,-37.26980209350586,46.112247467041016,-78.80736541748047
5.749,3.4851462841033936,-8.299505233764648,2.8247268199920654,0.2744311988353729,0.4781547486782074,-0.06108652427792549,-36.90441131591797,45.65916442871094,-79.15814208984375
5.769,3.3236305713653564,-8.609375,2.8223342895507812,0.3367394804954529,0.35445454716682434,-0.03894266113638878,-36.96287536621094,45.93686294555664,-79.58199310302734
5.772,3.1034910678863525,-8.817551612854004,2.909672260284424,0.4358523488044739,0.3605632185935974,-0.018936822190880775,-36.845951080322266,45.615318298339844,-80.40046691894531
5.779,2.981456995010376,-8.879764556884766,3.0137598514556885,0.4812090992927551,0.4004221558570862,-0.007177666295319796,-37.109031677246094,45.556854248046875,-80.31277465820312
5.789,2.7385854721069336,-8.926424980163574,3.1477580070495605,0.517250120639801,0.4954116940498352,-0.0003054326225537807,-36.31978988647461,45.26454162597656,-80.18123626708984
5.799,2.4873390197753906,-8.902496337890625,3.293720245361328,0.5111414790153503,0.6108652353286743,-0.0064140851609408855,-36.59748840332031,45.22069549560547,-80.327392578125
5.809,2.6249263286590576,-8.799604415893555,3.479163885116577,0.44944408535957336,0.7707592248916626,-0.0073303827084600925,-35.9836311340332,45.22069549560547,-80.13738250732422
5.829,2.9240291118621826,-8.842676162719727,3.5940194129943848,0.3605632185935974,0.8352054357528687,0.01191187184303999,-35.355159759521484,44.986846923828125,-80.57585144042969
5.833,3.260220766067505,-8.921639442443848,3.511467218399048,0.27122417092323303,0.7941247820854187,0.05665775015950203,-35.325927734375,45.1037712097168,-81.16047668457031
5.839,3.284149169921875,-8.973084449768066,3.4540393352508545,0.24098633229732513,0.759305477142334,0.08827002346515656,-35.22361755371094,44.82607650756836,-80.89739990234375
5.849,3.3343982696533203,-9.043672561645508,3.4265217781066895,0.23167064785957336,0.7171558141708374,0.12751811742782593,-35.42823791503906,44.28529739379883,-81.40895080566406
5.859,3.4169507026672363,-9.095118522644043,3.427718162536621,0.2454151064157486,0.6490443348884583,0.1794416606426239,-34.87284469604492,44.66530227661133,-81.43817901611328
5.869,3.3583264350891113,-9.190832138061523,3.3894331455230713,0.2762638032436371,0.6224716901779175,0.21319197118282318,-34.84361267089844,44.66530227661133,-81.81818389892578
5.889,3.359522819519043,-9.142974853515625,3.4325039386749268,0.3032945990562439,0.6294966340065002,0.2393064647912979,-34.09821701049805,44.95761489868164,-81.847412109375
5.893,3.579662799835205,-9.116654396057129,3.5856447219848633,0.2701551616191864,0.6374378800392151,0.26969701051712036,-33.352821350097656,44.31452941894531,-81.35047912597656
5.899,3.820141077041626,-9.129814147949219,3.6598219871520996,0.23411409556865692,0.6230825781822205,0.2767219543457031,-33.19205093383789,44.38760757446289,-81.90587615966797
5.909,4.128815174102783,-9.266205787658691,3.73041033744812,0.13347405195236206,0.5629122853279114,0.27977627515792847,-33.45513153076172,44.46068572998047,-81.78894805908203
5.919,4.510470390319824,-9.535398483276367,3.728017568588257,0.062460970133543015,0.5151121020317078,0.26832255721092224,-33.38205337524414,44.47529983520508,-81.55509948730469
5.929,4.839483737945557,-9.7124662399292,3.864408493041992,-0.0004581489192787558,0.4648684561252594,0.247094988822937,-32.91435241699219,44.82607650756836,-81.49663543701172
5.95,5.243870735168457,-9.90987491607666,3.9840495586395264,-0.07070764899253845,0.42302414774894714,0.2243402600288391,-31.686643600463867,44.84069061279297,-81.7304916381836
5.953,5.752345085144043,-9.876375198364258,3.7734811305999756,-0.14187344908714294,0.437226802110672,0.22388210892677307,-31.394329071044922,44.3437614440918,-81.1312484741211
5.959,5.832504749298096,-9.82133960723877,3.603590726852417,-0.1270599663257599,0.5102251768112183,0.23777928948402405,-31.49663734436035,44.738380432128906,-81.7304916381836
5.969,6.144768238067627,-9.623931884765625,3.253042459487915,-0.05711590126156807,0.5951354503631592,0.2347249537706375,-31.350481033325195,45.24992752075195,-81.71586608886719
5.979,6.5551371574401855,-9.523433685302734,3.2817561626434326,0.004886921960860491,0.6039929986000061,0.2021963894367218,-30.45893096923828,44.91376876831055,-82.03741455078125
5.989,7.286144256591797,-9.590433120727539,3.4887354373931885,-0.005803219974040985,0.5303837656974792,0.20143280923366547,-30.663549423217773,44.986846923828125,-81.70125579833984
6.009,8.293522834777832,-9.997212409973145,3.586841106414795,-0.1699732542037964,0.09437867254018784,0.3471241593360901,-29.830459594726562,45.542240142822266,-81.67202758789062
6.012,9.07119083404541,-10.670792579650879,3.513859748840332,-0.20922134816646576,-0.056352317333221436,0.37720927596092224,-29.78661346435547,44.94300079345703,-81.0435562133789
6.019,8.775676727294922,-11.050054550170898,2.9515466690063477,-0.2379319965839386,-0.2304489016532898,0.3776674270629883,-29.479684829711914,44.89915466308594,-81.61356353759766
6.029,7.623532772064209,-11.25942611694336,0.5276173949241638,-0.20784689486026764,-0.4112650156021118,0.2330450862646103,-29.655071258544922,45.24992752075195,-80.9120101928711
6.039,6.631708145141602,-11.85763168334961,-2.5674986839294434,-0.2557998299598694,-0.806647539138794,-0.03497203439474106,-29.669687271118164,45.717628479003906,-80.80970764160156
6.049,5.592026710510254,-12.324233055114746,-3.449253797531128,-0.6530149579048157,-1.3976596593856812,-0.21532998979091644,-30.137386322021484,45.95147705078125,-80.80970764160156
6.069,5.212764263153076,-12.218948364257812,-2.2612173557281494,-1.2472341060638428,-1.834428310394287,-0.25045475363731384,-30.99970817565918,46.65302658081055,-79.42121887207031
6.073,2.4466609954833984,-11.527421951293945,-0.2584248483181,-1.5838208198547363,-1.9019290208816528,-0.34086281061172485,-31.4674072265625,46.57994842529297,-79.24583435058594
6.079,1.8903299570083618,-10.77248764038086,0.9188438653945923,-1.723861575126648,-1.4480559825897217,-0.530536413192749,-31.67202377319336,47.456886291503906,-79.21660614013672
6.089,1.8125630617141724,-9.33440113067627,2.6213371753692627,-2.0871737003326416,-0.6478225588798523,-0.682641863822937,-32.51972961425781,48.27535629272461,-78.60275268554688
6.099,2.623729705810547,-7.875975608825684,3.0448665618896484,-2.498133420944214,-0.06520986557006836,-0.7925975918769836,-32.91435241699219,48.669979095458984,-77.52119445800781
6.109,2.8223342895507812,-6.999006271362305,2.053041696548462,-2.5723533630371094,0.09712757170200348,-0.9222537875175476,-33.031280517578125,49.51768493652344,-75.40193176269531
6.129,3.383450984954834,-7.109076023101807,2.2193429470062256,-2.0480785369873047,-0.11133018881082535,-1.0778716802597046,-33.805904388427734,50.61385726928711,-73.61882019042969
6.133,3.961317777633667,-7.137789726257324,2.8666014671325684,-1.92514169216156,-0.21334467828273773,-1.1180360317230225,-33.89359664916992,50.42385482788086,-73.28266143798828
6.139,4.4135613441467285,-7.1880388259887695,2.9001009464263916,-1.7684547901153564,-0.3962987959384918,-1.1866058111190796,-33.8643684387207,51.24232864379883,-72.47880554199219
6.149,5.240281105041504,-7.665406703948975,2.6847469806671143,-1.4941763877868652,-0.7742716670036316,-1.2134836912155151,-34.755916595458984,51.344635009765625,-71.82110595703125
6.159,5.337190628051758,-8.9910306930542,2.8103702068328857,-1.1649200916290283,-1.1917980909347534,-1.1172724962234497,-34.88745880126953,51.72464370727539,-71.631103515625
6.169,5.322834014892578,-10.118050575256348,2.937189817428589,-0.7603744864463806,-1.5421292781829834,-0.9367618560791016,-35.3843879699707,52.1192626953125,-70.57878112792969
6.188,5.0285162925720215,-11.431709289550781,3.4755747318267822,-0.23625212907791138,-1.8449656963348389,-0.666454017162323,-37.16749572753906,52.45542526245117,-70.14030456542969
6.192,4.2831525802612305,-12.888938903808594,4.267599105834961,-0.15057827532291412,-1.8475618362426758,-0.6230825781822205,-37.16749572753906,52.76234817504883,-69.73107147216797
6.199,4.310669898986816,-14.023137092590332,4.222135543823242,-0.14034628868103027,-1.8359553813934326,-0.5772676467895508,-37.53288269042969,53.05466079711914,-69.76030731201172
6.209,3.9661033153533936,-15.16211986541748,2.640479564666748,-0.5222897529602051,-2.0448713302612305,-0.5427537560462952,-37.92750549316406,52.908504486083984,-69.87722778320312
6.219,2.8067808151245117,-14.446666717529297,1.4787644147872925,-1.1316279172897339,-2.2763893604278564,-0.49037206172943115,-38.68751907348633,53.4200553894043,-67.7287368774414
6.229,1.6271193027496338,-11.83011531829834,0.9607182741165161,-1.260825753211975,-2.247831344604492,-0.4050036370754242,-38.93598175048828,53.0985107421875,-67.15872192382812
6.249,1.5972089767456055,-9.379863739013672,2.1032910346984863,-0.8477282524108887,-2.229810953140259,-0.21319197118282318,-39.85676574707031,54.063140869140625,-65.49254608154297
6.252,1.368694543838501,-9.122635841369629,2.633301258087158,-0.8008443117141724,-2.2209532260894775,-0.16325373947620392,-40.10523223876953,53.77082824707031,-65.43408966064453
6.259,0.2584248483181,-9.133403778076172,3.345165967941284,-0.7428121566772461,-2.093587875366211,-0.05803219974040985,-40.38292694091797,54.57468795776367,-65.34638977050781
6.269,-0.35772696137428284,-9.367899894714355,3.566502094268799,-0.977078914642334,-1.5509867668151855,-0.144622340798378,-40.36831283569336,54.691612243652344,-64.3379135131836
6.279,-0.5371886491775513,-9.262616157531738,3.115455150604248,-1.1969903707504272,-1.0740537643432617,-0.308181494474411,-40.44139099121094,54.954689025878906,-63.0371208190918
6.289,0.3026920557022095,-8.650053024291992,2.799602508544922,-1.3555099964141846,-0.6038402915000916,-0.38270705938339233,-40.689857482910156,55.13007736206055,-62.788658142089844
6.306,0.3158525824546814,-8.069793701171875,2.27677059173584,-1.3422236442565918,-0.04382958263158798,-0.3150537610054016,-41.01139831542969,55.33469772338867,-61.32709884643555
6.309,0.3278166949748993,-7.904689311981201,2.2372889518737793,-1.3112223148345947,0.023518310859799385,-0.31001412868499756,-41.318328857421875,55.20315933227539,-61.76556396484375
6.319,0.30628129839897156,-7.487142086029053,2.200200319290161,-1.0891727209091187,0.2845104932785034,-0.2952006161212921,-41.449867248535156,55.42238998413086,-61.429405212402344
6.329,0.5419743061065674,-7.027719497680664,2.335394859313965,-0.9450085163116455,0.4642575979232788,-0.2741257846355438,-40.82139587402344,55.94855499267578,-61.16632843017578
6.339,0.696311354637146,-6.56710147857666,2.1930220127105713,-0.8481863737106323,0.5940664410591125,-0.25305092334747314,-41.25986862182617,56.05086135864258,-59.71937942504883
6.349,0.9320043921470642,-6.183053970336914,1.8771692514419556,-0.744186520576477,0.6123924255371094,-0.26603180170059204,-41.78602600097656,55.83163070678711,-59.266300201416016
6.369,1.5397813320159912,-5.894718170166016,1.537388563156128,-0.5369505286216736,0.4583016633987427,-0.2869539260864258,-41.3037109375,56.28471374511719,-60.04092025756836
6.372,1.537388563156128,-6.049055576324463,1.590030550956726,-0.5158756971359253,0.4686863422393799,-0.2857322096824646,-41.186790466308594,56.16778564453125,-60.26015853881836
6.379,1.9405790567398071,-6.198606967926025,1.7024933099746704,-0.5442808866500854,0.5248859524726868,-0.290313720703125,-41.47909927368164,56.620872497558594,-59.997074127197266
6.389,2.3186450004577637,-6.2907304763793945,1.4021941423416138,-0.6018549799919128,0.6003278493881226,-0.28619036078453064,-41.21601867675781,56.82548904418945,-58.93013381958008
6.4,2.7182462215423584,-6.2189459800720215,1.0169496536254883,-0.5772676467895508,0.683863639831543,-0.2805398404598236,-41.5814094543457,56.54779052734375,-58.842445373535156
6.409,3.119044303894043,-6.137589454650879,0.8530412316322327,-0.4550946056842804,0.7058547735214233,-0.2678644061088562,-41.66910171508789,56.24086380004883,-58.7547492980957
6.425,3.2171499729156494,-6.058626651763916,1.054038405418396,-0.13255774974822998,0.7929030656814575,-0.25274547934532166,-41.66910171508789,56.51856231689453,-59.237064361572266
6.43,3.404986619949341,-5.992824077606201,1.1904292106628418,-0.027488935738801956,0.797789990901947,-0.2538144886493683,-41.61064147949219,56.620872497558594,-59.09090805053711
6.439,3.7256245613098145,-5.809772968292236,1.415354609489441,0.14324790239334106,0.7548767328262329,-0.24190261960029602,-41.74217987060547,56.6354866027832,-59.36860275268555
6.449,3.896711587905884,-5.643471717834473,1.3423734903335571,0.26542094349861145,0.7683157920837402,-0.23197607696056366,-41.25986862182617,56.54779052734375,-59.266300201416016
6.459,4.140779495239258,-5.647061347961426,1.1042876243591309,0.3347541391849518,0.9089674949645996,-0.21563541889190674,-41.28909683227539,56.44548416137695,-59.44168472290039
6.469,4.559523582458496,-5.789434432983398,0.7573283314704895,0.3575088679790497,1.1125383377075195,-0.21105393767356873,-41.698333740234375,56.6793327331543,-59.237064361572266
6.488,5.960521221160889,-6.495316982269287,-0.14835500717163086,0.36071592569351196,1.348179578781128,-0.13408491015434265,-41.25986862182617,56.6354866027832,-60.07015609741211
6.492,6.221338748931885,-6.742973804473877,-0.40677982568740845,0.3747658133506775,1.3281736373901367,-0.11041389405727386,-40.967552185058594,56.372406005859375,-60.406314849853516
6.499,6.64486837387085,-7.152146339416504,-0.6831508874893188,0.39736783504486084,1.2391400337219238,-0.07360926270484924,-41.698333740234375,56.59164047241211,-60.435546875
6.509,6.8650078773498535,-7.672585487365723,-0.9786643981933594,0.4343251883983612,1.0447322130203247,-0.009468411095440388,-40.82139587402344,56.12394332885742,-61.400177001953125
6.519,6.7417778968811035,-8.01356315612793,-1.3016955852508545,0.4925100803375244,0.8712465763092041,0.07498370856046677,-41.05524826049805,56.620872497558594,-61.619407653808594
6.538,6.464210033416748,-8.474181175231934,-1.8029918670654297,0.5749768614768982,0.7559457421302795,0.16142113506793976,-40.514469146728516,56.59164047241211,-62.335575103759766
6.542,6.22492790222168,-9.554540634155273,-2.7457637786865234,0.5510004162788391,0.7713701128959656,0.16752979159355164,-41.21601867675781,56.09471130371094,-62.46711730957031
6.549,6.522834300994873,-10.135995864868164,-3.0388846397399902,0.43860122561454773,0.816726803779602,0.10949759185314178,-40.29523468017578,56.65010070800781,-62.42327117919922
6.559,7.416553497314453,-10.723433494567871,-3.3499515056610107,0.20402897894382477,0.9246972799301147,-0.025656340643763542,-40.07600402832031,56.12394332885742,-63.6363639831543
6.569,8.671588897705078,-11.060822486877441,-3.393022298812866,-0.025045473128557205,0.9902125597000122,-0.206777885556221,-39.929847717285156,56.313941955566406,-64.2940673828125
6.579,9.69810962677002,-11.264212608337402,-3.1453652381896973,-0.23594669997692108,0.7904596328735352,-0.48899760842323303,-39.66676330566406,56.48933029174805,-63.5925178527832
6.589,10.557132720947266,-10.852646827697754,-3.1956145763397217,-0.28298333287239075,0.3865249752998352,-0.6502660512924194,-40.38292694091797,56.606258392333984,-64.04560089111328
6.602,10.363314628601074,-10.173084259033203,-3.214756965637207,-0.19517144560813904,-0.2981022298336029,-0.613461434841156,-40.93832015991211,56.76702880859375,-63.18327713012695
6.609,10.072587013244629,-9.66819953918457,-3.1585259437561035,-0.10430524498224258,-0.6801984310150146,-0.5190827250480652,-41.42063903808594,56.72317886352539,-63.02250671386719
6.619,8.927620887756348,-9.499505043029785,-2.849851608276367,0.032681290060281754,-1.2018773555755615,-0.38270705938339233,-41.522945404052734,56.84010314941406,-62.81789016723633
6.629,7.579265117645264,-9.168099403381348,-2.4526431560516357,0.0656680166721344,-1.563051462173462,-0.21334467828273773,-41.53756332397461,56.810874938964844,-62.45249938964844
6.639,5.839683532714844,-8.283951759338379,-1.9094724655151367,0.12079859524965286,-1.7617353200912476,-0.06933320313692093,-41.36217498779297,56.75241470336914,-63.19789123535156
6.658,4.280759334564209,-7.8795647621154785,-1.1856435537338257,0.19043724238872528,-1.8449656963348389,0.10980302840471268,-41.698333740234375,56.927799224853516,-62.65711975097656
6.662,2.383251190185547,-8.073383331298828,0.349352091550827,0.2612975835800171,-1.833817481994629,0.32940909266471863,-42.136802673339844,57.42472839355469,-62.584041595458984
6.669,1.4620145559310913,-9.410971641540527,1.172482967376709,0.2600758671760559,-1.7753270864486694,0.44455718994140625,-42.312191009521484,56.88395690917969,-62.24787902832031
6.679,1.039681315422058,-12.446266174316406,1.5230315923690796,0.16584990918636322,-1.3990341424942017,0.6728680729866028,-41.698333740234375,56.737796783447266,-62.86173629760742
6.689,1.0600204467773438,-16.346567153930664,0.8470591902732849,0.12263119220733643,-1.0461066961288452,0.9100365042686462,-41.85910415649414,57.293190002441406,-62.42327117919922
6.7,1.0097711086273193,-19.18804359436035,-0.9056833982467651,0.19853119552135468,-0.6362161040306091,1.112691044807434,-41.11370849609375,57.67319107055664,-63.12481689453125
6.719,0.4211367666721344,-19.161724090576172,-1.5074782371520996,0.3620903789997101,-0.4034765064716339,1.124755620956421,-40.38292694091797,57.61473083496094,-63.24174499511719
