time,accel_x,accel_y,accel_z,gyro_x,gyro_y,gyro_z,mag_x,mag_y,mag_z
0.0,-0.9930213689804077,-9.610772132873535,1.875972867012024,0.0004581489192787558,0.004581489134579897,-0.02474004216492176,-23.370359420776367,85.15054321289062,-27.62350082397461
0.01,-0.98703932762146,-9.651450157165527,1.836491346359253,0.0004581489192787558,0.0004581489192787558,-0.022602012380957603,-23.29728126525879,85.07746124267578,-28.17889404296875
0.02,-1.0013961791992188,-9.627521514892578,1.8747763633728027,0.0024434609804302454,-0.0012217304902151227,-0.02076941914856434,-24.13037109375,85.4866943359375,-27.52119255065918
0.03,-1.0336993932724,-9.649056434631348,1.8855441808700562,-0.0012217304902151227,-0.0039706239476799965,-0.01924225501716137,-24.261911392211914,85.17977142333984,-28.9096736907959
0.04,-1.0971091985702515,-9.67657470703125,1.8747763633728027,-0.003054326167330146,-0.0036651913542300463,-0.020005837082862854,-24.144987106323242,85.35515594482422,-27.886581420898438
0.059,-1.0325030088424683,-9.644271850585938,1.8376877307891846,-0.0007635815418325365,0.006872233934700489,-0.022143863141536713,-23.867290496826172,85.57439422607422,-27.769657135009766
0.063,-1.0121638774871826,-9.626324653625488,1.832902193069458,-0.0025961773935705423,0.009010262787342072,-0.022449297830462456,-23.911136627197266,85.00438690185547,-27.287343978881836
0.07,-1.0181459188461304,-9.6526460647583,1.836491346359253,-0.0007635815418325365,0.005955935921519995,-0.023060161620378494,-23.633440017700195,85.25285339355469,-27.667348861694336
0.08,-0.9786643981933594,-9.650253295898438,1.820937991142273,0.0007635815418325365,0.0073303827084600925,-0.021074850112199783,-23.28266716003418,85.17977142333984,-27.769657135009766
0.09,-1.0097711086273193,-9.629914283752441,1.769492268562317,0.0009162978385575116,0.005650503095239401,-0.01970040239393711,-23.808828353881836,85.06285095214844,-27.477344512939453
0.109,-0.9798608422279358,-9.65982437133789,1.8197414875030518,0.0018325956771150231,0.0027488935738801956,-0.02122756652534008,-23.531131744384766,85.04823303222656,-27.871967315673828
0.113,-1.0432707071304321,-9.635896682739258,1.8269200325012207,0.004123340360820293,-0.004886921960860491,-0.02122756652534008,-23.984214782714844,85.39900970458984,-27.667348861694336
0.12,-1.0683952569961548,-9.643074989318848,1.8113667964935303,0.0027488935738801956,-0.0050396379083395,-0.02168571576476097,-23.881906509399414,85.38439178466797,-27.55042266845703
0.13,-1.109073281288147,-9.620343208312988,1.8340984582901,0.0004581489192787558,-0.007788531482219696,-0.023518310859799385,-24.13037109375,85.325927734375,-27.667348861694336
0.14,-1.073180913925171,-9.619146347045898,1.84965181350708,0.0006108652451075613,-0.0044287727214396,-0.021838432177901268,-23.85267448425293,85.04823303222656,-28.07658576965332
0.15,-0.9655039310455322,-9.628718376159668,1.875972867012024,0.0,-0.0007635815418325365,-0.020616700872778893,-24.48114585876465,85.04823303222656,-27.798887252807617
0.16,-0.9463613033294678,-9.66939640045166,1.868794322013855,0.0,-0.007635815534740686,-0.01863138936460018,-24.364221572875977,84.62438201904297,-28.13504981994629
0.179,-0.9116654396057129,-9.634699821472168,1.8592231273651123,0.003359758760780096,-0.011759155429899693,-0.011453723534941673,-24.159603118896484,85.36978149414062,-27.930429458618164
0.183,-0.9571290016174316,-9.65384292602539,1.8065810203552246,0.0027488935738801956,-0.016340645030140877,-0.010690141469240189,-24.071908950805664,84.79976654052734,-27.389652252197266
0.19,-1.0301101207733154,-9.664609909057617,1.798206090927124,0.003817907767370343,-0.01924225501716137,-0.01038470957428217,-24.11575698852539,85.31130981445312,-27.389652252197266
0.2,-1.0851449966430664,-9.6526460647583,1.7838492393493652,0.002138028386980295,-0.014049900695681572,-0.01038470957428217,-23.9695987701416,85.25285339355469,-27.62350082397461
0.21,-1.0707881450653076,-9.66939640045166,1.7838492393493652,0.003359758760780096,-0.0050396379083395,-0.012828170321881771,-23.85267448425293,85.06285095214844,-27.681964874267578
0.229,-1.101894736289978,-9.670592308044434,1.794616937637329,0.00015271631127689034,0.0006108652451075613,-0.01618792861700058,-23.94036865234375,85.13592529296875,-27.813507080078125
0.232,-1.0660024881362915,-9.637092590332031,1.8544374704360962,0.0024434609804302454,0.011301006190478802,-0.01817324012517929,-24.144987106323242,84.84361267089844,-27.857351303100586
0.24,-1.026520848274231,-9.641878128051758,1.8448662757873535,0.0010690141934901476,0.016493361443281174,-0.01878410577774048,-24.144987106323242,84.6097640991211,-27.769657135009766
0.25,-0.9655039310455322,-9.616753578186035,1.7970097064971924,-0.0013744467869400978,0.017562376335263252,-0.0177150908857584,-24.101139068603516,84.9459228515625,-27.915815353393555
0.26,-0.9427720904350281,-9.625128746032715,1.8125630617141724,-0.0009162978385575116,0.015577062964439392,-0.014508049935102463,-23.85267448425293,84.96054077148438,-28.16427993774414
0.27,-0.9559326767921448,-9.671788215637207,1.8029918670654297,-0.0004581489192787558,0.009773843921720982,-0.010842857882380486,-23.984214782714844,84.71206665039062,-28.091201782226562
0.28,-0.9738787412643433,-9.626324653625488,1.7958134412765503,0.0019853119738399982,0.0022907445672899485,-0.007635815534740686,-23.83806037902832,84.97515106201172,-27.594270706176758
0.299,-0.9583254456520081,-9.638289451599121,1.856830358505249,0.0013744467869400978,-0.0010690141934901476,-0.003359758760780096,-24.028060913085938,84.77053833007812,-28.13504981994629
0.303,-0.989432156085968,-9.613164901733398,1.8592231273651123,0.0,-0.0009162978385575116,0.00015271631127689034,-23.56036376953125,84.53668212890625,-27.740427017211914
0.31,-0.9607182741165161,-9.631111145019531,1.8460626602172852,0.0004581489192787558,-0.0012217304902151227,0.0,-23.896520614624023,84.93130493164062,-27.886581420898438
0.32,-0.9906285405158997,-9.66221809387207,1.8640087842941284,-0.003817907767370343,-0.001527163083665073,0.0036651913542300463,-23.867290496826172,85.23823547363281,-27.491960525512695
0.33,-0.9906285405158997,-9.635896682739258,1.852044701576233,-0.0039706239476799965,-0.0012217304902151227,0.005497787147760391,-23.706518173217773,84.9897689819336,-27.228879928588867
0.349,-0.9236294627189636,-9.623931884765625,1.8424733877182007,-0.005650503095239401,-0.005955935921519995,0.007788531482219696,-24.071908950805664,84.96054077148438,-27.272727966308594
0.352,-0.9320043921470642,-9.663414001464844,1.8460626602172852,-0.005497787147760391,-0.017409659922122955,0.010690141469240189,-23.984214782714844,85.26746368408203,-27.769657135009766
0.36,-0.9571290016174316,-9.608378410339355,1.8532410860061646,-0.004581489134579897,-0.01924225501716137,0.013744467869400978,-23.925752639770508,85.31130981445312,-27.798887252807617
0.37,-0.9942178130149841,-9.571290016174316,1.7970097064971924,-0.0027488935738801956,-0.01878410577774048,0.014660765416920185,-23.998830795288086,85.03361511230469,-28.120431900024414
0.38,-1.039681315422058,-9.710074424743652,1.7132608890533447,-0.0019853119738399982,-0.02932153083384037,0.01542434748262167,-24.086524963378906,85.07746124267578,-28.208127975463867
0.39,-1.1832507848739624,-9.67537784576416,1.714457392692566,-0.002138028386980295,-0.02672535367310047,0.015271631069481373,-23.85267448425293,85.35515594482422,-27.360422134399414
0.41,-1.239482045173645,-9.65503978729248,1.7180465459823608,0.0,-0.005345070734620094,0.005650503095239401,-23.94036865234375,84.93130493164062,-27.55042266845703
0.414,-1.038485050201416,-9.67537784576416,1.7443677186965942,0.004886921960860491,0.009010262787342072,0.0,-24.159603118896484,85.25285339355469,-27.462730407714844
0.42,-1.00259268283844,-9.69212818145752,1.8005989789962769,0.0027488935738801956,0.0074830991216003895,-0.0036651913542300463,-23.83806037902832,85.09207916259766,-28.032737731933594
0.43,-1.0241280794143677,-9.617950439453125,1.7802599668502808,0.004886921960860491,0.006108652334660292,-0.0036651913542300463,-23.750364303588867,84.69745635986328,-27.50657844543457
0.44,-1.0013961791992188,-9.6526460647583,1.8388842344284058,0.0036651913542300463,0.005650503095239401,-0.0012217304902151227,-23.516515731811523,85.25285339355469,-27.813507080078125
0.45,-0.9798608422279358,-9.643074989318848,1.8077774047851562,0.003054326167330146,0.003054326167330146,0.0009162978385575116,-23.648056030273438,85.45746612548828,-27.126571655273438
0.46,-1.0360921621322632,-9.68973445892334,1.8664016723632812,0.003512475173920393,0.007177666295319796,0.0050396379083395,-23.77959632873535,85.22361755371094,-27.784273147583008
0.476,-0.9332008361816406,-9.603592872619629,1.7132608890533447,0.0029016099870204926,0.02382374368607998,0.005650503095239401,-23.77959632873535,85.06285095214844,-27.375036239624023
0.481,-0.7728817462921143,-9.632307052612305,1.6821541786193848,0.0029016099870204926,0.020158551633358,0.011301006190478802,-24.013446807861328,85.31130981445312,-27.857351303100586
0.49,-0.8554341197013855,-9.694520950317383,1.750349760055542,0.005955935921519995,-0.010537425056099892,0.013744467869400978,-23.881906509399414,85.25285339355469,-27.06810760498047
0.5,-1.1521440744400024,-9.615557670593262,1.7718851566314697,0.005955935921519995,-0.017867807298898697,0.015271631069481373,-23.69190216064453,84.84361267089844,-27.50657844543457
0.51,-1.172482967376709,-9.616753578186035,1.8352948427200317,0.008399397134780884,0.0004581489192787558,0.013744467869400978,-23.794212341308594,85.57439422607422,-27.433500289916992
0.53,-1.0097711086273193,-9.594021797180176,1.8472589254379272,0.006108652334660292,-0.006566801108419895,0.012064589187502861,-23.57497787475586,85.01899719238281,-27.214263916015625
0.533,-0.9930213689804077,-9.643074989318848,1.8628122806549072,0.006566801108419895,-0.016035212203860283,0.012828170321881771,-23.66267204284668,84.97515106201172,-27.185035705566406
0.54,-1.0372885465621948,-9.637092590332031,1.8484554290771484,0.005192354787141085,-0.015577062964439392,0.014355332590639591,-23.472667694091797,85.16515350341797,-27.228879928588867
0.55,-1.039681315422058,-9.647860527038574,1.8185451030731201,0.005192354787141085,-0.01237002108246088,0.01618792861700058,-23.472667694091797,84.82899475097656,-26.454252243041992
0.56,-0.9966105818748474,-9.644271850585938,1.7886348962783813,0.004581489134579897,-0.012217304669320583,0.016493361443281174,-23.677288055419922,85.22361755371094,-27.15580177307129
0.57,-0.9631110429763794,-9.611968040466309,1.781456470489502,0.007788531482219696,-0.024434609338641167,0.01924225501716137,-23.50189971923828,85.07746124267578,-27.404266357421875
0.58,-0.8805586695671082,-9.650253295898438,1.8484554290771484,0.00809396430850029,-0.03741549327969551,0.022143863141536713,-23.867290496826172,85.19438171386719,-27.652734756469727
0.593,-0.9104689955711365,-9.635896682739258,1.8448662757873535,0.008704829961061478,-0.06230825185775757,0.027183502912521362,-23.56036376953125,85.13592529296875,-26.79041290283203
0.6,-0.9595218300819397,-9.578468322753906,1.8245272636413574,0.01038470957428217,-0.078343465924263,0.0277943667024374,-23.341127395629883,85.09207916259766,-27.214263916015625
0.61,-1.0695916414260864,-9.56052303314209,1.8281164169311523,0.012217304669320583,-0.0936150997877121,0.03084869496524334,-23.677288055419922,85.01899719238281,-27.813507080078125
0.62,-1.4201401472091675,-9.651450157165527,1.7001004219055176,0.0039706239476799965,-0.07666358351707458,0.023365594446659088,-23.57497787475586,84.97515106201172,-27.857351303100586
0.63,-1.5409777164459229,-9.65503978729248,1.6103696823120117,0.009010262787342072,-0.03329215571284294,0.01114829070866108,-23.721134185791016,84.55130004882812,-27.769657135009766
0.649,-0.9463613033294678,-9.68494987487793,1.6905291080474854,0.014355332590639591,0.005650503095239401,0.010995574295520782,-23.341127395629883,85.01899719238281,-27.667348861694336
0.653,-0.8350950479507446,-9.686145782470703,1.810170292854309,0.01664607785642147,-0.019394971430301666,0.006872233934700489,-22.82958221435547,85.31130981445312,-27.50657844543457
0.66,-1.026520848274231,-9.637092590332031,1.805384635925293,0.019394971430301666,-0.033139437437057495,0.009010262787342072,-22.990352630615234,85.47208404541016,-27.477344512939453
0.67,-1.1868400573730469,-9.627521514892578,1.7682960033416748,0.018478674814105034,-0.026572639122605324,0.0074830991216003895,-23.151124954223633,84.85823059082031,-28.06197166442871
0.68,-1.0959126949310303,-9.615557670593262,1.8376877307891846,0.020158551633358,-0.02229658141732216,0.0013744467869400978,-23.063430786132812,84.96054077148438,-28.06197166442871
0.69,-1.093519926071167,-9.584450721740723,1.7898313999176025,0.02275473065674305,-0.033139437437057495,-0.0018325956771150231,-23.238819122314453,85.22361755371094,-27.988893508911133
0.71,-1.1365907192230225,-9.577272415161133,1.8221343755722046,0.022907447069883347,-0.03878994286060333,-0.0010690141934901476,-23.00497055053711,85.2820816040039,-27.594270706176758
0.714,-1.007378339767456,-9.69810962677002,1.9154545068740845,0.018325956538319588,-0.035582900047302246,-0.0006108652451075613,-23.66267204284668,84.71206665039062,-28.120431900024414
0.72,-0.9320043921470642,-9.702895164489746,1.9094724655151367,0.018020525574684143,-0.03420845419168472,0.0032070425804704428,-23.69190216064453,85.35515594482422,-27.901199340820312
0.73,-0.8530412316322327,-9.638289451599121,1.8005989789962769,0.02122756652534008,-0.04306599870324135,0.011301006190478802,-22.814966201782227,84.91669464111328,-27.60888671875
0.74,-0.9224331378936768,-9.57487964630127,1.7515461444854736,0.020922133699059486,-0.0630718320608139,0.019089538604021072,-22.814966201782227,85.01899719238281,-27.784273147583008
0.75,-1.0253244638442993,-9.525826454162598,1.8005989789962769,0.023060161620378494,-0.08475754410028458,0.029016099870204926,-22.785736083984375,84.74130249023438,-28.04735565185547
0.769,-1.0432707071304321,-9.607182502746582,1.8125630617141724,0.01924225501716137,-0.09285151958465576,0.039706241339445114,-22.94650650024414,84.93130493164062,-27.784273147583008
0.773,-1.0839486122131348,-9.707681655883789,1.8448662757873535,0.01542434748262167,-0.11652254313230515,0.043218713253736496,-22.93189239501953,84.75592041015625,-27.842735290527344
0.78,-0.7884350419044495,-9.997212409973145,1.9489539861679077,0.010690141469240189,-0.20662516355514526,0.0,-22.94650650024414,84.79976654052734,-28.310436248779297
0.79,-0.2512463629245758,-9.707681655883789,1.9776678085327148,0.0012217304902151227,-0.3220787048339844,0.025045473128557205,-22.771120071411133,85.29669952392578,-27.565038681030273
0.8,-0.7549355626106262,-9.328418731689453,1.971685767173767,-0.01114829070866108,-0.34697145223617554,0.06780604273080826,-22.82958221435547,85.16515350341797,-27.652734756469727
0.81,-1.317248821258545,-9.603592872619629,2.0889341831207275,-0.028405234217643738,-0.2834414541721344,0.1189659982919693,-22.639577865600586,84.44898986816406,-28.06197166442871
0.83,-1.3543375730514526,-9.77826976776123,2.169093608856201,-0.040164388716220856,-0.19104810059070587,0.15195272862911224,-22.47880744934082,84.87284088134766,-28.003507614135742
0.833,-0.802791953086853,-9.844072341918945,2.0757734775543213,-0.06414084881544113,-0.16371189057826996,0.13576479256153107,-22.20111083984375,84.79976654052734,-27.886581420898438
0.84,-0.8865407705307007,-9.631111145019531,1.8484554290771484,-0.06551529467105865,-0.16325373947620392,0.15302173793315887,-22.493423461914062,84.9020767211914,-28.675825119018555
0.85,-1.0444670915603638,-9.633503913879395,1.9310078620910645,-0.07376197725534439,-0.16783522069454193,0.17348572611808777,-21.66033363342285,84.53668212890625,-27.57965660095215
0.86,-1.0408778190612793,-9.65982437133789,1.8388842344284058,-0.09544768929481506,-0.18020524084568024,0.17058412730693817,-21.718795776367188,84.62438201904297,-28.003507614135742
0.87,-0.9798608422279358,-9.428916931152344,1.55413818359375,-0.08888089656829834,-0.16050483286380768,0.22021691501140594,-21.251096725463867,84.50745391845703,-27.798887252807617
0.889,-0.8841480016708374,-9.522236824035645,1.5565310716629028,-0.07024950534105301,-0.15882496535778046,0.2620611786842346,-21.616485595703125,84.81438446044922,-27.08272361755371
0.893,-0.8769694566726685,-9.610772132873535,1.521835207939148,-0.052381694316864014,-0.16722436249256134,0.27977627515792847,-21.251096725463867,84.33206939697266,-28.07658576965332
0.9,-1.1318050622940063,-9.568897247314453,1.4249258041381836,-0.03833179175853729,-0.16569718718528748,0.2869539260864258,-21.061092376708984,84.82899475097656,-28.06197166442871
0.91,-1.5960125923156738,-9.568897247314453,1.2921241521835327,-0.022143863141536713,-0.14782939851284027,0.285121351480484,-20.695703506469727,84.40514373779297,-27.52119255065918
0.92,-1.9214365482330322,-9.594021797180176,1.210768222808838,-0.0019853119738399982,-0.11667525768280029,0.2718350291252136,-20.534931182861328,84.53668212890625,-28.091201782226562
0.93,-1.9860427379608154,-9.515058517456055,1.2681959867477417,0.02474004216492176,-0.08048149198293686,0.2542726695537567,-20.08184814453125,84.28822326660156,-27.433500289916992
0.95,-0.9631110429763794,-9.489934921264648,1.3268201351165771,0.059406641870737076,-0.04184426739811897,0.23579397797584534,-20.30108070373535,84.55130004882812,-28.500438690185547
0.954,-0.7776673436164856,-9.639486312866211,1.9932211637496948,0.07284567505121231,-0.06902776658535004,0.22388210892677307,-19.599531173706055,84.36129760742188,-26.819643020629883
0.96,-0.9822536706924438,-9.626324653625488,1.6474583148956299,0.08491026610136032,-0.09162978827953339,0.22281308472156525,-20.038002014160156,84.88745880126953,-27.798887252807617
0.97,-1.1581261157989502,-9.467202186584473,2.1092729568481445,0.11102475225925446,-0.06414084881544113,0.21914789080619812,-19.80415153503418,84.81438446044922,-27.945045471191406
0.98,-1.3651052713394165,-9.372685432434082,1.8616158962249756,0.12034045159816742,-0.05467243865132332,0.20601430535316467,-19.08798599243164,85.17977142333984,-27.740427017211914
0.99,-1.3914263248443604,-9.31047248840332,1.5361920595169067,0.15225815773010254,-0.0503963828086853,0.21166479587554932,-19.0733699798584,85.03361511230469,-27.141185760498047
1.01,-1.8077774047851562,-9.475577354431152,1.2454640865325928,0.15882496535778046,-0.07696902006864548,0.22174407541751862,-18.591054916381836,84.75592041015625,-27.813507080078125
1.014,-2.258824348449707,-9.66939640045166,1.0348957777023315,0.16462817788124084,-0.08048149198293686,0.21013763546943665,-18.313358306884766,85.41361999511719,-27.72580909729004
1.02,-1.9537396430969238,-9.79860782623291,1.1282157897949219,0.17043140530586243,-0.1134682148694992,0.17730362713336945,-17.72873306274414,85.17977142333984,-27.784273147583008
1.03,-1.4931212663650513,-9.663414001464844,1.00259268283844,0.17867808043956757,-0.14844025671482086,0.14416420459747314,-17.81642723083496,84.66822814941406,-27.72580909729004
1.04,-1.8771692514419556,-9.395418167114258,1.0923235416412354,0.204487144947052,-0.18127425014972687,0.15683965384960175,-17.757965087890625,84.58053588867188,-29.231218338012695
1.05,-1.9525432586669922,-9.608378410339355,1.5290136337280273,0.2226603776216507,-0.15134187042713165,0.14508049190044403,-17.641040802001953,84.53668212890625,-28.82198143005371
1.07,-2.1403796672821045,-9.613164901733398,1.6749757528305054,0.22861631214618683,-0.12751811742782593,0.13668109476566315,-17.52411651611328,85.00438690185547,-28.70505714416504
1.073,-2.2193429470062256,-9.424131393432617,1.7216358184814453,0.25213462114334106,-0.040164388716220856,0.1160643994808197,-17.88950538635254,85.10669708251953,-28.778135299682617
1.08,-1.798206090927124,-9.404989242553711,2.2600209712982178,0.25992316007614136,-0.001527163083665073,0.10231993347406387,-17.42180633544922,84.88745880126953,-29.15814208984375
1.09,-1.2646067142486572,-9.43489933013916,2.6297121047973633,0.2588541507720947,0.009468411095440388,0.05619960278272629,-17.173341751098633,84.77053833007812,-29.8889217376709
1.1,-1.5206387042999268,-9.509077072143555,2.3030917644500732,0.2617557644844055,-0.04856378585100174,0.03787364438176155,-16.96872329711914,84.93130493164062,-29.845073699951172
1.11,-2.1786649227142334,-9.58205795288086,2.148754596710205,0.26251932978630066,-0.07849618047475815,-0.0007635815418325365,-16.574100494384766,85.31130981445312,-28.865829467773438
1.131,-2.4646072387695312,-9.578468322753906,1.8376877307891846,0.26969701051712036,-0.03741549327969551,-0.04398229718208313,-17.290266036987305,85.47208404541016,-29.8889217376709
1.134,-1.8125630617141724,-9.65384292602539,1.5517455339431763,0.2863430678844452,-0.012828170321881771,-0.09819658100605011,-17.34872817993164,85.00438690185547,-29.538145065307617
1.14,-1.5361920595169067,-9.590433120727539,1.6797614097595215,0.2964223325252533,-0.03756821155548096,-0.10567968338727951,-17.392576217651367,84.79976654052734,-29.34814453125
1.15,-1.3052847385406494,-9.616753578186035,2.1678972244262695,0.29856041073799133,-0.07040221989154816,-0.10903944075107574,-18.298744201660156,84.49283599853516,-30.26892852783203
1.16,-1.557727575302124,-9.730413436889648,2.3401803970336914,0.2834414541721344,-0.0754418596625328,-0.11530081182718277,-17.290266036987305,85.12130737304688,-30.312772750854492
1.17,-1.875972867012024,-9.89432144165039,2.554337978363037,0.2629774808883667,-0.018325956538319588,-0.11728612333536148,-17.831043243408203,84.9897689819336,-30.663549423217773
1.19,-1.9645073413848877,-9.681360244750977,2.596212387084961,0.24037547409534454,0.06612616032361984,-0.12186761200428009,-17.918737411499023,85.53054809570312,-30.94124412536621
1.193,-1.234696388244629,-9.56770133972168,3.1992037296295166,0.2015855312347412,0.1598939746618271,-0.10323622077703476,-18.137971878051758,86.02748107910156,-31.11663246154785
1.2,-1.039681315422058,-9.530611991882324,3.3475589752197266,0.17608189582824707,0.16752979159355164,-0.08735372871160507,-17.757965087890625,85.16515350341797,-31.876644134521484
1.21,-1.0289136171340942,-9.407382011413574,3.3607192039489746,0.1443169116973877,0.17867808043956757,-0.060475654900074005,-18.18181800842285,85.12130737304688,-30.751243591308594
1.22,-1.1234301328659058,-9.445667266845703,3.3643083572387695,0.1088867262005806,0.20845776796340942,-0.024434609338641167,-17.81642723083496,84.74130249023438,-31.394329071044922
1.23,-1.3698909282684326,-9.500701904296875,3.2578277587890625,0.07620543986558914,0.25182920694351196,0.01114829070866108,-18.06489372253418,84.97515106201172,-31.59894561767578
1.25,-1.3758729696273804,-9.492326736450195,3.126222848892212,0.04214970022439957,0.33292156457901,0.049785517156124115,-18.459514617919922,85.17977142333984,-31.862030029296875
1.254,-0.5850450992584229,-9.410971641540527,3.0448665618896484,0.01863138936460018,0.37339136004447937,0.09560041129589081,-18.06489372253418,84.97515106201172,-31.248172760009766
1.26,-0.4414757788181305,-9.505488395690918,2.8761725425720215,0.004123340360820293,0.3300199508666992,0.12507465481758118,-18.152587890625,85.44285583496094,-31.379714965820312
1.27,-0.7728817462921143,-9.553343772888184,2.7972095012664795,-0.014202617108821869,0.2690861225128174,0.16065755486488342,-17.9918155670166,85.73516845703125,-31.394329071044922
1.28,-1.31365966796875,-9.597611427307129,2.7182462215423584,-0.03222314268350601,0.24037547409534454,0.18509215116500854,-17.933351516723633,85.2090072631836,-32.373573303222656
1.29,-1.4787644147872925,-9.546165466308594,2.335394859313965,-0.040317103266716,0.2587014436721802,0.20036378502845764,-17.97719955444336,85.04823303222656,-31.774335861206055
1.309,-1.0995019674301147,-9.553343772888184,2.530409812927246,-0.05955936014652252,0.1941024363040924,0.25625795125961304,-17.860275268554688,85.36978149414062,-31.18971061706543
1.313,-0.6173481941223145,-9.397810935974121,2.5399811267852783,-0.06230825185775757,0.16294831037521362,0.2750420570373535,-17.50950050354004,85.50131225585938,-31.394329071044922
1.32,-0.4295116364955902,-9.315258026123047,2.724228620529175,-0.0780380368232727,0.09896016865968704,0.3052798807621002,-17.14410972595215,85.545166015625,-31.321250915527344
1.33,-0.22851455211639404,-9.292526245117188,2.57228422164917,-0.08765916526317596,-0.012980885803699493,0.35705074667930603,-17.363344192504883,85.15054321289062,-31.175094604492188
1.34,-0.8123632073402405,-9.481559753417969,2.520838737487793,-0.10125090926885605,-0.12110403180122375,0.4082106947898865,-16.793336868286133,84.81438446044922,-31.74510383605957
1.35,-1.7180465459823608,-9.622735977172852,2.331805467605591,-0.12110403180122375,-0.15775594115257263,0.44944408535957336,-16.369482040405273,84.82899475097656,-30.795087814331055
1.37,-2.100898265838623,-9.76989459991455,2.733799695968628,-0.18799376487731934,-0.11209376901388168,0.4735732972621918,-15.726396560668945,84.78514862060547,-30.678165435791016
1.374,-0.9906285405158997,-9.265008926391602,2.6967110633850098,-0.20983220636844635,-0.10094548016786575,0.5045746564865112,-15.171003341674805,84.71206665039062,-30.663549423217773
1.38,-0.45463627576828003,-9.238687515258789,2.922832727432251,-0.2249511182308197,-0.17211127281188965,0.5303837656974792,-15.083308219909668,84.65361022949219,-31.540485382080078
1.39,-0.16869398951530457,-8.965906143188477,2.867797613143921,-0.2304489016532898,-0.3142901659011841,0.5757404565811157,-14.45483684539795,85.29669952392578,-30.780473709106445
1.4,-0.4773681163787842,-9.056833267211914,3.012563705444336,-0.22708913683891296,-0.498313307762146,0.6357579827308655,-14.191757202148438,84.6097640991211,-30.502779006958008
1.41,-0.7369893193244934,-9.083154678344727,2.833101749420166,-0.2356412708759308,-0.6327036619186401,0.6959282159805298,-13.314821243286133,84.3466796875,-30.73662757873535
1.429,-1.8281164169311523,-9.299705505371094,2.4717857837677,-0.2869539260864258,-0.7061601877212524,0.7935139536857605,-12.23326587677002,83.99591064453125,-30.6489315032959
1.433,-3.4480574131011963,-9.402596473693848,1.9621144533157349,-0.2854267954826355,-0.669355571269989,0.8008443117141724,-11.882491111755371,85.04823303222656,-30.985092163085938
1.44,-3.5808589458465576,-9.634699821472168,1.8532410860061646,-0.30344730615615845,-0.5377141237258911,0.8170322775840759,-11.370944023132324,83.95206451416016,-30.137386322021484
1.451,-3.4432716369628906,-9.787840843200684,1.5852450132369995,-0.3266601860523224,-0.34865131974220276,0.8097019195556641,-10.64016342163086,84.12744903564453,-30.91201400756836
1.46,-2.4299113750457764,-9.810572624206543,1.8352948427200317,-0.3234531283378601,-0.29474249482154846,0.831845760345459,-10.05553913116455,84.28822326660156,-29.80122947692871
1.47,-3.476771354675293,-9.889535903930664,0.6640082597732544,-0.375071257352829,-0.27091872692108154,0.8042040467262268,-9.54399299621582,83.65975189208984,-29.15814208984375
1.49,-3.809373378753662,-9.873982429504395,1.537388563156128,-0.34865131974220276,-0.11331550031900406,0.7889324426651001,-7.775504112243652,83.33820343017578,-29.421222686767578
1.494,-2.410768747329712,-9.361918449401855,1.624726414680481,-0.3168863356113434,0.0013744467869400978,0.7695375084877014,-8.067816734313965,83.26512908935547,-29.1873722076416
1.5,-2.2229323387145996,-9.32602596282959,1.6701900959014893,-0.31093040108680725,-0.04413501173257828,0.76846843957901,-7.57088565826416,83.5428237915039,-29.085063934326172
1.51,-3.0855445861816406,-9.540183067321777,1.3411771059036255,-0.30772337317466736,-0.09926559776067734,0.7692320346832275,-7.278573513031006,83.30897521972656,-28.07658576965332
1.52,-4.0725836753845215,-9.761519432067871,0.8614161610603333,-0.3199406564235687,-0.05054909735918045,0.7289149165153503,-6.109324932098389,83.23589324951172,-28.441978454589844
1.53,-3.875175952911377,-9.925427436828613,1.3854442834854126,-0.3127630054950714,0.09957103431224823,0.7064656615257263,-6.284712314605713,82.53434753417969,-27.842735290527344
1.55,-2.833101749420166,-9.889535903930664,1.4584254026412964,-0.3234531283378601,0.16600261628627777,0.6953173279762268,-4.998538494110107,82.31510925292969,-27.126571655273438
1.553,-2.1188442707061768,-9.69930648803711,1.6378871202468872,-0.35643988847732544,0.038179077208042145,0.7305948138237,-5.217772483825684,82.16895294189453,-27.214263916015625
1.56,-2.493321180343628,-9.79262638092041,1.7718851566314697,-0.36483925580978394,-0.029626963660120964,0.7478517889976501,-4.574686050415039,82.25665283203125,-27.740427017211914
1.57,-3.122633457183838,-10.01755142211914,1.5816556215286255,-0.3839287757873535,-0.06918048858642578,0.7771733403205872,-4.01929235458374,81.35047912597656,-26.86349105834961
1.58,-3.3918259143829346,-10.097711563110352,1.5517455339431763,-0.41462478041648865,-0.04581489413976669,0.7968736886978149,-3.9023678302764893,81.2627944946289,-26.644256591796875
1.59,-3.315255641937256,-10.424330711364746,1.6510475873947144,-0.4616613984107971,-0.02733621932566166,0.8223773241043091,-3.1862027645111084,81.02893829345703,-26.43963623046875
1.609,-1.7874385118484497,-9.495916366577148,3.0831520557403564,-0.49495354294776917,-0.09987646341323853,0.845132052898407,-1.9584916830062866,80.03507995605469,-25.43115997314453
1.613,-2.414357900619507,-9.735198020935059,3.074777126312256,-0.4749477207660675,-0.1440114825963974,0.8510879278182983,-1.6661795377731323,80.48816680908203,-26.23501968383789
1.62,-4.052245140075684,-10.455437660217285,2.80558443069458,-0.45402559638023376,-0.1310305893421173,0.860556423664093,-1.1254018545150757,80.41508483886719,-25.197309494018555
1.63,-5.154139518737793,-10.827521324157715,2.5399811267852783,-0.46670103073120117,0.05696318298578262,0.8582656383514404,-0.3215433955192566,79.62583923339844,-25.036537170410156
1.64,-4.351347923278809,-10.61695384979248,2.3054845333099365,-0.49846601486206055,0.28557947278022766,0.8512406945228577,0.10230926424264908,79.05583190917969,-24.919614791870117
1.65,-3.1453652381896973,-10.650453567504883,2.2671992778778076,-0.5149593949317932,0.40653079748153687,0.8691084980964661,0.8623209595680237,78.51505279541016,-24.11575698852539
1.669,-2.7840490341186523,-11.096714973449707,2.1810576915740967,-0.5700899958610535,0.3992004096508026,0.988379955291748,1.5931013822555542,77.95966339111328,-23.677288055419922
1.673,-3.13220477104187,-11.81575870513916,1.7383856773376465,-0.6064364910125732,0.4095851480960846,1.0198395252227783,1.943876028060913,78.00350952148438,-22.975738525390625
1.68,-2.956332206726074,-12.527623176574707,1.8017953634262085,-0.6582072973251343,0.4312708377838135,1.0607675313949585,1.8707979917526245,77.75504302978516,-22.74188804626465
1.69,-2.8342983722686768,-12.862618446350098,1.6666009426116943,-0.7269296646118164,0.4312708377838135,1.126282811164856,2.703887701034546,77.12657165527344,-22.186494827270508
1.7,-3.181257724761963,-12.223733901977539,1.4536396265029907,-0.7389942407608032,0.4967861771583557,1.2110402584075928,3.566208839416504,76.2934799194336,-22.142648696899414
1.71,-2.884547472000122,-11.978469848632812,1.399801254272461,-0.7744243741035461,0.6502660512924194,1.3038917779922485,3.66851806640625,75.54808044433594,-21.601871490478516
1.729,-2.1714866161346436,-12.742976188659668,1.4536396265029907,-0.868803083896637,0.7005097270011902,1.4743232727050781,5.1008477210998535,74.37883758544922,-19.570301055908203
1.733,-2.2791635990142822,-12.681960105895996,1.432104229927063,-0.8822421431541443,0.7124215364456177,1.4943290948867798,6.109324932098389,74.13037109375,-19.862613677978516
1.74,-2.311466693878174,-12.579068183898926,1.397408366203308,-0.9121744632720947,0.7727445363998413,1.5595389604568481,6.182402610778809,73.34113311767578,-19.380298614501953
1.75,-2.416750907897949,-12.620943069458008,1.2251251935958862,-0.9327912330627441,0.8561276793479919,1.6293302774429321,6.620871067047119,72.49342346191406,-18.401052474975586
1.76,-2.0099709033966064,-12.990633964538574,1.1976077556610107,-0.976468026638031,0.9560041427612305,1.7046195268630981,6.825489521026611,71.39724731445312,-18.327974319458008
1.77,-0.9607182741165161,-13.335200309753418,1.2514461278915405,-1.0057896375656128,1.0221302509307861,1.7736471891403198,7.278573513031006,70.88570404052734,-16.98333740234375
1.789,0.1615155190229416,-13.775479316711426,1.5469597578048706,-1.0395399332046509,0.9976956248283386,1.9701931476593018,8.886290550231934,68.59104919433594,-15.390236854553223
1.793,0.8721838593482971,-13.728819847106934,1.6474583148956299,-1.0296133756637573,1.0241155624389648,2.001958131790161,8.79859733581543,68.32797241210938,-15.14177131652832
1.8,0.9559326767921448,-13.505090713500977,1.8927226066589355,-1.0331257581710815,1.0801624059677124,2.0871737003326416,9.427068710327148,67.42180633544922,-14.761765480041504
1.81,1.0289136171340942,-13.334004402160645,2.018345832824707,-0.9984592199325562,1.2399036884307861,2.1673498153686523,9.719380378723145,66.42794799804688,-14.250219345092773
1.82,1.3028918504714966,-12.921241760253906,2.115255117416382,-0.9505062699317932,1.4714215993881226,2.216219186782837,10.581701278686523,65.33177185058594,-12.817889213562012
1.83,1.8269200325012207,-12.738190650939941,1.6007983684539795,-0.8753698468208313,1.5980234146118164,2.2453877925872803,10.625548362731934,64.49868774414062,-12.949429512023926
1.85,-1.9800606966018677,-11.906685829162598,-0.7908278107643127,-0.8549058437347412,1.0236574411392212,2.440101146697998,10.742472648620605,62.65711975097656,-12.964046478271484
1.854,-3.816551923751831,-12.159127235412598,-0.8805586695671082,-0.8810203671455383,0.8376489877700806,2.5166120529174805,11.590178489685059,61.926334381103516,-12.291727066040039
1.86,-5.5166521072387695,-12.335000991821289,-0.6975077390670776,-0.9184359312057495,0.6154467463493347,2.512794256210327,12.540192604064941,61.195556640625,-11.897106170654297
1.87,-3.239881753921509,-12.717851638793945,1.4644074440002441,-0.9503535628318787,0.2909245789051056,2.2565360069274902,13.358667373657227,59.76322937011719,-11.736333847045898
1.88,0.849452018737793,-11.258230209350586,2.8522443771362305,-0.8602509498596191,-0.30665433406829834,2.211026668548584,13.665594100952148,59.35398864746094,-11.56094741821289
1.89,0.8566304445266724,-9.07717227935791,4.005584716796875,-0.7422012686729431,-0.9824240207672119,2.270128011703491,14.820228576660156,57.62934875488281,-12.014030456542969
1.91,-4.862215518951416,-4.177868366241455,3.8835508823394775,-0.37140607833862305,-1.326341152191162,2.0647244453430176,16.939491271972656,55.68547058105469,-13.124817848205566
1.914,-6.595815181732178,-4.122833251953125,3.6598219871520996,-0.34544429183006287,-1.1163562536239624,1.7870862483978271,17.187957763671875,55.378543853759766,-13.826367378234863
1.92,-7.286144256591797,-4.076173305511475,3.1585259437561035,-0.25931230187416077,-0.8074111342430115,1.1699596643447876,17.933351516723633,55.23238754272461,-13.972522735595703
1.93,-4.00199556350708,-5.321637153625488,2.3916261196136475,-0.12751811742782593,-0.42791110277175903,0.5199990272521973,17.494884490966797,55.62701416015625,-14.922536849975586
1.94,0.11365906894207001,-5.101497650146484,1.6151552200317383,-0.00809396430850029,-0.25763240456581116,0.049785517156124115,18.240280151367188,55.45161819458008,-15.258696556091309
1.95,3.8835508823394775,-4.207778453826904,2.0506489276885986,0.14676035940647125,-0.4899139106273651,-0.4046982228755951,17.655654907226562,55.87547302246094,-15.711779594421387
1.97,5.192424774169922,-3.655036449432373,1.9166508913040161,0.35185837745666504,-1.5322027206420898,-1.017396092414856,17.743350982666016,56.82548904418945,-18.62028694152832
1.973,2.427518606185913,-3.080759048461914,1.4344971179962158,0.3959933817386627,-1.7264578342437744,-1.1560624837875366,17.684886932373047,56.98625946044922,-18.43028450012207
1.98,0.3230310380458832,-3.126222848892212,1.3794622421264648,0.45265114307403564,-1.8732181787490845,-1.4046845436096191,16.720256805419922,57.293190002441406,-19.81876564025879
1.99,-1.6618152856826782,-3.3607192039489746,1.3722838163375854,0.5143485069274902,-1.7886134386062622,-1.8031214475631714,15.770242691040039,58.91551971435547,-20.35954475402832
2.0,-2.313859462738037,-3.7495527267456055,1.3878371715545654,0.5491678714752197,-1.5294537544250488,-2.208277940750122,15.054078102111816,60.08477020263672,-22.04033851623535
2.01,-2.585444688796997,-4.1659040451049805,1.502692461013794,0.5720753073692322,-1.2918273210525513,-2.5273022651672363,13.16866397857666,61.604793548583984,-23.326513290405273
2.029,-2.730210542678833,-5.083551406860352,1.3208380937576294,0.565203070640564,-0.9640980362892151,-3.0584495067596436,10.654779434204102,64.46945190429688,-25.29962158203125
2.033,-2.8462624549865723,-5.374279499053955,1.3375877141952515,0.5830708742141724,-0.93889981508255,-3.171001434326172,9.03244686126709,65.44869995117188,-25.694242477416992
2.04,-3.163311243057251,-5.952146053314209,1.5840485095977783,0.6003278493881226,-0.8947648406028748,-3.3324224948883057,7.57088565826416,66.01870727539062,-26.05963134765625
2.05,-3.5198421478271484,-6.733402729034424,1.7742778062820435,0.6102543473243713,-0.7742716670036316,-3.559053421020508,5.217772483825684,67.53873443603516,-27.301958084106445
2.06,-3.689732551574707,-7.307680130004883,1.6713865995407104,0.6285803318023682,-0.5936082601547241,-3.794389247894287,1.5784857273101807,68.5325927734375,-27.959659576416016
2.07,-3.7950165271759033,-7.881957530975342,1.5601202249526978,0.6811147332191467,-0.37430769205093384,-4.0384297370910645,-1.4323296546936035,70.2718505859375,-29.24583625793457
2.089,-3.9385857582092285,-9.363115310668945,1.3639088869094849,0.781754732131958,-0.22999075055122375,-4.251163959503174,-8.374743461608887,72.65419006347656,-30.049694061279297
2.093,-4.0558342933654785,-9.68255615234375,1.3184452056884766,0.8200865387916565,-0.22418753802776337,-4.288121223449707,-9.22244930267334,73.32650756835938,-31.014324188232422
2.1,-4.3310089111328125,-10.092926025390625,1.2789636850357056,0.8717046976089478,-0.22281308472156525,-4.33454704284668,-11.634024620056152,73.92575073242188,-32.242034912109375
2.11,-4.468596458435059,-10.585847854614258,1.0121638774871826,0.9396634101867676,-0.18325957655906677,-4.39914608001709,-15.448699951171875,74.68576049804688,-32.47588348388672
2.12,-4.107280254364014,-11.194819450378418,0.8075776100158691,1.0155634880065918,-0.11423180252313614,-4.449695110321045,-19.044137954711914,75.50423431396484,-34.60976028442383
2.13,-3.5162527561187744,-12.290733337402344,0.7334001660346985,1.0584768056869507,-0.12767083942890167,-4.464508533477783,-23.180356979370117,75.4457778930664,-35.42823791503906
2.149,-3.5856447219848633,-13.3890380859375,0.436690092086792,1.083064079284668,-0.3367394804954529,-4.368297576904297,-30.35662078857422,74.86115264892578,-38.161354064941406
2.153,-3.909872055053711,-13.532608032226562,0.31345975399017334,1.0809260606765747,-0.36331209540367126,-4.346000671386719,-31.81818199157715,74.71499633789062,-38.029815673828125
2.16,-4.631308078765869,-13.672588348388672,0.09690931439399719,1.0645854473114014,-0.4075998365879059,-4.273918628692627,-33.14820098876953,74.65653228759766,-39.228294372558594
2.17,-5.508277416229248,-13.684552192687988,-0.18065811693668365,1.0073168277740479,-0.3442225456237793,-4.137237548828125,-36.67056655883789,73.0342025756836,-40.17831039428711
2.18,-5.958127975463867,-13.497912406921387,-0.4618147313594818,0.9537133574485779,-0.18707747757434845,-4.0405683517456055,-39.60830307006836,72.37649536132812,-41.698333740234375
2.19,-5.462813854217529,-13.311272621154785,-0.4462614059448242,0.8943067193031311,-0.026114489883184433,-3.9341249465942383,-42.268341064453125,70.71031951904297,-42.77988815307617
2.203,-4.892125606536865,-13.05404281616211,-0.45224347710609436,0.8246680498123169,0.08628471195697784,-3.813020706176758,-45.3814697265625,69.05875396728516,-44.358375549316406
2.21,-4.9878387451171875,-12.764512062072754,-0.6161518096923828,0.7777841687202454,0.1333213448524475,-3.7513234615325928,-47.33995819091797,67.7287368774414,-45.366851806640625
2.22,-5.126622676849365,-12.387641906738281,-0.6951149702072144,0.7345654964447021,0.1719585657119751,-3.67649245262146,-49.41537857055664,66.194091796875,-46.56533432006836
2.23,-5.3036909103393555,-12.423534393310547,-0.7118647694587708,0.7050911784172058,0.24434609711170197,-3.5359935760498047,-51.06694030761719,63.98713684082031,-48.39228439331055
2.24,-5.191228866577148,-12.54915714263916,-0.9655039310455322,0.6721044778823853,0.2854267954826355,-3.40053391456604,-53.49312973022461,61.86787414550781,-48.18766403198242
2.25,-4.837090969085693,-12.774083137512207,-1.2562319040298462,0.6359107494354248,0.3119994103908539,-3.2392656803131104,-54.6185302734375,59.82168960571289,-49.91230773925781
2.269,-3.6681969165802,-12.90927791595459,-1.7491532564163208,0.5166392922401428,0.2721404433250427,-2.7852401733398438,-56.48933029174805,57.35165023803711,-51.03771209716797
2.273,-3.6287152767181396,-12.860225677490234,-1.7874385118484497,0.48976120352745056,0.2350304126739502,-2.6422975063323975,-56.85471725463867,57.14703369140625,-51.885414123535156
2.28,-3.829712390899658,-12.69033432006836,-1.688136339187622,0.4499022364616394,0.1941024363040924,-2.415055751800537,-57.22011184692383,55.802398681640625,-52.309268951416016
2.29,-4.5475592613220215,-12.467802047729492,-1.439282774925232,0.3865249752998352,0.182648703455925,-2.0954203605651855,-57.570884704589844,54.50160598754883,-52.17772674560547
2.3,-4.784448623657227,-12.244072914123535,-1.2502497434616089,0.3173445165157318,0.1875356286764145,-1.7511979341506958,-57.8193473815918,53.25928497314453,-53.434669494628906
2.319,-4.800002098083496,-11.916255950927734,-1.1653046607971191,0.24205534160137177,0.1794416606426239,-1.3790282011032104,-58.21397399902344,52.44080352783203,-53.814674377441406
2.323,-4.77248477935791,-11.593225479125977,-1.2167502641677856,0.14217887818813324,0.11224649101495743,-0.902247965335846,-58.11166000366211,51.344635009765625,-54.282371520996094
2.33,-4.974678039550781,-11.541779518127441,-1.1569297313690186,0.07162395119667053,0.016340645030140877,-0.5189300179481506,-58.30166244506836,50.81847381591797,-54.12160110473633
2.34,-5.064409255981445,-11.414959907531738,-0.7728817462921143,-0.010690141469240189,-0.0858265683054924,-0.15683965384960175,-57.62934875488281,50.24846649169922,-54.58930206298828
2.35,-4.528416633605957,-11.180462837219238,-0.5120640397071838,-0.11071932315826416,-0.19685132801532745,0.17318028211593628,-57.27857208251953,50.02922821044922,-54.91084289550781
2.36,-3.944568157196045,-10.834700584411621,-0.19980068504810333,-0.20570887625217438,-0.3885102868080139,0.4911356270313263,-56.16778564453125,50.07307434082031,-54.18006134033203
2.37,-3.5030922889709473,-10.599007606506348,-0.1411765217781067,-0.2776382565498352,-0.5873469114303589,0.778853178024292,-56.22624588012695,50.160770416259766,-53.814674377441406
2.389,-4.1144585609436035,-10.211370468139648,0.4127618968486786,-0.3355177044868469,-0.8817839622497559,1.2849550247192383,-54.77930450439453,49.839229583740234,-53.28851318359375
2.393,-4.328616142272949,-9.797411918640137,0.7537391185760498,-0.3286454975605011,-0.9092729091644287,1.4017831087112427,-54.253143310546875,50.83308792114258,-53.624671936035156
2.4,-4.680360794067383,-8.202595710754395,2.63449764251709,-0.20906862616539001,-0.9888380765914917,1.5578590631484985,-54.15083312988281,50.49692916870117,-52.0608024597168
2.41,-6.32542610168457,-9.113064765930176,10.01755142211914,0.12507465481758118,-0.9579893946647644,1.7672330141067505,-53.215431213378906,51.44694519042969,-52.36772918701172
2.42,-5.794219970703125,-17.458032608032227,10.74138069152832,-0.2638937830924988,0.15531249344348907,1.592831015586853,-52.952354431152344,51.593101501464844,-52.338497161865234
2.439,1.8544374704360962,-19.433307647705078,0.1818545162677765,-0.7290676236152649,1.578933835029602,1.2744176387786865,-51.95848846435547,52.104644775390625,-52.323883056640625
2.442,9.497113227844238,-9.985248565673828,-2.455035924911499,-0.16294831037521362,1.0241155624389648,1.6957619190216064,-50.146156311035156,51.66618347167969,-52.74773406982422
2.45,7.83410120010376,-7.496713161468506,1.5469597578048706,-0.05375614017248154,0.38087448477745056,1.8968892097473145,-49.95615005493164,52.338497161865234,-52.35311508178711
2.46,1.7479568719863892,-8.182256698608398,1.6223337650299072,-0.22540926933288574,-0.22372940182685852,2.0560195446014404,-49.00613784790039,52.47003936767578,-52.58695983886719
2.47,-4.207778453826904,-7.499105453491211,1.9190436601638794,-0.22831088304519653,-0.2932153046131134,1.9321668148040771,-47.77842712402344,52.703887939453125,-52.64542770385742
2.48,-5.1182475090026855,-7.741977691650391,4.584648132324219,-0.05054909735918045,0.028099801391363144,1.6048957109451294,-46.06840133666992,53.36158752441406,-52.20695877075195
2.49,-4.880161762237549,-12.246465682983398,3.7016966342926025,-0.12996158003807068,0.18616119027137756,1.6612480878829956,-45.70301055908203,53.08388900756836,-52.45542526245117
2.503,-4.443471431732178,-10.252047538757324,1.200000524520874,-0.09346237778663635,0.27901268005371094,1.6068809032440186,-44.70914840698242,53.1569709777832,-53.59543991088867
2.51,-2.733799695968628,-8.947959899902344,1.817348837852478,-0.039095375686883926,0.3150537610054016,1.479362964630127,-44.0806770324707,53.91698455810547,-53.17158508300781
2.52,-0.769292414188385,-9.438488960266113,0.7752745151519775,-0.09437867254018784,0.312304824590683,1.3790282011032104,-42.56065368652344,53.96083068847656,-53.49312973022461
2.53,-0.4833501875400543,-9.926624298095703,-0.32901307940483093,-0.06490442901849747,0.1768454760313034,1.3202325105667114,-42.253726959228516,53.88775634765625,-53.05466079711914
2.54,-1.8831512928009033,-10.130014419555664,-0.14715859293937683,0.01313360221683979,0.00809396430850029,1.2936598062515259,-41.81526184082031,54.253143310546875,-52.55773162841797
2.55,-1.7216358184814453,-9.549755096435547,0.1818545162677765,0.10048733651638031,0.07971791177988052,1.2052371501922607,-41.332942962646484,54.764686584472656,-53.05466079711914
2.563,0.2799602448940277,-9.54496955871582,1.3495519161224365,0.15851953625679016,0.1342376321554184,1.1623238325119019,-40.6021614074707,53.97544479370117,-52.8208122253418
2.57,0.13878370821475983,-9.70528793334961,1.7012969255447388,0.15882496535778046,0.03130684420466423,1.162629246711731,-40.03215408325195,54.647762298583984,-53.5369758605957
2.58,-1.3363914489746094,-9.854839324951172,2.091326951980591,0.16462817788124084,-0.09346237778663635,1.1236865520477295,-39.1259880065918,54.8962287902832,-53.25928497314453
2.59,-2.874976396560669,-9.811769485473633,1.975274920463562,0.13561208546161652,0.001679879380390048,1.0129672288894653,-38.32212829589844,54.39929962158203,-53.639286041259766
2.6,-2.548356056213379,-9.522236824035645,1.6689937114715576,0.1459967941045761,0.19685132801532745,0.9193521738052368,-38.278282165527344,54.70622634887695,-53.87313461303711
2.62,-1.0181459188461304,-9.513862609863281,1.6797614097595215,0.1569923609495163,0.2542726695537567,0.834747314453125,-37.4451904296875,55.071617126464844,-52.86465835571289
2.623,-0.4331009089946747,-9.592824935913086,1.8077774047851562,0.14004085958003998,0.08399397134780884,0.7861835360527039,-37.22595977783203,54.98392105102539,-53.4200553894043
2.63,-0.6484549045562744,-9.607182502746582,2.225324869155884,0.13545936346054077,0.02733621932566166,0.7738135457038879,-37.15288162231445,55.23238754272461,-53.56621170043945
2.64,-0.9571290016174316,-9.768697738647461,2.796013355255127,0.08964447677135468,-0.005497787147760391,0.7547240257263184,-36.30517578125,54.85238265991211,-53.478515625
2.65,-0.6520441174507141,-9.82971477508545,2.8354947566986084,0.043676864355802536,0.020922133699059486,0.7296785116195679,-36.17363357543945,55.48085403442383,-53.58082580566406
2.66,-0.2667997181415558,-9.664609909057617,2.51724910736084,0.017409659922122955,-0.05009094625711441,0.7235698699951172,-35.895938873291016,55.23238754272461,-54.033905029296875
2.67,-0.3696911036968231,-9.499505043029785,2.592623233795166,-0.007024950347840786,-0.18600846827030182,0.7171558141708374,-35.472084045410156,55.14469909667969,-53.87313461303711
2.683,-0.8697909712791443,-9.415757179260254,2.8797619342803955,-0.04535674676299095,-0.31871894001960754,0.7011205554008484,-34.82899475097656,54.8962287902832,-53.61005783081055
2.69,-1.1629117727279663,-9.369096755981445,3.029313325881958,-0.07590001076459885,-0.3504839241504669,0.6878342628479004,-34.09821701049805,55.05699920654297,-53.142356872558594
2.701,-0.9930213689804077,-9.3248291015625,2.9072792530059814,-0.10384708642959595,-0.38026362657546997,0.6640104651451111,-34.03975296020508,55.14469909667969,-52.893890380859375
2.71,-2.2061824798583984,-9.7938232421875,2.3222343921661377,-0.18341228365898132,-0.39446622133255005,0.665232241153717,-33.922828674316406,55.802398681640625,-53.829288482666016
2.72,-2.2612173557281494,-9.542576789855957,1.8939191102981567,-0.18860463798046112,-0.32818731665611267,0.6287330389022827,-33.46974563598633,55.67085647583008,-54.16544723510742
2.74,-0.9822536706924438,-9.236295700073242,1.975274920463562,-0.1950187236070633,-0.27000242471694946,0.6327036619186401,-33.162818908691406,55.743934631347656,-53.1569709777832
2.743,0.5168496966362,-9.259027481079102,2.7421746253967285,-0.18707747757434845,-0.4011857509613037,0.6759223937988281,-32.91435241699219,55.2177734375,-53.653900146484375
2.75,0.33379876613616943,-9.304490089416504,2.926422119140625,-0.206777885556221,-0.5262603759765625,0.7179194092750549,-32.32973098754883,55.43700408935547,-53.50774383544922
2.76,-1.1186444759368896,-9.489934921264648,2.785245418548584,-0.24633140861988068,-0.6385068893432617,0.7982481718063354,-31.862030029296875,55.2762336730957,-52.42618942260742
2.77,-2.4610180854797363,-9.382257461547852,2.1439690589904785,-0.2782491147518158,-0.6104071140289307,0.8355109095573425,-31.4674072265625,55.02777099609375,-53.77082824707031
2.78,-2.0985054969787598,-9.144170761108398,2.007578134536743,-0.2620611786842346,-0.46502113342285156,0.8643743395805359,-31.335866928100586,55.20315933227539,-53.27389907836914
2.799,-1.1461620330810547,-9.040083885192871,2.228914260864258,-0.26710081100463867,-0.4164573848247528,0.9158397316932678,-30.722009658813477,55.363929748535156,-53.18620300292969
2.804,-1.098305583000183,-9.227920532226562,2.1200408935546875,-0.2997821271419525,-0.5372559428215027,1.0033460855484009,-33.615901947021484,55.04238510131836,-53.317745208740234
2.81,-1.5445669889450073,-9.382257461547852,1.6163517236709595,-0.30085110664367676,-0.5635231733322144,1.0653489828109741,-29.172758102416992,55.261619567871094,-52.41157531738281
2.82,-1.8855441808700562,-9.57487964630127,1.6534403562545776,-0.29016098380088806,-0.5004513263702393,1.1482739448547363,-29.304296493530273,54.80853271484375,-53.0985107421875
2.83,-1.6666009426116943,-9.570094108581543,1.2514461278915405,-0.2912300229072571,-0.46792274713516235,1.235474944114685,-28.427358627319336,54.881614685058594,-53.522361755371094
2.84,-0.9571290016174316,-9.530611991882324,1.8747763633728027,-0.2649627923965454,-0.31902435421943665,1.31748366355896,-27.813507080078125,54.443145751953125,-52.64542770385742
2.86,-1.3902299404144287,-9.503094673156738,1.7623138427734375,-0.29764407873153687,-0.3937026560306549,1.388802170753479,-27.06810760498047,54.51622772216797,-52.13387680053711
2.863,-5.9676995277404785,-8.993423461914062,-0.6448656916618347,-0.30573806166648865,-0.4352414906024933,1.4237741231918335,-25.84039878845215,54.867000579833984,-52.35311508178711
2.87,-6.052644729614258,-8.544769287109375,-0.37806597352027893,-0.2356412708759308,-0.14844025671482086,1.3932307958602905,-25.562700271606445,54.662376403808594,-52.04618453979492
2.88,-4.557130336761475,-8.83669376373291,-0.04785645380616188,-0.18631389737129211,0.1768454760313034,1.4214833974838257,-25.31423568725586,54.73545837402344,-52.265419006347656
2.89,-2.218146562576294,-9.238687515258789,0.5359922647476196,-0.12446378916501999,0.39965859055519104,1.45004141330719,-24.524991989135742,54.20929718017578,-52.61619567871094
2.9,-1.6115659475326538,-9.584450721740723,0.5814558863639832,-0.06963863968849182,0.29428431391716003,1.576948642730713,-23.57497787475586,54.282371520996094,-52.104644775390625
2.921,-2.1403796672821045,-9.147760391235352,1.210768222808838,-0.001527163083665073,0.2678644061088562,1.6751452684402466,-22.990352630615234,53.91698455810547,-52.280033111572266
2.925,-3.537788152694702,-8.907281875610352,1.277767300605774,0.080634206533432,0.18738290667533875,1.69148588180542,-21.748027801513672,53.97544479370117,-52.280033111572266
2.93,-3.8045878410339355,-8.790033340454102,1.2083754539489746,0.11453723162412643,0.23976460099220276,1.714240550994873,-21.324174880981445,54.267757415771484,-52.19234085083008
2.94,-4.645665168762207,-8.780462265014648,1.688136339187622,0.1258382350206375,0.4095851480960846,1.7318029403686523,-20.228002548217773,53.434669494628906,-52.63081359863281
2.95,-4.5607194900512695,-9.391828536987305,1.2335000038146973,0.08659014105796814,0.4312708377838135,1.7310394048690796,-19.570301055908203,53.78544235229492,-52.80619812011719
2.96,-3.4121649265289307,-9.549755096435547,1.4488540887832642,0.09239336103200912,0.5433646440505981,1.766011357307434,-18.488744735717773,53.49312973022461,-53.215431213378906
2.98,-3.184846878051758,-9.512666702270508,1.8257235288619995,0.06872233748435974,0.4789183437824249,1.8278615474700928,-17.72873306274414,53.23004913330078,-52.733116149902344
2.983,-4.053441524505615,-9.192028045654297,2.2061824798583984,0.027030786499381065,0.43447789549827576,1.867262363433838,-16.647178649902344,52.85004425048828,-52.528499603271484
2.99,-4.426721572875977,-9.073582649230957,2.007578134536743,-0.04352414980530739,0.35964691638946533,1.86497163772583,-15.609471321105957,52.8792724609375,-52.002342224121094
3.0,-3.9349966049194336,-9.211170196533203,2.0673987865448,-0.12217304855585098,0.38041630387306213,1.8945984840393066,-14.790996551513672,52.543113708496094,-52.528499603271484
3.01,-3.8739798069000244,-8.58903694152832,2.5986053943634033,-0.14294245839118958,0.3075706362724304,1.9216293096542358,-13.870213508605957,52.075416564941406,-52.19234085083008
3.02,-6.1770710945129395,-8.09850788116455,1.8963117599487305,-0.1440114825963974,0.25824329257011414,1.9475911855697632,-13.241742134094238,52.19234085083008,-52.002342224121094
3.04,-7.4392852783203125,-9.772287368774414,1.015753149986267,-0.17287485301494598,0.39843684434890747,1.9682077169418335,-12.335575103759766,51.4177131652832,-52.0169563293457
3.043,-4.510470390319824,-11.7990083694458,1.3387842178344727,-0.20845776796340942,0.6359107494354248,2.045940399169922,-10.815550804138184,50.43846893310547,-52.47003936767578
3.05,-3.9912281036376953,-11.693723678588867,1.8029918670654297,-0.23976460099220276,0.5123632550239563,2.122145652770996,-10.596317291259766,50.48231506347656,-52.03157043457031
3.06,-5.952146053314209,-11.103893280029297,1.734796404838562,-0.26801711320877075,0.4677700698375702,2.1821632385253906,-9.50014591217041,49.94153594970703,-52.17772674560547
3.07,-6.126822471618652,-9.438488960266113,1.2071789503097534,-0.27977627515792847,0.5569563508033752,2.21056866645813,-8.1262788772583,49.473838806152344,-52.22157287597656
3.08,-7.258627414703369,-9.535398483276367,0.891326367855072,-0.2817615866661072,0.5586362481117249,2.225076675415039,-7.190880298614502,48.99152374267578,-50.89155578613281
3.1,-6.805187702178955,-12.379267692565918,0.8147560954093933,-0.3309362530708313,0.6730207204818726,2.2931880950927734,-5.948553085327148,48.655364990234375,-50.90616989135742
3.104,-4.3070807456970215,-10.518848419189453,1.262213945388794,-0.38209620118141174,0.6174320578575134,2.372753143310547,-5.173925876617432,47.19380569458008,-50.64308547973633
3.11,-6.203392505645752,-9.059226036071777,1.345962643623352,-0.3966042399406433,0.5380195379257202,2.3961188793182373,-4.1216020584106445,47.13534164428711,-49.94153594970703
3.12,-6.8410797119140625,-6.796812534332275,1.1425727605819702,-0.38988474011421204,0.6058256030082703,2.3524420261383057,-2.864659309387207,46.170711517333984,-50.29231262207031
3.13,-7.251449108123779,-6.9643096923828125,0.4402793347835541,-0.3790418803691864,0.5862779021263123,2.3214404582977295,-1.8854135274887085,45.4837760925293,-50.01461410522461
3.14,-7.179664134979248,-8.39162826538086,-0.32183465361595154,-0.42791110277175903,0.5913175940513611,2.2821924686431885,-0.5846244096755981,44.82607650756836,-48.611515045166016
3.16,-5.893521785736084,-8.024331092834473,-0.6616154909133911,-0.48945578932762146,0.5830708742141724,2.249511241912842,0.23384974896907806,44.0806770324707,-49.44460678100586
3.163,-6.989434719085693,-8.408378601074219,-0.24885353446006775,-0.5325217843055725,0.32268956303596497,2.2409591674804688,1.5346390008926392,42.98450469970703,-48.37766647338867
3.17,-7.35912561416626,-9.90987491607666,0.13998012244701385,-0.5644394755363464,0.35842517018318176,2.2508857250213623,2.2654194831848145,42.48757553100586,-48.479976654052734
3.18,-6.7417778968811035,-9.830911636352539,0.34695929288864136,-0.6033821702003479,0.44196099042892456,2.26737904548645,3.4492838382720947,42.0052604675293,-48.085357666015625
3.19,-6.4426751136779785,-7.185646057128906,0.5802595019340515,-0.5887213945388794,0.4509712755680084,2.233475923538208,3.770827054977417,40.98217010498047,-47.1791877746582
3.2,-7.0815582275390625,-1.5780664682388306,0.9188438653945923,-0.4715879559516907,0.5059491395950317,2.0952677726745605,4.896229267120361,40.23677444458008,-46.360713958740234
3.22,-9.132206916809082,0.4785645008087158,0.9810572266578674,-0.3640756905078888,0.5093088746070862,1.9384281635284424,6.255480766296387,38.4244384765625,-46.24378967285156
3.224,-9.432506561279297,-4.815555572509766,0.5982056260108948,-0.3630066514015198,0.7542658448219299,1.7373007535934448,6.357789993286133,38.32212829589844,-46.06840133666992
3.23,-8.623732566833496,-8.142775535583496,0.7704888582229614,-0.36804628372192383,0.7590000629425049,1.6704108715057373,6.591639518737793,37.7667350769043,-45.790706634521484
3.24,-8.615358352661133,-12.977473258972168,1.483549952507019,-0.4366159439086914,0.746630072593689,1.6458237171173096,6.942414283752441,36.86056900024414,-44.621456146240234
3.25,-8.812766075134277,-16.040287017822266,2.4047865867614746,-0.5207626223564148,0.8894197344779968,1.6377296447753906,7.629348278045654,35.895938873291016,-44.636070251464844
3.26,-7.520641326904297,-16.576278686523438,2.0518453121185303,-0.5384777188301086,1.0273226499557495,1.6019940376281738,8.170125961303711,35.311309814453125,-45.07453918457031
3.28,-4.275973796844482,-18.20818328857422,1.8951154947280884,-0.594524621963501,1.0245736837387085,1.5829044580459595,8.403975486755371,34.58053207397461,-43.02835464477539
3.284,-2.5603203773498535,-17.376676559448242,1.0277173519134521,-0.6914994120597839,0.7701483368873596,1.4257595539093018,9.105524063110352,33.060508728027344,-42.633731842041016
3.29,-1.6402798891067505,-16.54876136779785,1.4297115802764893,-0.7423539757728577,0.37262779474258423,1.207680583000183,9.427068710327148,32.622039794921875,-42.56065368652344
3.3,-1.2323036193847656,-11.894721984863281,-0.3852444291114807,-0.7747297883033752,0.06918048858642578,0.925613522529602,10.040924072265625,31.49663734436035,-42.37065124511719
3.31,-2.9036900997161865,-6.270391464233398,-1.454836130142212,-0.536797821521759,-0.4914410710334778,0.8814785480499268,9.880152702331543,31.10201644897461,-40.952938079833984
3.32,-8.870193481445312,-0.25244277715682983,-0.7022933959960938,-0.26083946228027344,-1.3127492666244507,1.3124439716339111,9.967845916748047,30.663549423217773,-40.63139724731445
3.34,-14.023137092590332,1.0013961791992188,2.073380708694458,-0.03848451003432274,-1.8855881690979004,1.4306464195251465,10.96170711517334,28.778135299682617,-42.29757308959961
3.344,-14.730215072631836,1.6331013441085815,3.414557933807373,0.18906280398368835,-1.4193453788757324,1.070388674736023,11.79479694366455,28.544286727905273,-42.882198333740234
3.35,-12.559925079345703,3.4205398559570312,1.7718851566314697,0.19104810059070587,-1.0852020978927612,0.9640980362892151,11.224788665771484,28.1496639251709,-42.77988815307617
3.36,-7.284948348999023,4.41475772857666,3.4504499435424805,0.23640485107898712,-0.010537425056099892,0.21639901399612427,11.867875099182129,27.769657135009766,-42.516807556152344
3.37,5.795416355133057,3.528217077255249,0.18544374406337738,0.2102903574705124,1.3959797620773315,-1.3132075071334839,12.057878494262695,27.57965660095215,-42.10757064819336
3.38,19.869998931884766,1.7778671979904175,-0.23210379481315613,0.3686571717262268,1.6884315013885498,-2.2400429248809814,10.815550804138184,28.588130950927734,-40.93832015991211
3.4,22.08216094970703,-1.0887342691421509,0.8805586695671082,0.43768492341041565,0.33857205510139465,-2.221869468688965,10.318620681762695,29.275066375732422,-40.324466705322266
3.404,9.980463027954102,-2.0446667671203613,2.9551358222961426,0.5988006591796875,-1.86191725730896,-2.9075658321380615,9.280911445617676,30.239694595336914,-41.84449005126953
3.41,6.172286033630371,-1.6582260131835938,2.827119827270508,0.585667073726654,-2.1426098346710205,-3.3177618980407715,9.105524063110352,30.210464477539062,-42.29757308959961
3.42,-0.2189432680606842,-0.647258460521698,0.47617167234420776,0.5963572263717651,-1.8127425909042358,-3.779576063156128,8.330897331237793,31.145864486694336,-43.3206672668457
3.43,-1.5182459354400635,-1.935793399810791,0.33738797903060913,0.6681338548660278,-1.2333369255065918,-4.208556175231934,7.658579349517822,32.2274169921875,-44.51914596557617
3.44,0.3026920557022095,-3.8045878410339355,0.7812565565109253,0.7159340381622314,-0.8310821652412415,-4.564537525177002,6.0508623123168945,33.33820343017578,-44.27068328857422
3.46,2.4406790733337402,-4.363311767578125,0.8614161610603333,0.7220426797866821,-0.8077166080474854,-4.775591850280762,3.843905448913574,35.106693267822266,-44.84069061279297
3.464,1.3698909282684326,-4.627718925476074,1.4584254026412964,0.7122688889503479,-1.181107997894287,-5.00069522857666,2.6015784740448,36.17363357543945,-45.67377853393555
3.47,-0.1782652735710144,-5.095515727996826,1.6522438526153564,0.6597344279289246,-1.314734697341919,-5.003597259521484,2.1923413276672363,36.50979232788086,-45.90762710571289
3.48,-2.640479564666748,-6.485745429992676,1.8711872100830078,0.5826126933097839,-1.3509284257888794,-5.003597259521484,0.058462437242269516,37.54750061035156,-46.287635803222656
3.49,-4.7401814460754395,-7.010970115661621,1.9680966138839722,0.5522221326828003,-1.2443324327468872,-5.003597259521484,-1.4761765003204346,38.07366180419922,-47.5591926574707
3.5,-7.7144598960876465,-7.397410869598389,2.7290141582489014,0.6046038866043091,-0.9144652485847473,-5.003597259521484,-3.2008185386657715,39.330604553222656,-48.14381790161133
3.519,-10.670792579650879,-7.645068168640137,2.95393967628479,0.5711589455604553,0.6864597797393799,-5.003597259521484,-6.650102138519287,41.40602111816406,-48.20227813720703
3.523,-11.124231338500977,-7.0169525146484375,0.46420758962631226,0.5619960427284241,1.1536190509796143,-5.003597259521484,-7.205495357513428,40.64601135253906,-48.72844314575195
3.53,-9.827322959899902,-7.037291049957275,-1.0564311742782593,0.5824600458145142,1.7224873304367065,-5.003597259521484,-8.593978881835938,41.27448272705078,-47.64688491821289
3.54,-8.737391471862793,-7.8448686599731445,-1.9824535846710205,0.6165157556533813,2.057088613510132,-5.003597259521484,-10.230926513671875,41.946800231933594,-47.471500396728516
3.55,-8.93838882446289,-8.71107006072998,-2.849851608276367,0.6690501570701599,1.9575176239013672,-5.003597259521484,-12.394037246704102,42.619117736816406,-47.544578552246094
3.56,-9.430113792419434,-9.650253295898438,-2.4909281730651855,0.7568620443344116,1.5131131410598755,-4.941136360168457,-13.928675651550293,42.76527404785156,-47.69073486328125
3.58,-9.123832702636719,-10.709076881408691,-1.660618782043457,0.7057020664215088,0.7866417169570923,-4.504214763641357,-17.34872817993164,44.19760513305664,-47.71996307373047
3.584,-9.105886459350586,-12.787243843078613,-1.219143033027649,0.5302309989929199,-0.1394299864768982,-3.88311767578125,-18.021047592163086,43.75913619995117,-48.12919998168945
3.59,-10.75454044342041,-14.955141067504883,-0.7501499056816101,0.38698312640190125,-0.7194464802742004,-3.467118263244629,-18.649517059326172,44.431453704833984,-48.216896057128906
3.6,-14.026725769042969,-16.831113815307617,0.0323031060397625,0.15806137025356293,-1.3058772087097168,-2.864805221557617,-20.18415641784668,44.3437614440918,-48.75767135620117
3.61,-17.385051727294922,-16.32862091064453,0.11126624792814255,-0.055894169956445694,-1.6152803897857666,-2.3330471515655518,-20.91493797302246,44.562992095947266,-48.93306350708008
3.62,-19.777873992919922,-14.55673599243164,-0.04666003957390785,-0.15424346923828125,-1.36482572555542,-1.819920301437378,-21.48494529724121,44.47529983520508,-49.26921844482422
3.639,-21.144176483154297,-11.595619201660156,-0.8147560954093933,-0.30940327048301697,0.09789115190505981,-0.9695958495140076,-22.917274475097656,44.10990905761719,-48.684593200683594
3.643,-18.19382667541504,-9.20040225982666,-1.1617152690887451,-0.3575088679790497,0.5248859524726868,-0.7290676236152649,-22.785736083984375,43.94913864135742,-48.5384407043457
3.65,-14.657235145568848,-9.300901412963867,-0.9032905101776123,-0.478765606880188,1.0102183818817139,-0.4086688458919525,-23.487285614013672,43.94913864135742,-48.976905822753906
3.66,-9.095118522644043,-9.531808853149414,-0.9224331378936768,-0.6333145499229431,1.2533427476882935,-0.10720684379339218,-23.57497787475586,43.84682846069336,-49.42999267578125
3.67,-3.7076785564422607,-9.211170196533203,-0.6556333899497986,-0.6162103414535522,0.959058403968811,0.09453140199184418,-23.00497055053711,43.96375274658203,-48.94767761230469
3.68,-0.30987051129341125,-9.65384292602539,0.8757730722427368,-0.5679519176483154,0.47510045766830444,0.13530665636062622,-22.94650650024414,43.53989791870117,-49.15229415893555
3.7,1.0815558433532715,-9.400203704833984,2.4287149906158447,-0.40515637397766113,0.05161811038851738,0.13775010406970978,-22.244956970214844,43.75913619995117,-49.41537857055664
3.704,1.605583906173706,-9.168099403381348,5.210371017456055,-0.17302757501602173,-0.5542075037956238,0.06673702597618103,-22.84419822692871,43.7006721496582,-49.4007568359375
3.71,1.4931212663650513,-9.416953086853027,5.31685209274292,-0.09224064648151398,-0.6466008424758911,0.009010262787342072,-22.215726852416992,43.65682601928711,-50.21923065185547
3.72,0.35772696137428284,-10.01874828338623,4.431507587432861,0.09651671350002289,-0.631481945514679,0.052228979766368866,-22.244956970214844,43.15989685058594,-49.31306457519531
3.73,-3.0113673210144043,-10.527222633361816,2.9108684062957764,0.3220787048339844,-0.37140607833862305,0.1261436641216278,-22.215726852416992,43.01374053955078,-49.80999755859375
3.74,-5.595615386962891,-11.592028617858887,2.194218397140503,0.47189339995384216,0.09804386645555496,0.1742493212223053,-21.76264190673828,42.823734283447266,-50.950016021728516
3.759,-6.945167541503906,-12.29551887512207,0.8315058350563049,0.5076289772987366,1.445918083190918,0.4450153112411499,-21.20724868774414,42.77988815307617,-51.973106384277344
3.763,-7.161717891693115,-11.911470413208008,-0.1339980661869049,0.5294674634933472,1.5092952251434326,0.5629122853279114,-21.499561309814453,42.706809997558594,-51.31540298461914
3.77,-10.344171524047852,-14.037493705749512,0.6855436563491821,0.26710081100463867,1.4708107709884644,1.2909109592437744,-21.178016662597656,42.823734283447266,-51.213096618652344
3.78,-13.135398864746094,-13.861621856689453,6.197410583496094,0.33979377150535583,0.9970847964286804,1.6239852905273438,-20.62262535095215,42.64834976196289,-51.24232864379883
3.79,-9.79262638092041,-18.244075775146484,7.491927146911621,0.08078692108392715,1.1354458332061768,1.5470161437988281,-19.687227249145508,42.48757553100586,-51.4615592956543
3.8,1.97407865524292,-16.83230972290039,-4.645665168762207,0.0555887334048748,1.4398094415664673,1.1676688194274902,-18.547208786010742,42.41449737548828,-52.0169563293457
3.82,26.2372989654541,-14.92164134979248,8.401200294494629,0.5682573914527893,0.8655960559844971,1.2104294300079346,-17.684886932373047,42.12218475341797,-51.66618347167969
3.824,23.207984924316406,-13.617552757263184,5.794219970703125,0.4437935948371887,-0.2480112910270691,1.3842206001281738,-17.50950050354004,42.049110412597656,-52.16311264038086
3.83,17.42453384399414,-11.997611999511719,1.4416755437850952,0.5067126750946045,-2.0120372772216797,1.7438675165176392,-17.173341751098633,41.66910171508789,-53.01081466674805
3.84,-2.9527430534362793,-14.102100372314453,3.377469062805176,0.5826126933097839,-3.0999884605407715,2.1120665073394775,-16.837182998657227,41.873722076416016,-52.733116149902344
3.85,-13.87119197845459,-12.733406066894531,-4.18145751953125,0.6429356932640076,-2.624429702758789,1.947438359260559,-15.916398048400879,41.11370849609375,-53.66851806640625
3.86,-14.260025978088379,-10.040284156799316,-2.724228620529175,0.9033169150352478,-1.1603385210037231,1.454317331314087,-15.81408977508545,40.952938079833984,-54.20929718017578
3.88,-7.41416072845459,-9.268598556518555,-2.531606435775757,0.6496551632881165,0.06032294034957886,1.4094188213348389,-14.07483196258545,40.29523468017578,-53.8585205078125
3.883,1.9178473949432373,-12.623335838317871,3.080759048461914,0.39538252353668213,-0.028405234217643738,1.3524556159973145,-14.001753807067871,40.587547302246094,-54.457759857177734
3.89,3.3678977489471436,-14.248062133789062,5.426921844482422,0.33490684628486633,-0.5025893449783325,1.3935363292694092,-13.417129516601562,40.71908950805664,-54.662376403808594
3.9,0.02512463741004467,-14.085350036621094,5.897111415863037,0.19135352969169617,-1.053742527961731,1.4729487895965576,-13.154048919677734,40.36831283569336,-55.90470504760742
3.91,-5.848058223724365,-11.941380500793457,5.694918155670166,0.266642689704895,-1.1308642625808716,1.3437508344650269,-12.350189208984375,40.36831283569336,-54.6185302734375
3.92,-9.695716857910156,-9.847661018371582,3.726821184158325,0.18631389737129211,-0.6690501570701599,1.1242974996566772,-12.510961532592773,39.63753128051758,-55.53931427001953
3.939,-5.856433391571045,-11.25344467163086,0.4977070689201355,-0.08460482954978943,0.20983220636844635,0.7654141187667847,-11.47325325012207,39.79830551147461,-54.881614685058594
3.943,-4.962713718414307,-11.686545372009277,-0.7082754373550415,-0.15195272862911224,0.146913081407547,0.6837109327316284,-11.663256645202637,39.564453125,-54.8377685546875
3.95,-3.844069242477417,-11.125428199768066,-1.6522438526153564,-0.15561792254447937,-0.02580905519425869,0.589179515838623,-10.91786003112793,39.82753372192383,-55.45161819458008
3.96,-3.7639100551605225,-10.350153923034668,-1.2227323055267334,-0.14874568581581116,-0.27351492643356323,0.5867360830307007,-11.414791107177734,38.833675384521484,-54.51622772216797
3.97,-4.229313850402832,-12.5204439163208,-0.5718846321105957,-0.22052235901355743,-0.23441952466964722,0.6407976150512695,-10.713241577148438,39.19906234741211,-54.8962287902832
3.98,-3.1920251846313477,-14.400005340576172,1.4404791593551636,-0.09117163717746735,0.046273037791252136,0.7041748762130737,-10.68401050567627,39.06752395629883,-54.72084426879883
3.999,-2.4323041439056396,-10.585847854614258,2.6261227130889893,0.08475754410028458,0.08506298810243607,0.7919867634773254,-10.084770202636719,39.11137008666992,-54.6185302734375
4.004,-4.336990833282471,-7.328019142150879,2.1200408935546875,0.10995574295520782,0.11850785464048386,0.7605272531509399,-10.21631145477295,38.819061279296875,-55.32008361816406
4.01,-5.431707382202148,-6.853043556213379,1.8185451030731201,0.11316278576850891,0.11102475225925446,0.7082982659339905,-10.01169204711914,38.8629035949707,-55.10084533691406
4.02,-5.520241737365723,-6.6831536293029785,1.6175479888916016,0.1189659982919693,0.19043724238872528,0.6101016402244568,-9.880152702331543,38.55597686767578,-55.568546295166016
4.03,-4.998606204986572,-7.123432636260986,2.234896183013916,0.059864792972803116,0.22113321721553802,0.5056437253952026,-9.54399299621582,39.30137634277344,-55.33469772338867
4.04,-4.642076015472412,-8.82951545715332,2.3090739250183105,-0.018478674814105034,0.206777885556221,0.43676862120628357,-9.617071151733398,38.43905258178711,-54.472373962402344
4.059,-3.0592236518859863,-9.658628463745117,2.860619306564331,-0.11484266072511673,0.15577064454555511,0.4674646258354187,-9.427068710327148,38.833675384521484,-54.80853271484375
4.063,-2.9862425327301025,-9.538987159729004,2.3712871074676514,-0.11820242553949356,0.1215621829032898,0.46990808844566345,-9.412452697753906,38.43905258178711,-54.60391616821289
4.07,-3.5700912475585938,-10.199406623840332,2.8654050827026367,-0.18845191597938538,0.03955352306365967,0.4758639931678772,-9.339374542236328,38.468284606933594,-54.79391860961914
4.08,-4.679164409637451,-10.1874418258667,2.225324869155884,-0.2724458873271942,0.0377209298312664,0.5337435007095337,-8.79859733581543,38.04443359375,-53.88775634765625
4.09,-4.163511276245117,-10.177870750427246,1.3495519161224365,-0.2854267954826355,0.17440202832221985,0.5940664410591125,-8.462437629699707,38.45366668701172,-54.20929718017578
4.1,-1.9477574825286865,-10.323833465576172,1.502692461013794,-0.32818731665611267,0.15653420984745026,0.6968445181846619,-7.892428874969482,38.07366180419922,-54.676998138427734
4.12,-3.342773199081421,-9.089136123657227,2.15234375,-0.3355177044868469,-0.15470163524150848,0.8593347072601318,-8.009353637695312,38.13212585449219,-53.27389907836914
4.124,-3.8847475051879883,-8.998208999633789,2.094916343688965,-0.3266601860523224,-0.16951508820056915,0.8917105197906494,-8.564746856689453,37.56211853027344,-53.843902587890625
4.13,-5.236692428588867,-8.86780071258545,1.868794322013855,-0.31642818450927734,-0.1310305893421173,0.9173668622970581,-7.9801225662231445,38.30751037597656,-53.96083068847656
4.14,-5.347958564758301,-8.657232284545898,1.4751750230789185,-0.29275718331336975,0.07208210229873657,0.9553932547569275,-7.61473274230957,37.73750305175781,-54.18006134033203
4.15,-4.137190341949463,-8.679964065551758,1.4632110595703125,-0.2739730477333069,0.17470745742321014,1.0082330703735352,-7.103186130523682,37.474422454833984,-53.17158508300781
4.16,-4.042673587799072,-8.675178527832031,1.9178473949432373,-0.25473082065582275,0.14645493030548096,1.0308350324630737,-6.8547210693359375,37.75211715698242,-53.215431213378906
4.18,-3.555734395980835,-9.970890998840332,1.415354609489441,-0.2727513313293457,0.15225815773010254,1.259145975112915,-6.767026901245117,36.67056655883789,-53.30312728881836
4.183,-2.823530673980713,-9.90030288696289,1.6031910181045532,-0.2577851414680481,0.156686931848526,1.3171781301498413,-6.606255531311035,36.61210250854492,-52.893890380859375
4.19,-2.4981067180633545,-9.265008926391602,2.293520450592041,-0.266642689704895,0.11209376901388168,1.3994922637939453,-6.0362467765808105,36.86056900024414,-53.4200553894043
4.2,-4.851447582244873,-8.60459041595459,1.7958134412765503,-0.2664899528026581,0.04138611629605293,1.5202908515930176,-5.437006950378418,36.12978744506836,-52.513885498046875
4.21,-6.349354267120361,-9.42054271697998,1.7718851566314697,-0.26572638750076294,0.20051652193069458,1.623221755027771,-4.764688968658447,35.61824035644531,-52.55773162841797
4.22,-5.532205581665039,-10.685149192810059,1.3016955852508545,-0.31642818450927734,0.4489859640598297,1.715462327003479,-4.384682655334473,35.545162200927734,-51.593101501464844
4.24,-2.840280294418335,-12.626924514770508,2.389233350753784,-0.42012259364128113,0.5154175162315369,1.9776761531829834,-3.800058364868164,34.60976028442383,-51.24232864379883
4.244,-2.8378875255584717,-11.438888549804688,2.5220348834991455,-0.4153883457183838,0.4795292019844055,2.0361664295196533,-3.1131248474121094,34.81438064575195,-50.993858337402344
4.25,-3.5844480991363525,-8.812766075134277,2.7900309562683105,-0.3868303894996643,0.4036291837692261,2.088089942932129,-2.864659309387207,34.33206558227539,-50.365386962890625
4.26,-6.401997089385986,-7.47517728805542,2.4335005283355713,-0.3326161205768585,0.3816380500793457,2.180025339126587,-2.5138847827911377,34.156681060791016,-50.67231750488281
4.27,-7.062416076660156,-8.420342445373535,1.2514461278915405,-0.2791654169559479,0.5807800889015198,2.247220516204834,-1.3300204277038574,33.74744415283203,-49.853843688964844
4.28,-4.872982978820801,-7.622336387634277,1.56969153881073,-0.23884831368923187,0.7932084798812866,2.2852468490600586,-1.1400175094604492,33.30897521972656,-48.90382766723633
4.3,-6.153142929077148,-6.099304676055908,1.3028918504714966,-0.2750420570373535,0.8119926452636719,2.2655463218688965,0.7600116729736328,32.38819122314453,-48.494590759277344
4.304,-7.551748275756836,-5.960521221160889,0.7429714202880859,-0.28237244486808777,0.8671231865882874,2.244624376296997,0.745396077632904,32.19818878173828,-48.6407470703125
4.31,-6.197410583496094,-6.3421759605407715,0.696311354637146,-0.28878653049468994,0.8663595914840698,2.2368359565734863,1.2715580463409424,32.373573303222656,-48.55305480957031
4.32,-6.221338748931885,-8.96949577331543,0.97148597240448,-0.31062498688697815,0.6896668672561646,2.337170362472534,1.900029182434082,31.277402877807617,-48.9622917175293
4.33,-6.331408500671387,-8.97787094116211,1.0013961791992188,-0.36132678389549255,0.7302893400192261,2.395660638809204,2.0754165649414062,30.89739990234375,-48.596900939941406
4.34,-7.148557662963867,-7.539783954620361,1.1521440744400024,-0.3597996234893799,0.6592763066291809,2.428800344467163,2.3092663288116455,29.669687271118164,-47.296112060546875
4.36,-7.747959613800049,-11.827722549438477,1.026520848274231,-0.41813725233078003,0.8915578126907349,2.4420864582061768,3.595440149307251,28.748903274536133,-46.550716400146484
4.363,-5.801398277282715,-10.920842170715332,1.0504491329193115,-0.42959097027778625,0.8979719281196594,2.4390320777893066,3.712364673614502,28.79275131225586,-46.44840621948242
4.37,-4.882554531097412,-8.94676399230957,0.6867400407791138,-0.4407392740249634,0.7528914213180542,2.4472787380218506,4.092370510101318,28.441978454589844,-45.65916442871094
4.38,-8.447859764099121,-8.002795219421387,0.5120640397071838,-0.3972151279449463,0.5114468932151794,2.461939573287964,4.735457420349121,27.681964874267578,-45.717628479003906
4.39,-9.930213928222656,-9.261420249938965,-0.11126624792814255,-0.38728857040405273,0.7060074806213379,2.3515257835388184,5.407775402069092,26.629642486572266,-45.1037712097168
4.4,-5.546562671661377,-12.159127235412598,-0.6640082597732544,-0.4651738703250885,0.8222246170043945,2.2734875679016113,5.700087547302246,25.81116485595703,-45.03069305419922
4.419,-6.722634792327881,-8.681159973144531,-1.345962643623352,-0.5120577812194824,0.39706239104270935,2.244777202606201,5.729318618774414,24.74422836303711,-43.58374786376953
4.422,-8.039883613586426,-9.824929237365723,-0.9690931439399719,-0.5309945940971375,0.35155293345451355,2.23591947555542,6.109324932098389,24.75884246826172,-42.57527160644531
4.431,-8.768498420715332,-12.736994743347168,-0.3756731152534485,-0.5813909769058228,0.44226643443107605,2.1697933673858643,6.313942909240723,24.349605560302734,-43.02835464477539
4.44,-7.223931312561035,-15.462419509887695,-0.11246266216039658,-0.632398247718811,0.6681338548660278,1.9996674060821533,6.255480766296387,23.867290496826172,-42.6045036315918
4.45,-5.400600433349609,-15.613166809082031,0.4785645008087158,-0.6655376553535461,0.6650795340538025,1.75303053855896,6.723180294036865,23.516515731811523,-41.53756332397461
4.46,-4.310669898986816,-13.228718757629395,1.3363914489746094,-0.7066183686256409,0.4378376603126526,1.4926491975784302,7.015492916107178,23.57497787475586,-41.42063903808594
4.48,-5.529813289642334,-7.038487434387207,-0.7980062961578369,-0.49816060066223145,-0.5280929803848267,1.0343475341796875,6.8985676765441895,22.39111328125,-40.587547302246094
4.483,-5.90668249130249,-4.3046875,-0.8889335989952087,-0.4288273751735687,-0.6820310354232788,1.0989465713500977,6.957030296325684,22.128032684326172,-40.73370361328125
4.49,-7.245467185974121,-1.5421741008758545,0.17706885933876038,-0.1918116807937622,-1.2701416015625,1.299310326576233,7.307804584503174,22.157264709472656,-40.587547302246094
4.5,-9.397810935974121,1.4919248819351196,1.5421741008758545,0.15470163524150848,-1.505935549736023,1.2524265050888062,7.410114288330078,21.981876373291016,-40.2221565246582
4.51,-8.336593627929688,4.785645008087158,3.148954391479492,0.29275718331336975,-1.3489431142807007,1.0746647119522095,7.673194885253906,21.92341423034668,-40.70447540283203
4.52,-5.544169902801514,6.69870662689209,2.620140552520752,0.39278632402420044,-0.4980078935623169,0.583528995513916,8.111662864685059,21.864952087402344,-40.36831283569336
4.539,6.374479293823242,5.656632423400879,-1.31365966796875,0.18188512325286865,1.476613998413086,-1.6215417385101318,7.936275959014893,22.508039474487305,-39.47676086425781
4.542,11.365906715393066,4.579862117767334,-1.5182459354400635,0.21700987219810486,1.4660766124725342,-1.8527542352676392,7.658579349517822,22.82958221435547,-39.593685150146484
4.55,16.5511531829834,1.9142580032348633,-0.5371886491775513,0.2877175211906433,0.7041748762130737,-2.3883302211761475,7.015492916107178,23.735750198364258,-39.1259880065918
4.56,16.68036651611328,-1.590030550956726,0.6161518096923828,0.3426953852176666,-0.6389650702476501,-2.75836181640625,6.284712314605713,24.627302169799805,-39.330604553222656
4.57,11.919845581054688,-2.2169501781463623,1.3962119817733765,0.4092797338962555,-1.8648189306259155,-3.1813862323760986,5.773165702819824,25.460391998291016,-38.92136764526367
4.58,5.921039581298828,-1.9728822708129883,1.0492527484893799,0.40454548597335815,-2.48515248298645,-3.5109479427337646,5.539316177368164,27.038877487182617,-40.06138610839844
4.6,-1.3232309818267822,-2.9826531410217285,1.9764714241027832,0.436157763004303,-2.3212878704071045,-4.169918537139893,3.9900612831115723,28.60274887084961,-41.66910171508789
4.604,-2.342573404312134,-3.6741790771484375,2.5663022994995117,0.44104471802711487,-2.1000020503997803,-4.336074352264404,4.033908367156982,29.37737464904785,-41.727561950683594
4.61,-3.7471601963043213,-4.4135613441467285,3.0340988636016846,0.4239404797554016,-1.6855299472808838,-4.55064058303833,3.1131248474121094,30.488161087036133,-41.78602600097656
4.62,-5.349154949188232,-4.486542224884033,2.853440999984741,0.42500948905944824,-1.096961259841919,-4.787045478820801,1.9731072187423706,32.13972473144531,-43.11604690551758
4.63,-6.2907304763793945,-4.5200419425964355,2.5938196182250977,0.4453207552433014,-0.5134322047233582,-4.985118389129639,0.9061678051948547,32.72434997558594,-42.72142791748047
4.64,-6.374479293823242,-5.009374141693115,2.059023857116699,0.44715335965156555,0.00931569468230009,-5.003597259521484,-0.3800058364868164,34.21514129638672,-43.247589111328125
4.659,-5.56331205368042,-6.57547664642334,1.275374412536621,0.4369213581085205,0.7254024744033813,-5.003597259521484,-4.472376346588135,36.07132339477539,-43.437591552734375
4.662,-5.654239654541016,-6.774080753326416,1.2143574953079224,0.43447789549827576,0.8315402865409851,-5.003597259521484,-5.305466175079346,36.31978988647461,-43.20374298095703
4.67,-6.501298904418945,-7.433303356170654,0.8877371549606323,0.41523563861846924,1.004873275756836,-5.003597259521484,-6.021631240844727,37.56211853027344,-43.072200775146484
4.68,-6.886543273925781,-7.210770606994629,0.2715853750705719,0.37568211555480957,1.2133311033248901,-5.003597259521484,-7.936275959014893,38.599822998046875,-43.189125061035156
4.69,-7.249055862426758,-7.0061845779418945,-0.5300102233886719,0.3387247622013092,1.3379476070404053,-5.003597259521484,-9.792458534240723,40.19292449951172,-43.10143280029297
4.709,-7.613961696624756,-7.100700855255127,-1.6534403562545776,0.4054618179798126,1.361160397529602,-5.002528190612793,-11.882491111755371,40.397544860839844,-43.6422119140625
4.713,-9.049654960632324,-8.967103004455566,-1.0085747241973877,0.5135849714279175,1.2357803583145142,-4.848589897155762,-14.030985832214355,41.186790466308594,-43.262203216552734
4.72,-9.492326736450195,-9.911070823669434,-0.26081767678260803,0.5578727126121521,1.1299479007720947,-4.7303876876831055,-15.083308219909668,41.9614143371582,-43.496055603027344
4.73,-8.803194046020508,-10.73300552368164,0.4977070689201355,0.5791002511978149,0.8452848196029663,-4.564384937286377,-16.851797103881836,42.19526290893555,-43.91990661621094
4.74,-7.529016494750977,-11.273782730102539,0.33738797903060913,0.5621487498283386,0.3546072542667389,-4.321718692779541,-18.44489860534668,42.76527404785156,-43.496055603027344
4.75,-7.427321434020996,-12.350553512573242,0.06699903309345245,0.5407684445381165,-0.32818731665611267,-3.961002826690674,-19.964923858642578,42.57527160644531,-44.89915466308594
4.76,-9.29491901397705,-13.968101501464844,0.23688943684101105,0.43967023491859436,-1.2003501653671265,-3.3953418731689453,-21.528793334960938,42.67757797241211,-44.562992095947266
4.779,-16.16471290588379,-14.658431053161621,-1.1222338676452637,0.18478672206401825,-1.4676038026809692,-2.574338674545288,-22.66880989074707,43.21835708618164,-46.02455520629883
4.783,-17.795421600341797,-14.019548416137695,-1.8077774047851562,0.1589776873588562,-1.3651310205459595,-2.486679792404175,-23.355743408203125,42.619117736816406,-44.88453674316406
4.79,-19.200008392333984,-12.805190086364746,-2.359323024749756,0.10674870014190674,-0.8785768747329712,-2.253329038619995,-23.998830795288086,43.3645133972168,-45.32300567626953
4.8,-18.636499404907227,-11.856435775756836,-1.7240287065505981,-0.0006108652451075613,-0.011759155429899693,-1.7371480464935303,-24.40806770324707,43.48143768310547,-45.132999420166016
4.81,-15.920644760131836,-11.503494262695312,-0.8985048532485962,-0.1765400469303131,0.8483390808105469,-1.2875511646270752,-24.934228897094727,43.189125061035156,-45.556854248046875
4.829,-11.69611644744873,-11.235498428344727,-0.07178467512130737,-0.27779096364974976,1.0978776216506958,-0.8287914395332336,-25.372699737548828,42.79450607299805,-45.77608871459961
4.833,-9.701699256896973,-10.48534870147705,0.92482590675354,-0.33796119689941406,1.0461066961288452,-0.23884831368923187,-26.103479385375977,42.72142791748047,-45.70301055908203
4.84,-8.957530975341797,-9.951748847961426,1.4309078454971313,-0.35323283076286316,0.9440922141075134,0.0809396430850029,-25.621164321899414,42.54603958129883,-45.805320739746094
4.85,-8.049454689025879,-10.15155029296875,1.7264214754104614,-0.39843684434890747,0.7162394523620605,0.4492913782596588,-25.562700271606445,42.53142547607422,-45.77608871459961
4.86,-7.721638202667236,-10.28195858001709,1.0971091985702515,-0.4036291837692261,0.5283983945846558,0.7870998382568359,-25.29962158203125,42.3414192199707,-46.08301544189453
4.87,-6.546762466430664,-10.479366302490234,1.2227323055267334,-0.35705074667930603,0.6117815375328064,0.9503535628318787,-24.729610443115234,42.91142654418945,-45.70301055908203
4.88,-3.7938201427459717,-10.272387504577637,0.9367900490760803,-0.30482175946235657,0.6076582074165344,0.8866708874702454,-24.56884002685547,42.6045036315918,-46.60917663574219
4.899,-7.037291049957275,-11.48674488067627,4.143172264099121,-0.076052725315094,-0.41034871339797974,1.8116735219955444,-23.9695987701416,42.47296142578125,-46.25840377807617
4.903,-9.337989807128906,-11.84447193145752,4.651647090911865,-0.2200642079114914,-0.4466952085494995,1.8292360305786133,-23.764982223510742,42.10757064819336,-45.68839645385742
4.91,-11.542976379394531,-12.04786205291748,3.3547372817993164,-0.17608189582824707,0.22174407541751862,1.0861183404922485,-22.74188804626465,42.633731842041016,-45.70301055908203
4.92,-2.431107759475708,-13.422537803649902,3.87876558303833,0.05619960278272629,1.0781772136688232,0.5929974317550659,-23.2095890045166,42.326805114746094,-46.76995086669922
4.93,5.160121917724609,-17.182859420776367,1.0707881450653076,-0.1866193264722824,0.9195048809051514,0.7761042714118958,-22.244956970214844,42.326805114746094,-45.90762710571289
4.94,9.847661018371582,-20.397615432739258,0.7860422134399414,-0.11652254313230515,0.6130033135414124,1.1171197891235352,-22.069570541381836,42.0052604675293,-46.59456253051758
4.952,11.907881736755371,-17.77388572692871,9.58923625946045,0.44348815083503723,-0.12553280591964722,1.4602733850479126,-21.4703311920166,42.12218475341797,-47.296112060546875
4.96,12.257233619689941,-17.586050033569336,10.622936248779297,0.21441368758678436,-0.35781431198120117,1.3678799867630005,-20.681087493896484,41.888336181640625,-47.03303146362305
4.97,10.944770812988281,-12.917652130126953,0.7645068168640137,0.24648413062095642,-1.16293466091156,1.6581937074661255,-20.154926300048828,41.56679153442383,-46.726104736328125
4.98,2.3880369663238525,-14.197813034057617,5.842076301574707,0.4596760869026184,-1.7803666591644287,2.1117610931396484,-20.140310287475586,41.53756332397461,-47.296112060546875
4.99,-3.8464622497558594,-13.957334518432617,0.2512463629245758,0.44516804814338684,-1.9346102476119995,1.9793561697006226,-18.956445693969727,41.47909927368164,-47.456886291503906
5.01,-7.197610378265381,-10.835896492004395,-0.4498506486415863,0.6733261942863464,-1.4230105876922607,1.8736764192581177,-18.50336265563965,40.93832015991211,-47.82227325439453
5.014,-9.06161880493164,-8.496912956237793,-2.2671992778778076,0.5636758804321289,-0.5813909769058228,1.7121025323867798,-17.670272827148438,41.318328857421875,-48.50920867919922
5.02,-7.768298149108887,-8.390432357788086,-1.2526426315307617,0.536797821521759,-0.27458393573760986,1.5096007585525513,-16.574100494384766,40.74831771850586,-47.909969329833984
5.03,-5.521438121795654,-8.300702095031738,-0.43549370765686035,0.5021312236785889,-0.07223481684923172,1.3571898937225342,-16.515640258789062,40.71908950805664,-48.52382278442383
5.04,-4.518845558166504,-8.61775016784668,-0.05862415209412575,0.45173484086990356,-0.08277223259210587,1.3365731239318848,-15.52177619934082,41.128326416015625,-48.93306350708008
5.05,-5.168496608734131,-9.845268249511719,0.40677982568740845,0.37659841775894165,-0.17333300411701202,1.1855366230010986,-15.390236854553223,40.82139587402344,-48.39228439331055
5.06,-5.200799465179443,-11.397013664245605,0.4749752879142761,0.3107776939868927,-0.11713340878486633,1.03984534740448,-15.18561840057373,39.87138366699219,-49.795379638671875
5.073,-4.742574214935303,-13.13300609588623,1.8484554290771484,0.17073683440685272,-0.0027488935738801956,0.9534079432487488,-14.747150421142578,40.48523712158203,-49.00613784790039
5.08,-3.8009984493255615,-13.701302528381348,2.2911276817321777,0.14004085958003998,-0.006108652334660292,0.9193521738052368,-14.381760597229004,39.959075927734375,-49.020755767822266
5.09,-3.0927231311798096,-13.73958683013916,2.7146570682525635,0.08567384630441666,0.0036651913542300463,0.9075930714607239,-14.045600891113281,40.04676818847656,-49.06460189819336
5.1,-2.9623141288757324,-12.422338485717773,2.510071039199829,0.08811730891466141,-0.02580905519425869,0.9586002826690674,-13.621747970581055,39.973690032958984,-48.465362548828125
5.11,-3.4025938510894775,-10.467402458190918,2.2396819591522217,0.06322455406188965,-0.10552696883678436,0.9758571982383728,-13.592517852783203,40.41215896606445,-49.31306457519531
5.13,-4.033102512359619,-8.630910873413086,2.23848557472229,0.08506298810243607,-0.14004085958003998,0.9242391586303711,-12.920199394226074,40.36831283569336,-49.00613784790039
5.133,-6.937989234924316,-8.328218460083008,1.9118653535842896,0.0009162978385575116,-0.2538144886493683,0.7811439037322998,-12.37942123413086,39.75445556640625,-48.69921112060547
5.14,-8.662017822265625,-9.146564483642578,0.8997012972831726,-0.08750644326210022,-0.1362229436635971,0.6513350009918213,-12.408652305603027,39.403682708740234,-49.00613784790039
5.15,-7.7491559982299805,-10.256834030151367,0.0406779870390892,-0.11560624837875366,0.16630806028842926,0.5198463201522827,-12.496346473693848,39.47676086425781,-49.035369873046875
5.16,-4.549952030181885,-11.340782165527344,0.46779680252075195,-0.15943582355976105,0.3378084599971771,0.4616613984107971,-12.028646469116211,39.213680267333984,-47.95381546020508
5.17,-2.610569477081299,-11.35633659362793,0.5144568085670471,-0.146913081407547,0.20631973445415497,0.4836525619029999,-12.101724624633789,39.213680267333984,-48.83074951171875
5.189,-3.696910858154297,-10.53081226348877,0.8877371549606323,-0.1498146951198578,0.02932153083384037,0.55069500207901,-11.502485275268555,39.16983413696289,-48.5822868347168
5.193,-5.501099109649658,-10.587043762207031,1.4452649354934692,-0.1560760736465454,0.0630718320608139,0.5966625809669495,-11.195556640625,39.30137634277344,-48.88921356201172
5.2,-5.359922409057617,-11.075179100036621,1.412961721420288,-0.17318028211593628,0.17379117012023926,0.6123924255371094,-11.034785270690918,38.93598175048828,-48.75767135620117
5.21,-3.7052857875823975,-11.321639060974121,1.9621144533157349,-0.17531833052635193,0.31154128909111023,0.6640104651451111,-10.947091102600098,38.760597229003906,-47.89535140991211
5.22,-3.0281169414520264,-9.634699821472168,2.8139593601226807,-0.20341812074184418,0.21670444309711456,0.7206682562828064,-11.093247413635254,39.00905990600586,-47.82227325439453
5.23,-4.543970108032227,-7.77906608581543,2.2911276817321777,-0.22021691501140594,0.1589776873588562,0.7353289723396301,-10.625548362731934,38.71674728393555,-48.026893615722656
5.25,-5.594419002532959,-7.061219215393066,2.1236300468444824,-0.2174680233001709,0.11056660860776901,0.6969972848892212,-10.45016098022461,39.447532653808594,-48.24612808227539
5.253,-5.340780258178711,-7.252645492553711,1.9896320104599,-0.2353358417749405,0.18646661937236786,0.6858489513397217,-10.230926513671875,39.25752639770508,-48.33382034301758
5.26,-4.557130336761475,-7.625925540924072,1.9130616188049316,-0.26710081100463867,0.23609942197799683,0.6966918110847473,-9.923998832702637,38.99444580078125,-47.71996307373047
5.27,-3.755535125732422,-8.341379165649414,1.867598056793213,-0.33536502718925476,0.20906862616539001,0.7837400436401367,-9.77784252166748,38.263668060302734,-47.57380676269531
5.28,-3.6801609992980957,-9.046065330505371,1.6582260131835938,-0.3819434940814972,0.1635591685771942,0.8924740552902222,-10.070155143737793,38.8629035949707,-47.20841979980469
5.29,-3.579662799835205,-8.590232849121094,2.0003998279571533,-0.4092797338962555,0.1313360333442688,0.9876163601875305,-9.77784252166748,37.91289138793945,-47.25226593017578
5.31,-3.864408493041992,-7.769495010375977,1.3208380937576294,-0.4138611853122711,0.03237585723400116,1.0958921909332275,-9.120140075683594,38.161354064941406,-47.33995819091797
5.314,-4.435096740722656,-9.060422897338867,0.5347958207130432,-0.4763221740722656,0.038026362657547,1.260825753211975,-8.608593940734863,38.00058364868164,-47.32534408569336
5.32,-4.4410786628723145,-9.773483276367188,0.35054853558540344,-0.5193881988525391,0.06490442901849747,1.3578007221221924,-8.491668701171875,38.07366180419922,-47.486114501953125
5.33,-4.535595417022705,-10.291529655456543,0.06939185410737991,-0.568715512752533,0.09575312584638596,1.4506522417068481,-8.506284713745117,37.18210983276367,-47.70534896850586
5.34,-4.2723846435546875,-10.807183265686035,-0.5886343717575073,-0.6345362663269043,0.1014036312699318,1.5880968570709229,-7.8339667320251465,36.93364715576172,-46.59456253051758
5.35,-3.128615379333496,-11.197213172912598,0.0849451944231987,-0.7105889916419983,0.10048733651638031,1.7693711519241333,-6.518562316894531,36.26132583618164,-46.185325622558594
5.37,-2.4562323093414307,-9.649056434631348,-0.08614161610603333,-0.725860595703125,-0.07559457421302795,1.9239200353622437,-6.562408924102783,35.939781188964844,-45.33761978149414
5.373,-4.882554531097412,-7.22752046585083,0.6687938570976257,-0.6414085030555725,-0.299476683139801,2.102750778198242,-5.773165702819824,35.50131607055664,-45.60070037841797
5.38,-6.131607532501221,-6.625725269317627,0.7310072779655457,-0.5810855627059937,-0.32192596793174744,2.141082763671875,-5.1008477210998535,34.84361267089844,-45.206077575683594
5.39,-8.612964630126953,-6.687938690185547,1.0504491329193115,-0.5134322047233582,-0.15317445993423462,2.160783052444458,-4.647763729095459,34.85823059082031,-45.176849365234375
5.4,-7.842475891113281,-6.905685901641846,1.1868400573730469,-0.4547891914844513,0.20983220636844635,2.116495370864868,-3.1131248474121094,34.02513885498047,-45.001461029052734
5.41,-7.259823799133301,-7.488338470458984,1.6785650253295898,-0.43890663981437683,0.39416077733039856,2.119244337081909,-3.0546624660491943,34.06898498535156,-44.95761489868164
5.43,-6.412764072418213,-7.11146879196167,1.660618782043457,-0.4326452910900116,0.5372559428215027,2.1264219284057617,-2.4992692470550537,33.30897521972656,-44.86991882324219
5.434,-6.196214199066162,-5.960521221160889,2.1343977451324463,-0.417679101228714,0.5186246037483215,2.1503982543945312,-1.8707979917526245,32.607425689697266,-43.93452072143555
5.44,-7.395018577575684,-6.175874710083008,2.0470597743988037,-0.4456261694431305,0.5871942043304443,2.1759018898010254,-1.6077170372009277,31.701257705688477,-43.83221435546875
5.45,-8.189435005187988,-6.928417682647705,2.6285154819488525,-0.4593706429004669,0.7053965926170349,2.2043073177337646,-1.3154048919677734,31.71587371826172,-43.466819763183594
5.46,-8.532805442810059,-9.267401695251465,2.5196421146392822,-0.45433101058006287,0.75105881690979,2.213164806365967,-0.8623209595680237,30.985092163085938,-42.37065124511719
5.47,-7.910671234130859,-13.112667083740234,2.062613010406494,-0.4911356270313263,0.8309293985366821,2.291966438293457,0.08769366145133972,30.663549423217773,-42.47296142578125
5.49,-5.623133182525635,-13.511072158813477,2.0518453121185303,-0.5206099152565002,0.8468118906021118,2.3719897270202637,0.8184741139411926,29.7281494140625,-41.84449005126953
5.494,-8.079365730285645,-11.105090141296387,1.2143574953079224,-0.4928155243396759,0.5685628056526184,2.464841365814209,1.5492546558380127,29.391992568969727,-41.39140701293945
5.5,-8.426324844360352,-11.028519630432129,0.7824530005455017,-0.4766275882720947,0.6692028641700745,2.4494168758392334,1.4030985832214355,28.82198143005371,-42.049110412597656
5.51,-6.7680983543396,-8.663214683532715,-0.2069791555404663,-0.4430300295352936,0.7374670505523682,2.3666446208953857,2.2069568634033203,28.105815887451172,-40.85062789916992
5.52,-6.525227069854736,-8.723034858703613,-0.9786643981933594,-0.44455718994140625,0.6108652353286743,2.326174736022949,2.747734546661377,27.433500289916992,-40.41215896606445
5.53,-6.33380126953125,-8.000402450561523,-1.4751750230789185,-0.470671683549881,0.5836817622184753,2.232712507247925,3.697749137878418,26.731950759887695,-40.03215408325195
5.55,-7.134200572967529,-7.080362319946289,-1.5158531665802002,-0.49006664752960205,0.4993823170661926,2.1762073040008545,3.697749137878418,26.68810272216797,-40.514469146728516
5.553,-8.60219669342041,-10.411170959472656,-0.8961120247840881,-0.5233587622642517,0.4882340133190155,2.0902280807495117,4.3262200355529785,25.548086166381836,-39.43291473388672
5.56,-7.916653156280518,-12.086146354675293,-0.7561319470405579,-0.5583308339118958,0.587652325630188,1.9645425081253052,4.209295749664307,24.86115074157715,-39.47676086425781
5.57,-6.594618797302246,-13.061222076416016,-0.6879364848136902,-0.583528995513916,0.587041437625885,1.7988454103469849,4.793920040130615,24.21806526184082,-39.213680267333984
5.58,-6.345765590667725,-13.446465492248535,-0.5910272002220154,-0.602465808391571,0.294437050819397,1.5300647020339966,5.2031569480896,24.174217224121094,-38.97983169555664
5.59,-7.004988193511963,-12.363714218139648,-0.7680960297584534,-0.6264423131942749,-0.003054326167330146,1.2870930433273315,5.612394332885742,23.238819122314453,-37.54750061035156
5.61,-8.72782039642334,-8.534001350402832,-1.3088740110397339,-0.5393940210342407,-0.2565633952617645,1.2441797256469727,5.466238021850586,22.990352630615234,-36.23209762573242
5.614,-9.279365539550781,-4.333401679992676,-0.5312066078186035,-0.30512717366218567,-0.6382014751434326,1.332755208015442,5.75855016708374,23.01958465576172,-36.31978988647461
5.62,-7.993224143981934,-2.9168508052825928,0.47617167234420776,-0.2457205355167389,-0.6214026212692261,1.2377656698226929,6.123940467834473,22.09880256652832,-36.20286560058594
5.63,-5.1696929931640625,-0.7082754373550415,1.4691929817199707,-0.06918048858642578,-0.5427537560462952,0.873842716217041,6.299327373504639,22.157264709472656,-36.39286804199219
5.64,-4.012763500213623,2.8905298709869385,2.062613010406494,0.14385876059532166,-0.7209736704826355,0.6685919761657715,6.591639518737793,21.967260360717773,-36.59748840332031
5.65,-3.2195427417755127,6.525227069854736,4.850251197814941,0.3576616048812866,-0.7455610036849976,0.4063781201839447,6.737796306610107,22.11341667175293,-37.065185546875
5.67,-1.046859860420227,7.080362319946289,2.2612173557281494,0.25854870676994324,0.1869247555732727,-0.3833179175853729,6.372405529022217,22.303421020507812,-36.77287292480469
5.673,8.178667068481445,6.801598072052002,-1.6187443733215332,0.2073887437582016,1.3917036056518555,-1.9827158451080322,6.0362467765808105,22.683425903320312,-35.79362487792969
5.68,13.75394344329834,2.788834571838379,-0.39122650027275085,0.20357082784175873,1.0178542137145996,-2.398715019226074,5.700087547302246,23.268049240112305,-35.82286071777344
5.69,17.042879104614258,-1.1330015659332275,-0.8087739944458008,0.22082778811454773,-0.17928895354270935,-2.7675249576568604,4.881613731384277,24.057292938232422,-35.95439910888672
5.7,14.580663681030273,-2.5770697593688965,0.5491527915000916,0.30833423137664795,-1.7762433290481567,-3.1086933612823486,4.706226348876953,24.77345848083496,-36.115169525146484
5.71,8.71944522857666,-1.7527425289154053,0.39481574296951294,0.34605515003204346,-3.004082441329956,-3.4352004528045654,4.1362175941467285,25.67962646484375,-36.31978988647461
5.731,2.26959228515625,-1.5601202249526978,1.124626636505127,0.3452915847301483,-3.505755662918091,-3.8290560245513916,3.712364673614502,28.544286727905273,-38.775211334228516
5.734,-4.535595417022705,-3.5030922889709473,1.8293129205703735,0.2932153046131134,-2.9261972904205322,-4.233448505401611,3.4492838382720947,28.544286727905273,-38.775211334228516
5.749,-7.225127696990967,-4.693521499633789,2.933600664138794,0.27290403842926025,-1.7788394689559937,-4.5822529792785645,2.4261913299560547,30.488161087036133,-40.06138610839844
5.753,-7.347161769866943,-4.851447582244873,3.3918259143829346,0.2716823220252991,-1.4205671548843384,-4.692361354827881,2.1484947204589844,31.11663246154785,-40.2660026550293
5.76,-7.093522548675537,-5.054837703704834,3.6011979579925537,0.26404649019241333,-0.9185885787010193,-4.818046569824219,1.1838643550872803,31.45279312133789,-39.944461822509766
5.77,-6.813561916351318,-5.627918720245361,3.6801609992980957,0.28848108649253845,-0.3738495111465454,-4.915480136871338,-0.5407775044441223,32.622039794921875,-39.783687591552734
5.78,-7.484748840332031,-6.82313346862793,3.401397228240967,0.29474249482154846,0.09117163717746735,-4.961752891540527,-1.7246419191360474,33.95206069946289,-40.1636962890625
5.79,-8.685946464538574,-7.694121360778809,2.667997121810913,0.3231476843357086,0.6679810881614685,-4.989241600036621,-3.0838937759399414,35.12131118774414,-40.70447540283203
5.803,-9.205188751220703,-7.830511569976807,1.3591231107711792,0.3581197261810303,1.1893545389175415,-5.001153945922852,-5.75855016708374,36.43671417236328,-40.11984634399414
5.81,-8.854640007019043,-7.657032012939453,0.9595218300819397,0.403323769569397,1.4283556938171387,-5.001764297485352,-6.723180294036865,36.58287048339844,-39.783687591552734
5.82,-8.329415321350098,-7.5457658767700195,0.1411765217781067,0.4092797338962555,1.6172657012939453,-4.963432788848877,-8.535516738891602,37.53288269042969,-39.929847717285156
5.83,-8.02791976928711,-7.6283183097839355,-0.4163511395454407,0.44745880365371704,1.6149749755859375,-4.868596076965332,-10.508623123168945,38.54136276245117,-39.82753372192383
5.84,-7.964509963989258,-8.37846851348877,-0.7106683254241943,0.5068654417991638,1.4196507930755615,-4.6940412521362305,-12.306343078613281,38.93598175048828,-39.1844482421875
5.85,-8.047062873840332,-9.678967475891113,-0.3361915946006775,0.6308711171150208,1.111163854598999,-4.533994674682617,-14.35252857208252,39.593685150146484,-39.28675842285156
5.869,-5.789434432983398,-10.188638687133789,1.9142580032348633,0.7512114644050598,0.03940080478787422,-4.140444278717041,-16.851797103881836,40.44139099121094,-40.002925872802734
5.872,-5.312066078186035,-10.066604614257812,2.063809394836426,0.7483099102973938,-0.14233160018920898,-4.075998306274414,-17.451038360595703,40.82139587402344,-39.25752639770508
5.88,-5.584847927093506,-10.449456214904785,2.059023857116699,0.730900228023529,-0.68325275182724,-3.8460075855255127,-18.63490104675293,40.572933197021484,-39.66676330566406
5.89,-8.088936805725098,-11.777472496032715,1.867598056793213,0.6855435371398926,-1.3571898937225342,-3.384040594100952,-19.584917068481445,41.27448272705078,-39.579071044921875
5.9,-12.859027862548828,-13.101899147033691,0.8434699773788452,0.6601925492286682,-1.4721851348876953,-3.1134274005889893,-21.148786544799805,41.639869689941406,-40.2660026550293
5.919,-16.33460235595703,-13.344771385192871,0.07776673883199692,0.6600399017333984,-1.1027644872665405,-2.926044464111328,-22.244956970214844,41.5814094543457,-40.2660026550293
5.923,-18.54557228088379,-12.87817096710205,-0.7680960297584534,0.5824600458145142,-0.05726861581206322,-2.65252947807312,-23.472667694091797,41.873722076416016,-40.83601379394531
5.93,-17.59562110900879,-11.877971649169922,-1.164108157157898,0.5119050741195679,0.7002043128013611,-2.4813344478607178,-24.028060913085938,41.85910415649414,-40.48523712158203
5.94,-13.881959915161133,-11.158927917480469,-0.8638089299201965,0.37858372926712036,1.7583755254745483,-2.1265745162963867,-25.21192741394043,42.136802673339844,-41.56679153442383
5.95,-8.894121170043945,-10.899307250976562,-0.6424728631973267,0.290313720703125,2.1957552433013916,-1.8408424854278564,-26.176557540893555,42.19526290893555,-41.97603225708008
5.96,-5.959324836730957,-10.53679370880127,-0.07417750358581543,0.25854870676994324,2.306016206741333,-1.581682801246643,-26.731950759887695,41.727561950683594,-41.80064392089844
5.97,-3.858426570892334,-9.845268249511719,0.787238597869873,0.1996002048254013,2.06075382232666,-1.274264931678772,-27.4481143951416,41.77141189575195,-41.85910415649414
5.987,-4.4721856117248535,-8.445466995239258,1.8867405652999878,0.242513507604599,1.1395691633224487,-0.5711589455604553,-28.018123626708984,41.946800231933594,-42.39988327026367
5.991,-4.998606204986572,-8.526823043823242,2.001595973968506,0.22281308472156525,0.9459247589111328,-0.40805795788764954,-27.798887252807617,42.29757308959961,-41.946800231933594
6.0,-6.802794456481934,-8.678768157958984,1.0815558433532715,0.19853119552135468,0.8943067193031311,-0.1443169116973877,-28.368898391723633,42.0052604675293,-42.09295654296875
6.01,-5.8157548904418945,-9.037691116333008,0.43549370765686035,0.24465152621269226,1.055269718170166,0.09712757170200348,-28.28120231628418,41.42063903808594,-41.91756820678711
6.02,-2.7553350925445557,-9.955338478088379,-0.7908278107643127,0.25931230187416077,1.0722211599349976,0.293826162815094,-28.091201782226562,42.063724517822266,-41.873722076416016
6.039,0.06580261886119843,-10.931610107421875,-1.7060824632644653,0.23716843128204346,0.5838344097137451,0.5934555530548096,-28.13504981994629,42.078338623046875,-42.38526916503906
6.043,-0.794417142868042,-11.459226608276367,-1.2813564538955688,0.14217887818813324,-0.5371032357215881,1.2657127380371094,-27.228879928588867,41.84449005126953,-42.3414192199707
6.05,-8.135597229003906,-13.463215827941895,2.9599215984344482,-0.10491610318422318,-1.4842498302459717,2.2145392894744873,-27.214263916015625,42.35603332519531,-42.838348388671875
6.06,-19.998014450073242,-13.654642105102539,1.990828275680542,-0.2915354371070862,-0.7263187766075134,2.2064452171325684,-26.264249801635742,42.22449493408203,-42.73604202270508
6.07,-16.780864715576172,-12.841082572937012,2.0985054969787598,-0.25824329257011414,0.896902859210968,1.6149749755859375,-25.168079376220703,41.99064636230469,-43.072200775146484
6.08,-0.29312074184417725,-15.129817008972168,2.798405885696411,-0.07971791177988052,1.987602710723877,0.7849618196487427,-25.606548309326172,42.16603469848633,-42.47296142578125
6.09,14.870195388793945,-18.482160568237305,0.06819543987512589,-0.11133018881082535,1.705383062362671,0.7079927921295166,-25.13884925842285,42.38526916503906,-42.19526290893555
6.103,20.10569190979004,-16.485349655151367,5.639883041381836,0.2272418737411499,0.41752639412879944,1.5845844745635986,-24.378835678100586,42.443729400634766,-43.11604690551758
6.11,17.113466262817383,-14.43470287322998,9.272187232971191,0.39324450492858887,-0.587652325630188,1.7603609561920166,-24.057292938232422,42.09295654296875,-43.33528137207031
6.12,11.882756233215332,-15.16929817199707,6.662814617156982,0.16142113506793976,-1.8961256742477417,1.8110626935958862,-23.12189483642578,41.508331298828125,-43.58374786376953
6.13,6.160321235656738,-13.926226615905762,-0.5228317379951477,0.076052725315094,-2.992323160171509,2.1009182929992676,-22.464191436767578,41.61064147949219,-43.71529006958008
6.14,-4.444667816162109,-13.84128189086914,4.603790283203125,0.3179553747177124,-2.8939740657806396,2.3860397338867188,-21.54340934753418,41.683719635009766,-43.33528137207031
6.15,-11.72004508972168,-12.800403594970703,-0.6089733242988586,0.4743368625640869,-2.4579689502716064,1.9569066762924194,-20.608009338378906,41.43525314331055,-43.58374786376953
6.166,-9.570094108581543,-9.10827922821045,-1.0863415002822876,0.34987306594848633,-0.3217732608318329,1.9048304557800293,-19.044137954711914,41.9614143371582,-44.46068572998047
6.171,-7.7036919593811035,-8.915657043457031,-1.6151552200317383,0.25915956497192383,-0.17012597620487213,1.8055648803710938,-18.985675811767578,41.55217742919922,-43.75913619995117
6.18,-2.849851608276367,-10.286745071411133,1.466800332069397,0.28649580478668213,0.04245513305068016,1.5664111375808716,-18.62028694152832,41.318328857421875,-43.86144256591797
6.19,-1.4368900060653687,-9.718448638916016,3.1130621433258057,0.30543261766433716,-0.30314186215400696,1.4515684843063354,-17.90412139892578,41.37678909301758,-44.16836929321289
6.2,-3.4360930919647217,-7.312465667724609,4.033102512359619,0.4317289888858795,-0.6412557363510132,1.3246612548828125,-16.617948532104492,40.90909194946289,-44.636070251464844
6.219,-8.206185340881348,-7.732406139373779,2.524427890777588,0.27580565214157104,-0.5426010489463806,1.0768027305603027,-16.807950973510742,41.05524826049805,-44.72376251220703
6.223,-9.395418167114258,-12.204590797424316,0.36610186100006104,0.08506298810243607,0.04459316283464432,0.8602509498596191,-16.749486923217773,40.63139724731445,-45.22069549560547
6.23,-7.621140003204346,-16.729419708251953,-0.7322037220001221,-0.13041973114013672,0.3576616048812866,0.7877107262611389,-16.004093170166016,41.04063034057617,-45.176849365234375
6.24,-3.1369903087615967,-19.46202278137207,-0.04905286058783531,-0.14355333149433136,0.5259549617767334,0.8122979998588562,-15.784857749938965,40.99678421020508,-45.001461029052734
6.25,0.4893321990966797,-16.11087417602539,2.0135602951049805,-0.027030786499381065,0.26969701051712036,0.9259189963340759,-15.638701438903809,40.38292694091797,-44.53376388549805
6.26,-1.3746765851974487,-9.934999465942383,1.490728497505188,-0.020005837082862854,-0.10659598559141159,1.052215337753296,-15.624086380004883,40.017539978027344,-43.93452072143555
6.27,-4.691128730773926,-7.629514694213867,2.486142635345459,0.0039706239476799965,-0.1973094791173935,1.0613783597946167,-14.995615005493164,40.19292449951172,-44.15375518798828
6.283,-8.305486679077148,-7.379465103149414,2.2301106452941895,-0.09498954564332962,-0.19333885610103607,0.840397834777832,-14.220989227294922,40.2660026550293,-44.358375549316406
6.29,-8.58185863494873,-7.429713726043701,2.169093608856201,-0.12079859524965286,0.005955935921519995,0.6527094841003418,-13.738672256469727,40.29523468017578,-45.206077575683594
6.3,-6.262016773223877,-7.375875473022461,2.8139593601226807,-0.15683965384960175,0.17119498550891876,0.40103304386138916,-14.07483196258545,40.28062057495117,-44.562992095947266
6.31,-4.067798614501953,-7.697710037231445,2.809173583984375,-0.2539672255516052,0.03787364438176155,0.27611106634140015,-13.519438743591309,40.134464263916016,-44.22683334350586
6.32,-4.5200419425964355,-7.878368377685547,2.2193429470062256,-0.3003929853439331,-0.16371189057826996,0.18371771275997162,-13.665594100952148,40.07600402832031,-44.95761489868164
6.34,-6.995416641235352,-8.824729919433594,1.0971091985702515,-0.44944408535957336,-0.23350323736667633,0.10797043144702911,-13.636363983154297,39.54983901977539,-44.76761245727539
6.343,-6.1328043937683105,-9.657431602478027,0.453439861536026,-0.5154175162315369,0.04749477282166481,0.06490442901849747,-13.358667373657227,39.85676574707031,-43.7445182800293
6.35,-3.6323046684265137,-10.268797874450684,-0.07417750358581543,-0.5083925724029541,0.08857545256614685,0.09697485715150833,-13.49020767211914,39.769073486328125,-43.55451583862305
6.36,-1.7443677186965942,-10.457830429077148,0.9427720904350281,-0.4700608253479004,-0.07391469925642014,0.18127425014972687,-12.934814453125,39.579071044921875,-43.15989685058594
6.37,-3.43489670753479,-8.888139724731445,1.6235301494598389,-0.41401392221450806,-0.22968532145023346,0.256868839263916,-13.241742134094238,39.8421516418457,-43.496055603027344
6.38,-5.522634029388428,-8.571090698242188,1.3519446849822998,-0.3631593883037567,-0.16401731967926025,0.29016098380088806,-13.402514457702637,39.66676330566406,-42.838348388671875
6.399,-5.513063430786133,-9.29491901397705,0.9822536706924438,-0.35521814227104187,0.00809396430850029,0.29565879702568054,-13.139432907104492,39.389068603515625,-43.27682113647461
6.404,-3.5497522354125977,-10.1336030960083,1.1449655294418335,-0.37110063433647156,0.08720101416110992,0.38087448477745056,-12.861736297607422,38.89213943481445,-43.452205657958984
6.41,-2.8905298709869385,-10.200602531433105,1.2490533590316772,-0.38576140999794006,0.03634648025035858,0.45982882380485535,-12.905582427978516,39.54983901977539,-42.823734283447266
6.42,-1.95852530002594,-9.731609344482422,1.8819550275802612,-0.40454548597335815,-0.04444044828414917,0.5693264007568359,-12.554807662963867,39.389068603515625,-43.15989685058594
6.43,-2.2743778228759766,-8.395217895507812,2.47896409034729,-0.3929390609264374,-0.1466076523065567,0.660803496837616,-12.335575103759766,39.27214050292969,-43.53989791870117
6.44,-4.380061626434326,-7.287341117858887,2.8833510875701904,-0.36651915311813354,-0.12217304855585098,0.708450973033905,-12.218649864196777,39.11137008666992,-42.38526916503906
6.46,-5.764309883117676,-6.099304676055908,2.4813568592071533,-0.3003929853439331,0.049785517156124115,0.7076873779296875,-12.130955696105957,39.155216217041016,-41.28909683227539
6.463,-6.192624568939209,-7.581658363342285,1.4045867919921875,-0.2295326143503189,0.3208569884300232,0.7524333000183105,-11.721718788146973,38.99444580078125,-41.873722076416016
6.47,-5.62672233581543,-9.291330337524414,0.5958127975463867,-0.22403483092784882,0.41370847821235657,0.8194757103919983,-11.79479694366455,38.64366912841797,-43.23297119140625
6.48,-3.981656551361084,-11.298907279968262,-0.12083754688501358,-0.2542726695537567,0.4712825417518616,0.9437867999076843,-11.180940628051758,38.161354064941406,-41.85910415649414
6.49,-2.0685951709747314,-11.856435775756836,-0.6664010882377625,-0.2828305959701538,0.39706239104270935,1.0893254280090332,-10.596317291259766,38.395206451416016,-41.61064147949219
6.5,-1.6666009426116943,-11.418549537658691,-1.038485050201416,-0.33490684628486633,0.21410825848579407,1.2680035829544067,-10.318620681762695,37.664424896240234,-40.952938079833984
6.52,-2.830709218978882,-11.822936058044434,-1.0049854516983032,-0.42562034726142883,-0.01725694164633751,1.5587753057479858,-10.128617286682129,38.1028938293457,-41.40602111816406
6.524,-3.3379874229431152,-12.16391372680664,0.07178467512130737,-0.47342056035995483,-0.004581489134579897,1.7912096977233887,-9.836304664611816,37.19672393798828,-40.83601379394531
6.53,-2.496910333633423,-10.125227928161621,1.1198409795761108,-0.45494186878204346,0.0064140851609408855,1.8457293510437012,-9.529377937316895,37.56211853027344,-41.318328857421875
6.54,-4.019941806793213,-7.925028324127197,2.2301106452941895,-0.4075998365879059,-0.1007927656173706,1.9110918045043945,-8.75475025177002,37.0067253112793,-40.42677688598633
6.55,-7.607979774475098,-7.590033054351807,2.596212387084961,-0.33017265796661377,-0.043676864355802536,1.9691240787506104,-8.082432746887207,37.26980209350586,-40.9237060546875
6.56,-9.036494255065918,-7.886743068695068,2.049452543258667,-0.2557998299598694,0.41141775250434875,1.9627100229263306,-7.863198280334473,36.115169525146484,-40.587547302246094
6.58,-5.654239654541016,-7.381857395172119,1.3232309818267822,-0.22968532145023346,0.7409795522689819,1.9159787893295288,-6.825489521026611,36.31978988647461,-39.49137496948242
6.583,-4.1970109939575195,-6.9068827629089355,1.628315806388855,-0.18402314186096191,0.7174611687660217,2.0001254081726074,-6.460099697113037,35.80824279785156,-39.710609436035156
6.59,-6.068197727203369,-8.47896671295166,1.5876377820968628,-0.19028452038764954,0.6168211698532104,2.0897700786590576,-6.153171539306641,35.311309814453125,-39.31599044799805
6.6,-6.778866291046143,-10.213763236999512,1.4309078454971313,-0.24373522400856018,0.7799221873283386,2.200183868408203,-5.378544330596924,34.81438064575195,-39.00905990600586
6.61,-4.4027934074401855,-9.273384094238281,1.8077774047851562,-0.2921462953090668,0.9196576476097107,2.270433187484741,-5.013154029846191,34.6682243347168,-38.848289489746094
6.62,-5.069194793701172,-10.807183265686035,2.2360928058624268,-0.3179553747177124,0.7211264371871948,2.409710645675659,-4.413913726806641,33.70359420776367,-38.848289489746094
6.64,-7.513463020324707,-11.483156204223633,1.8233308792114258,-0.32940909266471863,0.7796167731285095,2.486679792404175,-3.9169833660125732,33.10435485839844,-39.11137008666992
6.643,-5.152943134307861,-10.482954978942871,1.6331013441085815,-0.37751469016075134,0.8938485383987427,2.5677719116210938,-3.3177430629730225,32.797428131103516,-38.205204010009766
6.65,-3.431307554244995,-7.472784996032715,1.7168502807617188,-0.3623957931995392,0.8926268219947815,2.5645649433135986,-3.0400466918945312,32.25665283203125,-37.854427337646484
6.66,-5.438885688781738,-2.275574207305908,1.4297115802764893,-0.24617868661880493,0.7425066828727722,2.548529863357544,-2.4408068656921387,31.4674072265625,-37.56211853027344
6.67,-10.919646263122559,-2.6727828979492188,0.9690931439399719,-0.15195272862911224,0.7157813310623169,2.4158191680908203,-1.7538732290267944,30.765857696533203,-37.679039001464844
6.68,-11.219944953918457,-6.470191955566406,-0.2847459018230438,-0.18295413255691528,0.9986119866371155,2.272724151611328,-1.2423267364501953,30.692779541015625,-37.22595977783203
6.7,-7.377071857452393,-9.745965957641602,-0.8877371549606323,-0.2692388594150543,1.0742064714431763,2.2215640544891357,-1.0523239374160767,30.56123924255371,-37.41596221923828
6.704,-3.284149169921875,-8.041080474853516,-1.223928689956665,-0.39095374941825867,0.7327328324317932,2.183384895324707,0.029231218621134758,29.26045036315918,-35.76439666748047
