time,accel_x,accel_y,accel_z,gyro_x,gyro_y,gyro_z,mag_x,mag_y,mag_z
0.0,76.23138427734375,-9.959878921508789,12.48815631866455,0.9326186776161194,-4.130168437957764,-3.86370587348938,-69.9000015258789,-17.100000381469727,-15.600000381469727
0.01,77.30398559570312,-9.883264541625977,12.756306648254395,-0.5329249501228333,-7.06125545501709,0.5329249501228333,-69.9000015258789,-17.100000381469727,-15.600000381469727
0.02,76.26969146728516,-9.385271072387695,13.024456977844238,-1.3323123455047607,5.595712184906006,-7.594180583953857,-70.20000457763672,-14.100000381469727,-14.40000057220459
0.03,77.1507568359375,-9.921571731567383,13.828908920288086,2.9310872554779053,-5.595712184906006,-4.529861927032471,-70.5,-14.550000190734863,-15.000000953674316
0.04,76.92091369628906,-9.730035781860352,14.480132102966309,2.2649309635162354,-1.4655436277389526,-5.462480545043945,-70.95000457763672,-16.80000114440918,-14.850000381469727
0.059,76.95922088623047,-10.381258964538574,12.832921028137207,0.0,-2.2649309635162354,-5.196018218994141,-69.75,-15.750000953674316,-15.000000953674316
0.063,76.69107055664062,-9.078812599182129,12.90953540802002,-6.5283308029174805,2.531393527984619,-10.791729927062988,-69.75,-15.750000953674316,-15.000000953674316
0.07,77.03583526611328,-9.232041358947754,12.258312225341797,-2.797856092453003,-5.462480545043945,-8.526799201965332,-70.80000305175781,-16.200000762939453,-15.750000953674316
0.08,77.49552154541016,-10.036493301391602,12.986149787902832,-2.398162364959717,-4.263399600982666,-1.9984685182571411,-69.45000457763672,-15.15000057220459,-16.350000381469727
0.09,76.76768493652344,-9.84495735168457,14.135366439819336,-4.130168437957764,2.6646246910095215,-10.92496109008789,-70.95000457763672,-15.600000381469727,-14.850000381469727
0.109,77.26567840576172,-11.03248119354248,12.947842597961426,-1.9984685182571411,5.462480545043945,-3.86370587348938,-70.5,-17.700000762939453,-13.500000953674316
0.113,77.30398559570312,-10.036493301391602,13.522451400756836,-1.9984685182571411,6.5283308029174805,-8.260336875915527,-70.5,-17.700000762939453,-13.500000953674316
0.12,76.38461303710938,-9.84495735168457,12.48815631866455,-2.797856092453003,4.529861927032471,-5.8621745109558105,-71.25,-16.5,-15.750000953674316
0.13,76.72937774658203,-9.883264541625977,13.675680160522461,-1.3323123455047607,2.6646246910095215,-6.395099639892578,-69.45000457763672,-14.850000381469727,-15.600000381469727
0.14,76.80599212646484,-10.189722061157227,13.752294540405273,2.9310872554779053,-5.462480545043945,1.8652373552322388,-70.5,-13.500000953674316,-15.450000762939453
0.15,76.34630584716797,-9.346963882446289,14.058752059936523,1.0658499002456665,-4.796324729919434,-0.2664624750614166,-69.0,-16.200000762939453,-15.750000953674316
0.16,77.68705749511719,-10.304644584655762,14.173673629760742,-6.794793128967285,3.86370587348938,-4.130168437957764,-69.0,-16.200000762939453,-15.750000953674316
0.179,76.38461303710938,-8.312667846679688,12.90953540802002,-3.3307809829711914,6.128636837005615,-7.72741174697876,-70.05000305175781,-15.450000762939453,-15.000000953674316
0.183,76.72937774658203,-9.576807022094727,13.982137680053711,7.194486618041992,-3.4640121459960938,-2.531393527984619,-70.05000305175781,-15.450000762939453,-15.000000953674316
0.19,77.03583526611328,-9.346963882446289,13.369222640991211,-0.9326186776161194,4.263399600982666,-10.658498764038086,-70.6500015258789,-16.350000381469727,-15.15000057220459
0.2,76.00154113769531,-9.959878921508789,12.641385078430176,1.1990811824798584,-6.5283308029174805,4.796324729919434,-71.55000305175781,-16.5,-15.450000762939453
0.21,77.64875030517578,-9.232041358947754,12.679692268371582,0.0,-5.595712184906006,-1.5987749099731445,-71.55000305175781,-16.5,-15.450000762939453
0.229,78.26166534423828,-10.036493301391602,12.832921028137207,2.531393527984619,-3.597243309020996,-4.263399600982666,-69.9000015258789,-14.40000057220459,-16.350000381469727
0.232,77.30398559570312,-9.730035781860352,12.986149787902832,-5.062787055969238,-7.460949420928955,0.7993874549865723,-70.80000305175781,-16.200000762939453,-13.950000762939453
0.24,76.72937774658203,-9.53849983215332,13.828908920288086,-1.5987749099731445,-2.2649309635162354,-0.5329249501228333,-70.20000457763672,-15.600000381469727,-15.90000057220459
0.25,77.03583526611328,-9.308655738830566,13.752294540405273,0.2664624750614166,-1.1990811824798584,1.3323123455047607,-70.6500015258789,-15.90000057220459,-15.15000057220459
0.26,75.81000518798828,-9.500192642211914,12.679692268371582,-6.794793128967285,-0.2664624750614166,-7.594180583953857,-70.6500015258789,-15.90000057220459,-15.15000057220459
0.27,77.26567840576172,-9.385271072387695,12.986149787902832,-6.128636837005615,1.3323123455047607,-5.196018218994141,-72.30000305175781,-15.750000953674316,-15.750000953674316
0.28,76.61445617675781,-8.695740699768066,12.717999458312988,2.2649309635162354,-3.4640121459960938,2.2649309635162354,-69.75,-16.950000762939453,-15.000000953674316
0.299,76.5761489868164,-8.274360656738281,12.60307788848877,-4.130168437957764,-0.5329249501228333,-4.663093090057373,-69.30000305175781,-16.5,-15.450000762939453
0.303,76.72937774658203,-9.232041358947754,13.637372970581055,-4.929555892944336,0.7993874549865723,-3.197549819946289,-69.45000457763672,-15.15000057220459,-13.65000057220459
0.31,75.84831237792969,-8.96389102935791,12.29662036895752,-1.7320060729980469,-0.7993874549865723,-4.130168437957764,-69.45000457763672,-15.15000057220459,-13.65000057220459
0.32,77.38059997558594,-9.959878921508789,13.292608261108398,0.7993874549865723,-2.6646246910095215,7.460949420928955,-69.9000015258789,-16.80000114440918,-16.650001525878906
0.33,76.34630584716797,-9.730035781860352,13.330915451049805,-7.194486618041992,4.529861927032471,-3.4640121459960938,-70.20000457763672,-15.600000381469727,-15.15000057220459
0.349,76.4995346069336,-8.810662269592285,12.641385078430176,-3.597243309020996,2.6646246910095215,-2.2649309635162354,-70.20000457763672,-15.90000057220459,-15.600000381469727
0.352,77.1124496459961,-9.730035781860352,13.254301071166992,-0.6661561727523804,-4.263399600982666,0.2664624750614166,-72.75,-15.000000953674316,-16.05000114440918
0.36,76.61445617675781,-9.84495735168457,13.177685737609863,0.39969372749328613,-5.595712184906006,4.130168437957764,-72.75,-15.000000953674316,-16.05000114440918
0.37,76.5761489868164,-9.921571731567383,13.445837020874023,-3.0643184185028076,4.796324729919434,-6.9280242919921875,-70.20000457763672,-16.80000114440918,-15.15000057220459
0.38,77.07414245605469,-9.691728591918945,13.21599292755127,-1.8652373552322388,2.398162364959717,-4.529861927032471,-70.05000305175781,-15.000000953674316,-16.5
0.39,77.7253646850586,-10.41956615447998,11.530475616455078,6.128636837005615,-1.7320060729980469,6.794793128967285,-71.55000305175781,-15.450000762939453,-15.450000762939453
0.41,77.1507568359375,-11.262324333190918,12.02846908569336,-7.460949420928955,5.595712184906006,11.990811347961426,-71.55000305175781,-15.450000762939453,-15.450000762939453
0.414,77.1124496459961,-10.113107681274414,11.91354751586914,-0.7993874549865723,-2.531393527984619,3.3307809829711914,-70.05000305175781,-15.750000953674316,-15.000000953674316
0.42,77.34229278564453,-8.734047889709473,13.48414421081543,-0.39969372749328613,-2.9310872554779053,-4.796324729919434,-70.05000305175781,-15.750000953674316,-15.000000953674316
0.43,77.1507568359375,-9.461885452270508,11.760318756103516,-2.398162364959717,-3.597243309020996,-3.597243309020996,-69.1500015258789,-17.100000381469727,-15.15000057220459
0.44,76.00154113769531,-9.53849983215332,12.29662036895752,-3.7304747104644775,5.595712184906006,-0.9326186776161194,-69.75,-16.5,-15.750000953674316
0.45,76.95922088623047,-9.84495735168457,13.10107135772705,-9.859111785888672,1.8652373552322388,-6.128636837005615,-69.75,-16.5,-15.750000953674316
0.46,76.4995346069336,-9.002198219299316,13.560758590698242,0.1332312375307083,-4.263399600982666,-3.3307809829711914,-70.20000457763672,-16.350000381469727,-15.600000381469727
0.476,77.30398559570312,-9.232041358947754,13.599065780639648,-0.6661561727523804,-7.594180583953857,6.661561965942383,-69.30000305175781,-15.450000762939453,-15.000000953674316
0.481,77.49552154541016,-8.159439086914062,12.02846908569336,-5.462480545043945,5.196018218994141,-2.6646246910095215,-70.05000305175781,-16.5,-15.450000762939453
0.49,77.26567840576172,-8.65743350982666,12.105083465576172,-1.4655436277389526,4.663093090057373,-5.995405673980713,-70.05000305175781,-16.5,-15.450000762939453
0.5,77.763671875,-8.65743350982666,12.48815631866455,4.796324729919434,-5.728943347930908,-0.39969372749328613,-70.05000305175781,-16.5,-15.450000762939453
0.51,75.2737045288086,-11.338939666748047,12.449849128723145,-7.194486618041992,4.396630764007568,-3.7304747104644775,-70.5,-16.200000762939453,-15.750000953674316
0.53,76.11646270751953,-10.15141487121582,13.21599292755127,-4.529861927032471,4.929555892944336,-1.5987749099731445,-69.45000457763672,-16.80000114440918,-14.850000381469727
0.533,77.49552154541016,-9.576807022094727,13.828908920288086,5.196018218994141,-7.72741174697876,5.062787055969238,-70.80000305175781,-17.400001525878906,-16.5
0.54,76.95922088623047,-10.036493301391602,13.522451400756836,3.3307809829711914,-0.9326186776161194,11.324655532836914,-70.80000305175781,-17.400001525878906,-16.5
0.55,77.1124496459961,-9.193734169006348,13.905523300170898,-6.794793128967285,1.3323123455047607,-1.3323123455047607,-69.30000305175781,-15.450000762939453,-15.450000762939453
0.56,76.19307708740234,-10.074800491333008,13.292608261108398,0.1332312375307083,-3.0643184185028076,2.797856092453003,-70.05000305175781,-16.5,-14.700000762939453
0.57,77.45721435546875,-9.576807022094727,13.024456977844238,2.797856092453003,-6.261868000030518,0.0,-69.9000015258789,-15.600000381469727,-15.90000057220459
0.58,76.11646270751953,-9.576807022094727,12.986149787902832,-2.797856092453003,3.597243309020996,3.7304747104644775,-71.55000305175781,-15.450000762939453,-15.000000953674316
0.593,76.46122741699219,-8.848969459533691,12.986149787902832,9.326186180114746,0.5329249501228333,5.595712184906006,-71.55000305175781,-15.450000762939453,-15.000000953674316
0.6,76.95922088623047,-8.810662269592285,12.7946138381958,2.531393527984619,3.597243309020996,-4.396630764007568,-69.30000305175781,-16.200000762939453,-16.5
0.61,76.23138427734375,-9.002198219299316,13.254301071166992,13.722817420959473,-3.86370587348938,-2.398162364959717,-69.75,-15.750000953674316,-15.450000762939453
0.62,77.03583526611328,-11.1474027633667,13.177685737609863,6.395099639892578,9.192955017089844,4.396630764007568,-71.25,-16.200000762939453,-15.450000762939453
0.63,76.92091369628906,-12.60307788848877,12.181697845458984,6.128636837005615,-2.531393527984619,7.460949420928955,-70.5,-16.200000762939453,-15.450000762939453
0.649,76.34630584716797,-12.373234748840332,10.879252433776855,3.4640121459960938,-0.6661561727523804,-1.8652373552322388,-70.5,-16.200000762939453,-15.450000762939453
0.653,77.1890640258789,-8.96389102935791,12.641385078430176,-5.595712184906006,7.327718257904053,-3.7304747104644775,-69.45000457763672,-16.350000381469727,-15.90000057220459
0.66,77.49552154541016,-8.695740699768066,12.60307788848877,1.7320060729980469,10.392036437988281,-8.39356803894043,-70.20000457763672,-15.600000381469727,-15.15000057220459
0.67,76.80599212646484,-10.764330863952637,13.177685737609863,1.9984685182571411,-0.7993874549865723,-0.1332312375307083,-70.5,-15.000000953674316,-15.750000953674316
0.68,77.26567840576172,-10.72602367401123,12.526463508605957,-0.5329249501228333,-2.131699800491333,3.4640121459960938,-70.5,-18.150001525878906,-16.80000114440918
0.69,76.30799865722656,-9.768342971801758,12.258312225341797,-4.130168437957764,5.329249382019043,-4.663093090057373,-70.5,-18.150001525878906,-16.80000114440918
0.71,75.73339080810547,-10.15141487121582,12.832921028137207,6.5283308029174805,-6.128636837005615,11.990811347961426,-70.20000457763672,-15.600000381469727,-15.600000381469727
0.714,77.1124496459961,-10.381258964538574,12.90953540802002,6.395099639892578,-3.9969370365142822,8.260336875915527,-68.4000015258789,-15.15000057220459,-16.650001525878906
0.72,78.14674377441406,-9.002198219299316,13.79060173034668,-3.3307809829711914,5.062787055969238,-0.5329249501228333,-70.5,-15.750000953674316,-15.450000762939453
0.73,78.4148941040039,-9.500192642211914,13.675680160522461,-3.7304747104644775,4.929555892944336,-9.592649459838867,-70.5,-15.750000953674316,-15.450000762939453
0.74,77.1890640258789,-8.236053466796875,13.599065780639648,8.660030364990234,3.9969370365142822,3.597243309020996,-70.05000305175781,-17.700000762939453,-14.700000762939453
0.75,76.65276336669922,-9.27034854888916,12.60307788848877,10.125574111938477,0.6661561727523804,6.395099639892578,-69.30000305175781,-16.200000762939453,-16.05000114440918
0.769,75.50354766845703,-9.959878921508789,13.330915451049805,3.4640121459960938,4.263399600982666,-5.329249382019043,-70.5,-18.150001525878906,-13.950000762939453
0.773,77.34229278564453,-10.304644584655762,12.832921028137207,12.523736000061035,4.130168437957764,5.062787055969238,-70.5,-16.200000762939453,-15.750000953674316
0.78,78.3765869140625,-11.990161895751953,14.058752059936523,26.513015747070312,-1.9984685182571411,1.8652373552322388,-70.5,-16.200000762939453,-15.750000953674316
0.79,79.75564575195312,-5.784391403198242,13.254301071166992,33.04134750366211,5.062787055969238,-1.3323123455047607,-71.4000015258789,-16.80000114440918,-14.40000057220459
0.8,76.65276336669922,-5.056553840637207,14.173673629760742,33.97396469116211,1.3323123455047607,0.6661561727523804,-71.25,-18.150001525878906,-14.700000762939453
0.81,73.97125244140625,-8.810662269592285,14.901511192321777,29.31087303161621,-8.39356803894043,21.050535202026367,-70.05000305175781,-16.950000762939453,-15.450000762939453
0.83,77.34229278564453,-11.262324333190918,15.476119995117188,25.846860885620117,-5.995405673980713,22.116384506225586,-71.4000015258789,-17.850000381469727,-15.600000381469727
0.833,78.72135162353516,-11.338939666748047,16.242263793945312,19.052066802978516,-8.39356803894043,13.722817420959473,-71.4000015258789,-17.850000381469727,-15.600000381469727
0.84,77.64875030517578,-7.814674377441406,14.824896812438965,14.12251091003418,-5.8621745109558105,18.78560447692871,-70.95000457763672,-18.30000114440918,-15.600000381469727
0.85,76.537841796875,-9.155426979064941,13.177685737609863,18.78560447692871,-11.058192253112793,25.980091094970703,-70.05000305175781,-17.400001525878906,-15.750000953674316
0.86,76.99752807617188,-9.883264541625977,13.560758590698242,17.32006072998047,-6.9280242919921875,20.517610549926758,-70.6500015258789,-18.75,-17.400001525878906
0.87,76.537841796875,-8.312667846679688,12.334927558898926,16.920366287231445,-12.124042510986328,22.649311065673828,-71.25,-16.200000762939453,-15.000000953674316
0.889,75.84831237792969,-8.274360656738281,11.070788383483887,16.65390396118164,-11.990811347961426,36.372127532958984,-71.25,-16.200000762939453,-15.000000953674316
0.893,76.537841796875,-8.312667846679688,10.5344877243042,14.12251091003418,-3.0643184185028076,38.63705825805664,-70.80000305175781,-18.150001525878906,-15.750000953674316
0.9,76.5761489868164,-8.848969459533691,10.611102104187012,15.588054656982422,-2.2649309635162354,30.24349021911621,-70.05000305175781,-18.150001525878906,-17.25
0.91,76.537841796875,-11.377246856689453,9.921571731567383,10.658498764038086,4.529861927032471,27.31240463256836,-69.30000305175781,-19.200000762939453,-15.450000762939453
0.92,77.07414245605469,-15.016432762145996,8.772355079650879,14.655436515808105,-3.7304747104644775,33.4410400390625,-70.05000305175781,-20.100000381469727,-18.0
0.93,76.15476989746094,-16.81687355041504,8.427590370178223,3.86370587348938,4.263399600982666,30.37672233581543,-70.05000305175781,-20.100000381469727,-18.0
0.95,75.08216857910156,-15.24627685546875,7.163451671600342,-0.6661561727523804,7.327718257904053,29.444103240966797,-70.6500015258789,-19.5,-16.650001525878906
0.954,77.1507568359375,-8.465897560119629,9.730035781860352,10.125574111938477,8.660030364990234,31.309341430664062,-72.0,-19.200000762939453,-15.000000953674316
0.96,77.7253646850586,-8.734047889709473,13.867216110229492,10.525267601013184,5.995405673980713,26.64624786376953,-71.70000457763672,-19.5,-14.850000381469727
0.97,76.34630584716797,-9.040505409240723,11.760318756103516,3.7304747104644775,14.92189884185791,19.584991455078125,-70.80000305175781,-21.150001525878906,-18.0
0.98,74.96724700927734,-11.91354751586914,16.05072784423828,3.0643184185028076,20.784072875976562,25.846860885620117,-70.80000305175781,-21.150001525878906,-18.0
0.99,75.9632339477539,-12.564770698547363,12.641385078430176,9.326186180114746,17.053598403930664,23.581928253173828,-70.95000457763672,-21.450000762939453,-17.100000381469727
1.01,74.2394027709961,-12.986149787902832,10.113107681274414,7.594180583953857,18.519142150878906,29.177640914916992,-70.95000457763672,-21.450000762939453,-15.15000057220459
1.014,76.00154113769531,-17.046716690063477,8.35097599029541,17.719755172729492,14.522205352783203,26.246553421020508,-70.6500015258789,-19.80000114440918,-15.600000381469727
1.02,77.07414245605469,-19.153614044189453,7.469909191131592,13.456355094909668,21.050535202026367,17.586523056030273,-69.9000015258789,-19.5,-15.90000057220459
1.03,77.95520782470703,-16.05072784423828,8.35097599029541,22.649311065673828,15.721285820007324,25.846860885620117,-69.9000015258789,-19.5,-15.90000057220459
1.04,75.2737045288086,-14.36521053314209,5.975927352905273,18.2526798248291,31.44257164001465,18.519142150878906,-70.80000305175781,-21.150001525878906,-14.250000953674316
1.05,75.42693328857422,-16.012420654296875,9.346963882446289,14.655436515808105,29.7105655670166,7.327718257904053,-70.6500015258789,-22.200000762939453,-15.15000057220459
1.07,76.61445617675781,-17.276559829711914,10.304644584655762,11.724349021911621,19.052066802978516,21.716691970825195,-70.95000457763672,-22.200000762939453,-14.850000381469727
1.073,76.19307708740234,-19.460071563720703,11.990161895751953,-0.7993874549865723,35.306278228759766,3.86370587348938,-71.4000015258789,-20.25,-14.850000381469727
1.08,76.00154113769531,-17.544710159301758,14.863204002380371,-5.329249382019043,37.03828430175781,4.529861927032471,-71.4000015258789,-20.25,-14.850000381469727
1.09,75.54185485839844,-13.21599292755127,17.889474868774414,1.0658499002456665,25.980091094970703,11.591117858886719,-69.30000305175781,-21.900001525878906,-15.750000953674316
1.1,74.77571105957031,-11.760318756103516,18.502389907836914,4.396630764007568,36.63859176635742,0.1332312375307083,-70.95000457763672,-22.5,-13.65000057220459
1.11,76.19307708740234,-15.093047142028809,15.935806274414062,4.263399600982666,30.24349021911621,-10.92496109008789,-70.6500015258789,-21.450000762939453,-14.850000381469727
1.131,76.23138427734375,-19.230228424072266,15.169661521911621,-2.6646246910095215,35.439510345458984,-10.125574111938477,-71.55000305175781,-20.850000381469727,-15.750000953674316
1.134,76.95922088623047,-19.728221893310547,13.407529830932617,-2.6646246910095215,39.70290756225586,-17.719755172729492,-70.80000305175781,-22.80000114440918,-13.500000953674316
1.14,76.65276336669922,-15.705963134765625,10.496180534362793,5.329249382019043,34.64012145996094,-9.192955017089844,-70.80000305175781,-22.80000114440918,-13.500000953674316
1.15,76.69107055664062,-12.717999458312988,13.10107135772705,5.329249382019043,40.502296447753906,-20.251148223876953,-70.6500015258789,-22.5,-14.100000381469727
1.16,76.84429931640625,-12.60307788848877,17.046716690063477,7.860642910003662,31.44257164001465,-11.591117858886719,-70.80000305175781,-21.900001525878906,-15.000000953674316
1.17,78.3382797241211,-14.67166805267334,16.242263793945312,6.261868000030518,30.509952545166016,-16.12097930908203,-70.80000305175781,-21.900001525878906,-15.000000953674316
1.19,79.41088104248047,-16.548721313476562,19.919757843017578,-14.788667678833008,29.444103240966797,-22.51607894897461,-70.6500015258789,-22.950000762939453,-13.050000190734863
1.193,76.15476989746094,-14.97812557220459,20.226215362548828,-22.782541275024414,26.779478073120117,-12.390504837036133,-70.80000305175781,-22.350000381469727,-13.500000953674316
1.2,76.11646270751953,-9.998186111450195,24.9763126373291,-18.652372360229492,21.183767318725586,-5.062787055969238,-70.80000305175781,-22.350000381469727,-13.500000953674316
1.21,75.65677642822266,-9.308655738830566,25.28277015686035,-18.91883659362793,12.124042510986328,-4.529861927032471,-71.70000457763672,-22.950000762939453,-12.600000381469727
1.22,75.19709014892578,-9.193734169006348,25.28277015686035,-32.24195861816406,12.656967163085938,-6.9280242919921875,-71.70000457763672,-22.950000762939453,-12.600000381469727
1.23,76.03984832763672,-9.653421401977539,26.776752471923828,-36.372127532958984,5.062787055969238,7.460949420928955,-72.0,-23.850000381469727,-12.0
1.25,74.81401824951172,-12.717999458312988,24.708162307739258,-43.43338394165039,0.6661561727523804,15.987748146057129,-71.55000305175781,-21.600000381469727,-13.200000762939453
1.254,73.77971649169922,-9.653421401977539,22.60126495361328,-47.696781158447266,11.058192253112793,9.592649459838867,-70.6500015258789,-21.450000762939453,-13.050000190734863
1.26,74.43093872070312,-5.899312973022461,22.409727096557617,-45.96477508544922,2.797856092453003,5.995405673980713,-70.6500015258789,-21.450000762939453,-13.050000190734863
1.27,75.54185485839844,-6.550535678863525,20.95405387878418,-34.64012145996094,-5.728943347930908,25.980091094970703,-70.6500015258789,-21.450000762939453,-13.050000190734863
1.28,76.03984832763672,-9.921571731567383,20.570980072021484,-28.111791610717773,-7.860642910003662,16.520673751831055,-71.55000305175781,-22.350000381469727,-14.250000953674316
1.29,76.5761489868164,-12.29662036895752,20.456058502197266,-35.03981399536133,1.4655436277389526,19.31852912902832,-70.80000305175781,-21.900001525878906,-12.750000953674316
1.309,75.58016204833984,-11.836933135986328,17.391481399536133,-28.24502182006836,-7.327718257904053,25.980091094970703,-70.80000305175781,-21.150001525878906,-11.40000057220459
1.313,76.42292022705078,-9.959878921508789,18.157625198364258,-17.719755172729492,-12.25727367401123,31.842266082763672,-71.55000305175781,-22.80000114440918,-13.200000762939453
1.32,75.50354766845703,-7.4316020011901855,19.038692474365234,-13.323123931884766,-4.263399600982666,32.24195861816406,-71.55000305175781,-22.80000114440918,-13.200000762939453
1.33,73.97125244140625,-5.1331682205200195,19.766529083251953,-1.4655436277389526,-8.260336875915527,42.90045928955078,-72.9000015258789,-23.25,-11.550000190734863
1.34,74.43093872070312,-4.711789131164551,18.732234954833984,19.052066802978516,-22.116384506225586,50.89433288574219,-71.4000015258789,-22.200000762939453,-13.350000381469727
1.35,75.46524047851562,-11.338939666748047,18.732234954833984,21.183767318725586,-17.453292846679688,53.159263610839844,-71.25,-23.100000381469727,-12.0
1.37,75.9249267578125,-16.66364288330078,17.92778205871582,6.395099639892578,-21.316997528076172,57.422664642333984,-71.4000015258789,-21.75,-13.65000057220459
1.374,78.10843658447266,-17.31486701965332,21.413740158081055,8.526799201965332,-21.716691970825195,60.22052001953125,-69.1500015258789,-24.450000762939453,-13.350000381469727
1.38,73.24341583251953,-8.427590370178223,20.264522552490234,21.716691970825195,-30.509952545166016,63.81776428222656,-69.1500015258789,-24.450000762939453,-13.350000381469727
1.39,72.24742889404297,-5.2480902671813965,21.835119247436523,37.304744720458984,-30.509952545166016,69.01377868652344,-71.70000457763672,-25.200000762939453,-11.850000381469727
1.4,71.90266418457031,-4.9799394607543945,20.83913230895996,60.62021255493164,-29.444103240966797,75.40888214111328,-70.6500015258789,-24.150001525878906,-13.65000057220459
1.41,72.74542236328125,-7.967903137207031,22.984336853027344,80.47166442871094,-33.04134750366211,95.9264907836914,-71.55000305175781,-26.55000114440918,-13.950000762939453
1.429,73.0135726928711,-9.27034854888916,20.456058502197266,98.32465362548828,-42.500762939453125,89.93108367919922,-71.55000305175781,-26.55000114440918,-13.950000762939453
1.433,73.7031021118164,-18.923770904541016,17.276559829711914,80.73812866210938,-31.709033966064453,103.12097930908203,-72.1500015258789,-27.150001525878906,-13.050000190734863
1.44,75.3503189086914,-26.891674041748047,14.824896812438965,52.75957107543945,-34.906585693359375,94.0612564086914,-71.4000015258789,-27.150001525878906,-13.050000190734863
1.451,77.22737121582031,-29.726408004760742,13.637372970581055,36.238895416259766,-43.16691970825195,93.12863159179688,-70.05000305175781,-29.700000762939453,-13.200000762939453
1.46,77.1507568359375,-24.516624450683594,11.109095573425293,25.7136287689209,-39.43644714355469,115.77794647216797,-70.05000305175781,-29.700000762939453,-13.200000762939453
1.47,78.68304443359375,-23.21417999267578,14.326903343200684,25.18070411682129,-43.16691970825195,98.4578857421875,-70.05000305175781,-29.700000762939453,-13.200000762939453
1.49,78.03182220458984,-28.500577926635742,4.711789131164551,9.72588062286377,-49.82848358154297,106.05206298828125,-70.80000305175781,-32.85000228881836,-14.700000762939453
1.494,77.7253646850586,-29.76471519470215,12.066776275634766,-4.529861927032471,-36.905052185058594,90.59724426269531,-70.5,-30.450000762939453,-13.950000762939453
1.5,75.04386138916016,-20.532672882080078,12.373234748840332,7.460949420928955,-30.37672233581543,96.59264373779297,-69.1500015258789,-32.55000305175781,-15.15000057220459
1.51,74.6990966796875,-20.456058502197266,9.423578262329102,7.194486618041992,-33.04134750366211,92.06278228759766,-69.1500015258789,-32.55000305175781,-15.15000057220459
1.52,77.49552154541016,-27.504589080810547,8.580819129943848,6.794793128967285,-43.56661605834961,93.52832794189453,-69.0,-33.900001525878906,-15.450000762939453
1.53,79.21934509277344,-33.25067138671875,6.780379295349121,-15.188361167907715,-38.63705825805664,88.59877014160156,-70.6500015258789,-34.5,-15.600000381469727
1.55,79.18103790283203,-29.84132957458496,10.266336441040039,-24.11485481262207,-35.03981399536133,84.60183715820312,-69.30000305175781,-34.80000305175781,-15.450000762939453
1.553,78.10843658447266,-21.835119247436523,10.84094524383545,-8.127105712890625,-39.43644714355469,84.20214080810547,-69.1500015258789,-33.45000076293945,-15.600000381469727
1.56,76.99752807617188,-19.421764373779297,12.29662036895752,3.86370587348938,-50.4946403503418,96.19295501708984,-69.1500015258789,-33.45000076293945,-15.600000381469727
1.57,78.68304443359375,-22.409727096557617,13.254301071166992,4.396630764007568,-44.36600112915039,92.06278228759766,-67.80000305175781,-35.55000305175781,-16.5
1.58,79.52580261230469,-26.278757095336914,11.875240325927734,-2.398162364959717,-46.764163970947266,95.12710571289062,-68.25,-35.85000228881836,-16.80000114440918
1.59,80.36856079101562,-28.117504119873047,11.224017143249512,3.197549819946289,-61.9525260925293,110.04900360107422,-68.55000305175781,-35.55000305175781,-17.55000114440918
1.609,82.4754638671875,-28.92195701599121,10.457873344421387,0.5329249501228333,-59.68759536743164,102.8545150756836,-68.55000305175781,-35.55000305175781,-17.55000114440918
1.613,76.00154113769531,-19.460071563720703,23.9420166015625,11.990811347961426,-52.493106842041016,100.85604858398438,-66.30000305175781,-37.05000305175781,-16.80000114440918
1.62,79.33426666259766,-24.13355255126953,22.448034286499023,12.656967163085938,-60.08728790283203,109.51607513427734,-67.05000305175781,-38.25,-18.0
1.63,84.69728088378906,-34.591426849365234,21.45204734802246,-11.591117858886719,-67.14854431152344,110.71515655517578,-67.95000457763672,-39.150001525878906,-19.200000762939453
1.64,85.15696716308594,-39.57136535644531,19.574993133544922,-46.231239318847656,-57.422664642333984,107.78407287597656,-66.75,-39.75,-18.0
1.65,83.27991485595703,-31.60346221923828,16.510414123535156,-54.62480926513672,-58.888206481933594,107.78407287597656,-66.75,-39.75,-18.0
1.669,85.23358154296875,-23.903709411621094,16.05072784423828,-45.03215789794922,-66.21592712402344,123.63858795166016,-65.70000457763672,-41.55000305175781,-19.950000762939453
1.673,88.25984954833984,-24.210166931152344,14.135366439819336,-49.96171569824219,-76.60796356201172,132.6983184814453,-64.20000457763672,-41.85000228881836,-18.900001525878906
1.68,93.46963500976562,-25.70414924621582,12.334927558898926,-60.62021255493164,-78.3399658203125,135.4961700439453,-64.95000457763672,-41.10000228881836,-18.150001525878906
1.69,99.48387145996094,-25.321077346801758,13.48414421081543,-55.69065856933594,-92.99540710449219,146.1546630859375,-63.45000076293945,-42.60000228881836,-20.400001525878906
1.7,101.24600219726562,-25.321077346801758,11.683704376220703,-73.54364013671875,-85.66768646240234,126.30321502685547,-63.45000076293945,-42.60000228881836,-20.400001525878906
1.71,95.8063735961914,-25.052927017211914,10.41956615447998,-86.46707153320312,-90.33078002929688,155.6140899658203,-63.000003814697266,-42.900001525878906,-21.600000381469727
1.729,96.11283111572266,-21.720197677612305,10.342951774597168,-92.46247863769531,-100.18988800048828,167.2052001953125,-62.55000305175781,-45.900001525878906,-21.30000114440918
1.733,101.51415252685547,-19.421764373779297,10.228029251098633,-93.79479217529297,-100.3231201171875,179.4624786376953,-60.900001525878906,-43.5,-22.950000762939453
1.74,101.6673812866211,-19.19192123413086,10.917559623718262,-100.18988800048828,-115.51148223876953,203.3108673095703,-60.30000305175781,-45.150001525878906,-22.350000381469727
1.75,100.05847930908203,-18.923770904541016,8.619126319885254,-117.37671661376953,-112.4471664428711,198.781005859375,-60.30000305175781,-45.150001525878906,-22.350000381469727
1.76,100.82462310791016,-19.49837875366211,7.316680431365967,-118.57579803466797,-119.64165496826172,218.36599731445312,-59.250003814697266,-45.60000228881836,-24.150001525878906
1.77,103.5061264038086,-14.901511192321777,9.53849983215332,-127.76875305175781,-126.96936798095703,229.0244903564453,-57.45000076293945,-46.20000076293945,-25.200000762939453
1.789,107.29854583740234,-7.891288757324219,8.465897560119629,-131.0995330810547,-123.10566711425781,230.4900360107422,-56.55000305175781,-48.60000228881836,-26.100000381469727
1.793,109.13729095458984,1.9153614044189453,9.423578262329102,-127.23583221435547,-130.30015563964844,253.93873596191406,-56.400001525878906,-46.95000076293945,-26.250001907348633
1.8,108.56268310546875,7.240066051483154,11.338939666748047,-134.03062438964844,-121.64012145996094,252.07350158691406,-56.400001525878906,-46.95000076293945,-26.250001907348633
1.81,107.87315368652344,5.784391403198242,12.832921028137207,-160.2771759033203,-118.30934143066406,273.7901916503906,-54.45000076293945,-48.45000076293945,-28.500001907348633
1.82,107.0687026977539,8.121131896972656,16.740259170532227,-195.1837615966797,-113.77947998046875,270.326171875,-51.900001525878906,-49.650001525878906,-27.30000114440918
1.83,104.1573486328125,11.951854705810547,12.7946138381958,-206.1087188720703,-96.05972290039062,274.056640625,-51.30000305175781,-49.500003814697266,-27.150001525878906
1.85,100.82462310791016,11.377246856689453,9.117119789123535,-166.93873596191406,-108.18376159667969,289.64471435546875,-52.05000305175781,-51.000003814697266,-30.150001525878906
1.854,93.73778533935547,-27.006595611572266,-8.580819129943848,-92.72894287109375,-115.11178588867188,334.0107116699219,-52.05000305175781,-51.000003814697266,-30.150001525878906
1.86,97.0322036743164,-41.448421478271484,-7.8529815673828125,-78.3399658203125,-109.78253936767578,307.89739990234375,-49.20000076293945,-51.900001525878906,-31.350000381469727
1.87,98.94757080078125,-53.32366180419922,0.07661445438861847,-23.581928253173828,-116.57733154296875,283.3828430175781,-47.25,-52.20000076293945,-31.200000762939453
1.88,101.47584533691406,-30.645782470703125,11.91354751586914,52.626338958740234,-107.3843765258789,280.4517517089844,-47.400001525878906,-53.55000305175781,-31.350000381469727
1.89,87.87677764892578,0.07661445438861847,21.835119247436523,138.42726135253906,-83.26952362060547,274.3231201171875,-45.75,-54.900001525878906,-31.200000762939453
1.91,68.22517395019531,-4.558559894561768,30.91393280029297,176.26492309570312,-64.61714935302734,264.59722900390625,-43.05000305175781,-55.95000076293945,-30.150001525878906
1.914,33.7869758605957,-47.46265411376953,28.462270736694336,121.90658569335938,-35.17304611206055,196.51608276367188,-43.05000305175781,-55.95000076293945,-30.150001525878906
1.92,34.74465560913086,-55.77532196044922,25.81907081604004,85.80091857910156,-25.447166442871094,124.43797302246094,-42.45000076293945,-56.250003814697266,-29.850000381469727
1.93,34.9744987487793,-55.27732849121094,21.26051139831543,39.30321502685547,-7.860642910003662,48.22970962524414,-41.55000305175781,-57.900001525878906,-30.450000762939453
1.94,44.206539154052734,-25.780763626098633,15.897499084472656,34.773353576660156,1.9984685182571411,-12.390504837036133,-42.150001525878906,-57.750003814697266,-28.80000114440918
1.95,42.367794036865234,3.9456443786621094,11.070788383483887,80.07197570800781,18.519142150878906,-68.61408996582031,-42.150001525878906,-57.750003814697266,-28.80000114440918
1.97,32.82929229736328,27.427974700927734,15.016432762145996,144.42266845703125,34.906585693359375,-106.85145568847656,-42.30000305175781,-56.400001525878906,-27.900001525878906
1.973,29.15180015563965,32.178070068359375,13.713987350463867,220.23123168945312,41.30168533325195,-153.21592712402344,-43.650001525878906,-56.250003814697266,-26.250001907348633
1.98,24.938005447387695,9.461885452270508,9.232041358947754,235.8192901611328,50.22817611694336,-183.5926513671875,-43.80000305175781,-54.45000076293945,-25.650001525878906
1.99,25.39769172668457,-3.179499864578247,9.27034854888916,211.1715087890625,65.15007781982422,-244.74578857421875,-43.80000305175781,-54.45000076293945,-25.650001525878906
2.0,27.849353790283203,-16.089035034179688,9.040505409240723,178.6630859375,55.15773391723633,-294.9739685058594,-46.05000305175781,-53.250003814697266,-22.350000381469727
2.01,31.373619079589844,-18.502389907836914,9.653421401977539,151.88360595703125,60.22052001953125,-333.34454345703125,-48.30000305175781,-52.95000076293945,-22.350000381469727
2.029,34.13174057006836,-21.643583297729492,10.304644584655762,114.84532928466797,68.21439361572266,-391.96630859375,-51.45000076293945,-49.95000076293945,-20.700000762939453
2.033,41.60165023803711,-24.516624450683594,8.96389102935791,113.24655151367188,70.47932434082031,-404.7565002441406,-51.45000076293945,-49.95000076293945,-20.700000762939453
2.04,44.85776138305664,-25.321077346801758,9.155426979064941,105.65237426757812,72.21133422851562,-430.4701232910156,-51.45000076293945,-49.95000076293945,-20.700000762939453
2.05,47.80741882324219,-28.117504119873047,11.338939666748047,91.26339721679688,72.21133422851562,-445.7917175292969,-51.900001525878906,-45.30000305175781,-18.450000762939453
2.06,54.62610626220703,-29.113492965698242,12.02846908569336,71.54517364501953,67.94792938232422,-478.1669006347656,-54.45000076293945,-44.25,-16.350000381469727
2.07,59.49112319946289,-30.760704040527344,11.03248119354248,37.70444107055664,83.5359878540039,-515.0719604492188,-54.750003814697266,-40.20000076293945,-15.450000762939453
2.089,64.7009048461914,-31.143775939941406,10.84094524383545,32.64165496826172,82.47013854980469,-523.865234375,-58.80000305175781,-38.55000305175781,-16.05000114440918
2.093,77.30398559570312,-34.70634841918945,8.772355079650879,28.111791610717773,95.12710571289062,-536.921875,-58.80000305175781,-38.55000305175781,-16.05000114440918
2.1,79.29595947265625,-35.089420318603516,8.35097599029541,21.050535202026367,108.45022583007812,-550.6447143554688,-58.80000305175781,-32.400001525878906,-15.000000953674316
2.11,81.55608367919922,-36.8515510559082,7.929595947265625,17.986217498779297,112.58039855957031,-553.7090454101562,-59.55000305175781,-27.750001907348633,-13.500000953674316
2.12,85.5783462524414,-36.88985824584961,6.320692539215088,19.584991455078125,118.70903015136719,-554.5084228515625,-60.900001525878906,-22.950000762939453,-11.550000190734863
2.13,91.55427551269531,-33.7869758605957,4.6734819412231445,24.64777946472168,120.70750427246094,-550.2449951171875,-60.45000076293945,-20.55000114440918,-10.800000190734863
2.149,98.6794204711914,-32.10145568847656,4.405331134796143,43.83307647705078,128.03521728515625,-540.9188232421875,-61.05000305175781,-12.300000190734863,-7.950000286102295
2.153,106.87716674804688,-33.51882553100586,0.9193734526634216,46.231239318847656,128.83460998535156,-544.2496337890625,-61.05000305175781,-12.300000190734863,-7.950000286102295
2.16,107.83484649658203,-35.77894973754883,0.0,50.62786865234375,122.83920288085938,-527.1959838867188,-60.150001525878906,-8.25,-6.750000476837158
2.17,108.2945327758789,-39.80120849609375,-1.455674648284912,40.23583221435547,124.30474090576172,-519.601806640625,-60.30000305175781,-6.150000095367432,-6.900000095367432
2.18,106.91547393798828,-46.696510314941406,-3.2561142444610596,17.719755172729492,113.11331939697266,-508.8100891113281,-58.95000076293945,-2.8500001430511475,-4.5
2.19,106.26425170898438,-47.38603973388672,-5.784391403198242,6.128636837005615,102.32159423828125,-486.42724609375,-58.95000076293945,-2.8500001430511475,-4.5
2.203,105.57471466064453,-43.9766960144043,-4.213795185089111,-20.650842666625977,89.26493072509766,-486.6937255859375,-53.55000305175781,5.700000286102295,0.30000001192092896
2.21,102.08876037597656,-41.333499908447266,-4.6734819412231445,-21.983154296875,92.46247863769531,-469.5068664550781,-53.55000305175781,5.700000286102295,0.30000001192092896
2.22,99.8286361694336,-41.946414947509766,-5.899312973022461,-20.117916107177734,81.53751373291016,-448.5895690917969,-53.250003814697266,6.900000095367432,-0.6000000238418579
2.23,98.02819061279297,-42.7891731262207,-7.623138427734375,-31.309341430664062,77.14088439941406,-433.4012145996094,-50.250003814697266,9.15000057220459,1.350000023841858
2.24,97.98988342285156,-43.44039535522461,-7.240066051483154,-39.16998291015625,84.20214080810547,-424.6079406738281,-50.250003814697266,9.15000057220459,1.350000023841858
2.25,99.52217864990234,-42.32948684692383,-9.346963882446289,-45.56508255004883,81.8039779663086,-407.5543518066406,-46.5,13.050000190734863,3.3000001907348633
2.269,100.67139434814453,-38.57537841796875,-11.262324333190918,-36.905052185058594,63.418067932128906,-345.4685974121094,-45.45000076293945,15.600000381469727,4.950000286102295
2.273,102.54844665527344,-31.143775939941406,-15.207969665527344,-29.444103240966797,62.618682861328125,-332.41192626953125,-42.30000305175781,17.700000762939453,6.600000381469727
2.28,100.90123748779297,-31.182083129882812,-15.131354331970215,-27.31240463256836,57.689125061035156,-302.4349060058594,-42.30000305175781,17.700000762939453,6.600000381469727
2.29,100.02017211914062,-33.32728576660156,-14.556746482849121,-20.517610549926758,41.967838287353516,-256.20367431640625,-42.30000305175781,17.700000762939453,6.600000381469727
2.3,97.98988342285156,-36.08540725708008,-12.7946138381958,-25.846860885620117,40.36906433105469,-215.96783447265625,-38.25,18.900001525878906,7.350000381469727
2.319,94.84869384765625,-38.307228088378906,-11.109095573425293,-25.846860885620117,25.447166442871094,-163.20826721191406,-37.80000305175781,19.650001525878906,7.950000286102295
2.323,93.16317749023438,-40.22258758544922,-10.342951774597168,-13.856048583984375,20.38437843322754,-106.4517593383789,-36.900001525878906,19.5,8.25
2.33,90.74982452392578,-40.64396667480469,-11.990161895751953,2.6646246910095215,-0.1332312375307083,-62.085758209228516,-36.900001525878906,19.5,8.25
2.34,89.8304443359375,-41.946414947509766,-9.232041358947754,16.520673751831055,-7.9938740730285645,-13.58958625793457,-36.900001525878906,19.5,8.25
2.35,90.21351623535156,-42.1379508972168,-6.205770969390869,23.581928253173828,-13.722817420959473,23.182235717773438,-35.25,18.450000762939453,8.40000057220459
2.36,87.57032012939453,-38.422149658203125,-3.294421434402466,52.75957107543945,-31.709033966064453,69.14701080322266,-34.80000305175781,18.450000762939453,9.90000057220459
2.37,85.42511749267578,-33.63374710083008,-1.8770540952682495,82.20367431640625,-38.37059783935547,106.05206298828125,-34.20000076293945,18.30000114440918,9.0
2.389,83.7012939453125,-30.79901123046875,-2.2601263523101807,105.5191421508789,-38.10413360595703,163.4747314453125,-34.5,16.200000762939453,6.900000095367432
2.393,79.14273071289062,-35.05111312866211,2.4899697303771973,112.04747009277344,-43.03369140625,181.46095275878906,-37.05000305175781,16.5,7.650000095367432
2.4,76.4995346069336,-37.656005859375,6.244078159332275,124.70443725585938,-19.45176124572754,189.9877471923828,-37.05000305175781,16.5,7.650000095367432
2.41,66.19488525390625,-42.865787506103516,28.423961639404297,99.12403869628906,15.055130004882812,225.16079711914062,-35.400001525878906,13.200000762939453,7.500000476837158
2.42,82.4371566772461,-43.4020881652832,94.23577880859375,-87.53292083740234,-53.558956146240234,180.26187133789062,-35.400001525878906,13.200000762939453,7.500000476837158
2.439,147.32958984375,-18.11931800842285,65.46704864501953,-205.04287719726562,-80.20520782470703,159.3445587158203,-35.400001525878906,13.200000762939453,7.500000476837158
2.442,143.1157989501953,39.533058166503906,-25.70414924621582,-112.84685516357422,-17.986217498779297,214.63552856445312,-36.30000305175781,11.550000190734863,7.350000381469727
2.45,68.83808898925781,65.42874145507812,-9.921571731567383,-28.511484146118164,-3.3307809829711914,237.55130004882812,-37.5,12.750000953674316,7.950000286102295
2.46,58.839900970458984,46.77312469482422,14.403517723083496,31.575803756713867,-29.977027893066406,257.8024597167969,-35.25,11.100000381469727,7.650000095367432
2.47,64.81582641601562,-3.6774938106536865,9.959878921508789,26.513015747070312,-26.246553421020508,231.2894287109375,-35.25,11.100000381469727,7.650000095367432
2.48,60.64033889770508,-39.07337188720703,20.072986602783203,-7.460949420928955,-7.72741174697876,197.0489959716797,-37.95000076293945,9.450000762939453,7.050000190734863
2.49,68.99131774902344,-37.617698669433594,39.647979736328125,-27.17917251586914,-15.188361167907715,200.77947998046875,-36.30000305175781,6.900000095367432,7.650000095367432
2.503,97.91326904296875,-39.99274444580078,24.554933547973633,-35.439510345458984,-5.995405673980713,199.31393432617188,-37.05000305175781,6.150000095367432,7.650000095367432
2.51,77.84028625488281,-32.71437072753906,10.15141487121582,-36.5053596496582,-9.992342948913574,177.99693298339844,-37.95000076293945,5.100000381469727,7.500000476837158
2.52,69.71915435791016,-19.38345718383789,13.254301071166992,-31.575803756713867,-13.323123931884766,171.86830139160156,-37.95000076293945,5.100000381469727,7.500000476837158
2.53,77.07414245605469,-6.856993675231934,0.5363011956214905,-19.718223571777344,0.2664624750614166,166.1393585205078,-37.20000076293945,2.8500001430511475,7.500000476837158
2.54,81.441162109375,-11.492168426513672,-4.711789131164551,0.7993874549865723,-0.2664624750614166,168.1378173828125,-39.150001525878906,4.350000381469727,6.750000476837158
2.55,80.59840393066406,-19.766529083251953,-2.4133553504943848,-6.794793128967285,8.39356803894043,167.0719757080078,-40.5,3.750000238418579,8.700000762939453
2.563,76.46122741699219,-11.530475616455078,1.1492167711257935,-13.856048583984375,15.588054656982422,145.88819885253906,-39.75,2.25,7.950000286102295
2.57,76.61445617675781,0.4596867263317108,10.457873344421387,-5.8621745109558105,24.381317138671875,137.8943328857422,-39.75,2.25,7.950000286102295
2.58,77.61044311523438,-3.754108190536499,12.60307788848877,15.721285820007324,18.2526798248291,137.22817993164062,-39.45000076293945,-0.15000000596046448,6.750000476837158
2.59,78.75965881347656,-17.92778205871582,15.935806274414062,-13.056661605834961,20.650842666625977,119.10872650146484,-38.25,1.0500000715255737,7.350000381469727
2.6,77.38059997558594,-23.9420166015625,14.173673629760742,-25.04747200012207,18.119447708129883,113.77947998046875,-38.70000076293945,0.45000001788139343,7.050000190734863
2.62,76.46122741699219,-18.847156524658203,12.22000503540039,-27.84532928466797,17.453292846679688,100.45635223388672,-39.0,-0.75,8.700000762939453
2.623,75.81000518798828,-9.002198219299316,10.879252433776855,-12.523736000061035,16.25421142578125,96.99234008789062,-39.0,-0.75,8.700000762939453
2.63,76.5761489868164,-7.316680431365967,14.786589622497559,-6.128636837005615,10.658498764038086,87.53292083740234,-39.75,-2.700000047683716,7.650000095367432
2.64,76.5761489868164,-8.695740699768066,17.851167678833008,-7.594180583953857,18.119447708129883,88.33231353759766,-39.45000076293945,-3.1500000953674316,8.25
2.65,77.99351501464844,-8.580819129943848,23.52063751220703,-1.8652373552322388,3.0643184185028076,95.12710571289062,-40.20000076293945,-2.1000001430511475,8.25
2.66,77.8019790649414,-6.205770969390869,20.264522552490234,14.12251091003418,-1.0658499002456665,97.7917251586914,-40.05000305175781,-3.450000047683716,7.350000381469727
2.67,76.72937774658203,-4.6734819412231445,18.04270362854004,27.71209716796875,4.796324729919434,93.2618637084961,-40.05000305175781,-3.450000047683716,7.350000381469727
2.683,76.07815551757812,-6.129156112670898,19.99637222290039,32.24195861816406,-5.462480545043945,78.73966217041016,-39.150001525878906,-2.4000000953674316,9.0
2.69,74.54586791992188,-9.730035781860352,23.099258422851562,42.36753463745117,-14.255742073059082,85.13475799560547,-39.75,-2.700000047683716,7.950000286102295
2.701,73.0518798828125,-11.338939666748047,21.528661727905273,47.830013275146484,-19.052066802978516,91.13016510009766,-40.80000305175781,-4.5,8.40000057220459
2.71,74.43093872070312,-11.1474027633667,22.524648666381836,43.43338394165039,-23.715160369873047,80.8713607788086,-40.80000305175781,-4.5,8.40000057220459
2.72,77.64875030517578,-19.574993133544922,15.476119995117188,37.03828430175781,-25.313934326171875,73.41041564941406,-40.80000305175781,-4.5,8.40000057220459
2.74,75.8866195678711,-15.552734375,14.403517723083496,37.4379768371582,-24.64777946472168,82.07044219970703,-40.05000305175781,-5.400000095367432,7.350000381469727
2.743,73.12849426269531,-6.742072105407715,13.982137680053711,49.16232681274414,-23.715160369873047,80.73812866210938,-37.95000076293945,-4.350000381469727,7.050000190734863
2.75,72.59219360351562,0.9193734526634216,21.030668258666992,69.54670715332031,-25.846860885620117,93.79479217529297,-39.45000076293945,-6.750000476837158,8.25
2.76,74.81401824951172,-1.2258312702178955,22.17988395690918,81.40428924560547,-33.97396469116211,100.58958435058594,-39.45000076293945,-6.750000476837158,8.25
2.77,74.77571105957031,-12.947842597961426,21.107282638549805,64.88361358642578,-31.709033966064453,98.99080657958984,-39.150001525878906,-5.850000381469727,7.050000190734863
2.78,74.92893981933594,-19.460071563720703,14.97812557220459,46.897396087646484,-23.182235717773438,102.72128295898438,-39.45000076293945,-5.850000381469727,6.750000476837158
2.799,72.4772720336914,-15.093047142028809,15.322891235351562,52.226646423339844,-35.17304611206055,119.7748794555664,-39.30000305175781,-6.150000095367432,7.950000286102295
2.804,71.02159881591797,-9.078812599182129,17.1999454498291,59.68759536743164,-29.044410705566406,119.24195861816406,-39.900001525878906,-9.0,7.050000190734863
2.81,73.89463806152344,-12.60307788848877,14.020444869995117,63.684532165527344,-35.17304611206055,119.37519073486328,-39.900001525878906,-9.0,7.050000190734863
2.82,74.96724700927734,-13.675680160522461,10.802638053894043,61.9525260925293,-34.906585693359375,142.02450561523438,-39.75,-10.350000381469727,6.600000381469727
2.83,76.84429931640625,-16.970102310180664,12.871228218078613,55.4241943359375,-37.57120895385742,156.94639587402344,-40.20000076293945,-10.200000762939453,6.750000476837158
2.84,76.65276336669922,-12.526463508605957,6.856993675231934,32.5084228515625,-31.575803756713867,161.87594604492188,-39.900001525878906,-10.5,6.300000190734863
2.86,75.3503189086914,-8.044517517089844,15.131354331970215,46.231239318847656,-35.439510345458984,168.9372100830078,-40.05000305175781,-11.550000190734863,4.650000095367432
2.863,76.03984832763672,-24.516624450683594,10.72602367401123,37.97090148925781,-30.776416778564453,173.86676025390625,-40.05000305175781,-11.550000190734863,4.650000095367432
2.87,70.6002197265625,-46.12190246582031,-6.550535678863525,6.661561965942383,-25.447166442871094,181.8606414794922,-38.70000076293945,-11.40000057220459,5.700000286102295
2.88,67.4973373413086,-44.091617584228516,-3.3710360527038574,-38.63705825805664,-11.857580184936523,168.67074584960938,-39.30000305175781,-13.050000190734863,6.150000095367432
2.89,71.55789947509766,-29.419950485229492,-1.072602391242981,-53.69218826293945,-9.992342948913574,177.46400451660156,-39.45000076293945,-14.40000057220459,6.0
2.9,74.92893981933594,-16.433799743652344,2.2218191623687744,-29.84379768371582,-6.9280242919921875,201.0459442138672,-39.150001525878906,-14.100000381469727,6.300000190734863
2.921,76.5761489868164,-15.322891235351562,4.060565948486328,-41.83460998535156,12.25727367401123,205.1761016845703,-39.150001525878906,-14.100000381469727,6.300000190734863
2.925,74.04786682128906,-19.345149993896484,9.921571731567383,-23.315465927124023,10.658498764038086,203.04440307617188,-40.20000076293945,-15.90000057220459,6.300000190734863
2.93,71.67282104492188,-28.002582550048828,7.661445617675781,-38.63705825805664,25.580398559570312,215.83460998535156,-39.900001525878906,-15.90000057220459,7.050000190734863
2.94,69.48931121826172,-31.373619079589844,9.193734169006348,-48.8958625793457,13.056661605834961,216.6339874267578,-39.75,-17.700000762939453,5.400000095367432
2.95,70.90667724609375,-39.87782287597656,12.02846908569336,-54.091880798339844,17.852985382080078,220.36447143554688,-39.75,-17.700000762939453,6.150000095367432
2.96,76.03984832763672,-34.591426849365234,7.010222434997559,-69.28024291992188,19.31852912902832,218.36599731445312,-39.75,-17.700000762939453,6.150000095367432
2.98,75.08216857910156,-27.15982437133789,12.181697845458984,-47.430320739746094,6.5283308029174805,242.8805389404297,-39.30000305175781,-20.850000381469727,6.600000381469727
2.983,74.6607894897461,-28.61549949645996,13.10107135772705,-54.091880798339844,4.529861927032471,219.69830322265625,-37.80000305175781,-19.650001525878906,7.950000286102295
2.99,70.71514129638672,-37.11970138549805,17.085023880004883,-45.56508255004883,-1.5987749099731445,251.4073486328125,-37.80000305175781,-20.850000381469727,5.400000095367432
3.0,71.8260498046875,-37.19631576538086,13.292608261108398,-54.4915771484375,-11.457886695861816,224.62786865234375,-38.55000305175781,-21.600000381469727,6.600000381469727
3.01,73.16680145263672,-31.335311889648438,16.89348793029785,-44.09954071044922,-19.718223571777344,227.29249572753906,-38.55000305175781,-21.600000381469727,6.600000381469727
3.02,67.99533081054688,-36.50678634643555,21.030668258666992,-39.83613967895508,-12.124042510986328,235.28636169433594,-37.5,-26.250001907348633,5.850000381469727
3.04,65.12228393554688,-53.13212585449219,12.60307788848877,-60.08728790283203,-17.186830520629883,254.47166442871094,-36.900001525878906,-26.850000381469727,7.050000190734863
3.043,82.39884948730469,-54.702720642089844,5.937620162963867,-76.07503509521484,-27.445634841918945,249.6753387451172,-36.150001525878906,-26.400001525878906,6.750000476837158
3.05,93.46963500976562,-34.24666213989258,12.143390655517578,-67.68146514892578,-23.04900360107422,265.3966369628906,-36.75,-26.250001907348633,5.100000381469727
3.06,91.28612518310547,-39.99274444580078,13.177685737609863,-65.81623077392578,-27.31240463256836,282.983154296875,-36.75,-26.250001907348633,5.100000381469727
3.07,87.11063385009766,-48.343719482421875,12.947842597961426,-68.08116149902344,-38.50382614135742,276.7212829589844,-36.150001525878906,-29.100000381469727,6.0
3.08,71.55789947509766,-51.982906341552734,7.891288757324219,-70.61255645751953,-35.705970764160156,272.8575744628906,-37.05000305175781,-30.900001525878906,5.850000381469727
3.1,80.29194641113281,-59.68265914916992,6.052541732788086,-95.66002655029297,-35.839202880859375,283.915771484375,-35.55000305175781,-30.900001525878906,5.850000381469727
3.104,97.83665466308594,-52.4042854309082,6.512228488922119,-72.87748718261719,-43.83307647705078,298.30474853515625,-34.05000305175781,-33.900001525878906,3.9000000953674316
3.11,79.10442352294922,-42.061336517333984,8.925583839416504,-67.814697265625,-47.430320739746094,297.37213134765625,-34.05000305175781,-33.900001525878906,3.9000000953674316
3.12,70.17884063720703,-53.361968994140625,9.500192642211914,-85.13475799560547,-40.502296447753906,288.8453369140625,-33.45000076293945,-34.20000076293945,4.950000286102295
3.13,51.82967758178711,-57.15438461303711,6.665457725524902,-79.9387435913086,-37.97090148925781,282.4502258300781,-31.80000114440918,-36.30000305175781,3.3000001907348633
3.14,56.96284866333008,-60.946800231933594,1.7621324062347412,-73.54364013671875,-60.75344467163086,279.252685546875,-32.400001525878906,-36.150001525878906,3.0
3.16,66.76950073242188,-56.80961608886719,-4.750096321105957,-65.949462890625,-65.15007781982422,273.9234313964844,-32.400001525878906,-36.150001525878906,3.0
3.163,59.22297286987305,-50.06754684448242,-5.70777702331543,-48.362937927246094,-61.01990509033203,277.387451171875,-29.400001525878906,-37.95000076293945,2.700000047683716
3.17,69.91069030761719,-59.18466567993164,-3.064578056335449,-57.55589294433594,-60.88667678833008,269.1271057128906,-29.400001525878906,-37.95000076293945,2.700000047683716
3.18,80.1770248413086,-57.614070892333984,0.1149216815829277,-52.226646423339844,-72.0781021118164,286.58038330078125,-28.200000762939453,-40.35000228881836,1.9500000476837158
3.19,76.15476989746094,-55.085792541503906,1.2258312702178955,-57.689125061035156,-73.41041564941406,281.5176086425781,-27.750001907348633,-40.5,1.8000000715255737
3.2,45.20252990722656,-52.05952072143555,4.941632270812988,-64.084228515625,-54.89126968383789,264.4640197753906,-27.750001907348633,-40.5,1.8000000715255737
3.22,3.4093432426452637,-63.74322509765625,5.937620162963867,-65.41653442382812,-43.30015182495117,237.81776428222656,-25.200000762939453,-42.30000305175781,-0.15000000596046448
3.224,2.5282769203186035,-76.99752807617188,7.4316020011901855,-101.2557373046875,-36.372127532958984,204.2434844970703,-26.250001907348633,-44.400001525878906,1.350000023841858
3.23,46.313438415527344,-73.85633087158203,4.788403511047363,-97.92495727539062,-38.90352249145508,205.04287719726562,-26.250001907348633,-44.400001525878906,1.350000023841858
3.24,71.90266418457031,-70.94498443603516,7.316680431365967,-97.39203643798828,-50.76110076904297,208.77334594726562,-23.25,-44.400001525878906,0.6000000238418579
3.25,112.04863739013672,-70.37037658691406,15.131354331970215,-114.71209716796875,-67.68146514892578,193.18528747558594,-23.25,-44.400001525878906,0.6000000238418579
3.26,128.7888946533203,-68.56993865966797,17.468095779418945,-121.90658569335938,-66.74884796142578,197.0489959716797,-22.80000114440918,-44.400001525878906,-2.5500001907348633
3.28,139.2850799560547,-53.93657684326172,19.766529083251953,-131.36599731445312,-67.68146514892578,180.66156005859375,-22.950000762939453,-44.55000305175781,-1.9500000476837158
3.284,145.14608764648438,-35.6257209777832,12.947842597961426,-85.00152587890625,-73.41041564941406,127.23583221435547,-19.80000114440918,-45.150001525878906,-2.5500001907348633
3.29,135.53097534179688,-27.044902801513672,10.84094524383545,-33.70750427246094,-97.39203643798828,162.00918579101562,-19.80000114440918,-45.150001525878906,-2.5500001907348633
3.3,125.45616912841797,-18.464082717895508,4.596867084503174,-1.1990811824798584,-89.93108367919922,117.37671661376953,-19.80000114440918,-45.150001525878906,-2.5500001907348633
3.31,83.50975799560547,-18.54069709777832,-9.423578262329102,65.54976654052734,-54.4915771484375,111.38131713867188,-19.05000114440918,-46.650001525878906,-5.100000381469727
3.32,34.66804122924805,-41.065345764160156,-15.169661521911621,178.5298614501953,-31.709033966064453,201.17916870117188,-18.450000762939453,-46.20000076293945,-6.300000190734863
3.34,0.9193734526634216,-88.71953582763672,-2.451662540435791,241.9479217529297,-2.9310872554779053,181.8606414794922,-16.200000762939453,-46.95000076293945,-5.25
3.344,-8.197746276855469,-121.70206451416016,18.923770904541016,168.0045928955078,21.050535202026367,141.0918731689453,-16.650001525878906,-48.0,-4.200000286102295
3.35,-19.574993133544922,-105.65132904052734,18.157625198364258,103.38744354248047,26.64624786376953,106.71822357177734,-16.650001525878906,-48.0,-4.200000286102295
3.36,-31.10546875,-81.01978302001953,13.599065780639648,-15.321592330932617,24.11485481262207,12.790199279785156,-14.550000190734863,-49.05000305175781,-4.350000381469727
3.37,-33.71036148071289,-27.77273941040039,25.014619827270508,-204.2434844970703,35.439510345458984,-212.9035186767578,-15.000000953674316,-49.80000305175781,-4.650000095367432
3.38,-23.44402313232422,70.17884063720703,-4.865017890930176,-189.45481872558594,49.02909469604492,-290.0444030761719,-15.750000953674316,-49.80000305175781,-4.350000381469727
3.4,-8.121131896972656,157.13624572753906,-4.252102375030518,20.251148223876953,47.163856506347656,-286.3139343261719,-15.750000953674316,-49.80000305175781,-4.350000381469727
3.404,15.169661521911621,143.76702880859375,6.818686485290527,243.28024291992188,71.01225280761719,-388.23583984375,-15.15000057220459,-48.0,-6.0
3.41,14.326903343200684,57.46084213256836,21.37543296813965,259.93414306640625,66.882080078125,-424.6079406738281,-16.5,-46.35000228881836,-5.850000381469727
3.42,8.542511940002441,31.756690979003906,16.089035034179688,214.50228881835938,71.41194152832031,-478.83306884765625,-17.25,-45.150001525878906,-3.6000001430511475
3.43,5.439626216888428,-0.8427590131759644,0.26815059781074524,142.82388305664062,76.74119567871094,-545.4486694335938,-18.150001525878906,-45.30000305175781,-3.750000238418579
3.44,19.80483627319336,-7.8529815673828125,1.5705963373184204,93.92802429199219,86.86676788330078,-586.2174682617188,-18.150001525878906,-45.30000305175781,-3.750000238418579
3.46,32.63775634765625,5.669469833374023,4.903325080871582,101.38896942138672,87.66615295410156,-608.467041015625,-21.0,-42.45000076293945,-2.1000001430511475
3.464,33.44221115112305,15.629348754882812,5.5545477867126465,151.084228515625,82.47013854980469,-634.0474853515625,-21.0,-42.45000076293945,-1.8000000715255737
3.47,35.89387130737305,3.7924153804779053,9.959878921508789,166.1393585205078,67.01531219482422,-646.7044067382812,-21.450000762939453,-39.150001525878906,-1.9500000476837158
3.48,41.14196014404297,-6.856993675231934,11.91354751586914,159.21133422851562,64.61714935302734,-658.1622924804688,-23.55000114440918,-38.25,-1.8000000715255737
3.49,50.029239654541016,-25.972299575805664,14.211980819702148,151.6171417236328,53.69218826293945,-658.1622924804688,-23.55000114440918,-38.25,-1.8000000715255737
3.5,55.200714111328125,-42.21456527709961,14.595053672790527,93.79479217529297,61.68606185913086,-666.555908203125,-25.650001525878906,-34.20000076293945,-1.6500000953674316
3.519,57.920528411865234,-61.67463684082031,23.673866271972656,-17.32006072998047,68.74732208251953,-686.8070068359375,-25.650001525878906,-35.25,-0.15000000596046448
3.523,56.19670104980469,-80.10041046142578,19.19192123413086,-152.016845703125,58.4885139465332,-692.5359497070312,-26.700000762939453,-31.80000114440918,0.15000000596046448
3.53,55.315635681152344,-80.06210327148438,-0.2298433631658554,-218.76568603515625,62.21898651123047,-694.534423828125,-26.700000762939453,-31.80000114440918,0.15000000596046448
3.54,57.15438461303711,-72.63050079345703,-12.334927558898926,-253.00611877441406,67.41500854492188,-669.75341796875,-26.700000762939453,-31.80000114440918,0.15000000596046448
3.55,64.16460418701172,-70.5619125366211,-19.68991470336914,-230.3568115234375,85.66768646240234,-639.9096069335938,-27.900001525878906,-26.400001525878906,0.45000001788139343
3.56,71.71112823486328,-79.52580261230469,-24.171859741210938,-168.0045928955078,98.19142150878906,-616.3276977539062,-28.650001525878906,-24.900001525878906,0.15000000596046448
3.58,79.37257385253906,-83.0500717163086,-17.391481399536133,-85.00152587890625,76.4747314453125,-550.3782348632812,-28.80000114440918,-21.900001525878906,0.30000001192092896
3.584,85.34850311279297,-80.1770248413086,-13.21599292755127,47.297088623046875,55.15773391723633,-464.8437805175781,-28.80000114440918,-21.900001525878906,0.30000001192092896
3.59,104.08073425292969,-85.42511749267578,-8.465897560119629,100.18988800048828,39.9693717956543,-416.88055419921875,-29.700000762939453,-19.80000114440918,1.6500000953674316
3.6,119.17378234863281,-98.56449890136719,-4.443638324737549,171.60183715820312,8.260336875915527,-339.6064147949219,-29.400001525878906,-17.100000381469727,0.15000000596046448
3.61,130.6276397705078,-125.26463317871094,2.9879636764526367,201.71209716796875,-23.581928253173828,-264.86370849609375,-29.250001907348633,-16.5,1.8000000715255737
3.62,124.65171813964844,-143.9968719482422,1.9536685943603516,151.084228515625,-22.649311065673828,-233.42112731933594,-30.150001525878906,-17.100000381469727,1.9500000476837158
3.639,108.06468963623047,-155.98703002929688,-1.0342950820922852,49.42878723144531,-31.44257164001465,-162.40887451171875,-30.150001525878906,-17.100000381469727,1.9500000476837158
3.643,86.68925476074219,-157.48101806640625,-6.473921298980713,-89.39816284179688,-56.356815338134766,-77.94027709960938,-28.200000762939453,-15.600000381469727,1.6500000953674316
3.65,69.83407592773438,-128.0227508544922,-8.734047889709473,-145.2220458984375,-56.22358322143555,-38.90352249145508,-30.150001525878906,-14.40000057220459,1.2000000476837158
3.66,71.55789947509766,-102.62506103515625,-5.631162166595459,-163.0750274658203,-74.20980072021484,-16.25421142578125,-28.650001525878906,-16.350000381469727,2.25
3.67,74.6990966796875,-61.40648651123047,-10.496180534362793,-112.04747009277344,-82.86982727050781,11.857580184936523,-27.450000762939453,-15.15000057220459,1.2000000476837158
3.68,75.19709014892578,-27.006595611572266,-1.1875240802764893,-47.9632453918457,-77.00765228271484,23.715160369873047,-27.450000762939453,-15.15000057220459,1.2000000476837158
3.7,78.26166534423828,-7.201758861541748,5.094861030578613,-0.9326186776161194,-41.168453216552734,15.854516983032227,-28.650001525878906,-16.80000114440918,1.9500000476837158
3.704,77.7253646850586,2.9496564865112305,22.256498336791992,69.01377868652344,-16.12097930908203,4.796324729919434,-28.500001907348633,-16.200000762939453,2.1000001430511475
3.71,77.03583526611328,9.117119789123535,40.64396667480469,82.6033706665039,-6.128636837005615,19.98468589782715,-28.200000762939453,-16.350000381469727,1.2000000476837158
3.72,78.29997253417969,8.389283180236816,39.035064697265625,71.01225280761719,17.453292846679688,2.398162364959717,-28.05000114440918,-15.750000953674316,1.0500000715255737
3.73,83.39483642578125,-1.37906014919281,29.22841453552246,38.50382614135742,43.96630859375,6.5283308029174805,-28.05000114440918,-15.750000953674316,1.0500000715255737
3.74,87.99169921875,-22.256498336791992,19.68991470336914,-24.381317138671875,61.81929397583008,34.10719680786133,-28.200000762939453,-16.80000114440918,2.25
3.759,94.38900756835938,-40.79719543457031,14.288596153259277,-111.24808502197266,60.48698043823242,35.03981399536133,-28.500001907348633,-16.950000762939453,2.8500001430511475
3.763,97.95157623291016,-49.60786056518555,3.485957622528076,-193.45175170898438,66.08269500732422,96.32618713378906,-29.55000114440918,-16.950000762939453,2.8500001430511475
3.77,96.76405334472656,-64.54767608642578,6.052541732788086,-184.5252685546875,35.306278228759766,162.1424102783203,-28.05000114440918,-16.5,3.3000001907348633
3.78,109.75020599365234,-94.81038665771484,-5.5545477867126465,-110.04900360107422,32.24195861816406,195.1837615966797,-28.05000114440918,-16.5,3.3000001907348633
3.79,116.33905029296875,-108.40945434570312,55.0474853515625,-149.48544311523438,7.460949420928955,190.25421142578125,-27.150001525878906,-19.5,4.950000286102295
3.8,150.04940795898438,-62.977081298828125,60.29557418823242,-198.24807739257812,46.497703552246094,136.9617156982422,-26.55000114440918,-18.150001525878906,5.400000095367432
3.82,143.69041442871094,58.18867874145508,-39.91613006591797,-223.4287872314453,82.86982727050781,130.83306884765625,-26.700000762939453,-21.0,3.750000238418579
3.824,114.30876922607422,181.0399627685547,62.51739501953125,86.0673828125,47.830013275146484,180.9280242919922,-25.80000114440918,-20.400001525878906,6.150000095367432
3.83,104.00411987304688,143.5371856689453,27.696125030517578,280.05206298828125,72.34455871582031,221.83001708984375,-25.80000114440918,-20.400001525878906,6.150000095367432
3.84,97.53019714355469,70.40868377685547,4.290409564971924,379.309326171875,69.81317138671875,262.1990661621094,-28.05000114440918,-21.600000381469727,4.350000381469727
3.85,113.42769622802734,-41.29519271850586,19.843143463134766,297.7718200683594,85.4012222290039,230.4900360107422,-27.150001525878906,-22.5,5.700000286102295
3.86,99.71371459960938,-110.24819946289062,-44.091617584228516,79.53904724121094,99.79019927978516,178.26339721679688,-28.500001907348633,-23.55000114440918,6.900000095367432
3.88,63.896453857421875,-87.11063385009766,-24.554933547973633,-21.050535202026367,79.2725830078125,175.59877014160156,-27.30000114440918,-23.100000381469727,6.600000381469727
3.883,76.537841796875,-41.946414947509766,-14.748282432556152,8.926492691040039,53.159263610839844,161.2097930908203,-27.30000114440918,-23.100000381469727,6.600000381469727
3.89,103.62104797363281,10.496180534362793,26.278757095336914,74.8759536743164,41.035221099853516,178.92955017089844,-27.000001907348633,-24.750001907348633,6.600000381469727
3.9,113.38938903808594,18.157625198364258,47.922340393066406,146.1546630859375,21.583459854125977,188.2557373046875,-26.700000762939453,-24.450000762939453,7.500000476837158
3.91,110.6695785522461,-15.24627685546875,44.206539154052734,117.37671661376953,39.43644714355469,144.42266845703125,-26.400001525878906,-24.450000762939453,6.0
3.92,88.25984954833984,-53.63011932373047,41.48672866821289,66.21592712402344,13.189892768859863,133.76416015625,-26.400001525878906,-24.450000762939453,6.0
3.939,73.6264877319336,-73.54987335205078,26.31706428527832,-8.526799201965332,-2.6646246910095215,107.65084075927734,-26.400001525878906,-24.450000762939453,6.0
3.943,89.94536590576172,-47.04127502441406,-2.4133553504943848,-17.053598403930664,-21.84992218017578,79.13935852050781,-24.30000114440918,-25.80000114440918,7.350000381469727
3.95,93.00994873046875,-42.52102279663086,-9.84495735168457,11.324655532836914,-28.378253936767578,71.81163787841797,-25.500001907348633,-25.80000114440918,7.350000381469727
3.96,87.14894104003906,-36.123714447021484,-14.556746482849121,34.64012145996094,-25.580398559570312,69.01377868652344,-24.30000114440918,-26.250001907348633,7.950000286102295
3.97,82.39884948730469,-33.7486686706543,-6.550535678863525,17.586523056030273,-19.31852912902832,82.33690643310547,-24.30000114440918,-26.250001907348633,7.950000286102295
3.98,107.56669616699219,-30.645782470703125,-3.4093432426452637,-15.055130004882812,-1.5987749099731445,81.40428924560547,-24.30000114440918,-26.250001907348633,7.650000095367432
3.999,112.20186614990234,-22.562957763671875,15.284584045410156,-8.127105712890625,2.531393527984619,99.52373504638672,-26.250001907348633,-28.200000762939453,7.650000095367432
4.004,81.441162109375,-22.869415283203125,19.38345718383789,-3.3307809829711914,16.387441635131836,123.9050521850586,-25.950000762939453,-27.150001525878906,8.25
4.01,55.89024353027344,-40.375816345214844,14.556746482849121,-19.185298919677734,18.652372360229492,81.67074584960938,-24.750001907348633,-28.500001907348633,7.650000095367432
4.02,54.97087097167969,-45.85375213623047,12.947842597961426,-32.64165496826172,17.986217498779297,66.74884796142578,-24.750001907348633,-28.500001907348633,7.650000095367432
4.03,53.32366180419922,-43.70854568481445,12.181697845458984,-26.246553421020508,-0.39969372749328613,62.35221862792969,-25.650001525878906,-28.350000381469727,8.550000190734863
4.04,58.418521881103516,-42.32948684692383,16.625335693359375,-32.64165496826172,4.796324729919434,29.177640914916992,-24.900001525878906,-28.80000114440918,9.0
4.059,70.86837005615234,-37.11970138549805,18.655620574951172,-27.445634841918945,-13.856048583984375,48.49617004394531,-24.150001525878906,-28.80000114440918,9.300000190734863
4.063,76.38461303710938,-25.857378005981445,17.391481399536133,-11.457886695861816,-17.986217498779297,65.949462890625,-24.0,-29.250001907348633,5.100000381469727
4.07,77.8019790649414,-27.46628189086914,22.639572143554688,0.7993874549865723,-35.17304611206055,61.68606185913086,-24.0,-29.250001907348633,5.100000381469727
4.08,80.59840393066406,-34.24666213989258,20.570980072021484,-12.923430442810059,-31.709033966064453,59.68759536743164,-24.450000762939453,-28.80000114440918,6.300000190734863
4.09,80.33025360107422,-38.99675750732422,12.7946138381958,-30.643184661865234,-32.24195861816406,68.34762573242188,-23.25,-28.950000762939453,6.600000381469727
4.1,80.59840393066406,-25.5892276763916,11.185709953308105,-19.185298919677734,-35.705970764160156,77.14088439941406,-24.750001907348633,-28.500001907348633,6.600000381469727
4.12,82.70530700683594,-16.395492553710938,11.224017143249512,-5.329249382019043,-39.30321502685547,102.45481872558594,-25.200000762939453,-30.30000114440918,6.750000476837158
4.124,71.48128509521484,-31.488540649414062,15.552734375,14.12251091003418,-37.83767318725586,109.38284301757812,-24.30000114440918,-30.900001525878906,6.600000381469727
4.13,71.2514419555664,-38.38384246826172,15.514427185058594,11.591117858886719,-40.635528564453125,122.43950653076172,-24.30000114440918,-30.900001525878906,6.600000381469727
4.14,70.83006286621094,-44.35976791381836,12.449849128723145,-9.459418296813965,-38.63705825805664,120.70750427246094,-23.700000762939453,-30.30000114440918,5.25
4.15,69.22116088867188,-39.839515686035156,9.002198219299316,-24.781009674072266,-25.846860885620117,126.7029037475586,-22.80000114440918,-30.450000762939453,6.150000095367432
4.16,69.25946807861328,-34.05512619018555,11.070788383483887,-23.315465927124023,-25.7136287689209,125.37059783935547,-24.0,-31.200000762939453,5.850000381469727
4.18,68.49332427978516,-36.008792877197266,13.369222640991211,-19.718223571777344,-34.50688934326172,142.69065856933594,-24.0,-31.200000762939453,5.850000381469727
4.183,75.31201171875,-33.51882553100586,12.29662036895752,-13.323123931884766,-35.705970764160156,171.20213317871094,-23.55000114440918,-30.900001525878906,5.400000095367432
4.19,75.38862609863281,-22.333112716674805,11.875240325927734,-19.31852912902832,-31.176109313964844,174.66615295410156,-23.55000114440918,-30.900001525878906,5.400000095367432
4.2,70.29376220703125,-24.89969825744629,19.115306854248047,-14.388973236083984,-31.709033966064453,180.5283203125,-22.05000114440918,-32.400001525878906,5.400000095367432
4.21,69.79576873779297,-43.51700973510742,13.79060173034668,-29.044410705566406,-39.569679260253906,212.23736572265625,-21.450000762939453,-33.75,4.950000286102295
4.22,75.58016204833984,-49.26309585571289,13.48414421081543,-69.94640350341797,-27.445634841918945,211.83766174316406,-21.450000762939453,-33.75,4.950000286102295
4.24,88.52799987792969,-39.80120849609375,10.764330863952637,-72.61102294921875,-42.500762939453125,220.23123168945312,-21.150001525878906,-33.75,4.5
4.244,96.993896484375,-25.09123420715332,17.468095779418945,-52.75957107543945,-49.16232681274414,257.8024597167969,-21.900001525878906,-34.95000076293945,3.450000047683716
4.25,85.65496063232422,-27.198131561279297,20.226215362548828,-51.693721771240234,-35.03981399536133,263.7978515625,-21.900001525878906,-34.95000076293945,3.450000047683716
4.26,65.46704864501953,-32.9442138671875,21.107282638549805,-53.82542037963867,-34.24042892456055,261.6661376953125,-20.700000762939453,-34.20000076293945,4.5
4.27,60.7935676574707,-55.46886444091797,16.970102310180664,-81.53751373291016,-32.37519073486328,286.3139343261719,-20.700000762939453,-34.20000076293945,4.5
4.28,67.68887329101562,-48.68848419189453,8.044517517089844,-100.3231201171875,-34.24042892456055,277.7871398925781,-19.950000762939453,-36.150001525878906,3.750000238418579
4.3,56.46485137939453,-39.87782287597656,11.30063247680664,-92.99540710449219,-23.581928253173828,269.2603454589844,-19.80000114440918,-36.30000305175781,2.5500001907348633
4.304,47.002967834472656,-59.5294303894043,8.044517517089844,-111.781005859375,-32.37519073486328,283.3828430175781,-19.200000762939453,-39.60000228881836,2.700000047683716
4.31,47.07958221435547,-56.426544189453125,5.018246650695801,-99.65696716308594,-35.17304611206055,280.3185119628906,-19.200000762939453,-39.60000228881836,2.700000047683716
4.32,52.51920700073242,-52.174442291259766,3.869029998779297,-85.26799011230469,-39.16998291015625,296.8392028808594,-19.200000762939453,-39.60000228881836,2.700000047683716
4.33,73.74140930175781,-52.02121353149414,7.8529815673828125,-96.05972290039062,-36.238895416259766,296.3062744140625,-17.25,-39.30000305175781,0.30000001192092896
4.34,65.96504211425781,-51.33168411254883,6.282385349273682,-79.9387435913086,-40.9019889831543,302.5681457519531,-15.000000953674316,-39.0,-0.6000000238418579
4.36,62.785545349121094,-66.27149963378906,10.074800491333008,-86.46707153320312,-50.4946403503418,307.2312316894531,-15.000000953674316,-39.30000305175781,0.0
4.363,90.02198028564453,-53.63011932373047,6.167463779449463,-107.11791229248047,-50.89433288574219,304.3001403808594,-14.700000762939453,-39.150001525878906,0.45000001788139343
4.37,81.4794692993164,-45.164222717285156,6.320692539215088,-92.59571075439453,-44.23276901245117,304.3001403808594,-14.700000762939453,-39.150001525878906,0.45000001788139343
4.38,68.1102523803711,-48.91832733154297,3.7924153804779053,-61.81929397583008,-52.093414306640625,308.0306091308594,-11.550000190734863,-42.45000076293945,-0.6000000238418579
4.39,63.475074768066406,-77.45721435546875,1.455674648284912,-93.12863159179688,-49.96171569824219,292.1761169433594,-12.750000953674316,-40.5,-2.5500001907348633
4.4,81.4794692993164,-73.0901870727539,-4.6734819412231445,-100.18988800048828,-57.689125061035156,286.9800720214844,-12.750000953674316,-40.5,-2.5500001907348633
4.419,94.73377227783203,-44.55130386352539,-6.933608055114746,-44.49923324584961,-63.151607513427734,274.18988037109375,-12.300000190734863,-42.45000076293945,-2.1000001430511475
4.422,72.13250732421875,-63.781532287597656,-9.84495735168457,-42.500762939453125,-68.08116149902344,266.1960144042969,-12.15000057220459,-44.25,-1.6500000953674316
4.431,81.93915557861328,-67.42072296142578,-7.469909191131592,-67.41500854492188,-64.48391723632812,261.5329284667969,-10.800000190734863,-44.85000228881836,-4.350000381469727
4.44,106.95378112792969,-67.72718048095703,-2.75812029838562,-94.46094512939453,-73.67687225341797,228.22511291503906,-9.450000762939453,-42.30000305175781,-3.0
4.45,126.56707763671875,-54.089805603027344,-0.8044517636299133,-78.87289428710938,-87.53292083740234,195.1837615966797,-9.450000762939453,-42.30000305175781,-3.0
4.46,119.59516143798828,-43.55531692504883,3.44765043258667,-46.09800720214844,-92.86217498779297,164.94027709960938,-9.450000762939453,-45.30000305175781,-4.950000286102295
4.48,101.24600219726562,-42.674251556396484,5.822698593139648,10.525267601013184,-72.0781021118164,127.23583221435547,-10.200000762939453,-43.05000305175781,-6.300000190734863
4.483,42.48271560668945,-53.51519775390625,-7.623138427734375,110.98162078857422,-44.76569747924805,144.55589294433594,-9.300000190734863,-44.85000228881836,-6.150000095367432
4.49,26.66183090209961,-61.98109436035156,-9.27034854888916,184.92495727539062,-10.125574111938477,162.94180297851562,-8.40000057220459,-42.30000305175781,-6.750000476837158
4.5,7.929595947265625,-72.05589294433594,6.473921298980713,184.5252685546875,22.116384506225586,144.2894287109375,-8.40000057220459,-42.30000305175781,-6.750000476837158
4.51,-17.468095779418945,-72.13250732421875,20.264522552490234,150.151611328125,43.03369140625,126.30321502685547,-7.650000095367432,-45.0,-6.750000476837158
4.52,-40.33750915527344,-58.87820816040039,23.060951232910156,30.643184661865234,46.63093185424805,59.02143859863281,-6.300000190734863,-43.20000076293945,-7.350000381469727
4.539,-56.426544189453125,-27.88766098022461,16.66364288330078,-179.4624786376953,15.45482349395752,-222.36293029785156,-7.650000095367432,-45.75,-7.500000476837158
4.542,-36.8132438659668,76.76768493652344,-15.935806274414062,-170.26951599121094,23.98162269592285,-258.06890869140625,-7.650000095367432,-45.75,-7.500000476837158
4.55,-27.006595611572266,99.94355773925781,-12.832921028137207,-63.81776428222656,32.108726501464844,-298.5711975097656,-7.650000095367432,-45.75,-7.500000476837158
4.56,-4.175487995147705,125.49447631835938,-5.094861030578613,108.18376159667969,32.64165496826172,-353.1960144042969,-10.5,-44.400001525878906,-7.650000095367432
4.57,15.207969665527344,110.78450012207031,2.7964274883270264,247.2771759033203,44.09954071044922,-417.2802429199219,-10.050000190734863,-42.900001525878906,-8.40000057220459
4.58,17.774553298950195,73.7031021118164,8.389283180236816,312.29400634765625,47.430320739746094,-449.5221862792969,-13.200000762939453,-42.30000305175781,-7.800000190734863
4.6,13.982137680053711,31.488540649414062,4.252102375030518,315.0918884277344,39.03675079345703,-487.7595520019531,-13.65000057220459,-43.80000305175781,-6.0
4.604,25.474306106567383,-11.72201156616211,15.284584045410156,236.61868286132812,51.160797119140625,-555.8406982421875,-13.65000057220459,-43.80000305175781,-6.0
4.61,30.109479904174805,-18.081010818481445,19.99637222290039,191.32005310058594,46.09800720214844,-576.6248168945312,-15.000000953674316,-40.20000076293945,-5.100000381469727
4.62,33.7869758605957,-27.351360321044922,22.60126495361328,114.84532928466797,51.560489654541016,-619.2587890625,-17.55000114440918,-40.20000076293945,-4.650000095367432
4.63,34.24666213989258,-40.452430725097656,21.490354537963867,43.30015182495117,44.63246536254883,-636.0458984375,-17.25,-40.5,-4.650000095367432
4.64,36.008792877197266,-46.811431884765625,19.421764373779297,-22.915773391723633,51.027565002441406,-653.0995483398438,-19.5,-37.80000305175781,-5.100000381469727
4.659,41.5633430480957,-45.394065856933594,13.79060173034668,-99.12403869628906,48.76263427734375,-648.702880859375,-22.200000762939453,-33.45000076293945,-3.750000238418579
4.662,52.787357330322266,-45.010990142822266,9.117119789123535,-109.24961853027344,50.4946403503418,-648.5696411132812,-22.200000762939453,-33.45000076293945,-3.750000238418579
4.67,55.89024353027344,-45.777137756347656,7.354987621307373,-126.5696792602539,43.30015182495117,-651.6339721679688,-22.950000762939453,-34.5,-1.6500000953674316
4.68,58.03544998168945,-53.51519775390625,4.903325080871582,-156.81317138671875,47.696781158447266,-651.6339721679688,-22.200000762939453,-31.500001907348633,-4.200000286102295
4.69,55.35394287109375,-54.93256378173828,0.727837324142456,-172.80091857910156,39.30321502685547,-658.2955322265625,-24.0,-29.250001907348633,-2.5500001907348633
4.709,55.16240692138672,-59.031436920166016,-8.580819129943848,-164.5405731201172,40.502296447753906,-631.6492919921875,-24.0,-29.250001907348633,-2.5500001907348633
4.713,59.98911666870117,-65.39043426513672,-13.637372970581055,-147.75344848632812,58.222049713134766,-602.4716796875,-25.80000114440918,-27.450000762939453,-3.6000001430511475
4.72,74.89063262939453,-76.72937774658203,-7.1251444816589355,-139.6263427734375,70.3460922241211,-601.2725830078125,-26.55000114440918,-23.850000381469727,-3.6000001430511475
4.73,81.28793334960938,-80.98147583007812,-1.5705963373184204,-86.60030364990234,65.81623077392578,-565.8330688476562,-27.30000114440918,-22.80000114440918,-2.8500001430511475
4.74,85.76988220214844,-75.23539733886719,4.558559894561768,-16.65390396118164,58.62174606323242,-529.5941772460938,-27.900001525878906,-20.25,-1.9500000476837158
4.75,90.2518310546875,-67.34410858154297,0.038307227194309235,67.94792938232422,65.949462890625,-474.16998291015625,-27.900001525878906,-20.25,-1.9500000476837158
4.76,100.90123748779297,-72.36235046386719,0.9576807022094727,151.88360595703125,50.22817611694336,-416.88055419921875,-28.05000114440918,-16.950000762939453,-1.8000000715255737
4.779,111.70387268066406,-90.17520904541016,0.26815059781074524,173.46707153320312,21.983154296875,-329.61407470703125,-28.80000114440918,-16.5,-2.1000001430511475
4.783,111.09095764160156,-134.80313110351562,-12.717999458312988,144.1562042236328,13.323123931884766,-312.1607971191406,-28.80000114440918,-16.5,-2.1000001430511475
4.79,106.72393798828125,-139.85968017578125,-16.47210693359375,74.74272155761719,12.124042510986328,-264.1975402832031,-28.80000114440918,-16.5,-2.1000001430511475
4.8,97.30035400390625,-144.3416290283203,-18.11931800842285,-39.43644714355469,-7.9938740730285645,-215.43490600585938,-28.650001525878906,-14.40000057220459,-1.6500000953674316
4.81,91.36273956298828,-133.7688446044922,-11.875240325927734,-111.91423797607422,-25.447166442871094,-142.69065856933594,-27.450000762939453,-15.15000057220459,-0.45000001788139343
4.829,89.14091491699219,-111.9720230102539,-4.788403511047363,-141.4915771484375,-34.773353576660156,-105.38591003417969,-28.500001907348633,-12.300000190734863,-1.0500000715255737
4.833,88.22154235839844,-90.32844543457031,-0.4213795065879822,-123.9050521850586,-44.36600112915039,-15.854516983032227,-27.900001525878906,-14.100000381469727,-0.9000000357627869
4.84,82.4371566772461,-77.53382873535156,8.619126319885254,-105.5191421508789,-52.493106842041016,23.581928253173828,-27.900001525878906,-14.100000381469727,-0.9000000357627869
4.85,78.4148941040039,-72.59219360351562,11.72201156616211,-75.67534637451172,-55.29096221923828,70.74578857421875,-26.400001525878906,-10.950000762939453,-1.6500000953674316
4.86,80.21533203125,-66.73119354248047,11.875240325927734,-69.54670715332031,-47.56355285644531,100.3231201171875,-27.750001907348633,-12.750000953674316,-0.30000001192092896
4.87,83.47145080566406,-61.138336181640625,7.508216381072998,-77.4073486328125,-49.96171569824219,119.90811157226562,-26.400001525878906,-12.450000762939453,-0.45000001788139343
4.88,83.77790832519531,-50.79538345336914,8.006210327148438,-68.61408996582031,-36.63859176635742,109.78253936767578,-28.500001907348633,-13.800000190734863,-1.0500000715255737
4.899,81.441162109375,-26.355371475219727,4.290409564971924,58.754974365234375,-16.520673751831055,230.75650024414062,-27.450000762939453,-14.40000057220459,-0.45000001788139343
4.903,88.91107177734375,-70.67683410644531,37.57939147949219,50.76110076904297,-31.575803756713867,221.29708862304688,-27.450000762939453,-14.40000057220459,-0.45000001788139343
4.91,95.1168441772461,-88.25984954833984,35.85556411743164,-44.89892578125,-20.650842666625977,119.90811157226562,-26.250001907348633,-15.000000953674316,0.30000001192092896
4.92,101.51415252685547,-70.25545501708984,17.659631729125977,-136.4287872314453,-4.529861927032471,86.86676788330078,-27.30000114440918,-14.550000190734863,-0.6000000238418579
4.93,106.76224517822266,-8.772355079650879,29.95625114440918,-109.51607513427734,-21.183767318725586,100.9892807006836,-27.000001907348633,-15.450000762939453,-0.30000001192092896
4.94,145.75900268554688,46.504974365234375,-0.49799394607543945,-52.226646423339844,-3.597243309020996,152.54977416992188,-27.000001907348633,-15.450000762939453,-0.30000001192092896
4.952,166.55982971191406,77.26567840576172,11.185709953308105,20.38437843322754,62.75191116333008,178.5298614501953,-26.55000114440918,-15.750000953674316,1.0500000715255737
4.96,140.01290893554688,92.7417984008789,87.26386260986328,54.62480926513672,22.782541275024414,174.26646423339844,-27.000001907348633,-16.200000762939453,1.0500000715255737
4.97,130.4361114501953,92.6651840209961,57.46084213256836,161.47625732421875,45.298622131347656,201.4456329345703,-27.450000762939453,-16.80000114440918,0.9000000357627869
4.98,106.83885955810547,71.51959228515625,4.711789131164551,227.5589599609375,54.4915771484375,273.3905029296875,-26.55000114440918,-16.950000762939453,-0.30000001192092896
4.99,116.33905029296875,3.44765043258667,46.96466064453125,243.28024291992188,62.21898651123047,236.88514709472656,-26.55000114440918,-16.950000762939453,-0.30000001192092896
5.01,108.40945434570312,-37.924156188964844,-11.951854705810547,144.1562042236328,76.4747314453125,242.8805389404297,-28.950000762939453,-21.0,0.9000000357627869
5.014,80.94316864013672,-53.668426513671875,-2.4899697303771973,57.289432525634766,74.20980072021484,197.9816131591797,-27.000001907348633,-21.150001525878906,0.6000000238418579
5.02,67.61225891113281,-68.1485595703125,-15.054739952087402,31.176109313964844,66.48238372802734,186.12403869628906,-27.000001907348633,-21.150001525878906,0.6000000238418579
5.03,66.15657806396484,-58.3036003112793,-8.65743350982666,1.0658499002456665,68.74732208251953,163.20826721191406,-25.650001525878906,-21.0,1.2000000476837158
5.04,65.81181335449219,-42.7891731262207,-3.1028854846954346,10.791729927062988,53.42572784423828,170.8024444580078,-25.650001525878906,-21.0,1.2000000476837158
5.05,66.65457153320312,-40.873809814453125,-3.179499864578247,20.517610549926758,35.705970764160156,142.4241943359375,-26.700000762939453,-22.950000762939453,1.2000000476837158
5.06,79.94718170166016,-44.091617584228516,0.38307225704193115,12.523736000061035,28.511484146118164,128.96783447265625,-27.450000762939453,-22.200000762939453,1.2000000476837158
5.073,93.43132781982422,-41.67826461791992,5.937620162963867,-1.9984685182571411,25.980091094970703,105.91883087158203,-26.55000114440918,-23.55000114440918,1.0500000715255737
5.08,105.57471466064453,-37.043087005615234,12.832921028137207,3.4640121459960938,15.588054656982422,118.97549438476562,-25.200000762939453,-24.450000762939453,1.9500000476837158
5.09,109.40544128417969,-29.994558334350586,20.187908172607422,-1.7320060729980469,3.597243309020996,124.57120513916016,-25.200000762939453,-24.450000762939453,1.9500000476837158
5.1,107.49008178710938,-26.43198585510254,18.693927764892578,-5.196018218994141,8.793261528015137,119.10872650146484,-26.700000762939453,-24.150001525878906,1.6500000953674316
5.11,95.46160888671875,-26.815059661865234,17.889474868774414,10.791729927062988,20.117916107177734,124.03828430175781,-26.400001525878906,-24.450000762939453,1.6500000953674316
5.13,78.49150848388672,-30.722396850585938,15.131354331970215,20.91730499267578,9.992342948913574,111.5145492553711,-25.80000114440918,-24.750001907348633,2.5500001907348633
5.133,63.32184600830078,-39.839515686035156,19.574993133544922,20.517610549926758,-1.8652373552322388,77.4073486328125,-24.450000762939453,-26.400001525878906,1.6500000953674316
5.14,66.34811401367188,-60.33388137817383,10.687716484069824,4.796324729919434,-7.860642910003662,48.22970962524414,-24.450000762939453,-26.400001525878906,1.6500000953674316
5.15,73.0518798828125,-70.17884063720703,2.4133553504943848,-35.439510345458984,-10.258805274963379,60.75344467163086,-24.450000762939453,-26.850000381469727,2.25
5.16,84.54405212402344,-54.51118469238281,0.3447650372982025,-39.03675079345703,-22.649311065673828,55.15773391723633,-23.700000762939453,-26.850000381469727,3.750000238418579
5.17,91.17120361328125,-31.7183837890625,-0.15322890877723694,-27.84532928466797,-11.324655532836914,57.55589294433594,-26.400001525878906,-26.100000381469727,1.6500000953674316
5.189,88.5663070678711,-24.325088500976562,4.520252704620361,-0.5329249501228333,-14.388973236083984,64.75038146972656,-26.400001525878906,-26.100000381469727,1.6500000953674316
5.193,83.6629867553711,-34.170047760009766,6.205770969390869,-18.652372360229492,-13.323123931884766,65.54976654052734,-24.450000762939453,-27.600000381469727,1.6500000953674316
5.2,84.69728088378906,-44.512996673583984,10.994174003601074,-26.513015747070312,-23.315465927124023,78.3399658203125,-24.450000762939453,-27.600000381469727,1.6500000953674316
5.21,88.6046142578125,-40.79719543457031,11.41555404663086,-43.03369140625,-19.31852912902832,78.20673370361328,-25.950000762939453,-26.850000381469727,1.6500000953674316
5.22,87.03401947021484,-26.776752471923828,17.92778205871582,-28.24502182006836,-22.116384506225586,84.20214080810547,-24.900001525878906,-26.850000381469727,1.9500000476837158
5.23,72.17081451416016,-29.15180015563965,20.072986602783203,-18.78560447692871,-36.63859176635742,89.26493072509766,-24.900001525878906,-26.850000381469727,1.9500000476837158
5.25,60.21895980834961,-40.49073791503906,17.161638259887695,-10.392036437988281,-27.31240463256836,86.86676788330078,-24.450000762939453,-27.150001525878906,2.700000047683716
5.253,55.54547882080078,-46.696510314941406,15.85919189453125,-28.378253936767578,-35.306278228759766,85.13475799560547,-25.05000114440918,-28.200000762939453,0.30000001192092896
5.26,59.06974411010742,-41.5633430480957,14.786589622497559,-25.846860885620117,-39.16998291015625,95.12710571289062,-25.05000114440918,-28.200000762939453,0.30000001192092896
5.27,61.444793701171875,-35.6257209777832,13.560758590698242,-19.31852912902832,-41.83460998535156,113.11331939697266,-23.400001525878906,-27.600000381469727,1.6500000953674316
5.28,67.38241577148438,-31.29700469970703,14.709975242614746,-27.31240463256836,-45.56508255004883,108.3169937133789,-23.400001525878906,-27.600000381469727,1.6500000953674316
5.29,71.71112823486328,-31.335311889648438,10.381258964538574,-16.387441635131836,-47.0306282043457,116.9770278930664,-24.30000114440918,-28.500001907348633,0.30000001192092896
5.31,66.27149963378906,-31.067161560058594,14.173673629760742,-9.992342948913574,-49.96171569824219,137.3614044189453,-24.0,-29.250001907348633,0.6000000238418579
5.314,61.52140808105469,-33.25067138671875,10.228029251098633,-2.531393527984619,-59.02143859863281,157.74578857421875,-22.5,-29.250001907348633,1.350000023841858
5.32,72.36235046386719,-36.39186477661133,3.026270866394043,-15.588054656982422,-58.08882141113281,169.0704345703125,-22.5,-29.250001907348633,1.350000023841858
5.33,80.44517517089844,-37.502777099609375,-0.9959878921508789,-12.790199279785156,-76.60796356201172,175.0658416748047,-22.5,-29.250001907348633,1.350000023841858
5.34,80.48348236083984,-37.46446990966797,-0.8044517636299133,-12.124042510986328,-84.4686050415039,197.0489959716797,-22.80000114440918,-32.400001525878906,-0.15000000596046448
5.35,86.84248352050781,-33.365596771240234,-5.4013190269470215,-17.986217498779297,-84.33537292480469,228.89126586914062,-22.05000114440918,-32.85000228881836,-1.0500000715255737
5.37,85.5783462524414,-25.474306106567383,-1.37906014919281,9.192955017089844,-82.86982727050781,241.9479217529297,-21.0,-31.950000762939453,-1.8000000715255737
5.373,73.58818054199219,-25.052927017211914,-1.0342950820922852,33.30780792236328,-69.01377868652344,261.5329284667969,-21.0,-31.950000762939453,-1.8000000715255737
5.38,56.34992980957031,-43.55531692504883,4.060565948486328,40.635528564453125,-71.54517364501953,272.59112548828125,-21.0,-31.950000762939453,-1.8000000715255737
5.39,51.33168411254883,-56.69469451904297,4.175487995147705,4.663093090057373,-54.35834503173828,263.3981628417969,-21.900001525878906,-34.5,-1.9500000476837158
5.4,54.20472717285156,-66.61626434326172,8.619126319885254,-30.90964698791504,-49.96171569824219,262.3323059082031,-20.25,-35.10000228881836,-2.1000001430511475
5.41,55.200714111328125,-59.22297286987305,9.385271072387695,-53.82542037963867,-61.28636932373047,272.9908142089844,-20.400001525878906,-35.25,-2.25
5.43,60.563724517822266,-57.15438461303711,10.381258964538574,-83.40275573730469,-50.62786865234375,260.0673828125,-20.400001525878906,-35.25,-2.25
5.434,53.783348083496094,-48.650177001953125,12.717999458312988,-57.02296829223633,-49.02909469604492,269.2603454589844,-18.75,-36.30000305175781,-4.350000381469727
5.44,46.313438415527344,-54.4345703125,16.127342224121094,-78.07350158691406,-59.15467071533203,274.056640625,-17.25,-36.60000228881836,-3.3000001907348633
5.45,49.07155990600586,-60.48711013793945,14.97812557220459,-82.7365951538086,-57.02296829223633,288.8453369140625,-18.450000762939453,-36.900001525878906,-3.750000238418579
5.46,58.418521881103516,-68.34009552001953,19.574993133544922,-100.58958435058594,-51.560489654541016,269.7932434082031,-17.55000114440918,-37.05000305175781,-4.350000381469727
5.47,79.37257385253906,-70.10222625732422,18.54069709777832,-104.05359649658203,-61.01990509033203,288.44561767578125,-17.55000114440918,-37.05000305175781,-4.350000381469727
5.49,110.40142822265625,-57.84391403198242,15.552734375,-101.78866577148438,-62.618682861328125,297.7718200683594,-15.300000190734863,-39.30000305175781,-4.650000095367432
5.494,96.87897491455078,-46.504974365234375,13.062764167785645,-74.34303283691406,-61.68606185913086,314.1592712402344,-15.000000953674316,-39.0,-5.100000381469727
5.5,90.8264389038086,-69.25946807861328,7.5848307609558105,-94.19448852539062,-51.693721771240234,300.83612060546875,-16.05000114440918,-39.0,-6.150000095367432
5.51,85.15696716308594,-64.54767608642578,3.869029998779297,-91.13016510009766,-54.091880798339844,299.5038146972656,-13.500000953674316,-39.0,-5.850000381469727
5.52,66.27149963378906,-55.35394287109375,-4.596867084503174,-77.27411651611328,-57.15620040893555,288.44561767578125,-13.500000953674316,-39.0,-5.850000381469727
5.53,69.56592559814453,-53.40027618408203,-10.649409294128418,-81.27105712890625,-51.560489654541016,276.1883544921875,-13.500000953674316,-40.95000076293945,-6.900000095367432
5.55,59.146358489990234,-53.476890563964844,-15.629348754882812,-61.41960144042969,-58.08882141113281,270.9923400878906,-11.550000190734863,-40.5,-7.950000286102295
5.553,56.69469451904297,-61.751251220703125,-11.72201156616211,-63.28483963012695,-67.14854431152344,261.0,-12.90000057220459,-39.900001525878906,-7.800000190734863
5.56,86.765869140625,-68.99131774902344,-7.5848307609558105,-83.00305938720703,-63.551300048828125,236.88514709472656,-12.90000057220459,-39.900001525878906,-7.800000190734863
5.57,98.02819061279297,-61.5980224609375,-5.975927352905273,-72.21133422851562,-67.14854431152344,206.24195861816406,-10.950000762939453,-41.85000228881836,-7.500000476837158
5.58,104.8085708618164,-57.001155853271484,-6.167463779449463,-34.64012145996094,-75.5421142578125,189.1883544921875,-12.0,-43.20000076293945,-8.40000057220459
5.59,107.49008178710938,-59.22297286987305,-1.0342950820922852,8.793261528015137,-77.67381286621094,143.88973999023438,-10.65000057220459,-41.85000228881836,-9.0
5.61,96.18944549560547,-64.0879898071289,-8.810662269592285,39.43644714355469,-62.085758209228516,163.74119567871094,-8.700000762939453,-43.5,-8.550000190734863
5.614,63.36015319824219,-78.72135162353516,-12.181697845458984,73.54364013671875,-34.906585693359375,158.0122528076172,-8.700000762939453,-43.5,-8.550000190734863
5.62,31.450233459472656,-71.09821319580078,0.1149216815829277,63.684532165527344,-29.177640914916992,158.27871704101562,-7.950000286102295,-43.80000305175781,-9.300000190734863
5.63,19.919757843017578,-57.6906852722168,2.6431987285614014,66.08269500732422,-3.9969370365142822,101.38896942138672,-8.25,-42.900001525878906,-10.200000762939453
5.64,-1.455674648284912,-42.061336517333984,14.939818382263184,85.00152587890625,29.84379768371582,78.73966217041016,-8.700000762939453,-43.5,-10.350000381469727
5.65,-31.948226928710938,-34.43819808959961,17.238252639770508,83.40275573730469,41.168453216552734,39.9693717956543,-6.750000476837158,-43.20000076293945,-9.15000057220459
5.67,-54.97087097167969,-18.54069709777832,37.77092742919922,-66.74884796142578,13.189892768859863,-99.25727081298828,-6.750000476837158,-43.20000076293945,-9.15000057220459
5.673,-57.192691802978516,13.828908920288086,7.393294811248779,-178.13015747070312,27.578866958618164,-280.7182312011719,-7.950000286102295,-41.85000228881836,-9.75
5.68,-38.2689208984375,82.39884948730469,-10.572794914245605,-119.5084228515625,23.182235717773438,-318.2894287109375,-9.15000057220459,-41.85000228881836,-10.350000381469727
5.69,-7.1251444816589355,110.36312103271484,-7.508216381072998,49.69525146484375,19.052066802978516,-356.9264831542969,-10.65000057220459,-41.85000228881836,-10.350000381469727
5.7,15.935806274414062,114.07892608642578,-5.669469833374023,252.07350158691406,32.37519073486328,-407.8208312988281,-9.300000190734863,-41.70000076293945,-9.450000762939453
5.71,20.915746688842773,90.55828857421875,0.6512228846549988,390.90045166015625,38.77029037475586,-441.7947692871094,-9.300000190734863,-41.70000076293945,-9.450000762939453
5.731,12.258312225341797,47.57757568359375,0.4213795065879822,429.8039855957031,35.839202880859375,-459.3813171386719,-12.0,-41.70000076293945,-9.450000762939453
5.734,12.48815631866455,3.907337188720703,7.1251444816589355,339.7396545410156,27.31240463256836,-534.3905029296875,-11.40000057220459,-43.05000305175781,-9.0
5.749,28.423961639404297,-35.31926345825195,13.675680160522461,187.72280883789062,31.842266082763672,-583.9525146484375,-16.05000114440918,-39.0,-7.350000381469727
5.753,36.35355758666992,-51.561527252197266,25.014619827270508,154.9479217529297,22.782541275024414,-591.9464111328125,-16.05000114440918,-39.0,-7.350000381469727
5.76,37.924156188964844,-52.09782791137695,27.542896270751953,97.39203643798828,22.782541275024414,-599.5405883789062,-16.05000114440918,-39.0,-7.350000381469727
5.77,39.87782287597656,-49.18648147583008,27.88766098022461,33.30780792236328,27.71209716796875,-613.3966064453125,-17.400001525878906,-38.400001525878906,-5.700000286102295
5.78,46.23682403564453,-51.02522659301758,27.58120346069336,-31.176109313964844,29.977027893066406,-630.050537109375,-19.200000762939453,-36.150001525878906,-7.050000190734863
5.79,56.847923278808594,-58.9165153503418,25.244462966918945,-89.66461944580078,29.84379768371582,-619.3920288085938,-19.5,-36.30000305175781,-6.600000381469727
5.803,63.20692443847656,-69.60423278808594,18.655620574951172,-164.67381286621094,43.16691970825195,-637.1117553710938,-21.75,-34.80000305175781,-6.150000095367432
5.81,64.58598327636719,-72.97526550292969,8.427590370178223,-187.1898956298828,50.22817611694336,-641.5084228515625,-21.75,-34.80000305175781,-6.150000095367432
5.82,61.90447998046875,-69.9489974975586,5.5545477867126465,-203.04440307617188,51.4272575378418,-620.3246459960938,-22.5,-30.450000762939453,-6.600000381469727
5.83,60.10403823852539,-66.30980682373047,-1.647210717201233,-194.51760864257812,55.4241943359375,-600.6064453125,-25.950000762939453,-27.900001525878906,-7.800000190734863
5.84,62.59400939941406,-67.07595825195312,-4.9799394607543945,-175.865234375,66.34915924072266,-588.7488403320312,-24.150001525878906,-25.200000762939453,-8.550000190734863
5.85,70.0256118774414,-69.3743896484375,-6.742072105407715,-128.96783447265625,80.07197570800781,-565.03369140625,-24.450000762939453,-26.100000381469727,-6.0
5.869,79.79395294189453,-70.33206939697266,-2.451662540435791,-7.194486618041992,87.79938507080078,-527.7289428710938,-24.750001907348633,-21.900001525878906,-7.950000286102295
5.872,78.72135162353516,-53.208740234375,15.131354331970215,43.69984436035156,79.2725830078125,-487.8927917480469,-24.750001907348633,-21.900001525878906,-7.950000286102295
5.88,79.29595947265625,-52.09782791137695,16.318878173828125,101.52220153808594,88.73200225830078,-470.3062744140625,-25.200000762939453,-19.80000114440918,-6.750000476837158
5.89,83.31822204589844,-57.15438461303711,15.705963134765625,167.87135314941406,81.13782501220703,-418.2128601074219,-25.950000762939453,-19.5,-7.500000476837158
5.9,95.84468078613281,-78.60643005371094,13.139378547668457,187.3231201171875,73.9433364868164,-374.3797912597656,-27.150001525878906,-17.850000381469727,-6.0
5.919,103.65935516357422,-106.87716674804688,4.252102375030518,116.57733154296875,81.27105712890625,-363.4548034667969,-27.150001525878906,-17.850000381469727,-6.0
5.923,105.68963623046875,-126.75861358642578,0.038307227194309235,-29.177640914916992,71.54517364501953,-341.07196044921875,-26.55000114440918,-15.750000953674316,-6.900000095367432
5.93,98.02819061279297,-136.2205047607422,-8.121131896972656,-124.8376693725586,58.754974365234375,-299.1041259765625,-27.150001525878906,-14.40000057220459,-5.700000286102295
5.94,90.17520904541016,-123.69403839111328,-10.496180534362793,-221.83001708984375,43.43338394165039,-259.2679748535156,-27.150001525878906,-13.65000057220459,-6.750000476837158
5.95,87.64693450927734,-92.47364807128906,-5.5545477867126465,-279.6523742675781,42.36753463745117,-236.88514709472656,-27.150001525878906,-13.65000057220459,-6.750000476837158
5.96,84.9654312133789,-65.46704864501953,-5.746084213256836,-287.51300048828125,37.57120895385742,-195.050537109375,-25.950000762939453,-11.40000057220459,-4.200000286102295
5.97,82.74361419677734,-46.0452880859375,0.0,-238.6171417236328,18.519142150878906,-146.82083129882812,-26.700000762939453,-11.40000057220459,-4.950000286102295
5.987,76.42292022705078,-35.395877838134766,4.558559894561768,-125.10413360595703,22.782541275024414,-61.552833557128906,-27.900001525878906,-10.200000762939453,-3.750000238418579
5.991,66.80780792236328,-44.206539154052734,15.705963134765625,-110.44869232177734,26.113323211669922,-45.16539001464844,-27.900001525878906,-10.200000762939453,-3.750000238418579
6.0,67.99533081054688,-49.531246185302734,15.705963134765625,-109.64930725097656,24.381317138671875,-11.591117858886719,-27.900001525878906,-10.200000762939453,-3.750000238418579
6.01,69.06793212890625,-53.09381866455078,6.167463779449463,-138.8269500732422,29.7105655670166,25.04747200012207,-26.55000114440918,-9.15000057220459,-4.350000381469727
6.02,73.43495178222656,-42.52102279663086,1.5705963373184204,-129.10107421875,43.43338394165039,42.101070404052734,-27.450000762939453,-10.200000762939453,-2.700000047683716
6.039,80.63671112060547,-21.605276107788086,-10.036493301391602,-51.4272575378418,31.309341430664062,83.40275573730469,-27.750001907348633,-10.800000190734863,-2.8500001430511475
6.043,88.52799987792969,-7.8529815673828125,-14.824896812438965,119.90811157226562,14.12251091003418,201.71209716796875,-26.700000762939453,-9.75,-3.750000238418579
6.05,92.32041931152344,-37.08139419555664,2.298433542251587,183.32618713378906,-25.846860885620117,288.9785461425781,-26.700000762939453,-9.75,-3.750000238418579
6.06,106.03440856933594,-102.12706756591797,22.026655197143555,55.95711898803711,-35.17304611206055,261.13323974609375,-26.400001525878906,-11.40000057220459,-2.700000047683716
6.07,109.86512756347656,-147.09974670410156,17.659631729125977,-158.14547729492188,-16.920366287231445,169.73660278320312,-25.80000114440918,-13.800000190734863,-3.6000001430511475
6.08,106.76224517822266,-101.59076690673828,16.66364288330078,-254.87135314941406,-9.72588062286377,88.06584930419922,-27.750001907348633,-13.500000953674316,-3.3000001907348633
6.09,128.520751953125,32.56114196777344,21.6818904876709,-178.79632568359375,0.9326186776161194,118.8422622680664,-26.700000762939453,-13.65000057220459,-2.700000047683716
6.103,156.2551727294922,140.31936645507812,-16.58702850341797,-36.771820068359375,39.30321502685547,207.0413360595703,-27.000001907348633,-15.000000953674316,-2.5500001907348633
6.11,130.70425415039062,142.3496551513672,49.07155990600586,108.58345794677734,46.497703552246094,234.4869842529297,-27.000001907348633,-15.000000953674316,-2.5500001907348633
6.12,115.34306335449219,111.32080078125,76.65276336669922,272.9908142089844,0.0,227.95864868164062,-26.700000762939453,-14.850000381469727,-2.25
6.13,118.36933135986328,71.48128509521484,30.032865524291992,377.0444030761719,24.64777946472168,273.52374267578125,-27.000001907348633,-15.000000953674316,-2.1000001430511475
6.14,114.99829864501953,28.92195701599121,2.911349296569824,340.2725830078125,46.497703552246094,280.7182312011719,-27.150001525878906,-15.90000057220459,-1.6500000953674316
6.15,111.32080078125,-57.7289924621582,26.585216522216797,289.37823486328125,57.822357177734375,243.28024291992188,-27.150001525878906,-15.90000057220459,-1.6500000953674316
6.166,96.61082458496094,-89.90705871582031,-13.024456977844238,25.580398559570312,47.56355285644531,226.62632751464844,-27.30000114440918,-18.450000762939453,-2.5500001907348633
6.171,71.09821319580078,-70.25545501708984,-10.496180534362793,9.592649459838867,38.50382614135742,209.3062744140625,-27.30000114440918,-18.450000762939453,-2.5500001907348633
6.18,72.86034393310547,-51.1784553527832,-12.449849128723145,-4.929555892944336,35.705970764160156,192.11944580078125,-28.05000114440918,-19.650001525878906,-1.0500000715255737
6.19,83.01176452636719,-22.524648666381836,19.038692474365234,50.76110076904297,38.90352249145508,189.85450744628906,-25.200000762939453,-20.25,-2.700000047683716
6.2,73.0901870727539,-18.11931800842285,23.44402313232422,75.8085708618164,57.15620040893555,171.86830139160156,-25.200000762939453,-20.25,-2.700000047683716
6.219,56.2733154296875,-42.252872467041016,37.00477981567383,54.35834503173828,35.03981399536133,128.43490600585938,-27.450000762939453,-20.55000114440918,-1.2000000476837158
6.223,60.372188568115234,-66.5013427734375,16.318878173828125,-25.04747200012207,3.3307809829711914,102.8545150756836,-26.55000114440918,-21.900001525878906,-2.5500001907348633
6.23,105.88117218017578,-68.53163146972656,1.5705963373184204,-56.49004364013672,-16.12097930908203,88.46553802490234,-26.55000114440918,-21.900001525878906,-2.5500001907348633
6.24,142.27304077148438,-52.289363861083984,-8.619126319885254,-65.949462890625,-12.790199279785156,98.4578857421875,-26.250001907348633,-21.150001525878906,-1.350000023841858
6.25,154.5696563720703,-17.50640296936035,0.6129156351089478,-29.31087303161621,-8.793261528015137,120.17457580566406,-26.250001907348633,-21.150001525878906,-1.350000023841858
6.26,112.31678771972656,-0.689530074596405,15.705963134765625,25.580398559570312,-6.794793128967285,147.8866729736328,-26.250001907348633,-21.600000381469727,-1.0500000715255737
6.27,76.38461303710938,-17.62132453918457,9.232041358947754,20.517610549926758,4.529861927032471,120.4410400390625,-27.150001525878906,-22.950000762939453,-1.9500000476837158
6.283,58.3036003112793,-44.66622543334961,21.030668258666992,19.185298919677734,-14.788667678833008,100.45635223388672,-25.650001525878906,-22.950000762939453,-0.9000000357627869
6.29,59.031436920166016,-68.7231674194336,14.863204002380371,-11.058192253112793,-16.65390396118164,71.94486999511719,-25.650001525878906,-22.950000762939453,-0.9000000357627869
6.3,58.226985931396484,-64.16460418701172,17.92778205871582,-25.04747200012207,-13.189892768859863,41.83460998535156,-27.150001525878906,-22.950000762939453,-0.9000000357627869
6.31,58.80159378051758,-45.470680236816406,21.107282638549805,-6.395099639892578,-30.90964698791504,23.848390579223633,-26.55000114440918,-23.850000381469727,-1.0500000715255737
6.32,60.29557418823242,-35.74064254760742,19.766529083251953,26.779478073120117,-47.430320739746094,27.445634841918945,-26.55000114440918,-22.80000114440918,-1.350000023841858
6.34,62.51739501953125,-42.7508659362793,18.732234954833984,28.644716262817383,-61.41960144042969,8.526799201965332,-26.55000114440918,-22.80000114440918,-1.350000023841858
6.343,70.94498443603516,-58.15037155151367,5.631162166595459,-9.592649459838867,-66.61561584472656,8.526799201965332,-25.950000762939453,-24.150001525878906,-2.700000047683716
6.35,78.18505096435547,-40.22258758544922,-2.3750481605529785,-16.78713607788086,-58.08882141113281,2.9310872554779053,-24.0,-24.750001907348633,-2.8500001430511475
6.36,83.7012939453125,-24.13355255126953,-0.8427590131759644,14.788667678833008,-62.75191116333008,25.313934326171875,-25.80000114440918,-25.80000114440918,-3.6000001430511475
6.37,81.441162109375,-18.579004287719727,7.738059997558594,28.378253936767578,-52.75957107543945,33.4410400390625,-24.450000762939453,-23.25,-1.6500000953674316
6.38,69.48931121826172,-32.982521057128906,11.109095573425293,8.39356803894043,-38.37059783935547,28.24502182006836,-24.450000762939453,-23.25,-1.6500000953674316
6.399,69.52761840820312,-44.819454193115234,9.385271072387695,-4.263399600982666,-49.02909469604492,33.04134750366211,-25.500001907348633,-23.55000114440918,-1.8000000715255737
6.404,75.42693328857422,-42.252872467041016,6.244078159332275,-11.457886695861816,-52.226646423339844,49.96171569824219,-24.900001525878906,-24.900001525878906,-4.200000286102295
6.41,80.06210327148438,-28.960264205932617,7.048529624938965,-9.592649459838867,-45.56508255004883,58.4885139465332,-25.950000762939453,-27.150001525878906,-3.450000047683716
6.42,80.33025360107422,-21.528661727905273,10.189722061157227,3.9969370365142822,-43.43338394165039,71.54517364501953,-25.950000762939453,-24.150001525878906,-4.200000286102295
6.43,77.1124496459961,-18.4257755279541,14.633360862731934,19.718223571777344,-51.693721771240234,85.4012222290039,-25.950000762939453,-24.150001525878906,-4.200000286102295
6.44,65.50535583496094,-22.754493713378906,20.685903549194336,11.324655532836914,-51.693721771240234,86.73353576660156,-25.05000114440918,-25.500001907348633,-2.8500001430511475
6.46,56.04347229003906,-38.15399932861328,22.37141990661621,-26.113323211669922,-27.31240463256836,86.3338394165039,-24.0,-25.80000114440918,-5.400000095367432
6.463,48.152183532714844,-46.390052795410156,16.242263793945312,-41.83460998535156,-32.64165496826172,94.9938735961914,-25.500001907348633,-25.80000114440918,-3.9000000953674316
6.47,62.63231658935547,-48.956634521484375,8.197746276855469,-49.16232681274414,-32.90811538696289,109.78253936767578,-26.250001907348633,-26.250001907348633,-5.100000381469727
6.48,76.61445617675781,-43.05732345581055,3.026270866394043,-64.3506851196289,-30.509952545166016,112.58039855957031,-26.250001907348633,-26.250001907348633,-5.100000381469727
6.49,90.94136047363281,-31.028854370117188,-3.869029998779297,-49.42878723144531,-35.03981399536133,140.1592559814453,-23.400001525878906,-25.650001525878906,-4.950000286102295
6.5,93.43132781982422,-17.583017349243164,-7.929595947265625,-17.186830520629883,-41.568145751953125,164.5405731201172,-25.200000762939453,-27.600000381469727,-4.950000286102295
6.52,89.02599334716797,-18.387468338012695,-10.457873344421387,3.597243309020996,-57.955589294433594,194.6508331298828,-24.750001907348633,-27.750001907348633,-5.850000381469727
6.524,96.53421020507812,-28.462270736694336,-9.385271072387695,-6.794793128967285,-53.026031494140625,228.75804138183594,-23.55000114440918,-28.200000762939453,-4.650000095367432
6.53,93.23979187011719,-25.014619827270508,2.298433542251587,2.131699800491333,-61.9525260925293,232.35528564453125,-23.55000114440918,-28.200000762939453,-4.650000095367432
6.54,75.46524047851562,-22.90772247314453,9.730035781860352,13.722817420959473,-48.62940216064453,236.3522186279297,-23.25,-28.950000762939453,-6.900000095367432
6.55,63.32184600830078,-40.7205810546875,17.774553298950195,-9.192955017089844,-37.83767318725586,233.68759155273438,-23.25,-28.950000762939453,-4.350000381469727
6.56,62.785545349121094,-65.81181335449219,19.345149993896484,-63.81776428222656,-24.51454734802246,243.14700317382812,-21.30000114440918,-28.500001907348633,-5.850000381469727
6.58,63.20692443847656,-64.93074798583984,14.748282432556152,-92.19601440429688,-32.5084228515625,245.14547729492188,-22.80000114440918,-31.200000762939453,-5.100000381469727
6.583,56.69469451904297,-41.37180709838867,7.6997528076171875,-86.3338394165039,-19.185298919677734,247.67686462402344,-22.80000114440918,-31.200000762939453,-5.100000381469727
6.59,57.920528411865234,-41.21857833862305,12.679692268371582,-82.6033706665039,-11.191424369812012,260.4670715332031,-21.450000762939453,-30.600000381469727,-6.0
6.6,72.17081451416016,-52.94058609008789,11.070788383483887,-103.52066802978516,-33.04134750366211,280.8514404296875,-22.05000114440918,-32.85000228881836,-6.900000095367432
6.61,79.18103790283203,-48.07556915283203,11.60708999633789,-101.9218978881836,-39.569679260253906,286.3139343261719,-21.75,-33.150001525878906,-7.350000381469727
6.62,73.89463806152344,-37.11970138549805,15.284584045410156,-92.46247863769531,-34.64012145996094,308.1638488769531,-20.25,-33.60000228881836,-6.600000381469727
6.64,91.20951080322266,-49.9143180847168,16.855180740356445,-108.3169937133789,-36.238895416259766,304.6998291015625,-20.25,-33.60000228881836,-6.600000381469727
6.643,89.56229400634766,-59.41450881958008,12.679692268371582,-112.58039855957031,-42.633995056152344,315.8912658691406,-19.950000762939453,-34.20000076293945,-9.75
6.65,76.537841796875,-36.66001510620117,11.262324333190918,-105.25267791748047,-43.43338394165039,316.15771484375,-19.05000114440918,-33.60000228881836,-9.15000057220459
6.66,47.730804443359375,-30.569168090820312,11.070788383483887,-86.3338394165039,-17.986217498779297,310.9617004394531,-18.0,-35.55000305175781,-8.40000057220459
6.67,13.560758590698242,-61.10002899169922,8.772355079650879,-100.72281646728516,-15.45482349395752,294.4410400390625,-18.0,-35.55000305175781,-9.15000057220459
6.68,30.569168090820312,-95.1934585571289,5.975927352905273,-125.63705444335938,-26.379785537719727,282.050537109375,-18.0,-35.55000305175781,-9.15000057220459
6.7,54.166419982910156,-84.39082336425781,-3.754108190536499,-135.4961700439453,-29.7105655670166,271.1255798339844,-17.55000114440918,-35.10000228881836,-9.450000762939453
6.704,79.33426666259766,-55.27732849121094,-9.002198219299316,-77.80704498291016,-50.4946403503418,279.6523742675781,-15.90000057220459,-36.45000076293945,-10.350000381469727
6.71,60.7552604675293,-38.19230651855469,-10.649409294128418,-46.497703552246094,-51.160797119140625,273.25726318359375,-15.300000190734863,-38.55000305175781,-10.65000057220459
6.72,63.81983947753906,-62.13432312011719,-10.304644584655762,-35.17304611206055,-60.48698043823242,273.6569519042969,-15.300000190734863,-38.55000305175781,-10.65000057220459
6.731,85.65496063232422,-89.10260772705078,-8.159439086914062,-87.66615295410156,-70.21286010742188,256.7366027832031,-14.40000057220459,-38.400001525878906,-10.800000190734863
6.74,103.23797607421875,-73.54987335205078,-3.294421434402466,-99.92343139648438,-92.72894287109375,243.5467071533203,-14.550000190734863,-39.30000305175781,-11.40000057220459
6.76,112.66155242919922,-54.85594940185547,9.423578262329102,-65.15007781982422,-110.98162078857422,217.5666046142578,-14.40000057220459,-38.400001525878906,-11.100000381469727
6.763,115.15152740478516,-43.67023849487305,21.643583297729492,-63.018375396728516,-102.18836212158203,173.0673828125,-14.550000190734863,-39.0,-13.200000762939453
6.77,92.43534088134766,-40.64396667480469,26.891674041748047,-45.03215789794922,-102.72128295898438,165.2067413330078,-14.550000190734863,-39.0,-13.200000762939453
6.78,71.71112823486328,-40.145973205566406,25.780763626098633,-14.788667678833008,-103.12097930908203,150.81776428222656,-10.800000190734863,-39.0,-13.200000762939453
6.79,41.754878997802734,-35.089420318603516,23.252487182617188,31.44257164001465,-91.26339721679688,139.6263427734375,-12.300000190734863,-38.55000305175781,-13.500000953674316
6.8,16.58702850341797,-37.57939147949219,24.938005447387695,103.52066802978516,-65.54976654052734,93.52832794189453,-12.750000953674316,-39.75,-12.750000953674316
6.82,-4.137180328369141,-39.26490783691406,18.464082717895508,134.83001708984375,-36.10566711425781,65.949462890625,-12.15000057220459,-39.60000228881836,-14.40000057220459
6.824,-26.815059661865234,-41.98472213745117,8.619126319885254,107.78407287597656,0.39969372749328613,21.983154296875,-12.15000057220459,-39.60000228881836,-14.40000057220459
6.83,-47.34773254394531,-57.99714279174805,1.8770540952682495,57.15620040893555,-8.127105712890625,-20.91730499267578,-10.65000057220459,-39.60000228881836,-14.100000381469727
6.84,-49.3397102355957,-54.66441345214844,-6.665457725524902,-27.978559494018555,-10.658498764038086,-129.76722717285156,-10.950000762939453,-41.10000228881836,-13.350000381469727
6.85,-43.51700973510742,-19.958065032958984,-7.661445617675781,-58.4885139465332,-8.926492691040039,-237.6845245361328,-11.25,-40.20000076293945,-13.200000762939453
6.86,-16.28057098388672,48.68848419189453,1.6855180263519287,-30.643184661865234,-3.197549819946289,-283.2496032714844,-11.40000057220459,-38.85000228881836,-14.100000381469727
6.88,13.637372970581055,93.46963500976562,9.385271072387695,106.85145568847656,25.846860885620117,-290.444091796875,-11.40000057220459,-38.85000228881836,-14.100000381469727
6.883,22.754493713378906,76.84429931640625,10.917559623718262,260.7335205078125,36.63859176635742,-332.1454772949219,-13.950000762939453,-39.60000228881836,-13.65000057220459
6.89,7.661445617675781,14.633360862731934,13.177685737609863,276.32159423828125,41.168453216552734,-367.8514404296875,-16.05000114440918,-39.0,-13.950000762939453
6.9,5.669469833374023,-4.788403511047363,7.623138427734375,240.0826873779297,44.09954071044922,-409.9525146484375,-15.000000953674316,-36.30000305175781,-13.950000762939453
6.91,16.318878173828125,-18.808849334716797,0.6129156351089478,198.9142303466797,47.163856506347656,-450.7212829589844,-15.000000953674316,-37.05000305175781,-12.750000953674316
6.92,31.10546875,-24.631547927856445,5.746084213256836,179.4624786376953,37.70444107055664,-473.7702941894531,-15.000000953674316,-37.05000305175781,-12.750000953674316
6.94,40.7205810546875,-23.75048065185547,9.308655738830566,166.80551147460938,35.306278228759766,-495.4869689941406,-18.900001525878906,-36.45000076293945,-11.850000381469727
6.944,45.164222717285156,-24.401702880859375,9.232041358947754,164.67381286621094,35.705970764160156,-524.9310913085938,-18.75,-34.80000305175781,-10.200000762939453
6.95,50.87199783325195,-30.722396850585938,12.258312225341797,142.02450561523438,45.16539001464844,-543.050537109375,-18.75,-34.80000305175781,-10.200000762939453
6.96,57.03946304321289,-37.924156188964844,15.744270324707031,116.17764282226562,27.978559494018555,-550.7779541015625,-19.80000114440918,-33.150001525878906,-10.65000057220459
6.97,64.6242904663086,-50.48892593383789,18.157625198364258,56.09035110473633,26.513015747070312,-583.1531372070312,-19.80000114440918,-33.150001525878906,-10.65000057220459
6.98,66.80780792236328,-58.3419075012207,17.276559829711914,-15.055130004882812,34.10719680786133,-610.4655151367188,-23.25,-29.250001907348633,-9.450000762939453
7.0,64.20291137695312,-54.81764221191406,12.373234748840332,-69.54670715332031,24.781009674072266,-621.1240234375,-23.25,-29.250001907348633,-8.700000762939453
7.004,63.589996337890625,-43.51700973510742,7.661445617675781,-96.72587585449219,30.37672233581543,-613.3966064453125,-24.450000762939453,-25.650001525878906,-10.800000190734863
7.01,72.32404327392578,-29.76471519470215,4.9799394607543945,-94.86064147949219,48.22970962524414,-606.0689086914062,-24.450000762939453,-25.650001525878906,-10.800000190734863
7.02,80.02379608154297,-30.722396850585938,4.520252704620361,-69.4134750366211,61.15313720703125,-594.3445434570312,-24.450000762939453,-25.650001525878906,-10.800000190734863
7.03,91.17120361328125,-39.68628692626953,6.205770969390869,-34.373661041259766,67.28177642822266,-582.6201782226562,-25.500001907348633,-22.80000114440918,-9.90000057220459
