time,accel_x,accel_y,accel_z,gyro_x,gyro_y,gyro_z,mag_x,mag_y,mag_z
0.0,67.11426544189453,-30.837318420410156,4.098873138427734,-3.7304747104644775,-5.728943347930908,12.390504837036133,-35.25,2.700000047683716,-7.350000381469727
0.01,78.14674377441406,-9.500192642211914,-10.228029251098633,-4.529861927032471,1.0658499002456665,10.658498764038086,-34.80000305175781,1.8000000715255737,-6.600000381469727
0.029,78.29997253417969,-8.619126319885254,-11.530475616455078,-13.056661605834961,0.2664624750614166,-1.0658499002456665,-34.80000305175781,1.8000000715255737,-6.600000381469727
0.033,77.95520782470703,-6.971915245056152,-11.41555404663086,-17.852985382080078,1.0658499002456665,2.398162364959717,-34.80000305175781,3.450000047683716,-5.850000381469727
0.04,77.53382873535156,-7.201758861541748,-11.070788383483887,-4.263399600982666,-0.5329249501228333,8.260336875915527,-34.80000305175781,3.450000047683716,-5.850000381469727
0.05,78.03182220458984,-6.01423454284668,-10.572794914245605,-7.9938740730285645,-4.396630764007568,17.453292846679688,-33.75,1.5,-6.150000095367432
0.06,77.64875030517578,-5.324704647064209,-10.72602367401123,-7.06125545501709,-6.395099639892578,16.387441635131836,-34.5,2.700000047683716,-6.150000095367432
0.07,77.84028625488281,-7.163451671600342,-10.72602367401123,-3.197549819946289,-3.597243309020996,24.781009674072266,-34.5,2.700000047683716,-6.150000095367432
0.09,79.41088104248047,-7.623138427734375,-11.836933135986328,-5.196018218994141,-4.663093090057373,15.321592330932617,-35.25,2.700000047683716,-6.150000095367432
0.093,77.07414245605469,-7.891288757324219,-11.568782806396484,-5.462480545043945,4.663093090057373,16.920366287231445,-36.0,2.700000047683716,-6.150000095367432
0.1,78.64473724365234,-8.427590370178223,-12.02846908569336,-5.329249382019043,4.263399600982666,14.255742073059082,-36.0,2.700000047683716,-6.150000095367432
0.11,77.45721435546875,-9.193734169006348,-11.03248119354248,-6.5283308029174805,7.327718257904053,19.45176124572754,-35.55000305175781,0.75,-6.150000095367432
0.12,76.76768493652344,-9.806650161743164,-9.921571731567383,-13.989279747009277,-2.398162364959717,18.91883659362793,-35.55000305175781,0.75,-6.150000095367432
0.13,77.49552154541016,-10.266336441040039,-10.228029251098633,-21.84992218017578,2.398162364959717,15.45482349395752,-36.150001525878906,2.8500001430511475,-6.300000190734863
0.149,76.99752807617188,-10.41956615447998,-10.994174003601074,-9.592649459838867,-1.7320060729980469,22.649311065673828,-35.400001525878906,1.6500000953674316,-5.700000286102295
0.153,78.29997253417969,-8.887276649475098,-12.947842597961426,-15.45482349395752,2.2649309635162354,26.779478073120117,-34.80000305175781,2.700000047683716,-6.600000381469727
0.16,78.49150848388672,-9.078812599182129,-11.530475616455078,-26.379785537719727,7.9938740730285645,21.583459854125977,-34.80000305175781,2.700000047683716,-6.600000381469727
0.17,78.91288757324219,-8.96389102935791,-11.836933135986328,-27.578866958618164,1.4655436277389526,25.980091094970703,-34.80000305175781,2.700000047683716,-6.600000381469727
0.18,78.989501953125,-9.117119789123535,-12.832921028137207,-17.852985382080078,1.5987749099731445,27.71209716796875,-34.80000305175781,2.700000047683716,-6.600000381469727
0.19,79.29595947265625,-9.27034854888916,-13.982137680053711,-22.782541275024414,11.324655532836914,28.24502182006836,-36.30000305175781,1.5,-6.600000381469727
0.206,77.61044311523438,-9.883264541625977,-13.10107135772705,-18.519142150878906,5.995405673980713,38.37059783935547,-35.25,2.25,-6.150000095367432
0.21,78.14674377441406,-9.806650161743164,-12.60307788848877,-23.848390579223633,7.72741174697876,32.24195861816406,-35.55000305175781,0.30000001192092896,-6.150000095367432
0.22,77.68705749511719,-9.53849983215332,-13.79060173034668,-15.588054656982422,-1.7320060729980469,33.30780792236328,-35.55000305175781,0.30000001192092896,-6.150000095367432
0.23,76.80599212646484,-10.496180534362793,-11.30063247680664,-22.649311065673828,9.326186180114746,29.7105655670166,-34.95000076293945,2.1000001430511475,-4.5
0.24,76.80599212646484,-9.883264541625977,-11.875240325927734,-27.17917251586914,10.258805274963379,40.102603912353516,-34.650001525878906,1.6500000953674316,-7.050000190734863
0.25,74.89063262939453,-10.917559623718262,-12.717999458312988,-23.448698043823242,8.39356803894043,45.298622131347656,-36.30000305175781,0.75,-4.650000095367432
0.269,75.73339080810547,-12.02846908569336,-13.369222640991211,-28.644716262817383,11.591117858886719,32.108726501464844,-36.900001525878906,-0.15000000596046448,-5.700000286102295
0.273,76.84429931640625,-10.649409294128418,-10.074800491333008,-23.848390579223633,2.398162364959717,40.23583221435547,-36.900001525878906,-0.15000000596046448,-5.700000286102295
0.28,77.45721435546875,-10.572794914245605,-11.224017143249512,-31.042879104614258,10.125574111938477,37.4379768371582,-36.75,0.75,-6.600000381469727
0.29,77.95520782470703,-9.959878921508789,-12.7946138381958,-29.977027893066406,3.197549819946289,40.36906433105469,-35.25,1.8000000715255737,-5.400000095367432
0.3,78.79796600341797,-10.649409294128418,-12.449849128723145,-25.980091094970703,4.929555892944336,36.10566711425781,-34.80000305175781,1.5,-5.400000095367432
0.319,80.36856079101562,-12.373234748840332,-12.641385078430176,-37.03828430175781,11.591117858886719,40.102603912353516,-36.150001525878906,0.45000001788139343,-5.25
0.323,80.36856079101562,-12.29662036895752,-11.453861236572266,-30.643184661865234,11.457886695861816,47.163856506347656,-36.150001525878906,0.45000001788139343,-5.25
0.33,78.07012939453125,-11.760318756103516,-12.986149787902832,-35.839202880859375,11.324655532836914,47.297088623046875,-36.150001525878906,0.15000000596046448,-5.700000286102295
0.34,76.72937774658203,-11.951854705810547,-12.22000503540039,-37.70444107055664,17.719755172729492,44.76569747924805,-34.650001525878906,-0.45000001788139343,-4.950000286102295
0.35,75.8866195678711,-11.875240325927734,-11.530475616455078,-25.7136287689209,10.791729927062988,54.22511291503906,-36.30000305175781,1.5,-4.650000095367432
0.36,75.9249267578125,-8.96389102935791,-11.72201156616211,-28.644716262817383,17.852985382080078,46.764163970947266,-36.150001525878906,-0.45000001788139343,-5.700000286102295
0.37,75.9632339477539,-9.308655738830566,-12.02846908569336,-22.782541275024414,15.321592330932617,45.298622131347656,-36.150001525878906,-0.45000001788139343,-5.700000286102295
0.386,74.58417510986328,-9.998186111450195,-12.02846908569336,-20.251148223876953,9.72588062286377,58.355281829833984,-36.45000076293945,-1.350000023841858,-4.950000286102295
0.39,75.12047576904297,-10.5344877243042,-11.492168426513672,-19.584991455078125,12.656967163085938,57.422664642333984,-36.900001525878906,-0.9000000357627869,-5.700000286102295
0.4,74.2394027709961,-10.955866813659668,-12.334927558898926,-26.64624786376953,13.056661605834961,46.09800720214844,-36.45000076293945,-0.9000000357627869,-5.25
0.41,75.12047576904297,-11.645397186279297,-11.875240325927734,-29.044410705566406,14.255742073059082,42.500762939453125,-36.0,-1.0500000715255737,-5.850000381469727
0.42,75.77169799804688,-11.875240325927734,-11.377246856689453,-20.38437843322754,8.39356803894043,49.56201934814453,-36.0,-1.0500000715255737,-5.850000381469727
0.44,75.9632339477539,-11.798625946044922,-10.41956615447998,-27.17917251586914,17.453292846679688,36.372127532958984,-38.25,-2.700000047683716,-5.100000381469727
0.443,75.3503189086914,-11.224017143249512,-10.381258964538574,-18.91883659362793,9.326186180114746,41.168453216552734,-37.95000076293945,-2.1000001430511475,-5.700000286102295
0.45,76.65276336669922,-9.998186111450195,-12.22000503540039,-25.580398559570312,15.721285820007324,35.17304611206055,-36.900001525878906,-1.6500000953674316,-4.5
0.46,76.65276336669922,-8.580819129943848,-12.90953540802002,-18.385910034179688,14.788667678833008,32.90811538696289,-39.0,-1.0500000715255737,-3.3000001907348633
0.47,76.61445617675781,-7.201758861541748,-13.445837020874023,2.797856092453003,11.058192253112793,28.378253936767578,-39.0,-1.0500000715255737,-3.3000001907348633
0.48,76.84429931640625,-5.018246650695801,-14.135366439819336,10.392036437988281,22.649311065673828,17.986217498779297,-37.05000305175781,-3.450000047683716,-5.850000381469727
0.499,75.08216857910156,-3.5242648124694824,-13.445837020874023,28.511484146118164,21.716691970825195,17.852985382080078,-36.45000076293945,-2.1000001430511475,-4.950000286102295
0.6,78.26166534423828,4.865017890930176,-2.3750481605529785,127.63552856445312,11.591117858886719,-43.16691970825195,-36.900001525878906,-3.1500000953674316,-4.950000286102295
0.62,82.28392028808594,3.064578056335449,-4.32871675491333,153.34915161132812,1.3323123455047607,-48.8958625793457,-37.05000305175781,-4.200000286102295,-3.9000000953674316
0.623,82.97345733642578,3.141192674636841,-5.477933406829834,175.33230590820312,-1.7320060729980469,-41.701377868652344,-37.05000305175781,-4.200000286102295,-3.9000000953674316
0.63,83.89282989501953,1.072602391242981,-5.746084213256836,174.53292846679688,-1.1990811824798584,-39.83613967895508,-37.20000076293945,-3.1500000953674316,-3.450000047683716
0.64,85.11865997314453,1.4173674583435059,-5.20978307723999,174.0,1.3323123455047607,-79.2725830078125,-38.400001525878906,-2.8500001430511475,-2.700000047683716
0.65,87.07232666015625,0.8427590131759644,-5.363011837005615,180.26187133789062,-5.062787055969238,-91.92955017089844,-37.20000076293945,-3.1500000953674316,-4.200000286102295
0.66,89.06430053710938,2.145204782485962,-6.780379295349121,182.6600341796875,-3.9969370365142822,-83.13629150390625,-37.20000076293945,-2.4000000953674316,-3.750000238418579
0.68,91.05628204345703,-0.5746083855628967,-7.508216381072998,184.79173278808594,-14.788667678833008,-86.60030364990234,-37.20000076293945,-2.4000000953674316,-3.750000238418579
0.683,91.17120361328125,-1.9919757843017578,-8.542511940002441,183.45941162109375,-20.251148223876953,-95.26033782958984,-36.900001525878906,-3.6000001430511475,-5.25
0.69,90.63490295410156,-5.286397457122803,-7.623138427734375,178.39662170410156,-18.119447708129883,-96.72587585449219,-35.70000076293945,-2.1000001430511475,-5.700000286102295
0.7,89.2558364868164,-6.627150535583496,-7.163451671600342,174.79937744140625,-36.372127532958984,-99.3905029296875,-36.150001525878906,-1.6500000953674316,-5.700000286102295
0.71,86.95740509033203,-6.933608055114746,-6.3973069190979,163.20826721191406,-47.163856506347656,-101.52220153808594,-36.30000305175781,-2.25,-5.850000381469727
0.72,84.9654312133789,-5.018246650695801,-5.4013190269470215,142.95712280273438,-46.897396087646484,-116.0444107055664,-36.30000305175781,-2.25,-5.850000381469727
0.739,82.70530700683594,-6.703764915466309,-5.937620162963867,133.36447143554688,-53.42572784423828,-122.70597076416016,-36.75,-1.8000000715255737,-5.850000381469727
0.743,78.989501953125,-3.6391866207122803,-6.665457725524902,128.96783447265625,-63.684532165527344,-122.43950653076172,-36.30000305175781,-1.0500000715255737,-6.150000095367432
0.75,76.537841796875,-2.298433542251587,-5.056553840637207,121.90658569335938,-76.87442779541016,-130.43338012695312,-35.400001525878906,-2.1000001430511475,-5.700000286102295
0.76,75.58016204833984,-1.9919757843017578,-3.754108190536499,115.51148223876953,-72.61102294921875,-138.2940216064453,-36.75,-1.0500000715255737,-7.650000095367432
0.77,75.54185485839844,-1.3024457693099976,-3.9839515686035156,107.65084075927734,-65.54976654052734,-145.75497436523438,-36.75,-1.0500000715255737,-7.650000095367432
0.78,76.30799865722656,-2.0685901641845703,-3.8307228088378906,105.25267791748047,-76.4747314453125,-141.0918731689453,-34.20000076293945,-0.45000001788139343,-7.800000190734863
0.8,74.50755310058594,-3.5625722408294678,-4.022258758544922,89.13169860839844,-73.54364013671875,-153.7488555908203,-34.95000076293945,0.15000000596046448,-8.25
0.804,74.35432434082031,-1.5705963373184204,-2.2601263523101807,79.13935852050781,-84.73506927490234,-169.73660278320312,-33.150001525878906,0.9000000357627869,-8.550000190734863
0.81,74.62248229980469,-0.3447650372982025,-1.800439715385437,80.73812866210938,-90.19754791259766,-163.74119567871094,-33.150001525878906,0.9000000357627869,-8.550000190734863
0.82,75.31201171875,0.49799394607543945,-2.5665841102600098,75.8085708618164,-96.45941925048828,-173.86676025390625,-33.150001525878906,0.9000000357627869,-8.550000190734863
0.83,76.03984832763672,1.6855180263519287,-4.060565948486328,56.22358322143555,-87.26646423339844,-192.11944580078125,-34.5,1.8000000715255737,-10.65000057220459
0.84,76.00154113769531,2.298433542251587,-6.282385349273682,44.09954071044922,-80.8713607788086,-198.9142303466797,-32.70000076293945,2.1000001430511475,-10.050000190734863
0.86,77.38059997558594,3.4093432426452637,-7.2783732414245605,41.30168533325195,-88.73200225830078,-192.65237426757812,-32.25,3.450000047683716,-10.65000057220459
0.863,76.38461303710938,3.869029998779297,-8.121131896972656,36.238895416259766,-92.72894287109375,-204.2434844970703,-31.950000762939453,1.6500000953674316,-10.050000190734863
0.87,76.72937774658203,4.865017890930176,-8.887276649475098,25.7136287689209,-75.40888214111328,-200.5130157470703,-31.950000762939453,1.6500000953674316,-10.050000190734863
0.88,75.81000518798828,6.818686485290527,-10.381258964538574,25.846860885620117,-81.93721008300781,-186.12403869628906,-33.150001525878906,5.100000381469727,-11.550000190734863
0.89,76.95922088623047,9.193734169006348,-11.645397186279297,12.124042510986328,-76.60796356201172,-193.05206298828125,-31.05000114440918,4.950000286102295,-12.0
0.9,77.07414245605469,11.91354751586914,-10.879252433776855,9.592649459838867,-69.4134750366211,-168.5375213623047,-31.650001525878906,6.300000190734863,-13.050000190734863
0.919,75.77169799804688,13.867216110229492,-14.09705924987793,-12.790199279785156,-61.28636932373047,-172.00152587890625,-29.250001907348633,6.900000095367432,-12.0
0.923,75.81000518798828,18.77054214477539,-13.982137680053711,-2.9310872554779053,-65.54976654052734,-166.2725830078125,-29.250001907348633,6.900000095367432,-12.0
0.93,74.92893981933594,19.153614044189453,-15.093047142028809,-14.788667678833008,-56.22358322143555,-163.87442016601562,-29.250001907348633,6.900000095367432,-12.0
0.94,75.9249267578125,20.877439498901367,-14.058752059936523,-7.860642910003662,-50.36140823364258,-155.48085021972656,-30.900001525878906,8.25,-14.40000057220459
0.95,75.50354766845703,22.562957763671875,-14.250288963317871,4.929555892944336,-50.36140823364258,-141.0918731689453,-30.150001525878906,8.700000762939453,-13.050000190734863
0.96,77.53382873535156,24.516624450683594,-14.518439292907715,14.388973236083984,-47.163856506347656,-162.5421142578125,-30.000001907348633,8.100000381469727,-11.700000762939453
0.979,80.10041046142578,28.07919692993164,-14.250288963317871,10.92496109008789,-46.497703552246094,-147.0872802734375,-28.05000114440918,9.15000057220459,-11.700000762939453
0.983,85.27188873291016,28.232425689697266,-15.169661521911621,31.309341430664062,-45.96477508544922,-102.98774719238281,-27.150001525878906,10.5,-13.350000381469727
0.99,86.53602600097656,28.960264205932617,-14.518439292907715,33.30780792236328,-44.76569747924805,-100.05665588378906,-27.150001525878906,10.5,-13.350000381469727
1.0,86.1529541015625,30.4925537109375,-16.1656494140625,36.238895416259766,-32.77488327026367,-84.86830139160156,-27.900001525878906,10.200000762939453,-12.300000190734863
1.01,87.3787841796875,30.79901123046875,-18.004396438598633,48.49617004394531,-24.11485481262207,-76.87442779541016,-27.900001525878906,7.800000190734863,-14.40000057220459
1.02,86.91909790039062,30.68408966064453,-18.732234954833984,65.81623077392578,-18.91883659362793,-48.8958625793457,-27.450000762939453,10.5,-14.100000381469727
1.036,85.42511749267578,30.60747528076172,-19.958065032958984,75.94180297851562,-14.788667678833008,-26.912710189819336,-28.650001525878906,11.700000762939453,-12.600000381469727
1.04,84.08436584472656,28.38565444946289,-20.915746688842773,68.88054656982422,-1.9984685182571411,-22.116384506225586,-28.650001525878906,11.700000762939453,-12.600000381469727
1.05,84.9271240234375,27.964275360107422,-20.83913230895996,66.882080078125,6.128636837005615,-15.055130004882812,-28.80000114440918,10.050000190734863,-12.450000762939453
1.06,84.77389526367188,28.38565444946289,-19.881450653076172,62.085758209228516,3.3307809829711914,34.24042892456055,-27.750001907348633,10.350000381469727,-13.200000762939453
1.07,84.9271240234375,27.88766098022461,-18.502389907836914,69.14701080322266,12.790199279785156,46.231239318847656,-27.750001907348633,10.350000381469727,-13.950000762939453
1.08,85.42511749267578,25.89568519592285,-20.034679412841797,60.35375213623047,15.188361167907715,52.226646423339844,-27.750001907348633,10.350000381469727,-13.950000762939453
1.097,82.74361419677734,21.183897018432617,-17.73624610900879,70.07962799072266,4.529861927032471,75.14241790771484,-28.05000114440918,10.350000381469727,-14.700000762939453
1.101,83.77790832519531,11.185709953308105,-19.19192123413086,55.4241943359375,7.72741174697876,62.35221862792969,-28.200000762939453,9.0,-14.100000381469727
1.11,83.50975799560547,9.423578262329102,-18.464082717895508,40.76875686645508,9.326186180114746,71.94486999511719,-27.900001525878906,8.700000762939453,-14.100000381469727
1.12,84.19928741455078,6.818686485290527,-19.421764373779297,20.784072875976562,7.9938740730285645,90.4640121459961,-27.900001525878906,8.700000762939453,-14.100000381469727
1.13,82.13069152832031,5.1331682205200195,-20.64759635925293,-8.526799201965332,12.523736000061035,104.05359649658203,-29.55000114440918,8.40000057220459,-13.950000762939453
1.149,80.02379608154297,4.022258758544922,-19.07699966430664,-29.444103240966797,25.980091094970703,120.70750427246094,-29.700000762939453,9.75,-12.300000190734863
1.153,77.22737121582031,2.145204782485962,-13.062764167785645,-36.238895416259766,7.06125545501709,137.09494018554688,-28.500001907348633,8.40000057220459,-13.950000762939453
1.16,74.89063262939453,-0.689530074596405,-6.244078159332275,-38.10413360595703,-1.5987749099731445,147.8866729736328,-30.000001907348633,7.200000286102295,-16.05000114440918
1.17,73.97125244140625,-2.2218191623687744,-6.052541732788086,-57.02296829223633,-0.5329249501228333,140.02603149414062,-30.000001907348633,7.200000286102295,-16.05000114440918
1.18,70.0256118774414,-8.236053466796875,-5.861005783081055,-67.28177642822266,0.7993874549865723,130.83306884765625,-30.150001525878906,7.050000190734863,-12.600000381469727
1.19,66.38642120361328,-13.522451400756836,-10.113107681274414,-82.20367431640625,9.059723854064941,131.0995330810547,-28.650001525878906,6.750000476837158,-14.100000381469727
1.21,64.16460418701172,-19.421764373779297,-12.22000503540039,-91.3966293334961,22.249616622924805,124.8376693725586,-30.450000762939453,5.850000381469727,-13.65000057220459
1.213,63.20692443847656,-23.02264404296875,-12.066776275634766,-104.05359649658203,36.63859176635742,124.97090148925781,-31.500001907348633,4.950000286102295,-13.200000762939453
1.22,64.27952575683594,-24.9763126373291,-11.262324333190918,-109.11638641357422,39.9693717956543,131.7657012939453,-31.500001907348633,4.950000286102295,-13.200000762939453
1.23,65.77350616455078,-25.129541397094727,-10.266336441040039,-113.51301574707031,43.96630859375,124.8376693725586,-30.750001907348633,5.700000286102295,-11.40000057220459
1.24,68.1102523803711,-25.167848587036133,-7.469909191131592,-114.44563293457031,39.03675079345703,133.6309356689453,-30.450000762939453,5.550000190734863,-12.300000190734863
1.25,70.25545501708984,-25.474306106567383,-8.197746276855469,-119.5084228515625,41.035221099853516,121.90658569335938,-31.05000114440918,5.400000095367432,-12.450000762939453
1.269,72.43896484375,-27.77273941040039,-9.155426979064941,-131.36599731445312,47.430320739746094,112.4471664428711,-32.400001525878906,3.6000001430511475,-12.600000381469727
1.274,75.31201171875,-28.232425689697266,-11.645397186279297,-139.6263427734375,44.09954071044922,109.64930725097656,-32.400001525878906,3.6000001430511475,-12.600000381469727
1.28,81.70931243896484,-27.619510650634766,-14.901511192321777,-152.016845703125,64.3506851196289,112.31393432617188,-32.25,4.200000286102295,-11.40000057220459
1.29,83.50975799560547,-28.07919692993164,-16.203956604003906,-161.7427215576172,73.14395141601562,109.64930725097656,-32.25,3.750000238418579,-8.700000762939453
1.3,86.42110443115234,-27.58120346069336,-16.127342224121094,-172.6676788330078,71.01225280761719,123.50535583496094,-34.80000305175781,3.750000238418579,-10.950000762939453
1.31,89.8304443359375,-28.19411849975586,-16.127342224121094,-195.31700134277344,74.20980072021484,118.04287719726562,-33.75,2.25,-9.450000762939453
1.33,92.01396179199219,-26.623523712158203,-15.054739952087402,-216.6339874267578,82.33690643310547,124.8376693725586,-33.75,2.25,-9.450000762939453
1.334,92.51195526123047,-24.401702880859375,-14.135366439819336,-238.6171417236328,71.14547729492188,134.03062438964844,-34.05000305175781,3.450000047683716,-9.15000057220459
1.34,91.32443237304688,-21.75850486755371,-14.058752059936523,-249.94180297851562,69.01377868652344,136.69525146484375,-34.05000305175781,3.0,-8.40000057220459
1.35,90.71151733398438,-18.655620574951172,-11.72201156616211,-268.8606262207031,77.94027709960938,144.82235717773438,-33.75,2.25,-7.650000095367432
1.36,86.26787567138672,-14.633360862731934,-13.024456977844238,-278.7197570800781,74.74272155761719,154.41500854492188,-36.0,2.25,-6.600000381469727
1.37,81.74761962890625,-9.84495735168457,-12.60307788848877,-268.1944885253906,54.35834503173828,163.6079559326172,-36.0,2.25,-6.600000381469727
1.39,77.87859344482422,-5.363011837005615,-12.181697845458984,-263.93109130859375,54.62480926513672,175.46554565429688,-35.55000305175781,2.700000047683716,-5.100000381469727
1.394,72.51557922363281,0.15322890877723694,-13.10107135772705,-251.4073486328125,48.22970962524414,177.86370849609375,-34.650001525878906,2.1000001430511475,-3.750000238418579
1.4,67.42072296142578,6.320692539215088,-13.177685737609863,-238.75038146972656,40.102603912353516,182.12710571289062,-35.70000076293945,0.15000000596046448,-2.25
1.41,65.888427734375,6.588842868804932,-12.22000503540039,-214.3690643310547,27.445634841918945,202.11178588867188,-34.95000076293945,0.15000000596046448,-3.450000047683716
1.42,63.85814666748047,7.086836814880371,-13.407529830932617,-201.71209716796875,24.11485481262207,200.37977600097656,-34.95000076293945,0.15000000596046448,-3.450000047683716
1.43,61.942787170410156,7.048529624938965,-14.135366439819336,-183.5926513671875,19.98468589782715,216.36752319335938,-35.400001525878906,0.15000000596046448,-3.450000047683716
1.451,59.41450881958008,7.010222434997559,-12.449849128723145,-157.74578857421875,19.98468589782715,219.0321502685547,-36.45000076293945,-1.350000023841858,-2.700000047683716
1.455,57.0777702331543,4.481945514678955,-12.22000503540039,-133.36447143554688,18.119447708129883,214.90199279785156,-36.75,-1.0500000715255737,-1.8000000715255737
1.46,54.396263122558594,0.6129156351089478,-13.062764167785645,-118.44257354736328,9.992342948913574,222.22970581054688,-36.45000076293945,-1.6500000953674316,-2.25
1.47,54.779335021972656,0.38307225704193115,-13.943830490112305,-112.04747009277344,23.848390579223633,193.7182159423828,-36.45000076293945,-1.6500000953674316,-2.25
1.48,55.813629150390625,-1.9536685943603516,-13.407529830932617,-86.86676788330078,24.11485481262207,213.16998291015625,-38.25,-5.400000095367432,-1.350000023841858
1.49,55.89024353027344,-6.244078159332275,-12.986149787902832,-86.20060729980469,34.773353576660156,190.9203643798828,-37.80000305175781,-4.5,-1.0500000715255737
1.509,57.53745651245117,-9.308655738830566,-11.60708999633789,-87.13323211669922,30.509952545166016,189.45481872558594,-38.400001525878906,-6.300000190734863,0.15000000596046448
1.513,60.02742385864258,-11.1474027633667,-9.461885452270508,-102.72128295898438,27.84532928466797,185.72434997558594,-37.20000076293945,-6.300000190734863,-1.2000000476837158
1.52,65.9267349243164,-15.399505615234375,-5.784391403198242,-107.78407287597656,14.255742073059082,192.25267028808594,-37.20000076293945,-6.300000190734863,-1.2000000476837158
1.53,66.23319244384766,-18.54069709777832,-8.734047889709473,-135.4961700439453,16.920366287231445,179.0627899169922,-38.25,-7.650000095367432,0.0
1.54,67.38241577148438,-22.06496238708496,-14.97812557220459,-163.20826721191406,41.701377868652344,166.2725830078125,-38.25,-8.850000381469727,-0.30000001192092896
1.55,66.69288635253906,-24.938005447387695,-19.19192123413086,-185.4578857421875,52.89280319213867,156.679931640625,-37.95000076293945,-8.700000762939453,-0.15000000596046448
1.57,69.83407592773438,-25.014619827270508,-20.915746688842773,-210.63858032226562,80.60489654541016,135.76263427734375,-39.30000305175781,-8.850000381469727,-0.30000001192092896
1.573,77.57213592529297,-21.911733627319336,-19.99637222290039,-226.49310302734375,88.99846649169922,137.49464416503906,-39.30000305175781,-8.850000381469727,-0.30000001192092896
1.58,87.30216979980469,-11.530475616455078,-18.157625198364258,-225.8269500732422,95.9264907836914,134.29708862304688,-38.25,-10.350000381469727,1.0500000715255737
1.59,91.4776611328125,-4.865017890930176,-18.310853958129883,-217.83306884765625,97.7917251586914,138.02755737304688,-36.900001525878906,-9.450000762939453,1.6500000953674316
1.7,86.65094757080078,-16.203956604003906,-8.772355079650879,8.660030364990234,44.09954071044922,20.251148223876953,-40.05000305175781,-16.5,5.100000381469727
1.71,86.07633972167969,-17.161638259887695,-8.312667846679688,2.797856092453003,37.17151641845703,20.650842666625977,-39.0,-15.750000953674316,3.3000001907348633
1.72,87.60862731933594,-12.947842597961426,-8.312667846679688,9.326186180114746,25.18070411682129,6.661561965942383,-39.0,-15.750000953674316,3.3000001907348633
1.73,88.45138549804688,-8.772355079650879,-5.2480902671813965,32.37519073486328,25.980091094970703,-11.191424369812012,-39.45000076293945,-16.80000114440918,5.25
1.75,90.44336700439453,-8.96389102935791,-3.44765043258667,60.62021255493164,27.71209716796875,-27.045940399169922,-39.30000305175781,-16.950000762939453,6.600000381469727
1.753,90.71151733398438,-14.403517723083496,-8.695740699768066,114.57886505126953,19.45176124572754,-58.62174606323242,-39.30000305175781,-16.200000762939453,6.900000095367432
1.76,89.10260772705078,-15.820884704589844,-8.504204750061035,142.82388305664062,0.7993874549865723,-72.74425506591797,-39.30000305175781,-16.200000762939453,6.900000095367432
1.77,88.06831359863281,-18.579004287719727,-9.040505409240723,164.27410888671875,9.059723854064941,-96.59264373779297,-39.30000305175781,-16.200000762939453,6.900000095367432
1.78,86.49771881103516,-22.409727096557617,-7.393294811248779,182.6600341796875,0.1332312375307083,-103.12097930908203,-39.30000305175781,-16.200000762939453,6.900000095367432
1.79,83.31822204589844,-23.558944702148438,-3.600879430770874,207.17457580566406,-1.1990811824798584,-115.91117858886719,-39.150001525878906,-14.850000381469727,7.500000476837158
1.803,81.4028549194336,-25.129541397094727,-1.37906014919281,202.77793884277344,-15.854516983032227,-130.03369140625,-39.150001525878906,-13.65000057220459,6.750000476837158
1.81,77.1890640258789,-27.427974700927734,-1.800439715385437,199.04747009277344,-16.920366287231445,-135.0964813232422,-39.150001525878906,-13.65000057220459,6.750000476837158
1.82,76.69107055664062,-27.198131561279297,-1.9919757843017578,209.03981018066406,-28.511484146118164,-146.5543670654297,-39.30000305175781,-12.750000953674316,5.850000381469727
1.83,77.03583526611328,-25.39769172668457,-2.030282974243164,226.49310302734375,-42.23430252075195,-143.88973999023438,-39.30000305175781,-12.750000953674316,5.850000381469727
1.841,76.99752807617188,-25.474306106567383,-0.49799394607543945,233.0214385986328,-44.49923324584961,-157.0796356201172,-39.75,-12.300000190734863,7.650000095367432
1.85,78.9511947631836,-24.631547927856445,0.7661445140838623,254.87135314941406,-67.14854431152344,-178.92955017089844,-39.30000305175781,-10.350000381469727,6.150000095367432
1.869,79.75564575195312,-22.333112716674805,4.405331134796143,276.4548034667969,-99.65696716308594,-178.79632568359375,-40.5,-10.800000190734863,6.600000381469727
1.873,83.16499328613281,-23.252487182617188,5.171475887298584,275.6554260253906,-108.45022583007812,-182.6600341796875,-40.5,-10.800000190734863,6.600000381469727
1.88,83.58637237548828,-22.333112716674805,6.358999729156494,286.3139343261719,-119.90811157226562,-187.58958435058594,-40.5,-10.800000190734863,6.600000381469727
1.89,83.89282989501953,-23.060951232910156,5.439626216888428,293.64166259765625,-135.76263427734375,-202.511474609375,-40.20000076293945,-10.200000762939453,5.700000286102295
1.9,85.69326782226562,-25.244462966918945,5.631162166595459,302.03521728515625,-142.95712280273438,-221.43031311035156,-40.650001525878906,-8.25,6.300000190734863
1.919,87.07232666015625,-27.27474594116211,5.171475887298584,308.2970886230469,-166.1393585205078,-205.44256591796875,-38.70000076293945,-7.800000190734863,4.200000286102295
1.923,89.06430053710938,-29.611486434936523,4.6734819412231445,296.7059631347656,-167.47166442871094,-234.22052001953125,-39.0,-6.450000286102295,5.100000381469727
1.93,90.9030532836914,-32.369606018066406,4.941632270812988,288.578857421875,-180.26187133789062,-238.35067749023438,-39.0,-6.450000286102295,5.100000381469727
1.94,89.29414367675781,-33.48051834106445,6.052541732788086,257.13629150390625,-180.9280242919922,-243.81317138671875,-39.45000076293945,-4.350000381469727,1.6500000953674316
1.95,84.77389526367188,-34.09343338012695,6.052541732788086,216.76722717285156,-173.33384704589844,-260.86676025390625,-39.75,-3.750000238418579,0.30000001192092896
1.96,81.90084838867188,-34.897884368896484,4.443638324737549,177.99693298339844,-168.0045928955078,-264.3307800292969,-39.30000305175781,-1.8000000715255737,0.0
1.97,76.26969146728516,-34.20835494995117,2.9496564865112305,145.0888214111328,-162.00918579101562,-267.7947998046875,-38.70000076293945,-2.1000001430511475,0.15000000596046448
1.986,70.79175567626953,-29.64979362487793,0.15322890877723694,92.86217498779297,-139.6263427734375,-275.9219055175781,-37.650001525878906,0.15000000596046448,-3.0
1.99,63.283538818359375,-22.2948055267334,-3.600879430770874,85.53445434570312,-130.83306884765625,-275.6554260253906,-38.55000305175781,1.5,-3.3000001907348633
2.0,61.5980224609375,-19.19192123413086,-4.290409564971924,71.54517364501953,-128.3016815185547,-270.326171875,-37.5,0.75,-5.100000381469727
2.01,58.3419075012207,-14.211980819702148,-4.9799394607543945,57.689125061035156,-127.36906433105469,-267.2618713378906,-37.05000305175781,1.5,-4.650000095367432
2.02,57.34592056274414,-10.72602367401123,-4.443638324737549,38.23736572265625,-106.98468017578125,-267.7947998046875,-37.05000305175781,1.5,-4.650000095367432
2.039,55.622093200683594,-6.627150535583496,-3.44765043258667,37.83767318725586,-113.11331939697266,-264.4640197753906,-35.70000076293945,3.1500000953674316,-5.25
2.043,55.85193634033203,-1.3024457693099976,0.5363011956214905,36.63859176635742,-117.37671661376953,-257.26953125,-36.75,4.950000286102295,-6.600000381469727
2.05,55.12409973144531,0.1149216815829277,0.9959878921508789,39.569679260253906,-130.83306884765625,-246.477783203125,-34.05000305175781,5.400000095367432,-7.350000381469727
2.06,55.77532196044922,1.9919757843017578,1.9536685943603516,25.447166442871094,-130.96630859375,-242.8805389404297,-34.95000076293945,5.850000381469727,-6.750000476837158
2.07,56.541465759277344,0.8427590131759644,1.9919757843017578,43.83307647705078,-145.6217498779297,-246.74424743652344,-34.95000076293945,5.850000381469727,-6.750000476837158
2.08,57.805606842041016,-0.038307227194309235,0.9193734526634216,42.76722717285156,-145.2220458984375,-246.477783203125,-33.30000305175781,7.650000095367432,-7.350000381469727
2.099,60.831878662109375,-1.8770540952682495,1.0342950820922852,28.24502182006836,-141.0918731689453,-252.20672607421875,-32.55000305175781,9.15000057220459,-8.700000762939453
2.104,61.82786560058594,-2.2601263523101807,1.2258312702178955,18.519142150878906,-134.29708862304688,-265.6630859375,-33.150001525878906,10.200000762939453,-7.500000476837158
2.11,65.96504211425781,-2.873042106628418,-2.2218191623687744,9.859111785888672,-138.02755737304688,-265.2633972167969,-32.25,9.15000057220459,-7.650000095367432
2.12,66.99934387207031,-3.3710360527038574,-3.5242648124694824,-1.5987749099731445,-126.7029037475586,-262.06585693359375,-32.25,9.15000057220459,-7.650000095367432
2.13,69.29777526855469,1.3024457693099976,-6.129156112670898,-39.03675079345703,-117.24349212646484,-266.595703125,-31.200000762939453,11.700000762939453,-10.800000190734863
2.14,70.86837005615234,3.332728862762451,-8.159439086914062,-64.61714935302734,-100.85604858398438,-250.0750274658203,-30.150001525878906,12.450000762939453,-10.050000190734863
2.16,74.77571105957031,6.818686485290527,-13.982137680053711,-96.59264373779297,-75.00918579101562,-241.9479217529297,-28.500001907348633,13.500000953674316,-9.450000762939453
2.163,77.07414245605469,12.564770698547363,-19.115306854248047,-112.31393432617188,-49.42878723144531,-221.29708862304688,-29.400001525878906,15.600000381469727,-11.100000381469727
2.17,80.71332550048828,21.030668258666992,-26.738445281982422,-120.04134368896484,-23.581928253173828,-196.64930725097656,-29.400001525878906,15.600000381469727,-11.100000381469727
2.18,82.82022857666016,26.738445281982422,-28.92195701599121,-114.57886505126953,4.663093090057373,-178.79632568359375,-27.450000762939453,17.55000114440918,-10.050000190734863
2.19,86.57433319091797,37.34954833984375,-26.891674041748047,-100.05665588378906,12.390504837036133,-142.95712280273438,-25.650001525878906,15.15000057220459,-9.75
2.2,92.090576171875,45.20252990722656,-22.677879333496094,-66.21592712402344,9.859111785888672,-103.7871322631836,-27.750001907348633,17.700000762939453,-9.450000762939453
2.22,97.14712524414062,50.98691940307617,-22.83110809326172,-22.782541275024414,-0.1332312375307083,-69.81317138671875,-27.30000114440918,18.450000762939453,-9.15000057220459
2.223,96.22775268554688,50.98691940307617,-25.20615577697754,47.0306282043457,2.131699800491333,-62.35221862792969,-27.30000114440918,18.450000762939453,-9.15000057220459
2.23,91.55427551269531,45.50898742675781,-28.38565444946289,77.94027709960938,2.2649309635162354,-52.226646423339844,-27.150001525878906,19.05000114440918,-9.0
2.24,88.37477111816406,42.252872467041016,-30.454246520996094,116.57733154296875,-4.396630764007568,-20.251148223876953,-24.450000762939453,18.30000114440918,-10.050000190734863
2.25,84.08436584472656,34.476505279541016,-33.02082824707031,131.49923706054688,1.9984685182571411,6.794793128967285,-26.55000114440918,19.200000762939453,-9.15000057220459
2.26,82.0157699584961,28.117504119873047,-30.339323043823242,128.56814575195312,-6.261868000030518,33.4410400390625,-28.05000114440918,18.450000762939453,-10.65000057220459
2.28,81.36454772949219,22.2948055267334,-24.171859741210938,100.58958435058594,-6.5283308029174805,50.36140823364258,-28.05000114440918,18.450000762939453,-10.65000057220459
2.284,78.79796600341797,16.433799743652344,-21.75850486755371,52.75957107543945,-15.055130004882812,67.28177642822266,-27.000001907348633,18.450000762939453,-9.15000057220459
2.29,79.5641098022461,7.4316020011901855,-22.90772247314453,33.30780792236328,-26.113323211669922,91.3966293334961,-27.30000114440918,18.450000762939453,-11.40000057220459
2.3,79.44918823242188,6.512228488922119,-23.903709411621094,-16.78713607788086,-18.2526798248291,94.72740936279297,-28.200000762939453,16.350000381469727,-9.75
2.31,78.989501953125,5.1331682205200195,-24.05693817138672,-77.27411651611328,-3.7304747104644775,112.84685516357422,-27.30000114440918,17.400001525878906,-10.65000057220459
2.32,77.84028625488281,5.975927352905273,-27.121517181396484,-98.19142150878906,4.130168437957764,130.69984436035156,-27.30000114440918,17.400001525878906,-10.65000057220459
2.339,79.18103790283203,8.197746276855469,-26.929981231689453,-114.97856140136719,11.058192253112793,148.95252990722656,-28.500001907348633,15.450000762939453,-10.200000762939453
2.343,78.87458038330078,9.193734169006348,-23.52063751220703,-113.24655151367188,25.846860885620117,156.81317138671875,-30.900001525878906,17.100000381469727,-10.350000381469727
2.35,76.95922088623047,9.461885452270508,-20.64759635925293,-100.05665588378906,25.04747200012207,172.2679901123047,-29.400001525878906,17.100000381469727,-10.800000190734863
2.36,74.46924591064453,7.469909191131592,-18.157625198364258,-82.47013854980469,16.520673751831055,181.3277130126953,-29.400001525878906,15.15000057220459,-11.850000381469727
2.37,70.79175567626953,1.8387469053268433,-16.012420654296875,-68.08116149902344,23.715160369873047,179.0627899169922,-29.400001525878906,15.15000057220459,-11.850000381469727
2.38,67.26749420166016,-4.8267107009887695,-13.560758590698242,-59.68759536743164,22.116384506225586,177.73046875,-31.80000114440918,15.000000953674316,-9.15000057220459
2.4,65.04566955566406,-14.36521053314209,-13.599065780639648,-58.355281829833984,31.176109313964844,175.865234375,-32.400001525878906,14.40000057220459,-9.300000190734863
2.404,66.19488525390625,-20.76251792907715,-16.318878173828125,-62.21898651123047,39.569679260253906,190.65390014648438,-32.55000305175781,12.300000190734863,-7.950000286102295
2.41,69.3743896484375,-28.38565444946289,-17.73624610900879,-80.47166442871094,60.22052001953125,179.4624786376953,-30.450000762939453,12.90000057220459,-9.0
2.42,70.29376220703125,-29.4582576751709,-18.387468338012695,-90.99693298339844,60.62021255493164,201.84532165527344,-30.450000762939453,12.90000057220459,-9.0
2.43,75.61846923828125,-29.113492965698242,-18.77054214477539,-107.78407287597656,77.27411651611328,199.18069458007812,-31.950000762939453,12.90000057220459,-6.750000476837158
2.44,81.21131896972656,-27.504589080810547,-19.230228424072266,-153.48239135742188,97.39203643798828,221.43031311035156,-33.150001525878906,10.200000762939453,-7.050000190734863
2.459,83.6629867553711,-25.51261329650879,-18.004396438598633,-169.8698272705078,108.3169937133789,205.1761016845703,-33.0,10.350000381469727,-7.650000095367432
2.463,85.80818939208984,-23.290794372558594,-15.476119995117188,-200.646240234375,104.85298156738281,210.1056671142578,-34.05000305175781,10.800000190734863,-6.600000381469727
2.47,86.1146469116211,-21.6818904876709,-14.173673629760742,-231.82235717773438,107.51760864257812,216.2342987060547,-34.05000305175781,10.800000190734863,-6.600000381469727
2.48,85.92311096191406,-20.149600982666016,-13.177685737609863,-267.1286315917969,108.84992218017578,222.36293029785156,-35.25,9.15000057220459,-5.100000381469727
2.49,83.16499328613281,-16.931795120239258,-11.72201156616211,-292.0428771972656,102.58805084228516,235.4196014404297,-34.95000076293945,9.0,-2.700000047683716
2.5,79.67903137207031,-12.48815631866455,-9.998186111450195,-316.55743408203125,99.65696716308594,237.2848358154297,-36.150001525878906,9.0,-2.25
2.519,76.34630584716797,-5.746084213256836,-10.994174003601074,-304.4333801269531,82.7365951538086,259.6676940917969,-35.70000076293945,7.050000190734863,-1.6500000953674316
2.522,71.8643569946289,5.477933406829834,-12.48815631866455,-294.174560546875,82.6033706665039,255.27105712890625,-35.70000076293945,7.050000190734863,-1.6500000953674316
2.53,70.6385269165039,7.929595947265625,-12.066776275634766,-261.2664489746094,62.21898651123047,268.8606262207031,-35.70000076293945,7.050000190734863,-1.6500000953674316
2.54,68.95301055908203,10.572794914245605,-13.139378547668457,-221.96324157714844,54.35834503173828,280.5849914550781,-37.20000076293945,4.050000190734863,0.45000001788139343
2.55,67.72718048095703,13.48414421081543,-12.717999458312988,-185.5911102294922,51.82695007324219,278.9862060546875,-39.0,3.450000047683716,2.5500001907348633
2.56,64.77751922607422,13.943830490112305,-13.177685737609863,-134.69677734375,33.04134750366211,284.4486999511719,-39.900001525878906,2.8500001430511475,1.6500000953674316
2.58,62.59400939941406,11.645397186279297,-13.867216110229492,-95.12710571289062,35.839202880859375,283.915771484375,-39.900001525878906,2.8500001430511475,1.6500000953674316
2.583,58.3419075012207,1.9536685943603516,-13.062764167785645,-64.75038146972656,33.4410400390625,274.8560485839844,-39.900001525878906,2.8500001430511475,1.6500000953674316
2.59,57.307613372802734,-0.7661445140838623,-13.48414421081543,-50.09494400024414,37.97090148925781,272.9908142089844,-40.20000076293945,0.15000000596046448,0.9000000357627869
2.6,57.0777702331543,-4.290409564971924,-12.066776275634766,-41.30168533325195,45.96477508544922,269.52679443359375,-41.70000076293945,-1.350000023841858,2.25
2.61,56.618080139160156,-9.193734169006348,-12.334927558898926,-35.972434997558594,47.830013275146484,270.7258605957031,-40.20000076293945,-3.1500000953674316,2.25
2.62,55.96685791015625,-14.939818382263184,-12.066776275634766,-57.689125061035156,65.41653442382812,257.8024597167969,-43.05000305175781,-3.0,3.6000001430511475
2.633,58.533443450927734,-19.421764373779297,-10.304644584655762,-86.86676788330078,68.34762573242188,254.47166442871094,-43.05000305175781,-3.0,3.6000001430511475
2.64,62.2109375,-24.171859741210938,-9.883264541625977,-107.3843765258789,72.74425506591797,245.27870178222656,-42.45000076293945,-5.100000381469727,3.750000238418579
2.65,62.057708740234375,-26.508602142333984,-9.84495735168457,-146.68759155273438,87.13323211669922,229.82388305664062,-40.650001525878906,-5.550000190734863,3.450000047683716
2.66,66.5013427734375,-26.01060676574707,-8.887276649475098,-177.99693298339844,90.19754791259766,214.90199279785156,-41.400001525878906,-6.300000190734863,4.950000286102295
2.67,69.64253997802734,-24.05693817138672,-9.576807022094727,-192.3859100341797,92.72894287109375,208.24041748046875,-42.150001525878906,-8.25,4.950000286102295
2.68,73.20510864257812,-22.141576766967773,-11.453861236572266,-211.83766174316406,102.72128295898438,202.511474609375,-42.150001525878906,-8.25,4.950000286102295
2.699,80.59840393066406,-16.395492553710938,-10.917559623718262,-226.09341430664062,105.91883087158203,186.3905029296875,-42.30000305175781,-10.800000190734863,6.150000095367432
2.703,91.20951080322266,-8.08282470703125,-13.369222640991211,-223.4287872314453,109.51607513427734,193.58499145507812,-43.20000076293945,-11.40000057220459,6.0
2.71,94.542236328125,-5.70777702331543,-13.024456977844238,-212.23736572265625,101.9218978881836,193.05206298828125,-43.20000076293945,-11.40000057220459,6.0
2.72,97.5685043334961,-0.38307225704193115,-15.399505615234375,-207.0413360595703,106.31852722167969,190.65390014648438,-43.20000076293945,-12.450000762939453,6.0
2.73,99.94355773925781,4.788403511047363,-17.00840950012207,-181.06124877929688,101.2557373046875,186.92343139648438,-43.20000076293945,-12.450000762939453,6.0
2.749,99.33064270019531,9.806650161743164,-17.1999454498291,-139.7595672607422,92.19601440429688,182.39356994628906,-41.70000076293945,-15.15000057220459,7.500000476837158
2.753,97.76004028320312,8.580819129943848,-17.391481399536133,-81.40428924560547,87.39968872070312,158.14547729492188,-42.150001525878906,-15.15000057220459,8.550000190734863
2.76,94.73377227783203,8.848969459533691,-18.464082717895508,-47.430320739746094,81.00459289550781,141.75804138183594,-42.150001525878906,-15.15000057220459,8.550000190734863
2.77,94.77207946777344,3.3710360527038574,-19.153614044189453,-5.995405673980713,60.08728790283203,144.42266845703125,-42.45000076293945,-16.350000381469727,8.550000190734863
2.78,95.00192260742188,0.26815059781074524,-16.778566360473633,16.920366287231445,56.09035110473633,93.52832794189453,-42.45000076293945,-16.350000381469727,8.550000190734863
2.79,94.19747161865234,-5.899312973022461,-14.020444869995117,22.782541275024414,48.22970962524414,77.14088439941406,-42.45000076293945,-18.30000114440918,10.050000190734863
2.81,95.00192260742188,-6.89530086517334,-8.465897560119629,24.781009674072266,25.7136287689209,65.68299865722656,-44.25,-17.400001525878906,9.450000762939453
2.813,94.19747161865234,-9.002198219299316,-8.925583839416504,20.38437843322754,21.183767318725586,42.90045928955078,-42.150001525878906,-17.100000381469727,10.050000190734863
2.82,90.44336700439453,-8.580819129943848,-10.457873344421387,16.387441635131836,22.782541275024414,35.17304611206055,-42.150001525878906,-17.100000381469727,10.050000190734863
2.83,90.2518310546875,-9.385271072387695,-10.994174003601074,19.45176124572754,29.84379768371582,13.58958625793457,-42.150001525878906,-17.100000381469727,10.050000190734863
2.84,91.28612518310547,-10.994174003601074,-10.228029251098633,37.304744720458984,23.315465927124023,3.9969370365142822,-42.45000076293945,-18.30000114440918,10.050000190734863
2.85,96.07452392578125,-8.121131896972656,-4.9799394607543945,71.2787094116211,24.381317138671875,-19.185298919677734,-42.150001525878906,-18.75,10.050000190734863
2.87,96.18944549560547,-5.822698593139648,-2.298433542251587,114.17916870117188,2.531393527984619,-44.36600112915039,-41.55000305175781,-18.900001525878906,8.700000762939453
2.873,94.38900756835938,-6.971915245056152,-4.252102375030518,167.0719757080078,-9.326186180114746,-79.2725830078125,-41.70000076293945,-19.05000114440918,10.800000190734863
2.88,89.7921371459961,-11.338939666748047,-8.542511940002441,188.1225128173828,-15.188361167907715,-91.79632568359375,-41.70000076293945,-19.05000114440918,10.800000190734863
2.89,88.87276458740234,-13.943830490112305,-6.780379295349121,218.23277282714844,-22.649311065673828,-94.32771301269531,-41.400001525878906,-17.55000114440918,10.800000190734863
2.9,85.84649658203125,-16.970102310180664,-3.2178070545196533,230.4900360107422,-28.511484146118164,-118.44257354736328,-43.05000305175781,-16.5,9.90000057220459
2.91,81.90084838867188,-19.38345718383789,-1.8387469053268433,252.73965454101562,-48.09647750854492,-126.30321502685547,-43.20000076293945,-15.90000057220459,9.75
2.93,78.79796600341797,-22.562957763671875,-1.5322890281677246,264.0643005371094,-56.49004364013672,-146.82083129882812,-43.20000076293945,-15.90000057220459,9.75
2.933,77.95520782470703,-25.665842056274414,-2.6815059185028076,277.7871398925781,-57.689125061035156,-166.93873596191406,-43.05000305175781,-15.450000762939453,8.40000057220459
2.94,79.25765228271484,-27.006595611572266,1.9536685943603516,284.4486999511719,-71.2787094116211,-175.59877014160156,-43.05000305175781,-14.550000190734863,8.700000762939453
2.95,82.59038543701172,-27.88766098022461,4.750096321105957,299.23736572265625,-86.0673828125,-202.24502563476562,-44.70000076293945,-12.90000057220459,9.0
2.96,85.96141815185547,-26.43198585510254,8.734047889709473,322.4195861816406,-122.83920288085938,-207.70750427246094,-43.5,-12.300000190734863,7.350000381469727
2.97,88.41307830810547,-24.89969825744629,10.15141487121582,327.4823913574219,-136.69525146484375,-230.62327575683594,-43.5,-12.300000190734863,7.350000381469727
2.99,90.2518310546875,-25.167848587036133,11.453861236572266,349.5987548828125,-156.5467071533203,-238.2174530029297,-44.55000305175781,-9.600000381469727,7.950000286102295
2.994,88.94937896728516,-24.554933547973633,10.687716484069824,357.9923400878906,-165.4731903076172,-255.1378173828125,-42.900001525878906,-9.450000762939453,6.750000476837158
3.0,90.86474609375,-28.692113876342773,9.193734169006348,362.12249755859375,-172.93414306640625,-265.52984619140625,-43.20000076293945,-9.450000762939453,5.700000286102295
3.01,91.09458923339844,-30.26270866394043,8.236053466796875,350.1316833496094,-172.93414306640625,-260.4670715332031,-43.05000305175781,-7.650000095367432,4.350000381469727
3.02,91.74581146240234,-35.31926345825195,8.35097599029541,348.6661376953125,-186.5237274169922,-269.6600341796875,-43.05000305175781,-7.650000095367432,4.350000381469727
3.03,90.63490295410156,-39.37982940673828,8.619126319885254,320.6875915527344,-188.2557373046875,-275.2557373046875,-42.45000076293945,-5.100000381469727,3.750000238418579
3.05,87.14894104003906,-40.64396667480469,9.117119789123535,282.050537109375,-188.92189025878906,-283.11639404296875,-43.05000305175781,-4.950000286102295,1.8000000715255737
3.054,83.54806518554688,-41.37180709838867,7.7763671875,231.1562042236328,-185.4578857421875,-298.4379577636719,-43.80000305175781,-3.450000047683716,1.350000023841858
3.06,77.1124496459961,-40.260894775390625,5.056553840637207,212.9035186767578,-191.8529815673828,-299.37060546875,-42.900001525878906,-2.4000000953674316,-0.15000000596046448
3.07,75.23539733886719,-37.77092742919922,4.750096321105957,162.6753387451172,-177.86370849609375,-305.6324462890625,-42.900001525878906,-2.4000000953674316,-0.15000000596046448
3.08,70.21714782714844,-33.097442626953125,2.298433542251587,125.50382232666016,-173.2006072998047,-307.63092041015625,-42.45000076293945,0.45000001788139343,-2.700000047683716
3.09,65.19889831542969,-29.84132957458496,0.8427590131759644,99.79019927978516,-174.26646423339844,-307.4977111816406,-41.25,1.5,-4.650000095367432
3.11,60.48711013793945,-26.96828842163086,-2.030282974243164,72.61102294921875,-164.00765991210938,-303.90045166015625,-40.650001525878906,1.6500000953674316,-4.200000286102295
3.113,57.23099899291992,-21.75850486755371,-4.060565948486328,30.509952545166016,-159.74424743652344,-296.43951416015625,-40.650001525878906,3.1500000953674316,-3.750000238418579
3.12,53.09381866455078,-17.774553298950195,-4.022258758544922,10.525267601013184,-154.6814727783203,-308.1638488769531,-40.650001525878906,3.1500000953674316,-3.750000238418579
3.13,52.13613510131836,-14.824896812438965,-3.6774938106536865,-19.98468589782715,-144.2894287109375,-301.5022888183594,-40.05000305175781,6.450000286102295,-5.850000381469727
3.14,50.37400436401367,-10.342951774597168,-2.451662540435791,-34.10719680786133,-130.56661987304688,-307.76416015625,-36.45000076293945,5.850000381469727,-7.050000190734863
3.15,49.14817428588867,-6.588842868804932,-2.6431987285614014,-37.304744720458984,-129.36753845214844,-296.43951416015625,-39.75,6.900000095367432,-6.150000095367432
3.17,50.22077560424805,-3.5242648124694824,-1.9919757843017578,-36.372127532958984,-123.63858795166016,-300.9693603515625,-37.95000076293945,8.700000762939453,-7.500000476837158
3.173,52.02121353149414,-0.8044517636299133,-1.1492167711257935,-21.84992218017578,-122.3062744140625,-306.03216552734375,-37.95000076293945,8.700000762939453,-7.500000476837158
3.18,53.28535461425781,4.405331134796143,2.451662540435791,-19.98468589782715,-118.44257354736328,-319.35528564453125,-37.05000305175781,10.800000190734863,-7.350000381469727
3.19,55.35394287109375,7.738059997558594,3.179499864578247,-8.127105712890625,-133.09800720214844,-308.1638488769531,-34.80000305175781,12.300000190734863,-7.950000286102295
3.2,58.724979400634766,7.8529815673828125,3.4093432426452637,-5.329249382019043,-135.62939453125,-305.2327575683594,-34.650001525878906,14.40000057220459,-10.050000190734863
3.21,62.172630310058594,10.572794914245605,-1.800439715385437,-19.31852912902832,-116.0444107055664,-303.90045166015625,-34.80000305175781,15.000000953674316,-8.700000762939453
3.229,66.76950073242188,14.67166805267334,-6.052541732788086,-16.520673751831055,-108.18376159667969,-301.23583984375,-34.80000305175781,15.000000953674316,-8.700000762939453
3.233,69.75746154785156,16.203956604003906,-8.08282470703125,-18.91883659362793,-103.65390014648438,-283.915771484375,-33.30000305175781,15.750000953674316,-9.15000057220459
3.24,74.20109558105469,18.54069709777832,-11.377246856689453,-14.788667678833008,-100.05665588378906,-274.45635986328125,-31.500001907348633,16.5,-10.65000057220459
3.25,77.1890640258789,21.413740158081055,-12.986149787902832,-19.45176124572754,-90.99693298339844,-248.2097930908203,-30.30000114440918,19.200000762939453,-8.40000057220459
3.26,81.441162109375,25.81907081604004,-17.161638259887695,-29.84379768371582,-65.016845703125,-232.75497436523438,-28.650001525878906,18.30000114440918,-11.550000190734863
3.27,84.12267303466797,28.347347259521484,-23.252487182617188,-33.84073257446289,-48.22970962524414,-206.90811157226562,-28.650001525878906,18.30000114440918,-11.550000190734863
3.29,85.73157501220703,30.68408966064453,-27.542896270751953,-40.502296447753906,-23.715160369873047,-191.0535888671875,-29.55000114440918,19.200000762939453,-11.700000762939453
3.293,85.15696716308594,32.292991638183594,-31.067161560058594,-19.31852912902832,-7.594180583953857,-146.5543670654297,-28.950000762939453,22.5,-10.800000190734863
3.3,82.66699981689453,37.694313049316406,-35.204341888427734,-11.990811347961426,7.9938740730285645,-124.30474090576172,-28.05000114440918,21.600000381469727,-11.40000057220459
3.31,80.48348236083984,42.061336517333984,-38.03907775878906,5.062787055969238,24.64777946472168,-77.14088439941406,-27.150001525878906,21.75,-9.300000190734863
3.32,80.2536392211914,45.54729461669922,-35.6257209777832,5.995405673980713,44.23276901245117,-56.889739990234375,-27.150001525878906,21.75,-9.300000190734863
3.33,83.27991485595703,50.757076263427734,-34.66804122924805,14.522205352783203,49.96171569824219,-15.721285820007324,-27.150001525878906,21.75,-9.300000190734863
3.349,84.73558807373047,55.928550720214844,-26.891674041748047,47.9632453918457,28.77794647216797,20.38437843322754,-28.200000762939453,22.200000762939453,-9.75
3.353,85.84649658203125,50.29738998413086,-19.07699966430664,80.20520782470703,11.058192253112793,45.43185043334961,-27.000001907348633,21.900001525878906,-10.950000762939453
3.36,84.85050964355469,47.04127502441406,-19.881450653076172,103.65390014648438,-2.2649309635162354,62.8851432800293,-27.900001525878906,22.5,-10.350000381469727
3.37,82.20730590820312,40.03105163574219,-19.49837875366211,132.0321502685547,-20.784072875976562,92.86217498779297,-28.05000114440918,21.900001525878906,-11.700000762939453
3.38,79.83226013183594,32.40791320800781,-18.579004287719727,131.0995330810547,-30.509952545166016,107.91730499267578,-28.05000114440918,21.900001525878906,-11.700000762939453
3.39,78.75965881347656,23.788787841796875,-19.268535614013672,99.52373504638672,-25.7136287689209,128.56814575195312,-27.450000762939453,20.25,-11.550000190734863
3.406,75.46524047851562,18.081010818481445,-21.26051139831543,41.168453216552734,-9.192955017089844,160.54364013671875,-27.150001525878906,20.55000114440918,-14.100000381469727
3.41,68.1868667602539,5.363011837005615,-19.574993133544922,36.771820068359375,-12.124042510986328,168.0045928955078,-27.150001525878906,20.55000114440918,-14.100000381469727
3.42,66.07996368408203,0.9959878921508789,-18.004396438598633,18.2526798248291,4.796324729919434,179.595703125,-28.650001525878906,18.75,-13.65000057220459
3.43,62.70893096923828,-8.312667846679688,-16.970102310180664,6.128636837005615,17.719755172729492,176.9310760498047,-28.650001525878906,18.75,-13.65000057220459
3.44,64.93074798583984,-16.395492553710938,-18.23423957824707,-13.856048583984375,27.045940399169922,182.52679443359375,-30.30000114440918,18.150001525878906,-12.750000953674316
3.45,64.66259765625,-23.903709411621094,-17.774553298950195,-65.68299865722656,44.89892578125,183.1929473876953,-29.400001525878906,15.90000057220459,-13.350000381469727
3.469,66.84611511230469,-28.423961639404297,-17.966089248657227,-144.02296447753906,77.4073486328125,196.51608276367188,-31.500001907348633,16.200000762939453,-13.500000953674316
3.473,72.82203674316406,-32.369606018066406,-18.11931800842285,-165.4731903076172,92.3292465209961,180.12863159179688,-31.500001907348633,16.200000762939453,-13.500000953674316
3.48,74.6990966796875,-32.86759948730469,-18.693927764892578,-179.19601440429688,106.98468017578125,188.2557373046875,-31.500001907348633,16.200000762939453,-13.500000953674316
3.49,77.07414245605469,-31.028854370117188,-16.970102310180664,-203.57733154296875,127.63552856445312,185.72434997558594,-31.650001525878906,14.40000057220459,-12.300000190734863
3.5,80.40686798095703,-24.746469497680664,-15.207969665527344,-201.0459442138672,126.7029037475586,203.97702026367188,-32.400001525878906,15.600000381469727,-10.350000381469727
3.519,84.2759017944336,-17.851167678833008,-14.939818382263184,-203.04440307617188,131.89892578125,213.4364471435547,-32.25,15.000000953674316,-9.90000057220459
3.523,87.18724822998047,-13.177685737609863,-16.012420654296875,-208.10719299316406,133.09800720214844,218.76568603515625,-33.150001525878906,13.200000762939453,-8.550000190734863
3.53,89.63890838623047,-12.02846908569336,-18.387468338012695,-206.5084228515625,130.96630859375,223.9617156982422,-33.150001525878906,13.200000762939453,-8.550000190734863
3.54,91.55427551269531,-12.181697845458984,-18.732234954833984,-210.37213134765625,126.30321502685547,232.2220458984375,-33.150001525878906,14.850000381469727,-6.300000190734863
3.55,91.20951080322266,-12.258312225341797,-21.298818588256836,-214.50228881835938,114.44563293457031,253.67227172851562,-35.55000305175781,12.300000190734863,-7.350000381469727
3.56,91.5159683227539,-13.330915451049805,-20.226215362548828,-232.75497436523438,123.63858795166016,251.67381286621094,-35.400001525878906,12.15000057220459,-6.0
3.57,91.63088989257812,-12.29662036895752,-17.238252639770508,-250.87442016601562,125.7702865600586,259.4012145996094,-36.0,11.100000381469727,-4.350000381469727
3.583,90.59659576416016,-9.53849983215332,-15.552734375,-252.60643005371094,98.19142150878906,275.38897705078125,-36.0,11.100000381469727,-4.350000381469727
3.59,87.07232666015625,-7.393294811248779,-13.10107135772705,-259.4012145996094,93.52832794189453,280.4517517089844,-37.80000305175781,9.15000057220459,-2.1000001430511475
3.6,86.8041763305664,-4.788403511047363,-12.871228218078613,-259.134765625,81.40428924560547,278.7197570800781,-38.400001525878906,8.25,-1.2000000476837158
3.61,85.34850311279297,-2.5282769203186035,-11.91354751586914,-259.2679748535156,78.07350158691406,282.84991455078125,-38.70000076293945,5.850000381469727,-1.6500000953674316
3.62,82.13069152832031,2.6431987285614014,-11.798625946044922,-237.01837158203125,67.5482406616211,284.3154602050781,-39.0,6.150000095367432,-1.0500000715255737
3.64,77.8019790649414,6.320692539215088,-13.560758590698242,-221.69677734375,66.61561584472656,290.0444030761719,-39.0,6.150000095367432,-1.0500000715255737
3.643,74.7374038696289,12.756306648254395,-14.901511192321777,-177.33078002929688,59.82082748413086,311.8943176269531,-40.80000305175781,2.25,0.6000000238418579
3.65,68.49332427978516,13.292608261108398,-13.062764167785645,-146.9540557861328,54.4915771484375,314.5589599609375,-40.80000305175781,2.25,0.6000000238418579
3.66,66.73119354248047,12.48815631866455,-12.29662036895752,-117.11026000976562,44.36600112915039,326.4165344238281,-39.75,1.8000000715255737,1.8000000715255737
3.67,62.977081298828125,7.623138427734375,-13.177685737609863,-92.59571075439453,50.4946403503418,324.8177490234375,-41.25,1.8000000715255737,1.350000023841858
3.68,60.29557418823242,5.171475887298584,-12.143390655517578,-79.40581512451172,44.36600112915039,321.7534484863281,-41.25,1.8000000715255737,1.350000023841858
3.699,58.57175064086914,2.1068975925445557,-12.48815631866455,-69.54670715332031,42.500762939453125,317.09033203125,-42.75,-3.750000238418579,2.1000001430511475
3.704,57.920528411865234,-2.2218191623687744,-11.798625946044922,-46.231239318847656,25.313934326171875,321.0872802734375,-41.70000076293945,-4.050000190734863,3.0
3.71,57.38422775268555,-6.282385349273682,-11.070788383483887,-65.41653442382812,35.306278228759766,305.6324462890625,-41.70000076293945,-4.050000190734863,3.0
3.72,57.34592056274414,-8.08282470703125,-11.41555404663086,-60.22052001953125,29.977027893066406,315.35833740234375,-41.25,-4.950000286102295,1.8000000715255737
3.73,59.031436920166016,-12.29662036895752,-11.224017143249512,-72.74425506591797,35.57273864746094,304.83306884765625,-41.25,-4.950000286102295,1.8000000715255737
3.74,60.065731048583984,-13.560758590698242,-8.810662269592285,-97.39203643798828,40.76875686645508,293.1087341308594,-42.75,-8.40000057220459,3.3000001907348633
3.76,62.249244689941406,-16.242263793945312,-7.546523571014404,-107.65084075927734,43.43338394165039,277.7871398925781,-42.150001525878906,-8.700000762939453,3.450000047683716
3.764,63.66661071777344,-18.54069709777832,-9.346963882446289,-128.43490600585938,46.497703552246094,260.6003112792969,-43.5,-11.850000381469727,3.9000000953674316
3.77,70.5619125366211,-21.222204208374023,-7.1251444816589355,-148.95252990722656,58.4885139465332,247.8101043701172,-43.5,-11.850000381469727,3.9000000953674316
3.78,72.82203674316406,-20.992361068725586,-5.937620162963867,-165.2067413330078,56.356815338134766,224.09494018554688,-43.5,-11.850000381469727,3.9000000953674316
3.79,75.65677642822266,-20.877439498901367,-6.856993675231934,-178.79632568359375,55.82388687133789,213.9693603515625,-42.900001525878906,-12.15000057220459,3.750000238418579
3.8,80.52178955078125,-18.808849334716797,-8.006210327148438,-194.38436889648438,71.54517364501953,197.9816131591797,-43.650001525878906,-15.90000057220459,5.25
3.82,83.85452270507812,-16.855180740356445,-9.346963882446289,-193.05206298828125,77.54058074951172,178.79632568359375,-43.05000305175781,-16.200000762939453,6.150000095367432
3.823,86.38279724121094,-14.403517723083496,-11.109095573425293,-183.99234008789062,75.40888214111328,143.75650024414062,-43.05000305175781,-16.200000762939453,6.150000095367432
3.83,89.37075805664062,-12.29662036895752,-13.522451400756836,-171.86830139160156,85.00152587890625,132.9647674560547,-43.05000305175781,-16.200000762939453,6.150000095367432
3.84,92.78010559082031,-7.8529815673828125,-12.373234748840332,-169.73660278320312,89.93108367919922,114.17916870117188,-42.75,-18.150001525878906,6.150000095367432
3.85,94.73377227783203,-1.647210717201233,-12.02846908569336,-141.6248016357422,82.6033706665039,90.59724426269531,-43.5,-20.400001525878906,6.150000095367432
3.86,96.64913177490234,4.213795185089111,-11.262324333190918,-106.71822357177734,70.21286010742188,93.2618637084961,-42.0,-19.650001525878906,6.600000381469727
3.88,95.88298797607422,7.814674377441406,-12.7946138381958,-65.81623077392578,60.08728790283203,76.20826721191406,-42.0,-19.650001525878906,6.600000381469727
3.884,93.9676284790039,9.53849983215332,-12.717999458312988,-10.791729927062988,55.02450180053711,49.96171569824219,-43.80000305175781,-21.150001525878906,7.650000095367432
3.89,91.28612518310547,6.933608055114746,-15.552734375,18.78560447692871,43.43338394165039,47.297088623046875,-42.75,-21.900001525878906,5.850000381469727
3.9,89.06430053710938,2.298433542251587,-17.085023880004883,43.56661605834961,39.03675079345703,22.649311065673828,-42.900001525878906,-19.5,7.050000190734863
3.91,87.18724822998047,-2.9879636764526367,-15.552734375,68.61408996582031,40.9019889831543,7.327718257904053,-42.45000076293945,-19.05000114440918,6.750000476837158
3.92,87.87677764892578,-6.703764915466309,-12.22000503540039,83.00305938720703,32.77488327026367,-6.5283308029174805,-42.45000076293945,-19.05000114440918,6.750000476837158
3.939,89.44737243652344,-9.959878921508789,-8.159439086914062,103.92036437988281,18.652372360229492,-21.183767318725586,-42.45000076293945,-19.05000114440918,6.750000476837158
3.943,90.2518310546875,-12.411541938781738,-5.4013190269470215,126.5696792602539,10.658498764038086,-41.967838287353516,-42.75,-19.200000762939453,7.350000381469727
3.95,93.20148468017578,-16.47210693359375,-2.0685901641845703,148.0198974609375,13.58958625793457,-60.48698043823242,-42.45000076293945,-21.450000762939453,7.500000476837158
3.96,94.92530822753906,-20.83913230895996,-3.5625722408294678,188.52220153808594,2.531393527984619,-78.73966217041016,-43.5,-20.400001525878906,7.950000286102295
3.97,95.92129516601562,-27.044902801513672,-2.3367409706115723,219.83154296875,-5.329249382019043,-114.84532928466797,-43.05000305175781,-19.650001525878906,6.900000095367432
3.98,93.77609252929688,-30.37763023376465,-2.8347349166870117,243.5467071533203,-2.131699800491333,-146.5543670654297,-43.05000305175781,-19.650001525878906,6.900000095367432
4.0,93.39302062988281,-34.3615837097168,-3.3710360527038574,255.53750610351562,-20.784072875976562,-161.47625732421875,-43.650001525878906,-19.05000114440918,7.050000190734863
4.1,88.91107177734375,-31.41192626953125,13.445837020874023,417.1470031738281,-179.72894287109375,-271.1255798339844,-42.45000076293945,-9.450000762939453,3.750000238418579
4.12,89.8304443359375,-37.54108428955078,16.1656494140625,392.89892578125,-199.18069458007812,-280.5849914550781,-42.30000305175781,-6.450000286102295,3.6000001430511475
4.123,85.5400390625,-48.4969482421875,13.828908920288086,326.2832946777344,-203.17764282226562,-294.9739685058594,-43.05000305175781,-5.400000095367432,1.0500000715255737
4.13,84.12267303466797,-48.956634521484375,11.760318756103516,296.039794921875,-215.83460998535156,-298.8376770019531,-43.05000305175781,-5.400000095367432,1.0500000715255737
4.14,79.6024169921875,-48.650177001953125,8.619126319885254,264.73046875,-214.50228881835938,-319.08880615234375,-42.30000305175781,-2.25,-0.6000000238418579
4.15,73.35833740234375,-45.62390899658203,5.439626216888428,216.36752319335938,-206.37518310546875,-329.88055419921875,-42.45000076293945,-2.8500001430511475,-1.2000000476837158
4.16,67.95702362060547,-38.728607177734375,1.9153614044189453,171.86830139160156,-188.52220153808594,-319.2220458984375,-41.55000305175781,0.30000001192092896,-3.3000001907348633
4.18,64.7009048461914,-32.56114196777344,1.6855180263519287,144.2894287109375,-185.19142150878906,-312.29400634765625,-40.5,1.5,-3.9000000953674316
4.183,64.35614013671875,-24.325088500976562,0.4213795065879822,88.33231353759766,-158.9448699951172,-346.5344543457031,-40.5,1.5,-3.9000000953674316
4.19,62.74723815917969,-16.548721313476562,0.4596867263317108,66.48238372802734,-153.0826873779297,-334.1439514160156,-39.45000076293945,3.1500000953674316,-6.300000190734863
4.2,60.678646087646484,-13.21599292755127,0.19153612852096558,54.89126968383789,-159.61102294921875,-318.02294921875,-39.900001525878906,4.800000190734863,-7.500000476837158
4.21,60.372188568115234,-8.96389102935791,-2.1068975925445557,40.76875686645508,-154.0153045654297,-321.4869689941406,-36.900001525878906,5.550000190734863,-7.500000476837158
4.22,58.18867874145508,-8.197746276855469,-2.604891538619995,29.7105655670166,-151.6171417236328,-316.4241943359375,-37.80000305175781,6.900000095367432,-8.700000762939453
4.239,58.49513626098633,-7.4316020011901855,-3.9839515686035156,8.926492691040039,-135.89585876464844,-319.7549743652344,-35.25,10.350000381469727,-10.950000762939453
4.243,51.7530632019043,-3.907337188720703,-4.022258758544922,-13.989279747009277,-115.37825012207031,-317.3568115234375,-35.25,10.350000381469727,-10.950000762939453
4.25,51.982906341552734,-2.183511972427368,-3.1028854846954346,-12.523736000061035,-122.9724349975586,-300.9693603515625,-34.5,10.350000381469727,-10.65000057220459
4.26,51.59983444213867,-1.647210717201233,-3.600879430770874,-30.643184661865234,-110.18223571777344,-307.63092041015625,-35.400001525878906,11.700000762939453,-10.800000190734863
4.27,51.063533782958984,3.294421434402466,-4.750096321105957,-39.03675079345703,-110.848388671875,-297.7718200683594,-33.150001525878906,13.65000057220459,-11.100000381469727
4.28,52.67243576049805,6.205770969390869,-5.4013190269470215,-40.102603912353516,-106.4517593383789,-284.04901123046875,-33.150001525878906,13.65000057220459,-11.100000381469727
4.299,53.51519775390625,10.074800491333008,-8.465897560119629,-51.027565002441406,-89.26493072509766,-280.3185119628906,-32.400001525878906,14.100000381469727,-12.600000381469727
4.41,82.0157699584961,41.180267333984375,-32.982521057128906,9.192955017089844,16.25421142578125,-88.33231353759766,-22.950000762939453,21.75,-15.15000057220459
4.413,83.16499328613281,45.20252990722656,-28.270732879638672,48.09647750854492,14.655436515808105,-37.03828430175781,-21.150001525878906,22.80000114440918,-13.950000762939453
4.42,88.10662078857422,46.926353454589844,-23.63555908203125,60.22052001953125,6.794793128967285,-37.03828430175781,-21.150001525878906,23.700000762939453,-14.40000057220459
4.43,86.30618286132812,45.394065856933594,-22.524648666381836,84.4686050415039,-3.7304747104644775,-21.983154296875,-21.150001525878906,23.700000762939453,-14.40000057220459
4.44,83.16499328613281,38.38384246826172,-23.44402313232422,86.60030364990234,-1.8652373552322388,4.396630764007568,-22.80000114440918,23.55000114440918,-15.750000953674316
4.45,76.5761489868164,31.10546875,-23.865402221679688,79.9387435913086,0.39969372749328613,7.9938740730285645,-22.05000114440918,23.100000381469727,-16.5
4.469,72.63050079345703,26.738445281982422,-21.796812057495117,63.950992584228516,2.9310872554779053,47.297088623046875,-22.200000762939453,22.5,-17.100000381469727
4.473,72.51557922363281,23.099258422851562,-22.256498336791992,29.177640914916992,6.9280242919921875,64.48391723632812,-22.650001525878906,21.75,-15.90000057220459
4.48,76.69107055664062,18.157625198364258,-23.980323791503906,5.196018218994141,11.324655532836914,73.0107192993164,-22.650001525878906,21.75,-15.90000057220459
4.49,79.41088104248047,15.361198425292969,-25.933992385864258,-23.848390579223633,18.385910034179688,83.13629150390625,-22.05000114440918,23.100000381469727,-17.55000114440918
4.5,83.50975799560547,15.476119995117188,-27.044902801513672,-83.00305938720703,31.44257164001465,106.4517593383789,-22.950000762939453,21.450000762939453,-18.150001525878906
4.51,90.8264389038086,17.583017349243164,-26.393678665161133,-125.10413360595703,37.70444107055664,125.37059783935547,-22.650001525878906,21.75,-17.100000381469727
4.53,94.81038665771484,22.06496238708496,-28.040889739990234,-137.49464416503906,36.771820068359375,158.9448699951172,-23.55000114440918,21.150001525878906,-16.80000114440918
4.533,95.27007293701172,24.05693817138672,-28.61549949645996,-119.37519073486328,46.897396087646484,182.2603302001953,-23.55000114440918,20.100000381469727,-16.80000114440918
4.54,89.8687515258789,18.808849334716797,-24.823083877563477,-105.78560638427734,44.76569747924805,193.3185272216797,-23.55000114440918,20.100000381469727,-16.80000114440918
4.55,88.0300064086914,15.24627685546875,-21.835119247436523,-68.88054656982422,44.89892578125,200.91270446777344,-24.750001907348633,21.600000381469727,-17.25
4.56,80.56009674072266,8.35097599029541,-17.966089248657227,-22.649311065673828,32.24195861816406,196.915771484375,-26.250001907348633,19.200000762939453,-15.750000953674316
4.57,75.77169799804688,-3.869029998779297,-12.947842597961426,-10.258805274963379,31.975496292114258,196.1163787841797,-26.700000762939453,20.25,-15.600000381469727
4.589,71.55789947509766,-16.433799743652344,-6.282385349273682,-29.977027893066406,30.90964698791504,180.12863159179688,-26.700000762939453,20.25,-15.600000381469727
4.593,72.4006576538086,-26.623523712158203,-2.2218191623687744,-59.287899017333984,27.578866958618164,187.05665588378906,-27.150001525878906,17.55000114440918,-14.850000381469727
4.6,72.4772720336914,-33.90189743041992,-6.244078159332275,-90.73047637939453,33.70750427246094,182.2603302001953,-27.150001525878906,17.55000114440918,-14.850000381469727
4.61,73.54987335205078,-34.66804122924805,-10.074800491333008,-131.7657012939453,59.4211311340332,194.78407287597656,-28.200000762939453,17.55000114440918,-13.65000057220459
4.62,77.7253646850586,-30.26270866394043,-15.437812805175781,-164.80703735351562,81.93721008300781,198.6477813720703,-30.150001525878906,15.600000381469727,-13.350000381469727
4.63,83.62467956542969,-21.6818904876709,-18.387468338012695,-182.2603302001953,88.33231353759766,222.09646606445312,-30.150001525878906,15.600000381469727,-13.350000381469727
4.65,89.217529296875,-16.66364288330078,-17.697938919067383,-201.578857421875,91.52986145019531,237.01837158203125,-30.150001525878906,15.600000381469727,-12.600000381469727
4.653,90.2901382446289,-11.683704376220703,-17.659631729125977,-222.09646606445312,94.19448852539062,252.73965454101562,-32.25,14.550000190734863,-10.950000762939453
4.66,88.10662078857422,-9.53849983215332,-16.510414123535156,-245.14547729492188,93.52832794189453,253.53904724121094,-32.25,14.550000190734863,-10.950000762939453
4.67,86.68925476074219,-10.649409294128418,-14.633360862731934,-264.4640197753906,87.53292083740234,259.93414306640625,-32.25,15.450000762939453,-10.65000057220459
4.68,81.78592681884766,-12.641385078430176,-14.67166805267334,-287.9126892089844,82.47013854980469,259.4012145996094,-32.25,15.450000762939453,-10.65000057220459
4.69,78.989501953125,-13.330915451049805,-13.675680160522461,-315.8912658691406,78.20673370361328,270.326171875,-33.30000305175781,12.300000190734863,-9.15000057220459
4.71,77.30398559570312,-10.994174003601074,-12.334927558898926,-325.6171569824219,62.085758209228516,285.64776611328125,-33.75,11.100000381469727,-9.0
4.713,75.38862609863281,-5.018246650695801,-9.691728591918945,-331.0796203613281,45.831546783447266,286.713623046875,-36.30000305175781,11.550000190734863,-6.600000381469727
4.72,72.97526550292969,4.098873138427734,-8.619126319885254,-327.882080078125,47.0306282043457,288.578857421875,-36.30000305175781,11.550000190734863,-6.600000381469727
4.73,72.09420013427734,10.5344877243042,-7.623138427734375,-292.1761169433594,33.84073257446289,308.1638488769531,-35.55000305175781,11.550000190734863,-6.600000381469727
4.74,69.75746154785156,20.034679412841797,-9.84495735168457,-252.07350158691406,20.517610549926758,305.6324462890625,-35.400001525878906,9.75,-4.5
4.75,66.19488525390625,25.244462966918945,-9.500192642211914,-200.11331176757812,14.255742073059082,304.6998291015625,-37.80000305175781,8.100000381469727,-4.350000381469727
4.77,63.01538848876953,28.8453426361084,-12.717999458312988,-144.95558166503906,12.923430442810059,312.8269348144531,-39.150001525878906,10.200000762939453,-5.25
4.773,61.67463684082031,29.22841453552246,-13.48414421081543,-69.81317138671875,20.650842666625977,317.49005126953125,-39.150001525878906,10.200000762939453,-5.25
4.78,59.26128005981445,21.796812057495117,-15.016432762145996,-30.24349021911621,13.856048583984375,325.3506774902344,-39.150001525878906,10.200000762939453,-5.25
4.797,58.49513626098633,15.897499084472656,-14.709975242614746,13.056661605834961,33.70750427246094,314.9586486816406,-37.650001525878906,4.350000381469727,-3.0
4.801,56.541465759277344,4.941632270812988,-13.292608261108398,28.378253936767578,31.842266082763672,325.88360595703125,-40.20000076293945,3.1500000953674316,-3.450000047683716
4.81,56.618080139160156,1.2641384601593018,-12.526463508605957,25.04747200012207,31.309341430664062,311.0949401855469,-40.650001525878906,2.4000000953674316,-2.25
4.82,57.46084213256836,-5.784391403198242,-12.143390655517578,-1.1990811824798584,47.163856506347656,302.5681457519531,-41.400001525878906,-0.45000001788139343,-1.2000000476837158
4.83,57.95883560180664,-13.062764167785645,-10.764330863952637,-13.989279747009277,55.15773391723633,290.0444030761719,-41.400001525878906,-0.45000001788139343,-1.2000000476837158
4.849,57.53745651245117,-17.659631729125977,-9.730035781860352,-41.967838287353516,54.22511291503906,284.5819091796875,-41.400001525878906,-2.8500001430511475,-1.2000000476837158
4.854,60.257266998291016,-20.83913230895996,-9.653421401977539,-88.19908142089844,67.41500854492188,266.0627746582031,-41.400001525878906,-3.6000001430511475,-1.6500000953674316
4.86,63.66661071777344,-21.45204734802246,-8.772355079650879,-112.4471664428711,80.33843994140625,258.3353576660156,-41.25,-3.750000238418579,-0.6000000238418579
4.87,65.73519897460938,-22.7161865234375,-9.691728591918945,-140.29249572753906,89.93108367919922,250.34149169921875,-41.25,-4.950000286102295,-1.0500000715255737
4.88,68.87639617919922,-21.0689754486084,-10.228029251098633,-151.2174530029297,87.26646423339844,238.084228515625,-41.25,-4.950000286102295,-1.0500000715255737
4.89,74.43093872070312,-18.23423957824707,-6.01423454284668,-167.47166442871094,89.5313949584961,224.49462890625,-41.70000076293945,-8.25,-1.2000000476837158
4.91,82.82022857666016,-13.905523300170898,-4.137180328369141,-178.13015747070312,85.00152587890625,228.35833740234375,-42.150001525878906,-7.800000190734863,-0.9000000357627869
4.913,88.68122863769531,-8.465897560119629,-8.121131896972656,-182.6600341796875,86.86676788330078,199.713623046875,-42.75,-8.40000057220459,0.0
4.92,94.35070037841797,-2.9496564865112305,-12.48815631866455,-175.9984588623047,90.06431579589844,204.50994873046875,-41.400001525878906,-10.200000762939453,0.15000000596046448
4.93,94.542236328125,-0.8427590131759644,-14.67166805267334,-151.2174530029297,89.93108367919922,180.5283203125,-41.400001525878906,-10.200000762939453,0.15000000596046448
4.94,95.46160888671875,2.030282974243164,-16.510414123535156,-128.83460998535156,98.19142150878906,172.53445434570312,-43.80000305175781,-10.350000381469727,1.350000023841858
4.95,94.31239318847656,4.137180328369141,-16.58702850341797,-85.4012222290039,87.13323211669922,155.747314453125,-40.650001525878906,-11.700000762939453,1.9500000476837158
4.97,94.08255004882812,3.2178070545196533,-18.081010818481445,-43.56661605834961,81.93721008300781,157.612548828125,-42.30000305175781,-12.300000190734863,2.1000001430511475
4.973,92.78010559082031,1.8387469053268433,-19.038692474365234,-9.459418296813965,75.5421142578125,141.75804138183594,-41.70000076293945,-14.100000381469727,4.200000286102295
4.98,93.23979187011719,-2.183511972427368,-12.48815631866455,10.392036437988281,72.74425506591797,133.76416015625,-41.70000076293945,-14.100000381469727,4.200000286102295
4.99,91.36273956298828,-9.040505409240723,-12.02846908569336,11.724349021911621,71.54517364501953,109.11638641357422,-43.20000076293945,-12.450000762939453,3.0
5.0,91.4393539428711,-12.756306648254395,-11.262324333190918,11.591117858886719,59.82082748413086,87.66615295410156,-42.30000305175781,-14.250000953674316,2.8500001430511475
5.01,89.40906524658203,-17.774553298950195,-11.530475616455078,15.854516983032227,50.4946403503418,75.67534637451172,-42.900001525878906,-15.15000057220459,2.25
5.03,88.75784301757812,-20.494365692138672,-9.998186111450195,18.2526798248291,43.96630859375,56.756507873535156,-43.5,-15.450000762939453,2.5500001907348633
5.033,93.54624938964844,-20.992361068725586,-6.703764915466309,25.04747200012207,41.83460998535156,24.64777946472168,-43.5,-15.450000762939453,2.5500001907348633
5.04,99.75202178955078,-21.643583297729492,-0.9959878921508789,44.09954071044922,27.978559494018555,7.9938740730285645,-42.900001525878906,-15.600000381469727,3.450000047683716
5.05,102.16537475585938,-22.333112716674805,-0.8427590131759644,89.93108367919922,2.797856092453003,-23.04900360107422,-42.0,-14.550000190734863,4.350000381469727
5.06,100.05847930908203,-22.409727096557617,-3.44765043258667,129.76722717285156,-9.459418296813965,-53.42572784423828,-43.650001525878906,-15.15000057220459,4.5
5.07,95.34668731689453,-28.07919692993164,-8.925583839416504,161.34303283691406,-11.058192253112793,-89.26493072509766,-42.30000305175781,-13.800000190734863,5.100000381469727
5.09,93.04825592041016,-31.41192626953125,-11.645397186279297,175.33230590820312,-13.189892768859863,-103.7871322631836,-42.30000305175781,-13.800000190734863,5.100000381469727
5.094,90.02198028564453,-34.170047760009766,-10.342951774597168,197.848388671875,-32.24195861816406,-114.71209716796875,-42.45000076293945,-14.100000381469727,3.450000047683716
5.1,88.48969268798828,-34.66804122924805,-5.899312973022461,197.31546020507812,-29.31087303161621,-119.64165496826172,-42.900001525878906,-14.40000057220459,3.450000047683716
5.11,86.38279724121094,-34.3998908996582,-3.7924153804779053,191.18682861328125,-37.57120895385742,-141.0918731689453,-43.20000076293945,-12.90000057220459,3.0
5.12,84.9271240234375,-35.05111312866211,-0.727837324142456,205.44256591796875,-57.15620040893555,-144.02296447753906,-42.45000076293945,-13.200000762939453,4.950000286102295
5.13,84.39082336425781,-34.74465560913086,-0.5746083855628967,215.96783447265625,-74.47626495361328,-154.54823303222656,-42.45000076293945,-13.200000762939453,4.950000286102295
5.151,85.5400390625,-32.178070068359375,1.3407529592514038,233.82081604003906,-95.12710571289062,-167.6049041748047,-41.25,-12.300000190734863,3.6000001430511475
5.155,85.84649658203125,-28.73042106628418,2.9496564865112305,274.18988037109375,-138.02755737304688,-179.86216735839844,-43.650001525878906,-9.75,3.0
5.16,82.93515014648438,-25.51261329650879,4.903325080871582,283.2496032714844,-139.6263427734375,-193.05206298828125,-42.0,-9.600000381469727,1.8000000715255737
5.17,82.82022857666016,-25.627534866333008,6.052541732788086,316.15771484375,-172.6676788330078,-200.11331176757812,-40.95000076293945,-8.25,1.6500000953674316
5.18,82.93515014648438,-25.474306106567383,7.010222434997559,326.1500549316406,-182.7932586669922,-214.23582458496094,-40.95000076293945,-8.25,1.6500000953674316
5.19,81.17301177978516,-28.807035446166992,7.086836814880371,338.6737976074219,-200.24655151367188,-223.69525146484375,-40.95000076293945,-6.750000476837158,-0.9000000357627869
5.211,82.0540771484375,-33.02082824707031,7.4316020011901855,326.4165344238281,-203.3108673095703,-203.71055603027344,-42.0,-7.200000286102295,-0.30000001192092896
5.214,83.31822204589844,-39.41813659667969,7.2783732414245605,307.2312316894531,-222.76263427734375,-263.2649230957031,-40.650001525878906,-6.300000190734863,-3.0
5.22,83.0500717163086,-44.55130386352539,8.389283180236816,290.7105712890625,-222.22970581054688,-286.713623046875,-40.650001525878906,-4.800000190734863,-3.750000238418579
5.23,82.39884948730469,-45.96867370605469,8.044517517089844,265.9295349121094,-229.95712280273438,-293.37518310546875,-40.650001525878906,-4.800000190734863,-3.750000238418579
5.24,79.98548889160156,-45.85375213623047,6.89530086517334,237.2848358154297,-236.61868286132812,-307.0979919433594,-40.20000076293945,-3.1500000953674316,-4.5
5.25,76.00154113769531,-43.67023849487305,5.861005783081055,192.65237426757812,-220.49769592285156,-331.3460998535156,-38.55000305175781,-3.750000238418579,-5.850000381469727
5.269,73.43495178222656,-40.41412353515625,1.37906014919281,161.47625732421875,-219.0321502685547,-339.7396545410156,-39.30000305175781,-1.8000000715255737,-7.950000286102295
5.273,68.95301055908203,-36.58340072631836,0.8044517636299133,115.51148223876953,-212.37059020996094,-345.3353576660156,-37.5,0.0,-8.700000762939453
5.28,63.01538848876953,-30.37763023376465,-0.1149216815829277,83.00305938720703,-196.24961853027344,-349.73199462890625,-37.5,0.0,-8.700000762939453
5.29,60.21895980834961,-28.347347259521484,-3.3710360527038574,50.22817611694336,-183.45941162109375,-355.0612487792969,-35.400001525878906,-0.15000000596046448,-9.75
5.3,55.58378601074219,-20.341136932373047,-3.026270866394043,18.652372360229492,-167.6049041748047,-356.7932434082031,-35.25,1.0500000715255737,-9.90000057220459
5.31,53.208740234375,-15.820884704589844,-3.600879430770874,-11.724349021911621,-159.74424743652344,-351.3307800292969,-34.95000076293945,3.6000001430511475,-12.300000190734863
5.329,53.668426513671875,-11.875240325927734,-4.941632270812988,-36.372127532958984,-149.3522186279297,-345.8682861328125,-34.650001525878906,2.8500001430511475,-11.850000381469727
5.333,51.52322006225586,-4.750096321105957,-7.546523571014404,-60.35375213623047,-140.42572021484375,-338.54058837890625,-34.650001525878906,2.8500001430511475,-11.850000381469727
5.34,50.91030502319336,-5.286397457122803,-6.320692539215088,-69.94640350341797,-132.16539001464844,-347.7335205078125,-31.80000114440918,6.450000286102295,-10.950000762939453
5.35,51.33168411254883,-2.2218191623687744,-4.520252704620361,-80.33843994140625,-116.84379577636719,-338.6737976074219,-31.80000114440918,7.200000286102295,-13.500000953674316
5.36,50.029239654541016,3.3710360527038574,-2.9496564865112305,-83.5359878540039,-123.37212371826172,-338.0076599121094,-31.200000762939453,8.25,-13.65000057220459
5.37,51.82967758178711,9.155426979064941,-3.754108190536499,-66.34915924072266,-132.9647674560547,-332.2787170410156,-30.450000762939453,8.25,-13.65000057220459
5.39,54.81764221191406,13.675680160522461,-4.558559894561768,-59.15467071533203,-124.57120513916016,-330.54669189453125,-30.450000762939453,8.25,-13.65000057220459
5.393,55.27732849121094,18.579004287719727,-4.520252704620361,-43.69984436035156,-104.05359649658203,-330.0137634277344,-27.900001525878906,12.450000762939453,-14.850000381469727
5.4,60.10403823852539,21.528661727905273,-8.312667846679688,-20.650842666625977,-109.51607513427734,-338.4073486328125,-27.900001525878906,12.450000762939453,-14.850000381469727
5.41,63.55168914794922,23.21417999267578,-7.5848307609558105,-6.661561965942383,-106.71822357177734,-308.9632263183594,-28.05000114440918,13.500000953674316,-14.250000953674316
5.42,65.9267349243164,26.891674041748047,-7.661445617675781,11.058192253112793,-103.65390014648438,-308.9632263183594,-25.950000762939453,15.90000057220459,-14.40000057220459
5.43,66.73119354248047,28.61549949645996,-9.84495735168457,29.977027893066406,-104.85298156738281,-281.91729736328125,-25.950000762939453,15.90000057220459,-14.40000057220459
5.45,69.3360824584961,30.60747528076172,-13.024456977844238,72.21133422851562,-87.9326171875,-212.5038299560547,-24.750001907348633,15.000000953674316,-16.05000114440918
5.453,71.28974914550781,27.88766098022461,-18.157625198364258,87.79938507080078,-95.79325866699219,-227.1592559814453,-22.950000762939453,17.100000381469727,-15.600000381469727
5.46,71.90266418457031,28.38565444946289,-18.54069709777832,87.53292083740234,-74.8759536743164,-223.29554748535156,-22.950000762939453,17.100000381469727,-15.600000381469727
5.47,73.39664459228516,27.044902801513672,-20.30282974243164,98.72434997558594,-67.94792938232422,-209.3062744140625,-20.400001525878906,17.850000381469727,-16.650001525878906
5.48,74.77571105957031,24.36339569091797,-22.524648666381836,104.32006072998047,-61.81929397583008,-185.19142150878906,-20.400001525878906,17.850000381469727,-16.650001525878906
5.49,76.95922088623047,23.673866271972656,-23.788787841796875,94.86064147949219,-44.63246536254883,-173.2006072998047,-19.950000762939453,18.75,-17.400001525878906
5.503,79.14273071289062,23.673866271972656,-27.811046600341797,78.60643005371094,-29.7105655670166,-135.62939453125,-20.25,18.450000762939453,-17.55000114440918
5.51,76.19307708740234,29.419950485229492,-27.964275360107422,69.01377868652344,-25.04747200012207,-104.85298156738281,-20.25,18.450000762939453,-17.55000114440918
5.52,74.43093872070312,30.37763023376465,-29.113492965698242,55.95711898803711,-7.460949420928955,-75.40888214111328,-19.5,20.100000381469727,-18.0
5.53,76.34630584716797,32.75267791748047,-32.369606018066406,55.4241943359375,7.9938740730285645,-57.289432525634766,-19.5,20.100000381469727,-18.0
5.54,76.92091369628906,29.4582576751709,-32.21637725830078,74.74272155761719,-0.6661561727523804,-34.64012145996094,-18.900001525878906,17.100000381469727,-18.450000762939453
5.55,76.11646270751953,26.01060676574707,-31.10546875,71.81163787841797,4.130168437957764,-28.911178588867188,-19.200000762939453,18.75,-17.700000762939453
5.569,76.11646270751953,22.256498336791992,-31.83330535888672,34.10719680786133,8.526799201965332,29.84379768371582,-18.150001525878906,18.75,-18.900001525878906
5.573,81.441162109375,19.268535614013672,-34.32327651977539,5.595712184906006,16.65390396118164,34.50688934326172,-18.150001525878906,18.75,-18.900001525878906
5.58,81.93915557861328,19.49837875366211,-35.089420318603516,-32.64165496826172,20.91730499267578,73.0107192993164,-18.150001525878906,18.75,-18.900001525878906
5.59,85.84649658203125,20.95405387878418,-39.035064697265625,-86.60030364990234,41.83460998535156,115.37825012207031,-19.05000114440918,19.200000762939453,-19.5
5.6,92.43534088134766,24.095245361328125,-40.91211700439453,-128.7013702392578,46.09800720214844,153.61561584472656,-18.900001525878906,18.150001525878906,-18.30000114440918
5.619,93.69947814941406,27.46628189086914,-39.30321502685547,-120.30780792236328,54.62480926513672,185.4578857421875,-18.30000114440918,18.900001525878906,-18.75
5.623,93.9293212890625,30.224401473999023,-37.54108428955078,-82.07044219970703,49.16232681274414,216.10107421875,-18.30000114440918,18.900001525878906,-18.75
5.63,91.05628204345703,26.31706428527832,-29.76471519470215,-53.95865249633789,46.764163970947266,215.03521728515625,-18.30000114440918,18.900001525878906,-18.75
5.64,90.32844543457031,20.494365692138672,-23.52063751220703,-14.388973236083984,33.17457962036133,223.69525146484375,-21.30000114440918,16.950000762939453,-16.05000114440918
5.65,86.1529541015625,10.074800491333008,-14.863204002380371,12.923430442810059,18.119447708129883,225.42726135253906,-22.05000114440918,14.550000190734863,-16.05000114440918
5.66,82.20730590820312,-3.7158010005950928,-12.066776275634766,19.718223571777344,22.116384506225586,201.578857421875,-24.0,15.000000953674316,-17.55000114440918
5.67,77.91690063476562,-19.613300323486328,-11.185709953308105,-8.526799201965332,46.497703552246094,187.72280883789062,-24.0,15.000000953674316,-17.55000114440918
5.684,76.61445617675781,-33.63374710083008,-15.629348754882812,-47.696781158447266,64.084228515625,187.85604858398438,-24.0,15.000000953674316,-17.55000114440918
5.69,72.24742889404297,-44.091617584228516,-23.44402313232422,-70.61255645751953,97.25880432128906,176.13169860839844,-23.25,14.250000953674316,-17.25
5.7,74.62248229980469,-44.091617584228516,-25.627534866333008,-118.8422622680664,139.35987854003906,184.5252685546875,-25.05000114440918,14.250000953674316,-17.25
5.71,75.8866195678711,-40.52904510498047,-27.542896270751953,-156.81317138671875,171.20213317871094,204.2434844970703,-24.30000114440918,13.050000190734863,-17.25
5.72,78.68304443359375,-35.0128059387207,-25.09123420715332,-211.43797302246094,194.117919921875,212.9035186767578,-26.250001907348633,14.250000953674316,-15.000000953674316
5.74,83.7396011352539,-25.51261329650879,-20.76251792907715,-252.07350158691406,195.31700134277344,232.62173461914062,-26.250001907348633,14.250000953674316,-15.000000953674316
5.743,87.83847045898438,-17.00840950012207,-15.744270324707031,-300.9693603515625,191.4532928466797,245.27870178222656,-29.250001907348633,11.550000190734863,-12.450000762939453
5.75,86.42110443115234,-11.645397186279297,-14.250288963317871,-304.03369140625,172.2679901123047,255.9372100830078,-28.80000114440918,12.300000190734863,-11.40000057220459
5.76,84.85050964355469,-9.232041358947754,-13.560758590698242,-316.29095458984375,153.21592712402344,258.7350769042969,-28.80000114440918,11.550000190734863,-10.200000762939453
5.77,81.63269805908203,-7.240066051483154,-13.675680160522461,-333.8774719238281,140.5589599609375,256.6033630371094,-29.400001525878906,10.200000762939453,-9.300000190734863
5.78,79.83226013183594,-4.8267107009887695,-13.560758590698242,-350.3981628417969,122.3062744140625,257.26953125,-29.400001525878906,10.200000762939453,-9.300000190734863
5.799,77.22737121582031,0.7661445140838623,-12.832921028137207,-345.06890869140625,95.52679443359375,272.59112548828125,-33.150001525878906,11.40000057220459,-9.0
5.9,52.32767105102539,-4.443638324737549,-15.169661521911621,-16.387441635131836,56.756507873535156,356.26031494140625,-36.75,-3.450000047683716,-2.1000001430511475
5.92,52.63412857055664,-10.304644584655762,-12.143390655517578,-41.30168533325195,56.756507873535156,335.343017578125,-37.80000305175781,-2.25,-1.350000023841858
5.923,55.622093200683594,-15.552734375,-10.036493301391602,-67.01531219482422,51.82695007324219,321.4869689941406,-37.650001525878906,-4.350000381469727,-2.25
5.93,62.057708740234375,-18.387468338012695,-4.941632270812988,-73.67687225341797,47.9632453918457,314.29248046875,-37.650001525878906,-4.350000381469727,-2.25
5.94,66.57795715332031,-17.42978858947754,-4.750096321105957,-91.79632568359375,52.3598747253418,275.12249755859375,-38.55000305175781,-4.200000286102295,-1.0500000715255737
5.95,72.13250732421875,-16.35718536376953,-5.171475887298584,-86.20060729980469,50.36140823364258,256.6033630371094,-38.400001525878906,-7.050000190734863,0.15000000596046448
5.96,75.73339080810547,-14.173673629760742,-8.810662269592285,-87.66615295410156,58.222049713134766,236.3522186279297,-39.45000076293945,-8.25,-1.6500000953674316
5.98,77.87859344482422,-15.437812805175781,-12.411541938781738,-83.26952362060547,61.9525260925293,226.09341430664062,-39.75,-9.600000381469727,-0.30000001192092896
5.984,80.44517517089844,-12.832921028137207,-15.207969665527344,-84.73506927490234,94.46094512939453,213.9693603515625,-39.75,-9.600000381469727,-0.30000001192092896
5.99,84.9271240234375,-13.522451400756836,-16.47210693359375,-100.58958435058594,110.31546783447266,207.17457580566406,-38.70000076293945,-10.5,-0.9000000357627869
6.0,86.88079071044922,-16.1656494140625,-14.824896812438965,-112.98008728027344,128.56814575195312,202.11178588867188,-38.55000305175781,-12.750000953674316,-0.30000001192092896
6.01,89.40906524658203,-14.556746482849121,-11.338939666748047,-124.17151641845703,121.3736572265625,200.5130157470703,-39.30000305175781,-12.300000190734863,-0.30000001192092896
6.02,89.71552276611328,-10.72602367401123,-6.550535678863525,-135.89585876464844,128.7013702392578,177.06431579589844,-39.45000076293945,-12.90000057220459,0.9000000357627869
6.039,91.24781799316406,-5.592854976654053,-5.51624059677124,-122.9724349975586,105.25267791748047,208.64012145996094,-39.45000076293945,-12.90000057220459,0.9000000357627869
6.043,92.16719055175781,-1.4939818382263184,-6.742072105407715,-97.12557220458984,88.06584930419922,164.5405731201172,-40.20000076293945,-15.15000057220459,1.6500000953674316
6.05,91.20951080322266,3.6774938106536865,-10.764330863952637,-82.20367431640625,91.66309356689453,140.1592559814453,-39.30000305175781,-15.450000762939453,2.5500001907348633
6.06,89.8304443359375,2.4899697303771973,-15.476119995117188,-56.49004364013672,85.80091857910156,124.17151641845703,-38.55000305175781,-16.5,1.8000000715255737
6.07,88.52799987792969,2.0685901641845703,-18.655620574951172,-11.058192253112793,71.41194152832031,118.30934143066406,-38.55000305175781,-17.400001525878906,2.5500001907348633
6.08,88.6046142578125,-1.8387469053268433,-21.490354537963867,17.186830520629883,66.74884796142578,108.45022583007812,-38.55000305175781,-17.400001525878906,2.5500001907348633
6.099,87.3404769897461,-2.719813108444214,-19.268535614013672,36.372127532958984,68.74732208251953,97.25880432128906,-38.25,-17.400001525878906,3.9000000953674316
6.103,87.30216979980469,-3.754108190536499,-15.514427185058594,65.949462890625,70.47932434082031,63.551300048828125,-39.30000305175781,-16.950000762939453,2.5500001907348633
6.11,89.67721557617188,-6.818686485290527,-7.623138427734375,93.79479217529297,55.69065856933594,55.02450180053711,-38.70000076293945,-18.75,2.25
6.12,92.58856964111328,-10.036493301391602,-1.455674648284912,133.36447143554688,43.43338394165039,12.390504837036133,-38.70000076293945,-18.30000114440918,3.750000238418579
6.13,96.91728210449219,-19.230228424072266,7.316680431365967,192.7855987548828,20.117916107177734,-13.58958625793457,-38.70000076293945,-18.30000114440918,3.750000238418579
6.14,101.16938781738281,-29.4582576751709,14.748282432556152,244.74578857421875,-14.92189884185791,-46.09800720214844,-39.45000076293945,-18.30000114440918,4.200000286102295
6.159,99.44556427001953,-43.01901626586914,8.121131896972656,255.67074584960938,-29.31087303161621,-86.60030364990234,-38.400001525878906,-17.55000114440918,4.200000286102295
6.163,95.27007293701172,-62.555702209472656,1.5705963373184204,219.43185424804688,-35.17304611206055,-128.43490600585938,-40.20000076293945,-18.30000114440918,4.5
6.17,95.23176574707031,-65.54366302490234,2.4133553504943848,191.9862060546875,-37.83767318725586,-145.6217498779297,-39.45000076293945,-18.30000114440918,4.200000286102295
6.18,95.07853698730469,-66.00334930419922,5.899312973022461,165.07350158691406,-59.82082748413086,-161.07656860351562,-39.45000076293945,-18.30000114440918,4.200000286102295
6.19,95.57653045654297,-61.138336181640625,9.84495735168457,135.89585876464844,-72.47779083251953,-188.78866577148438,-39.45000076293945,-14.40000057220459,3.750000238418579
6.2,95.61483764648438,-51.10184097290039,10.879252433776855,141.35833740234375,-98.59111785888672,-201.31239318847656,-39.0,-15.750000953674316,3.6000001430511475
6.219,94.35070037841797,-41.14196014404297,9.653421401977539,187.05665588378906,-153.61561584472656,-215.83460998535156,-39.0,-13.050000190734863,2.8500001430511475
6.222,91.74581146240234,-24.516624450683594,5.439626216888428,196.51608276367188,-163.6079559326172,-218.36599731445312,-39.0,-13.050000190734863,2.8500001430511475
6.23,91.70750427246094,-21.37543296813965,5.784391403198242,213.16998291015625,-179.4624786376953,-231.2894287109375,-39.0,-13.050000190734863,2.8500001430511475
6.24,90.09859466552734,-17.697938919067383,6.473921298980713,260.6003112792969,-207.4410400390625,-243.81317138671875,-39.45000076293945,-13.65000057220459,1.2000000476837158
6.25,87.91508483886719,-15.207969665527344,5.975927352905273,302.7013854980469,-222.62939453125,-251.5405731201172,-39.30000305175781,-11.100000381469727,1.0500000715255737
6.26,87.68524169921875,-14.135366439819336,4.788403511047363,325.084228515625,-225.42726135253906,-265.9295349121094,-37.5,-10.800000190734863,0.0
6.28,86.95740509033203,-17.583017349243164,3.44765043258667,364.6539001464844,-233.28790283203125,-276.32159423828125,-39.30000305175781,-9.600000381469727,-0.30000001192092896
6.284,87.83847045898438,-31.258697509765625,4.903325080871582,365.9862060546875,-249.00918579101562,-263.2649230957031,-38.25,-10.050000190734863,-3.3000001907348633
6.29,85.65496063232422,-33.59543991088867,7.393294811248779,368.6508483886719,-251.67381286621094,-286.9800720214844,-38.25,-10.050000190734863,-3.3000001907348633
6.3,85.08035278320312,-38.537071228027344,8.197746276855469,352.3966369628906,-255.1378173828125,-300.0367431640625,-37.95000076293945,-7.800000190734863,-3.750000238418579
6.31,82.0540771484375,-43.21055221557617,10.342951774597168,314.9586486816406,-257.6692199707031,-316.55743408203125,-39.0,-8.850000381469727,-4.650000095367432
6.32,78.75965881347656,-48.42033386230469,13.177685737609863,281.7840576171875,-261.3996887207031,-326.016845703125,-37.650001525878906,-7.050000190734863,-5.700000286102295
6.336,76.30799865722656,-48.91832733154297,14.709975242614746,212.5038299560547,-265.2633972167969,-344.6692199707031,-36.150001525878906,-4.800000190734863,-8.25
6.34,72.66880798339844,-48.535255432128906,13.48414421081543,175.33230590820312,-255.1378173828125,-360.7901916503906,-36.150001525878906,-4.800000190734863,-8.25
6.35,71.90266418457031,-47.46265411376953,13.560758590698242,124.30474090576172,-251.4073486328125,-354.5283203125,-36.150001525878906,-2.8500001430511475,-8.550000190734863
6.36,68.83808898925781,-45.279144287109375,11.492168426513672,60.75344467163086,-245.27870178222656,-376.9111633300781,-37.20000076293945,-2.1000001430511475,-9.300000190734863
6.37,66.5013427734375,-41.754878997802734,6.703764915466309,-3.3307809829711914,-218.36599731445312,-389.8345947265625,-34.20000076293945,-1.350000023841858,-10.800000190734863
6.38,62.555702209472656,-35.089420318603516,3.026270866394043,-41.035221099853516,-212.9035186767578,-386.7702941894531,-34.20000076293945,-1.350000023841858,-10.800000190734863
6.399,58.87820816040039,-29.113492965698242,-1.1492167711257935,-128.96783447265625,-165.87289428710938,-391.5666198730469,-33.0,2.25,-13.200000762939453
6.403,51.63814163208008,-19.536685943603516,-5.746084213256836,-146.0214385986328,-166.67227172851562,-382.6401062011719,-33.30000305175781,4.950000286102295,-13.950000762939453
6.41,49.18648147583008,-15.744270324707031,-6.244078159332275,-175.7320098876953,-143.4900360107422,-386.5038146972656,-33.30000305175781,4.950000286102295,-13.950000762939453
6.42,47.002967834472656,-11.30063247680664,-6.3973069190979,-188.52220153808594,-135.0964813232422,-382.9065856933594,-29.55000114440918,4.950000286102295,-13.950000762939453
6.43,44.93437576293945,-4.443638324737549,-6.665457725524902,-187.72280883789062,-117.77641296386719,-369.3169860839844,-31.80000114440918,4.950000286102295,-16.05000114440918
6.449,43.593624114990234,4.903325080871582,-7.469909191131592,-178.26339721679688,-101.78866577148438,-359.4578857421875,-31.80000114440918,4.950000286102295,-16.05000114440918
6.453,44.47468948364258,11.72201156616211,-7.201758861541748,-143.75650024414062,-98.4578857421875,-340.9387512207031,-27.000001907348633,10.800000190734863,-14.250000953674316
6.46,47.19450378417969,20.30282974243164,-8.121131896972656,-120.30780792236328,-91.26339721679688,-329.2143859863281,-27.000001907348633,10.800000190734863,-14.250000953674316
6.47,48.19049072265625,24.59324073791504,-7.2783732414245605,-72.61102294921875,-78.73966217041016,-338.140869140625,-29.250001907348633,13.500000953674316,-13.950000762939453
6.48,53.783348083496094,26.891674041748047,-4.8267107009887695,-31.975496292114258,-91.13016510009766,-329.2143859863281,-27.750001907348633,13.050000190734863,-14.700000762939453
6.49,58.26529312133789,29.84132957458496,-4.405331134796143,20.251148223876953,-105.11944580078125,-325.4839172363281,-27.750001907348633,13.050000190734863,-14.700000762939453
6.51,61.751251220703125,31.60346221923828,-4.060565948486328,65.68299865722656,-121.10719299316406,-307.4977111816406,-26.55000114440918,14.550000190734863,-14.700000762939453
6.513,63.24523162841797,32.178070068359375,-7.048529624938965,91.66309356689453,-117.50994873046875,-275.2557373046875,-24.30000114440918,15.750000953674316,-14.700000762939453
6.52,64.16460418701172,30.99054718017578,-13.867216110229492,92.06278228759766,-110.18223571777344,-260.6003112792969,-22.650001525878906,17.55000114440918,-15.90000057220459
6.53,64.73921203613281,30.79901123046875,-16.47210693359375,98.99080657958984,-89.26493072509766,-245.0122528076172,-22.650001525878906,17.55000114440918,-15.90000057220459
6.54,64.35614013671875,28.653806686401367,-19.651607513427734,99.92343139648438,-83.93567657470703,-215.7013702392578,-20.400001525878906,18.30000114440918,-15.90000057220459
6.55,65.65858459472656,29.573179244995117,-20.187908172607422,103.52066802978516,-81.27105712890625,-182.92648315429688,-20.55000114440918,19.200000762939453,-17.25
6.569,68.03363800048828,29.03687858581543,-21.98834800720215,92.3292465209961,-71.54517364501953,-157.34608459472656,-19.200000762939453,18.75,-17.700000762939453
6.573,69.45100402832031,30.186094284057617,-27.15982437133789,63.418067932128906,-43.16691970825195,-130.56661987304688,-20.55000114440918,18.450000762939453,-17.55000114440918
6.58,70.10222625732422,33.212364196777344,-31.22039031982422,51.29402542114258,-27.17917251586914,-116.0444107055664,-20.55000114440918,18.450000762939453,-17.55000114440918
6.59,70.21714782714844,33.71036148071289,-32.82929229736328,29.044410705566406,-5.995405673980713,-100.18988800048828,-19.650001525878906,20.25,-19.200000762939453
6.6,70.75344848632812,35.35757064819336,-32.52283477783203,32.24195861816406,-5.329249382019043,-68.74732208251953,-19.200000762939453,19.5,-18.150001525878906
6.61,73.58818054199219,36.46847915649414,-32.9442138671875,21.050535202026367,10.92496109008789,-45.831546783447266,-18.30000114440918,20.400001525878906,-19.05000114440918
6.63,74.12448120117188,37.387855529785156,-31.871612548828125,22.782541275024414,17.986217498779297,-27.045940399169922,-18.75,19.200000762939453,-17.25
6.634,72.66880798339844,35.93217849731445,-30.875625610351562,29.177640914916992,0.0,8.260336875915527,-18.75,19.200000762939453,-17.25
6.64,71.90266418457031,33.978511810302734,-30.109479904174805,23.315465927124023,7.194486618041992,17.586523056030273,-18.450000762939453,18.75,-18.450000762939453
6.65,73.7031021118164,31.565155029296875,-32.9442138671875,5.196018218994141,25.04747200012207,35.972434997558594,-19.950000762939453,19.05000114440918,-18.450000762939453
6.66,76.4995346069336,31.641769409179688,-37.08139419555664,-23.581928253173828,35.03981399536133,63.151607513427734,-18.150001525878906,19.5,-18.450000762939453
6.67,81.63269805908203,32.44622039794922,-36.928165435791016,-53.29249572753906,39.83613967895508,117.50994873046875,-18.450000762939453,17.850000381469727,-18.150001525878906
6.69,89.2558364868164,34.170047760009766,-35.66402816772461,-100.3231201171875,53.026031494140625,150.95098876953125,-18.450000762939453,17.850000381469727,-18.150001525878906
6.694,98.02819061279297,32.75267791748047,-38.57537841796875,-122.70597076416016,60.62021255493164,216.10107421875,-21.150001525878906,17.850000381469727,-17.700000762939453
6.7,99.94355773925781,26.623523712158203,-41.86980056762695,-120.4410400390625,72.34455871582031,232.2220458984375,-20.400001525878906,20.55000114440918,-18.150001525878906
6.71,99.02418518066406,22.60126495361328,-41.5250358581543,-95.66002655029297,91.13016510009766,241.814697265625,-21.900001525878906,18.75,-17.400001525878906
6.72,94.69546508789062,15.974113464355469,-34.93619155883789,-59.4211311340332,96.32618713378906,238.75038146972656,-22.80000114440918,19.200000762939453,-16.80000114440918
6.73,90.48167419433594,7.546523571014404,-25.5892276763916,-16.65390396118164,91.3966293334961,222.89585876464844,-22.80000114440918,19.200000762939453,-16.80000114440918
6.75,82.62869262695312,-1.8770540952682495,-18.617311477661133,17.852985382080078,76.60796356201172,215.7013702392578,-24.150001525878906,17.55000114440918,-15.600000381469727
6.753,75.46524047851562,-11.453861236572266,-12.679692268371582,9.72588062286377,59.82082748413086,196.64930725097656,-25.950000762939453,15.600000381469727,-15.600000381469727
6.76,70.83006286621094,-26.355371475219727,-7.7763671875,-24.51454734802246,59.68759536743164,169.60336303710938,-25.650001525878906,14.100000381469727,-16.350000381469727
6.77,69.48931121826172,-31.7183837890625,-9.27034854888916,-72.0781021118164,63.28483963012695,174.26646423339844,-25.650001525878906,15.600000381469727,-17.100000381469727
6.78,69.29777526855469,-34.01681900024414,-16.318878173828125,-122.9724349975586,78.3399658203125,200.24655151367188,-25.650001525878906,15.600000381469727,-17.100000381469727
6.79,71.40467071533203,-31.10546875,-22.946029663085938,-176.39816284179688,107.11791229248047,205.5758056640625,-26.700000762939453,14.100000381469727,-16.350000381469727
6.81,75.61846923828125,-19.881450653076172,-25.550920486450195,-208.10719299316406,119.24195861816406,234.35374450683594,-27.450000762939453,14.850000381469727,-14.850000381469727
6.813,79.79395294189453,-9.730035781860352,-24.9763126373291,-231.68911743164062,144.95558166503906,256.4701232910156,-28.500001907348633,12.750000953674316,-14.250000953674316
6.82,82.59038543701172,-0.8427590131759644,-22.792800903320312,-234.8866729736328,148.68606567382812,266.72894287109375,-29.250001907348633,14.250000953674316,-13.950000762939453
6.83,83.47145080566406,0.8427590131759644,-21.26051139831543,-227.82540893554688,149.7519073486328,276.8545227050781,-29.250001907348633,14.250000953674316,-13.950000762939453
6.84,80.63671112060547,3.754108190536499,-19.268535614013672,-210.1056671142578,150.81776428222656,280.98468017578125,-29.55000114440918,11.550000190734863,-13.200000762939453
6.85,76.42292022705078,2.0685901641845703,-15.782577514648438,-203.44410705566406,138.2940216064453,284.1822204589844,-31.05000114440918,10.800000190734863,-9.450000762939453
6.87,75.42693328857422,2.5282769203186035,-11.185709953308105,-195.983154296875,127.5022964477539,288.578857421875,-31.80000114440918,10.350000381469727,-9.450000762939453
6.873,76.07815551757812,3.869029998779297,-10.036493301391602,-195.31700134277344,96.05972290039062,300.9693603515625,-33.0,10.350000381469727,-8.40000057220459
6.88,74.12448120117188,2.3367409706115723,-10.802638053894043,-190.65390014648438,86.3338394165039,298.97088623046875,-33.0,10.350000381469727,-8.40000057220459
6.89,72.89865112304688,4.175487995147705,-11.683704376220703,-194.38436889648438,87.0,309.0964660644531,-34.5,8.100000381469727,-6.600000381469727
6.9,72.05589294433594,4.520252704620361,-13.905523300170898,-193.45175170898438,82.7365951538086,321.7534484863281,-34.95000076293945,8.700000762939453,-7.500000476837158
6.91,71.59620666503906,5.784391403198242,-13.599065780639648,-175.865234375,70.21286010742188,320.5543518066406,-34.05000305175781,5.700000286102295,-5.850000381469727
6.929,70.40868377685547,7.163451671600342,-14.748282432556152,-161.34303283691406,67.28177642822266,324.6845397949219,-35.55000305175781,5.400000095367432,-5.100000381469727
6.933,69.10623931884766,8.389283180236816,-13.139378547668457,-137.3614044189453,65.15007781982422,324.151611328125,-35.55000305175781,5.400000095367432,-5.100000381469727
6.94,67.65056610107422,8.887276649475098,-12.871228218078613,-124.03828430175781,63.28483963012695,323.218994140625,-37.05000305175781,3.450000047683716,-4.650000095367432
6.95,65.96504211425781,8.159439086914062,-13.21599292755127,-95.26033782958984,66.61561584472656,316.0245056152344,-37.95000076293945,2.4000000953674316,-3.450000047683716
6.96,62.59400939941406,7.354987621307373,-12.717999458312988,-82.6033706665039,68.34762573242188,325.88360595703125,-39.0,2.25,-2.5500001907348633
6.97,60.678646087646484,5.363011837005615,-13.330915451049805,-66.21592712402344,74.47626495361328,331.47930908203125,-37.5,1.8000000715255737,-4.650000095367432
6.99,58.64836502075195,2.6431987285614014,-11.951854705810547,-53.95865249633789,76.07503509521484,335.2098083496094,-37.5,1.8000000715255737,-4.650000095367432
6.994,56.80961608886719,-0.4596867263317108,-11.951854705810547,-62.21898651123047,89.26493072509766,333.34454345703125,-40.05000305175781,-1.8000000715255737,-3.6000001430511475
7.0,56.57977294921875,-9.002198219299316,-11.1474027633667,-59.02143859863281,88.99846649169922,349.3323059082031,-42.30000305175781,-2.700000047683716,-1.350000023841858
7.01,58.07375717163086,-10.994174003601074,-9.576807022094727,-71.81163787841797,95.66002655029297,318.02294921875,-40.5,-4.200000286102295,-1.8000000715255737
7.02,61.17664337158203,-14.020444869995117,-7.354987621307373,-86.3338394165039,90.86370086669922,317.8897399902344,-40.20000076293945,-5.100000381469727,-2.700000047683716
7.03,64.6242904663086,-15.820884704589844,-5.784391403198242,-98.85757446289062,88.19908142089844,304.83306884765625,-40.20000076293945,-5.100000381469727,-2.700000047683716
7.05,69.10623931884766,-16.70195198059082,-4.213795185089111,-112.98008728027344,93.2618637084961,285.3813171386719,-40.95000076293945,-7.800000190734863,-0.45000001788139343
7.053,74.7374038696289,-15.207969665527344,-4.941632270812988,-130.30015563964844,90.99693298339844,267.1286315917969,-42.0,-10.350000381469727,-0.6000000238418579
7.06,79.37257385253906,-14.020444869995117,-8.465897560119629,-128.56814575195312,83.26952362060547,262.06585693359375,-42.30000305175781,-11.100000381469727,-0.30000001192092896
7.07,81.97746276855469,-13.445837020874023,-10.342951774597168,-140.1592559814453,86.73353576660156,229.29095458984375,-41.25,-10.050000190734863,0.30000001192092896
7.08,84.08436584472656,-14.020444869995117,-12.449849128723145,-146.28790283203125,85.66768646240234,200.11331176757812,-41.25,-10.050000190734863,0.30000001192092896
7.09,87.76185607910156,-9.53849983215332,-12.334927558898926,-130.56661987304688,80.60489654541016,202.511474609375,-43.05000305175781,-12.300000190734863,1.0500000715255737
7.109,90.71151733398438,-4.098873138427734,-10.228029251098633,-109.24961853027344,83.80245208740234,185.85757446289062,-42.150001525878906,-14.100000381469727,0.9000000357627869
7.112,93.58455657958984,3.6774938106536865,-10.496180534362793,-92.06278228759766,78.87289428710938,181.8606414794922,-42.150001525878906,-14.100000381469727,0.9000000357627869
7.12,93.16317749023438,3.2561142444610596,-9.84495735168457,-72.0781021118164,71.67840576171875,182.39356994628906,-41.70000076293945,-15.15000057220459,1.9500000476837158
7.13,91.17120361328125,0.2298433631658554,-10.189722061157227,-47.56355285644531,71.2787094116211,162.00918579101562,-41.70000076293945,-15.15000057220459,1.9500000476837158
7.14,90.06028747558594,-3.2178070545196533,-10.84094524383545,-26.246553421020508,67.68146514892578,136.4287872314453,-41.70000076293945,-15.15000057220459,1.9500000476837158
7.15,90.32844543457031,-8.159439086914062,-11.60708999633789,-9.326186180114746,58.4885139465332,103.38744354248047,-42.45000076293945,-17.100000381469727,2.700000047683716
7.17,89.2558364868164,-9.998186111450195,-10.649409294128418,9.059723854064941,39.30321502685547,83.80245208740234,-42.75,-17.400001525878906,2.5500001907348633
7.173,89.40906524658203,-13.79060173034668,-8.35097599029541,24.248085021972656,27.578866958618164,52.493106842041016,-40.650001525878906,-18.75,3.450000047683716
7.18,89.33245086669922,-17.1999454498291,-9.653421401977539,15.321592330932617,33.70750427246094,30.509952545166016,-40.650001525878906,-18.75,3.450000047683716
7.19,91.32443237304688,-16.089035034179688,-6.933608055114746,28.644716262817383,22.782541275024414,20.784072875976562,-40.650001525878906,-18.75,3.450000047683716
7.2,91.74581146240234,-14.441824913024902,-4.405331134796143,38.90352249145508,11.457886695861816,8.260336875915527,-42.45000076293945,-17.55000114440918,3.750000238418579
7.21,94.35070037841797,-17.00840950012207,0.9193734526634216,42.633995056152344,9.592649459838867,-33.57427215576172,-42.45000076293945,-18.30000114440918,2.700000047683716
7.226,96.03621673583984,-21.37543296813965,1.1109095811843872,93.2618637084961,-8.793261528015137,-77.67381286621094,-42.0,-18.450000762939453,3.9000000953674316
7.23,95.23176574707031,-23.405715942382812,-1.5705963373184204,119.10872650146484,-9.992342948913574,-79.0061264038086,-42.0,-18.450000762939453,3.9000000953674316
7.24,93.16317749023438,-24.44001007080078,-3.6391866207122803,147.62020874023438,-12.124042510986328,-114.57886505126953,-42.0,-18.450000762939453,3.9000000953674316
7.25,94.08255004882812,-24.13355255126953,-2.911349296569824,179.32923889160156,-13.189892768859863,-132.6983184814453,-43.650001525878906,-17.55000114440918,2.25
7.26,92.62687683105469,-26.623523712158203,-0.727837324142456,212.37059020996094,-36.10566711425781,-140.95864868164062,-43.650001525878906,-17.55000114440918,2.700000047683716
7.27,91.40104675292969,-28.653806686401367,1.0342950820922852,228.22511291503906,-50.36140823364258,-159.74424743652344,-43.20000076293945,-16.80000114440918,2.25
7.289,88.71953582763672,-30.837318420410156,4.788403511047363,235.28636169433594,-72.87748718261719,-186.25726318359375,-42.900001525878906,-15.90000057220459,3.450000047683716
7.293,86.26787567138672,-34.70634841918945,6.627150535583496,239.016845703125,-80.07197570800781,-189.5880584716797,-43.80000305175781,-15.750000953674316,2.1000001430511475
7.3,85.42511749267578,-33.82528305053711,6.742072105407715,243.679931640625,-102.32159423828125,-224.8943328857422,-43.80000305175781,-15.750000953674316,2.1000001430511475
7.31,85.88480377197266,-34.70634841918945,5.899312973022461,258.6018371582031,-123.37212371826172,-189.5880584716797,-43.5,-15.000000953674316,1.8000000715255737
7.32,83.50975799560547,-31.871612548828125,6.167463779449463,248.34303283691406,-130.30015563964844,-220.36447143554688,-44.70000076293945,-14.850000381469727,1.6500000953674316
7.339,82.74361419677734,-30.4925537109375,6.473921298980713,266.595703125,-150.151611328125,-213.16998291015625,-41.70000076293945,-13.65000057220459,0.9000000357627869
7.343,80.40686798095703,-29.113492965698242,7.048529624938965,269.1271057128906,-162.40887451171875,-238.084228515625,-43.5,-10.800000190734863,0.0
7.35,80.33025360107422,-29.879636764526367,5.937620162963867,274.45635986328125,-168.27105712890625,-241.41500854492188,-43.5,-10.800000190734863,0.0
7.36,80.33025360107422,-31.488540649414062,6.435614109039307,282.3169860839844,-177.86370849609375,-252.73965454101562,-43.650001525878906,-10.5,-1.2000000476837158
7.37,79.98548889160156,-34.284969329833984,7.163451671600342,279.6523742675781,-195.050537109375,-263.93109130859375,-43.20000076293945,-9.0,-2.25
7.38,83.7396011352539,-36.621707916259766,6.818686485290527,263.66461181640625,-194.6508331298828,-302.16845703125,-42.75,-6.900000095367432,-2.8500001430511475
7.39,85.38681030273438,-37.27293395996094,7.508216381072998,243.41346740722656,-201.84532165527344,-326.949462890625,-42.75,-6.900000095367432,-2.8500001430511475
7.403,83.96944427490234,-36.35355758666992,6.588842868804932,212.63705444335938,-210.37213134765625,-354.1286315917969,-43.80000305175781,-5.700000286102295,-6.600000381469727
7.41,83.50975799560547,-34.284969329833984,5.5545477867126465,195.050537109375,-221.83001708984375,-354.5283203125,-43.05000305175781,-4.5,-6.600000381469727
7.42,82.36053466796875,-34.55311965942383,2.145204782485962,145.88819885253906,-199.18069458007812,-374.3797912597656,-41.70000076293945,-3.1500000953674316,-7.050000190734863
7.43,79.14273071289062,-32.25468444824219,-2.183511972427368,110.04900360107422,-195.84991455078125,-363.7212829589844,-41.70000076293945,-3.1500000953674316,-7.050000190734863
7.44,73.24341583251953,-28.73042106628418,-4.6734819412231445,69.81317138671875,-164.67381286621094,-360.1240234375,-41.25,-0.30000001192092896,-9.15000057220459
7.459,69.02962493896484,-24.095245361328125,-5.477933406829834,44.63246536254883,-153.882080078125,-351.9969177246094,-39.45000076293945,1.6500000953674316,-10.350000381469727
7.463,64.85413360595703,-20.76251792907715,-6.742072105407715,5.8621745109558105,-126.83613586425781,-370.2496032714844,-39.30000305175781,2.25,-10.200000762939453
7.47,60.41049575805664,-13.867216110229492,-6.473921298980713,-5.8621745109558105,-123.77182006835938,-338.6737976074219,-38.55000305175781,3.750000238418579,-12.450000762939453
7.48,58.15037155151367,-9.730035781860352,-5.477933406829834,-29.177640914916992,-121.24042510986328,-331.612548828125,-38.55000305175781,3.750000238418579,-12.450000762939453
7.49,56.08177947998047,-2.6431987285614014,-5.094861030578613,-47.9632453918457,-107.11791229248047,-319.6217346191406,-37.80000305175781,6.450000286102295,-12.0
7.5,54.12811279296875,2.5665841102600098,-5.975927352905273,-49.96171569824219,-109.64930725097656,-297.10565185546875,-37.20000076293945,7.500000476837158,-11.850000381469727
7.52,51.02522659301758,5.5545477867126465,-6.320692539215088,-42.76722717285156,-110.71515655517578,-290.8437805175781,-37.05000305175781,10.050000190734863,-13.200000762939453
7.523,49.99093246459961,9.653421401977539,-6.550535678863525,-38.50382614135742,-108.84992218017578,-281.2511291503906,-36.30000305175781,9.600000381469727,-13.200000762939453
7.53,48.343719482421875,10.955866813659668,-6.818686485290527,-42.101070404052734,-97.7917251586914,-278.0535888671875,-36.30000305175781,9.600000381469727,-13.200000762939453
7.54,48.99494171142578,12.871228218078613,-4.9799394607543945,-15.721285820007324,-109.915771484375,-261.13323974609375,-34.650001525878906,10.950000762939453,-14.100000381469727
7.55,50.87199783325195,16.05072784423828,-4.596867084503174,3.4640121459960938,-116.57733154296875,-255.0045928955078,-34.95000076293945,14.850000381469727,-14.100000381469727
7.56,53.59181213378906,16.58702850341797,-4.252102375030518,9.992342948913574,-116.84379577636719,-252.4731903076172,-32.25,15.000000953674316,-15.750000953674316
7.579,57.0777702331543,18.693927764892578,-4.137180328369141,19.31852912902832,-112.18070220947266,-241.68145751953125,-32.70000076293945,15.600000381469727,-14.850000381469727
