time,accel_x,accel_y,accel_z,gyro_x,gyro_y,gyro_z,mag_x,mag_y,mag_z
0.0,76.11646270751953,-16.28057098388672,13.254301071166992,-3.0643184185028076,-6.794793128967285,3.597243309020996,-70.5,-28.950000762939453,-15.750000953674316
0.019,76.76768493652344,-13.905523300170898,12.717999458312988,0.7993874549865723,-1.5987749099731445,-3.9969370365142822,-69.30000305175781,-29.700000762939453,-16.80000114440918
0.023,77.03583526611328,-13.10107135772705,12.411541938781738,0.2664624750614166,-0.7993874549865723,-1.8652373552322388,-69.30000305175781,-29.700000762939453,-16.80000114440918
0.03,76.07815551757812,-13.48414421081543,12.90953540802002,-1.0658499002456665,-3.9969370365142822,-1.9984685182571411,-69.30000305175781,-27.750001907348633,-16.05000114440918
0.04,76.65276336669922,-13.79060173034668,12.48815631866455,-0.2664624750614166,-2.2649309635162354,8.926492691040039,-69.45000457763672,-27.600000381469727,-15.600000381469727
0.05,75.81000518798828,-13.828908920288086,12.90953540802002,-10.392036437988281,7.9938740730285645,-1.4655436277389526,-69.30000305175781,-29.250001907348633,-16.05000114440918
0.06,76.80599212646484,-13.369222640991211,12.90953540802002,-5.595712184906006,2.131699800491333,-5.329249382019043,-69.0,-27.450000762939453,-15.000000953674316
0.07,76.65276336669922,-12.986149787902832,13.062764167785645,-1.4655436277389526,-1.7320060729980469,1.9984685182571411,-69.0,-27.450000762939453,-15.000000953674316
0.089,75.81000518798828,-12.90953540802002,12.986149787902832,0.0,0.1332312375307083,-1.0658499002456665,-69.0,-27.750001907348633,-15.750000953674316
0.093,76.46122741699219,-13.024456977844238,13.369222640991211,2.531393527984619,-3.9969370365142822,1.7320060729980469,-69.9000015258789,-26.100000381469727,-17.100000381469727
0.1,76.537841796875,-12.411541938781738,12.679692268371582,-2.2649309635162354,-5.728943347930908,-7.06125545501709,-69.75,-27.450000762939453,-16.5
0.11,76.38461303710938,-14.441824913024902,13.407529830932617,2.6646246910095215,-0.2664624750614166,0.6661561727523804,-69.0,-28.950000762939453,-15.450000762939453
0.12,76.03984832763672,-13.024456977844238,13.21599292755127,-10.258805274963379,5.8621745109558105,-2.2649309635162354,-69.0,-28.950000762939453,-15.450000762939453
0.13,76.80599212646484,-14.09705924987793,13.024456977844238,-8.926492691040039,5.595712184906006,-3.197549819946289,-69.9000015258789,-28.350000381469727,-15.600000381469727
0.147,76.76768493652344,-12.756306648254395,12.679692268371582,-3.86370587348938,-3.597243309020996,-1.5987749099731445,-70.20000457763672,-27.900001525878906,-17.700000762939453
0.151,76.95922088623047,-13.10107135772705,11.990161895751953,-0.5329249501228333,-5.995405673980713,5.462480545043945,-70.05000305175781,-27.450000762939453,-14.250000953674316
0.16,76.537841796875,-12.334927558898926,13.062764167785645,1.9984685182571411,-3.197549819946289,3.3307809829711914,-69.1500015258789,-29.850000381469727,-16.650001525878906
0.17,76.07815551757812,-13.599065780639648,13.369222640991211,4.263399600982666,-6.661561965942383,1.7320060729980469,-69.1500015258789,-29.850000381469727,-16.650001525878906
0.18,75.9249267578125,-14.250288963317871,13.254301071166992,1.8652373552322388,-0.39969372749328613,-1.8652373552322388,-69.75,-27.450000762939453,-16.80000114440918
0.19,76.34630584716797,-14.058752059936523,13.713987350463867,-4.263399600982666,0.39969372749328613,-10.658498764038086,-68.55000305175781,-27.450000762939453,-16.5
0.203,76.80599212646484,-13.943830490112305,13.292608261108398,-9.992342948913574,0.6661561727523804,-7.594180583953857,-70.80000305175781,-26.55000114440918,-16.80000114440918
0.21,76.19307708740234,-12.29662036895752,12.679692268371582,2.2649309635162354,-5.329249382019043,0.6661561727523804,-68.25,-27.450000762939453,-15.000000953674316
0.22,75.9249267578125,-12.60307788848877,13.48414421081543,3.197549819946289,-7.594180583953857,-1.9984685182571411,-68.25,-27.450000762939453,-15.000000953674316
0.23,76.84429931640625,-13.21599292755127,12.832921028137207,-4.130168437957764,3.597243309020996,-7.72741174697876,-69.1500015258789,-28.80000114440918,-15.15000057220459
0.24,76.23138427734375,-13.637372970581055,13.292608261108398,1.1990811824798584,-3.86370587348938,0.5329249501228333,-69.75,-27.450000762939453,-15.750000953674316
0.25,76.38461303710938,-13.752294540405273,12.7946138381958,5.329249382019043,-1.1990811824798584,-3.9969370365142822,-69.75,-28.200000762939453,-15.000000953674316
0.266,76.92091369628906,-14.250288963317871,12.181697845458984,1.8652373552322388,-3.597243309020996,3.86370587348938,-69.1500015258789,-26.850000381469727,-15.90000057220459
0.27,77.1507568359375,-12.986149787902832,12.947842597961426,-5.8621745109558105,2.9310872554779053,-8.660030364990234,-69.1500015258789,-26.850000381469727,-15.90000057220459
0.28,76.42292022705078,-14.709975242614746,12.373234748840332,0.39969372749328613,-1.5987749099731445,-0.6661561727523804,-70.5,-27.450000762939453,-16.80000114440918
0.29,77.1507568359375,-13.254301071166992,12.334927558898926,0.9326186776161194,-5.8621745109558105,-4.263399600982666,-69.30000305175781,-27.750001907348633,-15.450000762939453
0.3,76.69107055664062,-13.254301071166992,12.02846908569336,-5.995405673980713,6.5283308029174805,-9.059723854064941,-68.70000457763672,-28.350000381469727,-15.600000381469727
0.319,76.23138427734375,-13.21599292755127,12.756306648254395,3.7304747104644775,2.531393527984619,-5.995405673980713,-70.20000457763672,-27.150001525878906,-15.90000057220459
0.323,76.65276336669922,-12.449849128723145,12.832921028137207,-4.529861927032471,9.592649459838867,-6.661561965942383,-70.20000457763672,-27.150001525878906,-15.90000057220459
0.33,76.42292022705078,-13.292608261108398,11.683704376220703,-2.2649309635162354,4.130168437957764,-0.5329249501228333,-70.20000457763672,-27.600000381469727,-16.350000381469727
0.34,76.23138427734375,-13.292608261108398,13.062764167785645,-2.531393527984619,5.995405673980713,-4.663093090057373,-70.80000305175781,-28.200000762939453,-16.80000114440918
0.35,76.4995346069336,-13.369222640991211,11.990161895751953,8.260336875915527,-4.263399600982666,-1.7320060729980469,-69.0,-27.750001907348633,-16.05000114440918
0.36,77.07414245605469,-13.79060173034668,12.181697845458984,-5.196018218994141,6.9280242919921875,0.7993874549865723,-69.0,-27.750001907348633,-16.05000114440918
0.378,76.19307708740234,-13.139378547668457,13.062764167785645,-6.9280242919921875,3.197549819946289,-8.39356803894043,-68.70000457763672,-27.900001525878906,-15.600000381469727
0.382,75.58016204833984,-12.181697845458984,13.024456977844238,-6.9280242919921875,8.660030364990234,-2.797856092453003,-69.0,-28.200000762939453,-15.750000953674316
0.39,77.07414245605469,-12.717999458312988,13.254301071166992,-3.0643184185028076,-0.5329249501228333,2.6646246910095215,-69.45000457763672,-28.350000381469727,-15.600000381469727
0.4,75.50354766845703,-13.139378547668457,12.334927558898926,-4.929555892944336,6.261868000030518,0.9326186776161194,-69.1500015258789,-27.150001525878906,-15.15000057220459
0.41,75.73339080810547,-14.556746482849121,12.679692268371582,-7.860642910003662,5.462480545043945,-0.39969372749328613,-69.1500015258789,-27.150001525878906,-15.15000057220459
0.42,76.72937774658203,-13.139378547668457,13.177685737609863,0.5329249501228333,0.9326186776161194,3.9969370365142822,-69.45000457763672,-26.850000381469727,-15.90000057220459
0.439,76.4995346069336,-13.982137680053711,12.48815631866455,5.8621745109558105,-1.5987749099731445,-2.2649309635162354,-69.30000305175781,-28.500001907348633,-15.750000953674316
0.443,76.30799865722656,-14.748282432556152,12.526463508605957,-4.263399600982666,6.661561965942383,-11.058192253112793,-69.1500015258789,-26.850000381469727,-15.15000057220459
0.45,77.26567840576172,-12.756306648254395,13.522451400756836,0.39969372749328613,6.794793128967285,-9.192955017089844,-69.9000015258789,-26.850000381469727,-16.650001525878906
0.46,77.03583526611328,-13.752294540405273,12.947842597961426,2.797856092453003,1.1990811824798584,-4.263399600982666,-69.9000015258789,-26.850000381469727,-16.650001525878906
0.47,76.95922088623047,-14.135366439819336,13.637372970581055,-7.460949420928955,5.995405673980713,-8.926492691040039,-69.30000305175781,-26.250001907348633,-16.5
0.48,76.46122741699219,-13.752294540405273,13.139378547668457,-2.6646246910095215,8.926492691040039,-4.929555892944336,-70.20000457763672,-27.150001525878906,-16.350000381469727
0.498,77.1507568359375,-12.564770698547363,12.641385078430176,5.728943347930908,-2.398162364959717,-1.1990811824798584,-69.30000305175781,-27.450000762939453,-15.000000953674316
0.504,76.15476989746094,-12.756306648254395,12.947842597961426,-1.8652373552322388,3.0643184185028076,-1.7320060729980469,-68.70000457763672,-26.400001525878906,-15.90000057220459
0.51,78.03182220458984,-14.441824913024902,13.522451400756836,-2.6646246910095215,5.728943347930908,-11.857580184936523,-68.70000457763672,-26.400001525878906,-15.90000057220459
0.52,76.42292022705078,-14.211980819702148,11.875240325927734,-9.992342948913574,8.660030364990234,-11.857580184936523,-67.5,-27.750001907348633,-15.750000953674316
0.53,76.38461303710938,-12.90953540802002,12.986149787902832,5.062787055969238,-2.2649309635162354,3.4640121459960938,-70.6500015258789,-28.80000114440918,-16.650001525878906
0.54,76.4995346069336,-11.453861236572266,13.177685737609863,-6.9280242919921875,8.926492691040039,-7.460949420928955,-70.5,-27.000001907348633,-15.750000953674316
0.559,76.80599212646484,-12.60307788848877,14.058752059936523,-3.3307809829711914,4.529861927032471,-5.329249382019043,-70.20000457763672,-27.150001525878906,-15.600000381469727
0.563,78.18505096435547,-13.752294540405273,13.024456977844238,7.72741174697876,9.059723854064941,-13.58958625793457,-70.20000457763672,-27.150001525878906,-15.600000381469727
0.57,80.06210327148438,-13.599065780639648,13.48414421081543,26.64624786376953,-5.329249382019043,-11.191424369812012,-70.6500015258789,-27.900001525878906,-15.90000057220459
0.58,78.18505096435547,-11.338939666748047,11.72201156616211,21.316997528076172,6.794793128967285,-14.655436515808105,-70.5,-26.55000114440918,-15.750000953674316
0.59,73.6264877319336,-11.530475616455078,13.177685737609863,23.448698043823242,6.661561965942383,-14.788667678833008,-68.25,-27.000001907348633,-15.000000953674316
0.6,74.35432434082031,-15.361198425292969,12.756306648254395,14.12251091003418,0.2664624750614166,-5.595712184906006,-69.9000015258789,-28.350000381469727,-15.600000381469727
0.62,76.5761489868164,-15.054739952087402,14.135366439819336,4.663093090057373,1.9984685182571411,-15.721285820007324,-69.9000015258789,-28.350000381469727,-15.600000381469727
0.623,78.49150848388672,-14.09705924987793,13.752294540405273,15.721285820007324,-7.594180583953857,-10.392036437988281,-69.1500015258789,-27.150001525878906,-15.600000381469727
0.63,79.6024169921875,-10.994174003601074,12.947842597961426,16.78713607788086,-5.329249382019043,-22.382848739624023,-69.1500015258789,-27.150001525878906,-15.600000381469727
0.64,75.77169799804688,-10.649409294128418,9.308655738830566,12.790199279785156,-7.9938740730285645,-1.7320060729980469,-69.75,-28.200000762939453,-16.80000114440918
0.65,72.89865112304688,-9.806650161743164,13.407529830932617,10.658498764038086,-7.72741174697876,3.4640121459960938,-69.30000305175781,-26.55000114440918,-16.80000114440918
0.66,75.00555419921875,-8.197746276855469,15.897499084472656,5.595712184906006,-8.926492691040039,7.594180583953857,-69.30000305175781,-26.55000114440918,-16.80000114440918
0.68,79.0278091430664,-8.427590370178223,16.242263793945312,7.72741174697876,-17.852985382080078,16.520673751831055,-69.9000015258789,-26.850000381469727,-16.650001525878906
0.683,78.989501953125,-9.308655738830566,15.24627685546875,-13.856048583984375,-8.660030364990234,25.580398559570312,-69.9000015258789,-26.850000381469727,-14.850000381469727
0.69,78.29997253417969,-10.764330863952637,15.591041564941406,-16.920366287231445,-16.12097930908203,21.316997528076172,-69.9000015258789,-26.850000381469727,-14.850000381469727
0.7,77.49552154541016,-10.304644584655762,16.012420654296875,-13.056661605834961,-17.719755172729492,37.304744720458984,-69.9000015258789,-26.850000381469727,-14.850000381469727
0.71,75.58016204833984,-13.752294540405273,12.90953540802002,-10.125574111938477,-18.91883659362793,42.90045928955078,-69.75,-27.750001907348633,-16.5
0.72,75.50354766845703,-12.871228218078613,13.675680160522461,-15.055130004882812,-10.92496109008789,26.912710189819336,-68.70000457763672,-27.600000381469727,-15.600000381469727
0.739,74.89063262939453,-13.062764167785645,12.105083465576172,-15.721285820007324,-8.526799201965332,25.313934326171875,-70.6500015258789,-29.100000381469727,-16.650001525878906
0.743,73.51156616210938,-12.449849128723145,12.373234748840332,-15.721285820007324,-7.594180583953857,22.249616622924805,-68.70000457763672,-29.100000381469727,-16.650001525878906
0.75,74.62248229980469,-14.173673629760742,6.435614109039307,-0.6661561727523804,-8.39356803894043,26.246553421020508,-68.70000457763672,-29.100000381469727,-16.650001525878906
0.76,75.3503189086914,-15.361198425292969,6.550535678863525,4.529861927032471,2.398162364959717,19.718223571777344,-69.1500015258789,-28.80000114440918,-18.450000762939453
0.77,76.72937774658203,-19.038692474365234,4.711789131164551,17.986217498779297,-0.39969372749328613,22.382848739624023,-69.0,-29.250001907348633,-17.25
0.78,75.69508361816406,-19.958065032958984,5.018246650695801,19.584991455078125,-1.5987749099731445,15.987748146057129,-69.1500015258789,-27.150001525878906,-17.400001525878906
0.8,76.61445617675781,-19.000385284423828,6.090848922729492,13.323123931884766,14.255742073059082,7.194486618041992,-68.4000015258789,-29.100000381469727,-17.100000381469727
0.804,75.50354766845703,-15.207969665527344,7.508216381072998,16.25421142578125,13.58958625793457,9.192955017089844,-68.25,-29.700000762939453,-18.30000114440918
0.81,76.80599212646484,-14.058752059936523,10.15141487121582,16.65390396118164,3.597243309020996,17.453292846679688,-68.25,-29.700000762939453,-18.30000114440918
0.82,76.07815551757812,-13.867216110229492,8.695740699768066,11.058192253112793,16.65390396118164,11.857580184936523,-70.20000457763672,-29.55000114440918,-17.700000762939453
0.83,75.3503189086914,-12.105083465576172,11.836933135986328,6.261868000030518,20.784072875976562,5.995405673980713,-69.75,-29.700000762939453,-16.80000114440918
0.84,74.6607894897461,-7.6997528076171875,14.250288963317871,1.1990811824798584,25.580398559570312,8.127105712890625,-69.75,-30.150001525878906,-16.80000114440918
0.859,74.00955963134766,-6.512228488922119,15.399505615234375,-0.1332312375307083,22.782541275024414,17.453292846679688,-69.75,-30.150001525878906,-16.80000114440918
0.863,75.9249267578125,-3.9456443786621094,15.207969665527344,4.396630764007568,23.04900360107422,21.583459854125977,-69.45000457763672,-30.30000114440918,-15.90000057220459
0.87,76.03984832763672,-9.117119789123535,22.333112716674805,8.260336875915527,27.84532928466797,11.591117858886719,-69.45000457763672,-30.30000114440918,-15.90000057220459
0.88,76.537841796875,-16.05072784423828,14.939818382263184,14.655436515808105,18.385910034179688,23.315465927124023,-69.9000015258789,-30.600000381469727,-15.90000057220459
0.89,78.07012939453125,-24.938005447387695,7.201758861541748,4.663093090057373,19.31852912902832,17.986217498779297,-70.20000457763672,-31.500001907348633,-16.350000381469727
0.9,75.23539733886719,-27.696125030517578,8.121131896972656,-3.9969370365142822,33.57427215576172,18.652372360229492,-70.20000457763672,-31.500001907348633,-16.350000381469727
0.919,74.58417510986328,-19.728221893310547,5.5545477867126465,-6.5283308029174805,31.575803756713867,23.715160369873047,-69.75,-30.900001525878906,-15.750000953674316
0.923,77.95520782470703,-6.3973069190979,10.496180534362793,19.45176124572754,20.117916107177734,36.372127532958984,-69.30000305175781,-31.650001525878906,-16.05000114440918
0.93,76.80599212646484,-3.2178070545196533,15.552734375,22.249616622924805,30.24349021911621,41.168453216552734,-68.70000457763672,-32.25,-14.100000381469727
0.94,75.84831237792969,-6.320692539215088,15.016432762145996,36.771820068359375,22.116384506225586,40.36906433105469,-68.70000457763672,-32.25,-14.100000381469727
0.95,75.15878295898438,-16.970102310180664,20.532672882080078,37.57120895385742,11.324655532836914,46.497703552246094,-68.70000457763672,-32.25,-14.100000381469727
0.96,75.46524047851562,-20.379444122314453,21.56696891784668,21.983154296875,15.721285820007324,44.49923324584961,-69.0,-31.200000762939453,-16.80000114440918
0.979,73.93294525146484,-23.482330322265625,20.264522552490234,5.062787055969238,19.45176124572754,35.705970764160156,-69.1500015258789,-32.25,-14.850000381469727
0.982,73.81802368164062,-24.59324073791504,16.740259170532227,7.860642910003662,12.124042510986328,33.4410400390625,-69.1500015258789,-33.75,-16.350000381469727
0.99,75.84831237792969,-21.605276107788086,12.756306648254395,4.796324729919434,10.258805274963379,29.577335357666016,-69.1500015258789,-33.75,-16.350000381469727
1.0,78.4148941040039,-20.226215362548828,12.679692268371582,6.5283308029174805,21.050535202026367,21.050535202026367,-69.0,-34.35000228881836,-14.250000953674316
1.01,78.3382797241211,-18.04270362854004,11.453861236572266,14.92189884185791,18.519142150878906,11.591117858886719,-69.1500015258789,-31.80000114440918,-15.15000057220459
1.02,78.03182220458984,-18.310853958129883,15.897499084472656,35.306278228759766,6.395099639892578,10.92496109008789,-68.55000305175781,-34.80000305175781,-14.250000953674316
1.039,79.18103790283203,-20.992361068725586,9.232041358947754,33.17457962036133,10.125574111938477,4.263399600982666,-68.55000305175781,-34.80000305175781,-14.250000953674316
1.042,74.6607894897461,-29.03687858581543,12.373234748840332,6.661561965942383,22.116384506225586,-8.926492691040039,-70.05000305175781,-33.150001525878906,-14.250000953674316
1.05,75.12047576904297,-26.470293045043945,12.832921028137207,-4.529861927032471,18.119447708129883,-10.392036437988281,-69.30000305175781,-35.10000228881836,-14.250000953674316
1.06,76.15476989746094,-23.175872802734375,13.21599292755127,-5.995405673980713,10.791729927062988,0.2664624750614166,-68.70000457763672,-33.0,-13.65000057220459
1.07,74.7374038696289,-17.391481399536133,16.70195198059082,-9.059723854064941,21.983154296875,-5.329249382019043,-68.70000457763672,-34.20000076293945,-14.40000057220459
1.08,75.08216857910156,-16.35718536376953,16.778566360473633,-12.790199279785156,13.856048583984375,-5.595712184906006,-68.70000457763672,-34.20000076293945,-14.40000057220459
1.099,75.69508361816406,-17.276559829711914,17.697938919067383,-11.591117858886719,9.326186180114746,8.926492691040039,-69.0,-33.60000228881836,-13.950000762939453
1.103,76.38461303710938,-17.92778205871582,17.50640296936035,-24.248085021972656,9.859111785888672,2.2649309635162354,-70.05000305175781,-33.60000228881836,-14.700000762939453
1.11,74.85232543945312,-18.004396438598633,20.341136932373047,-31.176109313964844,9.192955017089844,1.8652373552322388,-68.70000457763672,-35.25,-13.350000381469727
1.12,74.6607894897461,-15.093047142028809,18.962078094482422,-30.37672233581543,15.987748146057129,-2.131699800491333,-69.75,-33.900001525878906,-13.500000953674316
1.13,73.81802368164062,-17.544710159301758,18.502389907836914,-32.64165496826172,0.2664624750614166,8.660030364990234,-69.75,-33.900001525878906,-13.500000953674316
1.14,76.15476989746094,-17.046716690063477,20.609289169311523,-28.644716262817383,5.062787055969238,7.72741174697876,-68.70000457763672,-34.20000076293945,-14.100000381469727
1.159,73.74140930175781,-11.951854705810547,17.42978858947754,-9.459418296813965,0.5329249501228333,7.460949420928955,-68.70000457763672,-32.25,-15.15000057220459
1.163,76.69107055664062,-12.334927558898926,16.89348793029785,6.261868000030518,0.2664624750614166,14.92189884185791,-67.5,-33.60000228881836,-15.000000953674316
1.17,75.9249267578125,-11.683704376220703,16.58702850341797,21.316997528076172,-5.8621745109558105,16.65390396118164,-68.70000457763672,-33.75,-14.40000057220459
1.18,74.2394027709961,-14.326903343200684,17.31486701965332,21.84992218017578,-3.9969370365142822,13.189892768859863,-68.70000457763672,-33.75,-14.40000057220459
1.19,74.20109558105469,-18.157625198364258,14.211980819702148,19.185298919677734,-0.6661561727523804,18.119447708129883,-67.20000457763672,-34.5,-13.350000381469727
1.2,74.08617401123047,-19.115306854248047,15.705963134765625,27.17917251586914,-8.127105712890625,20.251148223876953,-70.6500015258789,-34.5,-14.100000381469727
1.215,75.3503189086914,-15.629348754882812,18.157625198364258,30.90964698791504,-0.39969372749328613,21.583459854125977,-69.75,-36.30000305175781,-15.450000762939453
1.22,73.97125244140625,-11.798625946044922,18.693927764892578,34.773353576660156,-4.130168437957764,23.98162269592285,-70.5,-34.80000305175781,-12.750000953674316
1.23,73.93294525146484,-13.10107135772705,17.73624610900879,48.76263427734375,-13.189892768859863,34.10719680786133,-70.5,-34.80000305175781,-12.750000953674316
1.24,76.61445617675781,-18.88546371459961,16.548721313476562,44.23276901245117,-16.25421142578125,30.643184661865234,-69.9000015258789,-34.95000076293945,-13.350000381469727
1.25,79.10442352294922,-28.692113876342773,11.185709953308105,6.261868000030518,-3.3307809829711914,23.448698043823242,-69.30000305175781,-33.150001525878906,-13.500000953674316
1.26,76.46122741699219,-28.040889739990234,12.641385078430176,-13.989279747009277,-9.72588062286377,20.117916107177734,-69.0,-34.35000228881836,-13.950000762939453
1.279,77.61044311523438,-20.30282974243164,9.806650161743164,-1.5987749099731445,-5.196018218994141,28.77794647216797,-69.1500015258789,-35.25,-13.050000190734863
1.282,76.5761489868164,-16.28057098388672,13.637372970581055,-2.797856092453003,-1.5987749099731445,25.980091094970703,-69.1500015258789,-35.25,-13.050000190734863
1.29,76.11646270751953,-18.732234954833984,14.020444869995117,-5.728943347930908,-2.131699800491333,32.108726501464844,-67.95000457763672,-34.95000076293945,-14.100000381469727
1.3,74.85232543945312,-21.796812057495117,15.399505615234375,-3.9969370365142822,-13.722817420959473,27.978559494018555,-68.4000015258789,-37.20000076293945,-14.100000381469727
1.31,75.15878295898438,-19.421764373779297,15.935806274414062,-2.9310872554779053,-11.191424369812012,35.705970764160156,-68.25,-36.30000305175781,-13.200000762939453
1.32,75.3503189086914,-17.238252639770508,18.081010818481445,-8.793261528015137,-7.9938740730285645,38.90352249145508,-69.30000305175781,-35.55000305175781,-14.700000762939453
1.332,74.3160171508789,-15.935806274414062,19.038692474365234,1.5987749099731445,-17.586523056030273,47.297088623046875,-69.30000305175781,-35.55000305175781,-14.700000762939453
1.34,73.89463806152344,-18.310853958129883,17.92778205871582,0.7993874549865723,-21.316997528076172,50.09494400024414,-67.20000457763672,-36.45000076293945,-14.40000057220459
1.35,74.39263153076172,-17.889474868774414,19.153614044189453,2.131699800491333,-21.84992218017578,54.4915771484375,-67.80000305175781,-38.55000305175781,-14.700000762939453
1.36,74.58417510986328,-17.73624610900879,19.038692474365234,0.5329249501228333,-13.722817420959473,56.22358322143555,-69.0,-38.25,-15.000000953674316
1.37,75.2737045288086,-18.579004287719727,17.851167678833008,-4.663093090057373,-13.722817420959473,55.95711898803711,-66.9000015258789,-37.650001525878906,-14.40000057220459
1.38,74.58417510986328,-17.851167678833008,17.468095779418945,0.1332312375307083,-22.782541275024414,68.88054656982422,-66.9000015258789,-37.650001525878906,-14.40000057220459
1.395,75.2737045288086,-19.306842803955078,18.808849334716797,-7.460949420928955,-17.32006072998047,55.69065856933594,-67.6500015258789,-39.60000228881836,-14.850000381469727
1.4,73.12849426269531,-26.087221145629883,13.828908920288086,-6.661561965942383,-22.51607894897461,64.3506851196289,-67.6500015258789,-39.60000228881836,-14.850000381469727
1.41,73.0135726928711,-26.700138092041016,12.679692268371582,-11.990811347961426,-26.64624786376953,69.67993927001953,-66.30000305175781,-39.75,-16.05000114440918
1.42,74.62248229980469,-23.3291015625,11.185709953308105,-4.663093090057373,-24.64777946472168,68.4808578491211,-66.30000305175781,-39.75,-16.05000114440918
1.43,75.15878295898438,-22.141576766967773,12.641385078430176,-5.062787055969238,-21.183767318725586,71.2787094116211,-67.6500015258789,-38.85000228881836,-14.40000057220459
1.449,74.2777099609375,-23.903709411621094,13.905523300170898,-4.929555892944336,-17.719755172729492,73.54364013671875,-67.05000305175781,-40.95000076293945,-14.700000762939453
1.453,73.20510864257812,-22.448034286499023,15.552734375,0.6661561727523804,-22.51607894897461,77.80704498291016,-66.45000457763672,-40.650001525878906,-14.100000381469727
1.46,77.03583526611328,-25.20615577697754,15.705963134765625,-5.062787055969238,-23.315465927124023,79.67227935791016,-67.95000457763672,-43.05000305175781,-14.40000057220459
1.47,76.65276336669922,-26.01060676574707,17.62132453918457,-12.656967163085938,-22.915773391723633,83.66921997070312,-67.95000457763672,-43.05000305175781,-14.40000057220459
1.48,78.03182220458984,-27.044902801513672,14.633360862731934,-10.92496109008789,-32.64165496826172,88.99846649169922,-65.25,-42.900001525878906,-16.05000114440918
1.49,78.87458038330078,-31.10546875,15.016432762145996,-17.186830520629883,-30.37672233581543,102.58805084228516,-66.45000457763672,-43.5,-15.15000057220459
1.509,79.44918823242188,-41.83149337768555,13.369222640991211,-49.29555892944336,-27.978559494018555,92.3292465209961,-65.55000305175781,-42.900001525878906,-16.5
1.513,77.763671875,-19.99637222290039,12.641385078430176,-15.854516983032227,-21.583459854125977,90.59724426269531,-64.6500015258789,-44.25,-15.600000381469727
1.521,78.29997253417969,-12.258312225341797,18.693927764892578,7.06125545501709,-27.71209716796875,126.96936798095703,-64.6500015258789,-44.25,-15.600000381469727
1.53,82.16899871826172,-32.676063537597656,19.230228424072266,-35.705970764160156,-32.77488327026367,107.11791229248047,-66.45000457763672,-45.30000305175781,-15.90000057220459
1.54,86.1146469116211,-37.96246337890625,16.05072784423828,-53.026031494140625,-33.84073257446289,102.18836212158203,-64.20000457763672,-46.5,-15.90000057220459
1.55,85.15696716308594,-28.155811309814453,16.35718536376953,-52.626338958740234,-44.36600112915039,110.04900360107422,-65.25,-46.35000228881836,-18.30000114440918
1.569,93.39302062988281,-22.2948055267334,17.238252639770508,-53.69218826293945,-52.093414306640625,115.37825012207031,-64.5,-47.55000305175781,-18.0
1.573,98.98587799072266,-22.754493713378906,15.361198425292969,-55.4241943359375,-47.297088623046875,129.90045166015625,-64.5,-47.55000305175781,-18.0
1.58,94.46562194824219,-23.367408752441406,15.169661521911621,-57.955589294433594,-49.29555892944336,129.10107421875,-62.55000305175781,-47.55000305175781,-19.5
1.59,93.20148468017578,-24.286781311035156,14.288596153259277,-59.02143859863281,-57.955589294433594,147.35374450683594,-62.250003814697266,-49.05000305175781,-17.55000114440918
1.6,95.99790954589844,-23.52063751220703,15.169661521911621,-74.8759536743164,-51.82695007324219,152.54977416992188,-63.000003814697266,-48.30000305175781,-18.30000114440918
1.61,94.15916442871094,-24.708162307739258,16.510414123535156,-85.13475799560547,-55.82388687133789,165.73965454101562,-61.500003814697266,-49.500003814697266,-19.5
1.629,92.47364807128906,-29.266721725463867,14.824896812438965,-90.33078002929688,-57.422664642333984,178.5298614501953,-61.500003814697266,-49.500003814697266,-19.5
1.633,91.86073303222656,-27.542896270751953,15.667655944824219,-110.18223571777344,-57.15620040893555,184.1255645751953,-59.250003814697266,-51.000003814697266,-19.5
1.64,91.82242584228516,-30.37763023376465,12.526463508605957,-123.37212371826172,-45.298622131347656,175.19908142089844,-59.250003814697266,-51.000003814697266,-19.80000114440918
1.65,92.28211212158203,-34.01681900024414,8.65743350982666,-141.4915771484375,-44.36600112915039,183.1929473876953,-59.400001525878906,-51.900001525878906,-21.150001525878906
1.66,92.89502716064453,-32.25468444824219,6.052541732788086,-148.68606567382812,-53.558956146240234,190.38743591308594,-60.750003814697266,-50.55000305175781,-22.05000114440918
1.67,94.92530822753906,-26.2021427154541,2.4899697303771973,-170.93568420410156,-51.4272575378418,183.99234008789062,-60.750003814697266,-50.55000305175781,-22.05000114440918
1.689,95.7297592163086,-18.847156524658203,-0.5363011956214905,-168.67074584960938,-56.356815338134766,193.3185272216797,-57.000003814697266,-52.500003814697266,-20.850000381469727
1.693,99.13910675048828,-12.258312225341797,-0.1149216815829277,-180.5283203125,-72.61102294921875,209.03981018066406,-54.900001525878906,-53.10000228881836,-23.25
1.7,100.86293029785156,-12.60307788848877,-6.320692539215088,-197.0489959716797,-74.60948944091797,229.82388305664062,-54.900001525878906,-53.10000228881836,-23.25
1.71,101.6673812866211,-10.994174003601074,-1.4173674583435059,-217.96630859375,-74.47626495361328,233.42112731933594,-54.750003814697266,-53.70000076293945,-23.850000381469727
1.72,103.73596954345703,3.141192674636841,-2.183511972427368,-209.57273864746094,-80.47166442871094,231.68911743164062,-54.750003814697266,-53.70000076293945,-23.850000381469727
1.73,103.46781921386719,15.054739952087402,3.485957622528076,-169.0704345703125,-89.66461944580078,263.3981628417969,-52.80000305175781,-55.20000076293945,-26.100000381469727
1.749,103.77427673339844,16.089035034179688,5.51624059677124,-161.7427215576172,-81.00459289550781,267.7947998046875,-51.900001525878906,-53.55000305175781,-25.80000114440918
1.753,103.04644012451172,10.457873344421387,4.596867084503174,-144.42266845703125,-70.87902069091797,265.52984619140625,-51.000003814697266,-54.45000076293945,-26.400001525878906
1.76,95.92129516601562,3.44765043258667,-0.9959878921508789,-114.44563293457031,-71.2787094116211,284.848388671875,-51.000003814697266,-54.45000076293945,-26.400001525878906
1.77,90.74982452392578,-3.9839515686035156,-5.51624059677124,-67.94792938232422,-65.28330993652344,298.4379577636719,-51.000003814697266,-54.45000076293945,-26.400001525878906
1.78,89.10260772705078,-22.984336853027344,-6.01423454284668,-41.83460998535156,-54.75803756713867,291.376708984375,-48.0,-55.20000076293945,-28.200000762939453
1.79,90.32844543457031,-38.57537841796875,4.941632270812988,-43.56661605834961,-63.684532165527344,260.3338317871094,-46.05000305175781,-57.900001525878906,-28.950000762939453
1.809,91.97565460205078,-35.702335357666016,-0.07661445438861847,9.859111785888672,-58.62174606323242,254.33843994140625,-46.5,-57.150001525878906,-28.200000762939453
1.813,82.20730590820312,-28.768728256225586,16.548721313476562,90.33078002929688,-52.3598747253418,259.00152587890625,-43.20000076293945,-58.95000076293945,-28.05000114440918
1.82,67.91871643066406,-31.29700469970703,20.226215362548828,121.90658569335938,-38.37059783935547,262.99847412109375,-43.20000076293945,-58.95000076293945,-28.05000114440918
1.83,53.89826965332031,-41.065345764160156,19.38345718383789,121.64012145996094,-10.791729927062988,243.679931640625,-43.20000076293945,-60.45000076293945,-27.000001907348633
1.84,32.982521057128906,-57.99714279174805,37.57939147949219,26.779478073120117,13.189892768859863,118.44257354736328,-42.75,-60.60000228881836,-28.650001525878906
1.85,35.510799407958984,-58.87820816040039,27.58120346069336,-70.21286010742188,18.2526798248291,33.17457962036133,-40.95000076293945,-61.20000076293945,-25.80000114440918
1.869,41.065345764160156,-26.278757095336914,23.099258422851562,-123.77182006835938,13.189892768859863,-37.70444107055664,-40.95000076293945,-61.20000076293945,-25.80000114440918
1.873,46.313438415527344,6.933608055114746,11.070788383483887,-63.684532165527344,28.77794647216797,-99.65696716308594,-43.650001525878906,-61.20000076293945,-25.80000114440918
1.88,38.115692138671875,41.90810775756836,13.48414421081543,-10.92496109008789,38.77029037475586,-127.23583221435547,-43.650001525878906,-61.20000076293945,-25.80000114440918
1.89,35.43418502807617,44.512996673583984,11.070788383483887,67.68146514892578,55.69065856933594,-177.86370849609375,-42.150001525878906,-58.500003814697266,-24.750001907348633
1.9,33.212364196777344,32.599449157714844,6.473921298980713,131.89892578125,63.018375396728516,-211.83766174316406,-44.55000305175781,-57.900001525878906,-26.400001525878906
1.91,32.21637725830078,7.010222434997559,6.971915245056152,130.56661987304688,75.94180297851562,-266.595703125,-44.55000305175781,-57.900001525878906,-26.400001525878906
1.929,33.90189743041992,-10.5344877243042,8.427590370178223,109.78253936767578,85.4012222290039,-313.8927917480469,-46.650001525878906,-55.35000228881836,-24.0
1.932,33.7486686706543,-17.62132453918457,7.967903137207031,86.20060729980469,96.99234008789062,-374.77947998046875,-48.750003814697266,-54.000003814697266,-20.55000114440918
1.94,36.16202163696289,-17.353174209594727,8.274360656738281,83.66921997070312,95.66002655029297,-394.3644714355469,-51.000003814697266,-52.95000076293945,-20.100000381469727
1.95,39.226600646972656,-14.824896812438965,8.810662269592285,76.34149932861328,98.05818939208984,-432.4685974121094,-51.000003814697266,-52.95000076293945,-20.100000381469727
1.96,46.619895935058594,-15.552734375,9.921571731567383,52.226646423339844,106.18529510498047,-473.23736572265625,-53.400001525878906,-47.70000076293945,-17.400001525878906
1.97,55.085792541503906,-18.310853958129883,10.879252433776855,41.168453216552734,104.98621368408203,-502.0152893066406,-56.55000305175781,-44.400001525878906,-17.55000114440918
1.99,61.636329650878906,-20.187908172607422,8.312667846679688,44.23276901245117,98.05818939208984,-516.1378173828125,-58.500003814697266,-42.900001525878906,-16.80000114440918
1.994,66.61626434326172,-24.171859741210938,6.320692539215088,35.306278228759766,102.18836212158203,-548.2465209960938,-58.95000076293945,-38.400001525878906,-15.15000057220459
2.0,75.31201171875,-31.335311889648438,7.661445617675781,24.781009674072266,103.7871322631836,-562.635498046875,-58.95000076293945,-38.400001525878906,-15.15000057220459
2.013,79.48749542236328,-31.948226928710938,6.856993675231934,23.715160369873047,110.18223571777344,-585.151611328125,-61.650001525878906,-30.30000114440918,-12.600000381469727
2.02,88.98768615722656,-30.37763023376465,5.1331682205200195,39.569679260253906,100.45635223388672,-578.2235717773438,-61.95000076293945,-27.900001525878906,-12.600000381469727
2.03,92.62687683105469,-31.986534118652344,3.5242648124694824,33.04134750366211,114.04593658447266,-581.5543823242188,-63.30000305175781,-23.100000381469727,-11.40000057220459
2.04,93.43132781982422,-36.35355758666992,3.6391866207122803,33.97396469116211,112.71363067626953,-581.9540405273438,-63.000003814697266,-18.900001525878906,-10.65000057220459
2.05,97.6068115234375,-37.73262023925781,3.2178070545196533,44.36600112915039,102.72128295898438,-573.1607666015625,-63.000003814697266,-18.900001525878906,-10.65000057220459
2.06,102.81659698486328,-37.311241149902344,3.1028854846954346,47.430320739746094,112.58039855957031,-569.9632568359375,-63.30000305175781,-10.350000381469727,-8.40000057220459
2.078,106.68563079833984,-38.920143127441406,2.8347349166870117,61.81929397583008,105.5191421508789,-544.3828125,-60.900001525878906,-4.800000190734863,-4.950000286102295
2.082,109.02236938476562,-47.232810974121094,1.5322890281677246,52.226646423339844,106.05206298828125,-545.1822509765625,-60.900001525878906,-4.800000190734863,-4.950000286102295
2.09,109.5203628540039,-46.390052795410156,1.1109095811843872,38.63705825805664,98.05818939208984,-521.0673828125,-60.30000305175781,-1.0500000715255737,-3.9000000953674316
2.1,109.32882690429688,-46.811431884765625,0.8427590131759644,29.044410705566406,94.72740936279297,-519.8682861328125,-60.30000305175781,-1.0500000715255737,-3.9000000953674316
2.11,108.79252624511719,-44.24484634399414,-0.19153612852096558,21.84992218017578,87.66615295410156,-514.938720703125,-57.45000076293945,5.100000381469727,-2.25
2.128,105.91948699951172,-42.7891731262207,-1.4939818382263184,33.57427215576172,73.14395141601562,-496.6860656738281,-55.500003814697266,7.200000286102295,-2.1000001430511475
2.132,106.07271575927734,-40.41412353515625,-2.451662540435791,40.502296447753906,73.41041564941406,-468.30780029296875,-53.400001525878906,9.450000762939453,-0.15000000596046448
2.14,106.22594451904297,-50.144161224365234,1.455674648284912,27.445634841918945,77.67381286621094,-458.98162841796875,-51.150001525878906,12.15000057220459,0.9000000357627869
2.15,105.76625061035156,-53.8216552734375,-1.0342950820922852,13.056661605834961,67.814697265625,-419.41192626953125,-51.150001525878906,12.15000057220459,0.9000000357627869
2.16,100.70970153808594,-54.54949188232422,-3.754108190536499,3.3307809829711914,69.94640350341797,-378.7763977050781,-47.70000076293945,17.100000381469727,0.45000001788139343
2.17,96.30436706542969,-59.79758071899414,-5.669469833374023,-10.525267601013184,75.40888214111328,-348.5329284667969,-47.55000305175781,17.400001525878906,1.8000000715255737
2.18,95.7297592163086,-61.48310089111328,-6.244078159332275,-29.577335357666016,69.28024291992188,-295.9065856933594,-44.400001525878906,19.5,3.750000238418579
2.195,99.44556427001953,-58.533443450927734,-7.967903137207031,-40.102603912353516,48.362937927246094,-216.50076293945312,-44.400001525878906,19.5,3.750000238418579
2.2,100.74800872802734,-49.07155990600586,-11.60708999633789,-45.298622131347656,46.897396087646484,-194.91729736328125,-41.55000305175781,21.600000381469727,5.100000381469727
2.21,99.9052505493164,-49.03324890136719,-10.879252433776855,-36.905052185058594,35.03981399536133,-144.1562042236328,-40.20000076293945,21.0,4.200000286102295
2.22,94.84869384765625,-48.68848419189453,-10.802638053894043,-23.848390579223633,20.38437843322754,-84.06890869140625,-39.30000305175781,21.600000381469727,5.400000095367432
2.23,90.40505981445312,-50.642154693603516,-9.615114212036133,-37.4379768371582,6.5283308029174805,-43.56661605834961,-39.150001525878906,22.950000762939453,7.800000190734863
2.249,87.30216979980469,-44.43638229370117,-9.078812599182129,-41.701377868652344,5.462480545043945,-11.857580184936523,-39.150001525878906,22.950000762939453,7.800000190734863
2.253,85.08035278320312,-34.782962799072266,-8.159439086914062,-15.721285820007324,-14.655436515808105,31.842266082763672,-37.20000076293945,21.450000762939453,7.050000190734863
2.26,82.16899871826172,-24.746469497680664,-7.5848307609558105,7.860642910003662,-20.38437843322754,61.01990509033203,-35.55000305175781,20.850000381469727,5.850000381469727
2.27,80.13871765136719,-20.456058502197266,-5.822698593139648,34.24042892456055,-35.306278228759766,79.80551147460938,-35.25,21.150001525878906,8.40000057220459
2.28,80.29194641113281,-14.97812557220459,-3.9456443786621094,63.418067932128906,-35.03981399536133,94.0612564086914,-35.70000076293945,21.0,7.500000476837158
2.29,81.32624053955078,-13.867216110229492,-0.2298433631658554,100.05665588378906,-44.23276901245117,125.23736572265625,-35.70000076293945,21.0,7.500000476837158
2.309,79.18103790283203,-14.250288963317871,3.907337188720703,125.50382232666016,-45.831546783447266,165.87289428710938,-37.80000305175781,18.450000762939453,6.600000381469727
2.313,78.91288757324219,-14.36521053314209,6.856993675231934,124.30474090576172,-35.57273864746094,167.6049041748047,-36.900001525878906,19.80000114440918,6.750000476837158
2.32,73.85633087158203,-17.544710159301758,10.5344877243042,117.9096450805664,-29.044410705566406,165.87289428710938,-37.650001525878906,19.5,7.050000190734863
2.33,70.75344848632812,-18.579004287719727,13.713987350463867,107.91730499267578,-19.718223571777344,179.0627899169922,-38.55000305175781,18.450000762939453,4.350000381469727
2.34,69.68084716796875,-21.643583297729492,25.742456436157227,56.62327575683594,-18.519142150878906,156.28024291992188,-38.55000305175781,18.450000762939453,4.350000381469727
2.35,81.13470458984375,-16.855180740356445,43.593624114990234,-33.17457962036133,-32.64165496826172,123.10566711425781,-38.25,16.5,5.850000381469727
2.369,117.60318756103516,12.066776275634766,55.27732849121094,-115.2450180053711,-88.59877014160156,127.10260009765625,-38.70000076293945,16.350000381469727,5.25
2.373,149.43649291992188,59.87419509887695,-3.44765043258667,-40.23583221435547,-35.972434997558594,206.77488708496094,-39.45000076293945,15.15000057220459,6.750000476837158
2.38,80.90486145019531,51.44660568237305,-26.12552833557129,1.0658499002456665,-2.797856092453003,215.16844177246094,-38.400001525878906,12.90000057220459,7.050000190734863
2.39,57.805606842041016,31.182083129882812,-6.358999729156494,22.116384506225586,-8.660030364990234,209.1730499267578,-38.400001525878906,12.90000057220459,7.050000190734863
2.4,57.0777702331543,8.35097599029541,9.040505409240723,27.445634841918945,-18.78560447692871,190.38743591308594,-39.0,13.800000190734863,7.350000381469727
2.41,61.942787170410156,-2.75812029838562,12.105083465576172,39.16998291015625,-26.779478073120117,169.33689880371094,-38.70000076293945,10.5,6.750000476837158
2.43,70.29376220703125,3.294421434402466,4.367023944854736,56.356815338134766,-28.511484146118164,179.4624786376953,-39.75,10.050000190734863,7.350000381469727
2.433,79.18103790283203,4.137180328369141,2.183511972427368,159.21133422851562,13.189892768859863,211.9709014892578,-40.5,8.850000381469727,7.350000381469727
2.44,77.99351501464844,-21.56696891784668,34.01681900024414,176.6646270751953,4.529861927032471,221.29708862304688,-40.5,8.850000381469727,7.350000381469727
2.45,90.97966766357422,-39.18829345703125,45.66221618652344,90.99693298339844,-14.522205352783203,203.17764282226562,-40.95000076293945,7.800000190734863,5.25
2.46,89.8687515258789,-48.535255432128906,39.57136535644531,16.12097930908203,-4.529861927032471,180.12863159179688,-41.70000076293945,8.700000762939453,5.25
2.47,66.9227294921875,-29.53487205505371,14.556746482849121,14.388973236083984,-18.385910034179688,191.4532928466797,-39.900001525878906,5.100000381469727,5.25
2.489,73.35833740234375,5.018246650695801,24.401702880859375,56.49004364013672,-27.31240463256836,189.9877471923828,-39.0,4.950000286102295,4.650000095367432
2.493,80.48348236083984,18.579004287719727,17.046716690063477,80.33843994140625,-26.64624786376953,193.58499145507812,-39.0,4.950000286102295,4.650000095367432
2.5,75.15878295898438,3.026270866394043,14.480132102966309,72.47779083251953,-18.519142150878906,185.19142150878906,-39.900001525878906,4.050000190734863,4.950000286102295
2.51,71.213134765625,4.711789131164551,13.407529830932617,97.5252685546875,-25.18070411682129,189.32159423828125,-40.5,2.25,5.100000381469727
2.52,67.76548767089844,8.389283180236816,20.915746688842773,129.2342987060547,-8.39356803894043,186.5237274169922,-41.400001525878906,2.4000000953674316,5.25
2.53,67.61225891113281,11.224017143249512,10.84094524383545,174.79937744140625,-12.390504837036133,204.11026000976562,-41.70000076293945,0.9000000357627869,3.750000238418579
2.549,76.11646270751953,-13.752294540405273,0.5363011956214905,208.77334594726562,-18.519142150878906,217.1669158935547,-41.70000076293945,0.9000000357627869,3.750000238418579
2.553,84.23759460449219,-48.07556915283203,-7.010222434997559,109.24961853027344,-13.189892768859863,187.72280883789062,-40.95000076293945,-0.45000001788139343,5.25
2.56,68.53163146972656,-54.81764221191406,-8.465897560119629,70.07962799072266,-5.329249382019043,175.19908142089844,-40.80000305175781,-1.0500000715255737,4.350000381469727
2.57,67.45903015136719,-40.60565948486328,5.975927352905273,49.69525146484375,-4.396630764007568,155.747314453125,-40.95000076293945,-3.6000001430511475,3.750000238418579
2.58,71.90266418457031,-22.256498336791992,8.35097599029541,66.08269500732422,-7.06125545501709,156.5467071533203,-40.95000076293945,-3.6000001430511475,3.750000238418579
2.59,76.42292022705078,-18.004396438598633,7.010222434997559,62.8851432800293,-1.4655436277389526,151.48391723632812,-42.150001525878906,-4.050000190734863,3.0
2.609,78.4148941040039,-20.379444122314453,5.363011837005615,52.493106842041016,3.597243309020996,151.88360595703125,-42.150001525878906,-4.800000190734863,3.0
2.612,79.21934509277344,-20.685903549194336,5.363011837005615,41.568145751953125,-4.263399600982666,138.6937255859375,-41.70000076293945,-4.350000381469727,4.5
2.62,77.7253646850586,-15.399505615234375,9.155426979064941,52.493106842041016,-13.58958625793457,150.6845245361328,-41.55000305175781,-5.400000095367432,5.850000381469727
2.63,79.25765228271484,-12.411541938781738,10.649409294128418,57.02296829223633,-7.327718257904053,146.9540557861328,-41.55000305175781,-5.400000095367432,5.850000381469727
2.64,79.90887451171875,-15.820884704589844,9.998186111450195,63.018375396728516,-5.8621745109558105,148.28636169433594,-41.400001525878906,-7.050000190734863,4.950000286102295
2.65,75.50354766845703,-21.6818904876709,11.875240325927734,61.68606185913086,-14.522205352783203,129.6339874267578,-42.45000076293945,-6.750000476837158,4.200000286102295
2.67,70.5619125366211,-34.24666213989258,15.322891235351562,42.36753463745117,-3.4640121459960938,122.3062744140625,-40.5,-8.40000057220459,4.650000095367432
2.673,71.13652038574219,-38.920143127441406,15.591041564941406,16.12097930908203,-8.127105712890625,105.38591003417969,-42.0,-9.600000381469727,3.3000001907348633
2.68,73.0135726928711,-30.301015853881836,12.986149787902832,26.912710189819336,-15.45482349395752,108.45022583007812,-42.0,-9.600000381469727,3.3000001907348633
2.69,74.54586791992188,-26.048913955688477,11.070788383483887,28.511484146118164,-10.392036437988281,109.11638641357422,-42.150001525878906,-10.200000762939453,3.450000047683716
2.7,75.23539733886719,-21.98834800720215,3.5242648124694824,30.110260009765625,-4.929555892944336,92.86217498779297,-41.25,-10.350000381469727,5.400000095367432
2.71,76.95922088623047,-21.796812057495117,1.800439715385437,35.839202880859375,-0.6661561727523804,105.11944580078125,-43.05000305175781,-8.850000381469727,4.350000381469727
2.729,76.5761489868164,-21.26051139831543,4.711789131164551,50.4946403503418,-13.722817420959473,117.77641296386719,-41.70000076293945,-9.75,3.750000238418579
2.732,76.30799865722656,-21.030668258666992,8.159439086914062,40.23583221435547,-8.526799201965332,111.38131713867188,-39.30000305175781,-10.800000190734863,3.9000000953674316
2.74,71.13652038574219,-24.938005447387695,12.02846908569336,41.83460998535156,-6.661561965942383,105.91883087158203,-39.30000305175781,-10.800000190734863,3.9000000953674316
2.75,70.79175567626953,-29.573179244995117,13.177685737609863,40.23583221435547,-15.45482349395752,109.64930725097656,-41.70000076293945,-12.15000057220459,6.300000190734863
2.76,74.08617401123047,-26.85336685180664,17.238252639770508,37.304744720458984,-9.059723854064941,119.7748794555664,-42.45000076293945,-13.65000057220459,4.5
2.77,72.09420013427734,-25.129541397094727,18.4257755279541,23.315465927124023,-6.5283308029174805,105.65237426757812,-42.150001525878906,-13.65000057220459,5.700000286102295
2.79,70.14053344726562,-30.645782470703125,15.744270324707031,19.584991455078125,1.9984685182571411,111.64777374267578,-42.150001525878906,-13.65000057220459,5.700000286102295
2.794,68.91470336914062,-36.27694320678711,11.453861236572266,-0.9326186776161194,-1.4655436277389526,112.18070220947266,-42.150001525878906,-14.850000381469727,3.750000238418579
2.8,73.7031021118164,-27.27474594116211,7.240066051483154,-9.326186180114746,0.1332312375307083,119.64165496826172,-42.150001525878906,-14.850000381469727,3.750000238418579
2.81,72.24742889404297,-22.83110809326172,9.691728591918945,-2.9310872554779053,-1.5987749099731445,138.16079711914062,-40.80000305175781,-16.200000762939453,4.350000381469727
2.82,71.94097137451172,-24.59324073791504,4.558559894561768,-2.131699800491333,-3.86370587348938,148.4196014404297,-41.25,-16.200000762939453,4.650000095367432
2.83,71.59620666503906,-30.415939331054688,-0.9193734526634216,-13.456355094909668,-2.9310872554779053,164.14088439941406,-41.25,-16.200000762939453,4.650000095367432
2.849,74.00955963134766,-27.504589080810547,-4.213795185089111,-30.643184661865234,21.716691970825195,152.68299865722656,-40.80000305175781,-16.5,5.400000095367432
2.852,65.35212707519531,-30.415939331054688,-6.780379295349121,-75.00918579101562,55.02450180053711,157.21286010742188,-40.20000076293945,-18.30000114440918,5.25
2.86,65.3138198852539,-49.60786056518555,-10.304644584655762,-85.00152587890625,19.45176124572754,158.81163024902344,-39.0,-17.400001525878906,5.25
2.87,84.50574493408203,-34.82126998901367,11.30063247680664,-70.74578857421875,29.044410705566406,166.1393585205078,-39.0,-17.400001525878906,4.650000095367432
2.88,77.26567840576172,8.810662269592285,23.405715942382812,-41.701377868652344,27.045940399169922,186.79019165039062,-39.0,-17.400001525878906,4.650000095367432
2.89,78.45320129394531,-18.34916114807129,6.167463779449463,-39.43644714355469,15.721285820007324,205.30934143066406,-40.20000076293945,-18.450000762939453,5.100000381469727
2.909,76.38461303710938,-33.02082824707031,12.143390655517578,-53.69218826293945,20.251148223876953,216.10107421875,-39.75,-22.350000381469727,3.9000000953674316
2.912,59.68265914916992,-69.79576873779297,14.326903343200684,-94.72740936279297,38.37059783935547,205.7090301513672,-39.75,-22.350000381469727,6.150000095367432
2.92,62.364166259765625,-73.0135726928711,9.193734169006348,-125.63705444335938,32.37519073486328,196.24961853027344,-39.75,-22.350000381469727,6.150000095367432
2.93,71.71112823486328,-55.43055725097656,12.871228218078613,-108.983154296875,20.784072875976562,209.4394989013672,-37.95000076293945,-22.950000762939453,6.0
2.94,86.84248352050781,-22.218191146850586,14.326903343200684,-79.67227935791016,25.580398559570312,236.3522186279297,-39.150001525878906,-25.200000762939453,4.950000286102295
2.95,90.74982452392578,-32.52283477783203,16.81687355041504,-92.99540710449219,42.101070404052734,255.53750610351562,-38.70000076293945,-26.400001525878906,5.700000286102295
2.969,86.95740509033203,-54.05149841308594,9.653421401977539,-105.38591003417969,54.75803756713867,278.5865173339844,-38.70000076293945,-26.400001525878906,5.700000286102295
2.973,96.30436706542969,-65.46704864501953,20.30282974243164,-159.74424743652344,35.972434997558594,283.5160827636719,-38.70000076293945,-26.400001525878906,5.700000286102295
2.98,130.6276397705078,-22.37141990661621,2.75812029838562,-114.17916870117188,33.17457962036133,313.8927917480469,-36.900001525878906,-28.80000114440918,6.750000476837158
2.99,148.3638916015625,-16.433799743652344,-0.2298433631658554,-87.79938507080078,23.581928253173828,348.0,-36.45000076293945,-29.100000381469727,5.25
3.0,131.6619415283203,-22.754493713378906,19.38345718383789,-76.34149932861328,26.246553421020508,374.1133117675781,-36.75,-30.450000762939453,6.150000095367432
3.01,72.28573608398438,-53.63011932373047,21.6818904876709,-109.64930725097656,43.96630859375,368.2511291503906,-36.75,-30.450000762939453,6.150000095367432
3.029,67.53564453125,-70.37037658691406,32.063148498535156,-170.8024444580078,65.016845703125,340.13934326171875,-33.900001525878906,-33.45000076293945,8.25
3.033,34.66804122924805,-57.53745651245117,19.613300323486328,-167.47166442871094,73.81010437011719,323.6186828613281,-34.20000076293945,-35.70000076293945,5.700000286102295
3.04,32.9442138671875,-56.80961608886719,12.60307788848877,-193.3185272216797,77.54058074951172,301.3690490722656,-33.150001525878906,-35.70000076293945,6.0
3.05,24.05693817138672,-54.166419982910156,3.3710360527038574,-180.66156005859375,95.39356231689453,297.5053405761719,-32.70000076293945,-37.95000076293945,4.5
3.06,34.9744987487793,-59.72096633911133,-17.583017349243164,-181.46095275878906,77.80704498291016,300.30322265625,-32.70000076293945,-37.95000076293945,4.5
3.07,64.47106170654297,-47.96064758300781,-35.43418502807617,-171.06890869140625,47.696781158447266,296.9724426269531,-29.250001907348633,-35.85000228881836,6.150000095367432
3.089,33.82528305053711,-36.736629486083984,-46.27513122558594,-71.54517364501953,6.794793128967285,304.6998291015625,-28.80000114440918,-39.30000305175781,3.3000001907348633
3.092,57.192691802978516,-40.41412353515625,-15.207969665527344,-23.182235717773438,-7.860642910003662,300.16998291015625,-28.200000762939453,-41.10000228881836,4.5
3.1,49.60786056518555,-55.928550720214844,-3.9456443786621094,-5.728943347930908,-23.448698043823242,299.90350341796875,-26.250001907348633,-42.45000076293945,4.350000381469727
3.11,50.144161224365234,-77.99351501464844,12.143390655517578,-41.967838287353516,-33.30780792236328,279.5191345214844,-26.250001907348633,-42.45000076293945,4.350000381469727
3.12,71.13652038574219,-78.22335815429688,32.10145568847656,-72.87748718261719,-34.373661041259766,266.46246337890625,-25.05000114440918,-42.45000076293945,3.9000000953674316
3.13,81.36454772949219,-75.46524047851562,42.90409469604492,-99.65696716308594,-34.24042892456055,269.6600341796875,-24.450000762939453,-43.80000305175781,2.700000047683716
3.148,110.59296417236328,-75.19709014892578,46.12190246582031,-177.86370849609375,-25.447166442871094,271.1255798339844,-22.80000114440918,-45.150001525878906,2.8500001430511475
3.151,172.11436462402344,-58.533443450927734,43.21055221557617,-188.38897705078125,-21.050535202026367,256.3369140625,-22.80000114440918,-45.150001525878906,2.8500001430511475
3.16,179.81411743164062,-49.60786056518555,45.394065856933594,-172.53445434570312,-44.36600112915039,276.4548034667969,-22.80000114440918,-45.150001525878906,2.8500001430511475
3.17,182.18917846679688,-55.009178161621094,8.08282470703125,-179.0627899169922,-51.693721771240234,227.82540893554688,-19.80000114440918,-46.650001525878906,1.8000000715255737
3.18,144.8013153076172,-49.87601089477539,-22.103269577026367,-124.17151641845703,-39.16998291015625,208.77334594726562,-19.950000762939453,-46.95000076293945,-0.15000000596046448
3.19,85.61665344238281,-46.88804626464844,-38.8818359375,22.249616622924805,-11.324655532836914,211.5712127685547,-16.5,-46.650001525878906,0.30000001192092896
3.203,50.48892593383789,-54.587799072265625,-34.51481246948242,158.67840576171875,14.388973236083984,189.45481872558594,-14.550000190734863,-46.650001525878906,-0.6000000238418579
3.21,26.815059661865234,-79.10442352294922,-1.9536685943603516,183.05972290039062,19.718223571777344,171.20213317871094,-14.550000190734863,-46.650001525878906,-0.6000000238418579
3.22,6.052541732788086,-102.3569107055664,7.2783732414245605,112.04747009277344,22.649311065673828,120.4410400390625,-13.050000190734863,-47.85000228881836,0.0
3.23,-19.421764373779297,-101.0544662475586,22.869415283203125,-67.814697265625,40.23583221435547,18.385910034179688,-12.90000057220459,-48.0,-0.15000000596046448
3.24,-41.37180709838867,-50.83369064331055,32.676063537597656,-231.4226531982422,34.10719680786133,-118.70903015136719,-12.750000953674316,-46.650001525878906,-1.8000000715255737
3.25,-29.075185775756836,13.637372970581055,6.3973069190979,-225.69371032714844,74.60948944091797,-187.58958435058594,-11.550000190734863,-48.60000228881836,-2.1000001430511475
3.266,2.9496564865112305,60.563724517822266,31.028854370117188,-101.12251281738281,98.4578857421875,-249.1424102783203,-11.550000190734863,-48.60000228881836,-2.1000001430511475
3.27,12.60307788848877,44.206539154052734,32.063148498535156,-74.74272155761719,112.04747009277344,-283.6492919921875,-10.950000762939453,-47.25,-2.700000047683716
3.28,6.89530086517334,35.47249221801758,22.792800903320312,-60.35375213623047,125.37059783935547,-331.3460998535156,-10.950000762939453,-45.75,-3.450000047683716
3.29,-8.542511940002441,12.947842597961426,5.822698593139648,-70.21286010742188,150.41806030273438,-379.5758056640625,-12.450000762939453,-46.5,-5.25
3.3,-3.8307228088378906,-2.75812029838562,-0.9193734526634216,-75.27565002441406,162.1424102783203,-456.3169860839844,-12.450000762939453,-46.5,-5.25
3.318,13.21599292755127,6.512228488922119,-4.520252704620361,-34.373661041259766,169.4701385498047,-484.0290832519531,-14.40000057220459,-42.60000228881836,-4.950000286102295
3.323,22.256498336791992,19.843143463134766,-14.020444869995117,80.73812866210938,173.6002960205078,-516.803955078125,-14.250000953674316,-42.45000076293945,-5.100000381469727
3.33,21.45204734802246,22.792800903320312,-10.955866813659668,135.0964813232422,178.6630859375,-537.0551147460938,-17.25,-43.650001525878906,-4.350000381469727
3.34,22.256498336791992,20.149600982666016,-9.998186111450195,184.1255645751953,180.26187133789062,-565.5665893554688,-15.450000762939453,-43.5,-4.200000286102295
3.35,30.26270866394043,7.086836814880371,-5.20978307723999,213.8361358642578,164.5405731201172,-578.2235717773438,-15.450000762939453,-43.5,-4.200000286102295
3.36,37.34954833984375,-6.971915245056152,-4.32871675491333,207.97396850585938,159.61102294921875,-596.4762573242188,-18.900001525878906,-40.35000228881836,-1.9500000476837158
3.378,36.315250396728516,-20.800825119018555,-1.37906014919281,183.32618713378906,162.80857849121094,-621.7901611328125,-20.25,-38.25,-2.5500001907348633
3.382,33.71036148071289,-29.994558334350586,13.867216110229492,125.7702865600586,140.02603149414062,-642.4410400390625,-21.150001525878906,-37.650001525878906,-0.9000000357627869
3.39,36.008792877197266,-40.452430725097656,16.395492553710938,87.13323211669922,147.0872802734375,-638.1776123046875,-19.80000114440918,-35.55000305175781,-0.6000000238418579
3.503,64.12629699707031,-92.97164154052734,4.137180328369141,81.13782501220703,-4.796324729919434,-358.9249572753906,-28.200000762939453,-21.450000762939453,0.45000001788139343
3.51,63.283538818359375,-96.57251739501953,12.449849128723145,63.950992584228516,-1.5987749099731445,-350.93109130859375,-27.450000762939453,-20.55000114440918,0.9000000357627869
3.52,67.72718048095703,-98.14311981201172,14.326903343200684,29.84379768371582,-0.1332312375307083,-328.5482177734375,-27.450000762939453,-20.25,0.9000000357627869
3.53,76.99752807617188,-99.2157211303711,10.649409294128418,-3.3307809829711914,1.0658499002456665,-282.1837463378906,-28.950000762939453,-19.80000114440918,1.2000000476837158
3.54,85.08035278320312,-98.56449890136719,9.576807022094727,-57.55589294433594,-23.581928253173828,-233.55435180664062,-27.750001907348633,-17.700000762939453,1.0500000715255737
3.559,89.48567962646484,-94.73377227783203,6.282385349273682,-99.92343139648438,-0.1332312375307083,-228.35833740234375,-27.750001907348633,-17.700000762939453,1.0500000715255737
3.563,92.28211212158203,-82.36053466796875,0.4596867263317108,-141.35833740234375,-17.719755172729492,-172.80091857910156,-27.750001907348633,-17.700000762939453,0.30000001192092896
3.57,96.57251739501953,-64.54767608642578,-3.869029998779297,-149.08575439453125,-24.11485481262207,-168.0045928955078,-26.250001907348633,-13.500000953674316,2.8500001430511475
3.58,94.38900756835938,-54.51118469238281,-3.5242648124694824,-172.80091857910156,-24.914241790771484,-171.46859741210938,-26.55000114440918,-15.750000953674316,2.8500001430511475
3.59,92.47364807128906,-41.10365295410156,-4.405331134796143,-165.87289428710938,-27.31240463256836,-133.49769592285156,-26.250001907348633,-15.000000953674316,2.5500001907348633
3.6,91.05628204345703,-35.43418502807617,-1.8770540952682495,-141.0918731689453,-33.84073257446289,-107.51760864257812,-26.250001907348633,-15.000000953674316,2.5500001907348633
3.619,90.44336700439453,-31.182083129882812,2.873042106628418,-126.5696792602539,-32.77488327026367,-98.4578857421875,-28.200000762939453,-15.15000057220459,1.9500000476837158
3.623,95.1168441772461,-29.496564865112305,9.461885452270508,-86.46707153320312,-31.709033966064453,-53.29249572753906,-27.450000762939453,-14.40000057220459,3.0
3.63,101.47584533691406,-30.645782470703125,20.570980072021484,-57.689125061035156,-33.70750427246094,-10.92496109008789,-27.450000762939453,-14.40000057220459,3.0
3.64,103.39120483398438,-39.839515686035156,21.528661727905273,-21.983154296875,-48.8958625793457,29.31087303161621,-25.950000762939453,-14.850000381469727,4.950000286102295
3.65,111.20587921142578,-52.94058609008789,18.34916114807129,-44.89892578125,-39.70290756225586,37.03828430175781,-25.950000762939453,-14.850000381469727,4.950000286102295
3.66,107.83484649658203,-48.42033386230469,8.006210327148438,-85.80091857910156,-32.24195861816406,64.48391723632812,-26.250001907348633,-15.000000953674316,2.1000001430511475
3.679,98.52619171142578,-30.645782470703125,6.818686485290527,-124.03828430175781,-37.17151641845703,74.47626495361328,-25.950000762939453,-15.600000381469727,3.750000238418579
3.683,86.38279724121094,-7.929595947265625,4.903325080871582,-82.7365951538086,-22.116384506225586,74.8759536743164,-27.150001525878906,-17.850000381469727,3.0
3.69,71.90266418457031,39.99274444580078,-22.792800903320312,11.857580184936523,-25.580398559570312,134.29708862304688,-27.150001525878906,-17.850000381469727,3.0
3.7,68.30178833007812,37.54108428955078,-17.1999454498291,135.0964813232422,-30.90964698791504,193.45175170898438,-27.150001525878906,-17.850000381469727,3.0
3.71,66.61626434326172,-16.548721313476562,12.143390655517578,211.83766174316406,-40.635528564453125,142.69065856933594,-26.250001907348633,-16.950000762939453,3.9000000953674316
3.72,86.22956848144531,-32.905906677246094,41.37180709838867,190.65390014648438,-19.584991455078125,113.11331939697266,-26.55000114440918,-15.750000953674316,5.400000095367432
3.741,125.6093978881836,-15.705963134765625,89.67721557617188,91.79632568359375,-42.500762939453125,175.19908142089844,-25.200000762939453,-17.100000381469727,5.25
3.744,146.67837524414062,-53.28535461425781,-5.324704647064209,-39.16998291015625,7.327718257904053,148.0198974609375,-25.500001907348633,-16.950000762939453,6.150000095367432
3.751,154.87611389160156,40.33750915527344,55.698707580566406,-41.701377868652344,23.182235717773438,123.9050521850586,-25.500001907348633,-16.950000762939453,6.150000095367432
3.76,135.56927490234375,70.29376220703125,43.24885940551758,-11.857580184936523,49.96171569824219,111.11485290527344,-27.000001907348633,-17.700000762939453,4.650000095367432
3.77,84.69728088378906,114.30876922607422,54.20472717285156,128.7013702392578,22.782541275024414,180.26187133789062,-28.05000114440918,-19.200000762939453,6.600000381469727
3.78,109.67359161376953,93.66117095947266,28.38565444946289,251.27410888671875,6.5283308029174805,243.14700317382812,-26.55000114440918,-20.100000381469727,6.600000381469727
3.799,134.7265167236328,11.109095573425293,10.84094524383545,267.7947998046875,27.71209716796875,231.95558166503906,-26.55000114440918,-20.100000381469727,6.600000381469727
3.9,70.0256118774414,-22.984336853027344,10.113107681274414,-34.64012145996094,55.69065856933594,87.9326171875,-23.400001525878906,-24.900001525878906,7.800000190734863
3.919,69.4126968383789,-36.96647262573242,9.998186111450195,-61.15313720703125,51.4272575378418,60.08728790283203,-23.700000762939453,-26.850000381469727,6.750000476837158
3.922,75.19709014892578,-35.817256927490234,17.161638259887695,-42.500762939453125,41.967838287353516,55.95711898803711,-24.450000762939453,-26.100000381469727,6.300000190734863
3.93,71.90266418457031,-25.665842056274414,20.41775131225586,-33.30780792236328,42.36753463745117,45.43185043334961,-24.450000762939453,-26.100000381469727,6.300000190734863
3.94,67.65056610107422,-30.032865524291992,19.958065032958984,-38.37059783935547,41.168453216552734,33.17457962036133,-25.200000762939453,-26.850000381469727,6.0
3.95,70.90667724609375,-50.68046188354492,9.959878921508789,-46.764163970947266,24.11485481262207,12.124042510986328,-24.30000114440918,-27.450000762939453,7.350000381469727
3.96,80.40686798095703,-39.68628692626953,8.695740699768066,-27.31240463256836,12.25727367401123,23.715160369873047,-23.700000762939453,-27.900001525878906,6.300000190734863
3.979,77.64875030517578,-19.460071563720703,21.490354537963867,-25.980091094970703,11.591117858886719,16.387441635131836,-25.05000114440918,-26.250001907348633,6.600000381469727
3.983,77.22737121582031,-19.19192123413086,21.14558982849121,-39.43644714355469,9.992342948913574,22.649311065673828,-25.05000114440918,-26.250001907348633,6.600000381469727
3.99,76.23138427734375,-30.301015853881836,21.26051139831543,-41.035221099853516,5.462480545043945,20.784072875976562,-24.450000762939453,-27.600000381469727,7.050000190734863
4.0,74.6990966796875,-19.728221893310547,21.75850486755371,-38.23736572265625,6.794793128967285,-1.4655436277389526,-24.900001525878906,-26.850000381469727,7.800000190734863
4.01,71.213134765625,-18.923770904541016,18.157625198364258,-35.439510345458984,7.9938740730285645,36.238895416259766,-24.150001525878906,-27.150001525878906,7.050000190734863
4.02,67.95702362060547,-30.339323043823242,16.1656494140625,-24.914241790771484,0.39969372749328613,40.102603912353516,-25.05000114440918,-27.000001907348633,6.900000095367432
4.039,72.32404327392578,-35.77894973754883,13.560758590698242,-31.44257164001465,-3.3307809829711914,31.975496292114258,-25.05000114440918,-27.000001907348633,6.900000095367432
4.043,76.23138427734375,-32.52283477783203,9.998186111450195,-30.643184661865234,-4.396630764007568,29.177640914916992,-25.950000762939453,-28.80000114440918,6.300000190734863
4.05,73.81802368164062,-22.256498336791992,8.197746276855469,-30.110260009765625,0.6661561727523804,23.848390579223633,-25.650001525878906,-26.400001525878906,6.0
4.06,74.2394027709961,-18.54069709777832,13.48414421081543,0.0,-11.324655532836914,50.76110076904297,-24.900001525878906,-26.400001525878906,6.750000476837158
4.07,67.95702362060547,-18.923770904541016,20.41775131225586,2.6646246910095215,-13.323123931884766,45.43185043334961,-25.500001907348633,-28.950000762939453,6.150000095367432
4.08,65.00736236572266,-26.163835525512695,22.37141990661621,-0.2664624750614166,-10.92496109008789,34.50688934326172,-25.500001907348633,-28.950000762939453,6.150000095367432
4.099,69.22116088867188,-29.34333610534668,19.536685943603516,-1.5987749099731445,-27.84532928466797,65.15007781982422,-25.500001907348633,-28.200000762939453,7.650000095367432
4.103,70.25545501708984,-22.60126495361328,17.966089248657227,11.324655532836914,-11.990811347961426,81.13782501220703,-25.200000762939453,-27.900001525878906,4.950000286102295
4.11,69.4126968383789,-19.460071563720703,16.395492553710938,13.056661605834961,-20.784072875976562,60.35375213623047,-23.700000762939453,-27.600000381469727,7.050000190734863
4.12,68.53163146972656,-19.306842803955078,18.04270362854004,21.45022964477539,-20.251148223876953,86.20060729980469,-24.0,-28.950000762939453,5.850000381469727
4.13,66.19488525390625,-17.31486701965332,23.82709503173828,37.57120895385742,-23.98162269592285,101.38896942138672,-24.0,-28.950000762939453,5.850000381469727
4.14,68.91470336914062,-14.441824913024902,29.381643295288086,39.30321502685547,-49.02909469604492,114.3124008178711,-23.25,-28.950000762939453,6.600000381469727
4.159,84.42913055419922,-47.07958221435547,21.6818904876709,-1.9984685182571411,-50.09494400024414,102.72128295898438,-23.700000762939453,-29.100000381469727,6.300000190734863
4.162,57.499149322509766,-28.692113876342773,6.742072105407715,-0.5329249501228333,-49.02909469604492,117.24349212646484,-25.80000114440918,-30.900001525878906,6.150000095367432
4.17,59.91250228881836,-26.163835525512695,4.711789131164551,7.594180583953857,-41.035221099853516,134.96324157714844,-25.80000114440918,-30.900001525878906,6.150000095367432
4.18,65.50535583496094,-20.494365692138672,0.26815059781074524,6.794793128967285,-30.509952545166016,134.43031311035156,-25.80000114440918,-30.900001525878906,6.150000095367432
4.19,75.15878295898438,-29.15180015563965,7.086836814880371,-6.661561965942383,-17.986217498779297,153.0826873779297,-22.950000762939453,-30.30000114440918,5.25
4.2,80.29194641113281,-33.288978576660156,9.423578262329102,-15.055130004882812,-33.57427215576172,171.46859741210938,-22.650001525878906,-31.500001907348633,4.5
4.219,77.1124496459961,-30.37763023376465,7.5848307609558105,-22.649311065673828,-12.923430442810059,199.31393432617188,-22.80000114440918,-32.400001525878906,5.400000095367432
4.222,81.21131896972656,-22.7161865234375,3.4093432426452637,-22.249616622924805,-11.457886695861816,205.04287719726562,-22.80000114440918,-32.400001525878906,5.400000095367432
4.23,76.03984832763672,-18.081010818481445,13.752294540405273,-25.846860885620117,-14.12251091003418,202.11178588867188,-21.450000762939453,-31.80000114440918,4.5
4.24,58.07375717163086,-21.98834800720215,22.677879333496094,-3.9969370365142822,-19.31852912902832,234.75343322753906,-22.950000762939453,-32.55000305175781,3.750000238418579
4.25,66.42472839355469,-53.668426513671875,26.66183090209961,-68.08116149902344,-29.444103240966797,196.64930725097656,-21.450000762939453,-33.45000076293945,4.950000286102295
4.26,68.22517395019531,-74.3160171508789,14.211980819702148,-99.3905029296875,-40.502296447753906,208.77334594726562,-21.30000114440918,-33.900001525878906,5.100000381469727
4.279,92.55026245117188,-65.888427734375,11.1474027633667,-92.99540710449219,-66.61561584472656,242.8805389404297,-21.30000114440918,-33.900001525878906,5.100000381469727
4.283,132.54299926757812,-14.939818382263184,1.9153614044189453,-77.14088439941406,-84.33537292480469,269.52679443359375,-22.200000762939453,-34.20000076293945,5.700000286102295
4.29,148.09573364257812,-14.403517723083496,6.971915245056152,-65.28330993652344,-89.5313949584961,304.5666198730469,-19.650001525878906,-35.70000076293945,4.5
4.3,165.98521423339844,-10.84094524383545,13.943830490112305,-66.882080078125,-80.20520782470703,335.2098083496094,-19.80000114440918,-34.80000305175781,2.1000001430511475
4.31,105.72794342041016,-6.780379295349121,25.550920486450195,-47.56355285644531,-68.08116149902344,342.5375061035156,-19.200000762939453,-36.900001525878906,4.200000286102295
4.32,42.559329986572266,-50.98691940307617,25.70414924621582,-90.99693298339844,-43.16691970825195,324.01837158203125,-19.200000762939453,-36.900001525878906,4.200000286102295
4.337,20.877439498901367,-87.3404769897461,24.325088500976562,-161.7427215576172,-11.324655532836914,284.71514892578125,-17.400001525878906,-37.650001525878906,0.15000000596046448
4.341,42.09964370727539,-49.26309585571289,3.1028854846954346,-153.34915161132812,-23.581928253173828,282.84991455078125,-17.400001525878906,-37.650001525878906,0.15000000596046448
4.35,50.60384750366211,-35.12772750854492,4.060565948486328,-127.5022964477539,-18.78560447692871,276.4548034667969,-16.200000762939453,-37.650001525878906,0.45000001788139343
4.36,30.91393280029297,-23.290794372558594,-5.784391403198242,-73.54364013671875,-27.445634841918945,278.320068359375,-16.80000114440918,-38.55000305175781,1.350000023841858
4.37,36.50678634643555,-69.18285369873047,-3.294421434402466,-91.79632568359375,-38.10413360595703,277.25421142578125,-16.80000114440918,-38.55000305175781,1.350000023841858
4.38,75.8866195678711,-79.48749542236328,-2.75812029838562,-92.3292465209961,-67.68146514892578,274.7228088378906,-15.300000190734863,-39.30000305175781,-0.6000000238418579
4.399,83.31822204589844,-48.458641052246094,-4.481945514678955,-61.81929397583008,-79.40581512451172,293.1087341308594,-14.40000057220459,-40.35000228881836,-0.9000000357627869
4.404,60.563724517822266,-43.3637809753418,5.477933406829834,-33.57427215576172,-69.81317138671875,282.3169860839844,-14.40000057220459,-40.35000228881836,-0.9000000357627869
4.41,39.57136535644531,-57.920528411865234,4.711789131164551,-18.91883659362793,-74.74272155761719,278.7197570800781,-14.250000953674316,-40.20000076293945,-2.8500001430511475
4.42,38.03907775878906,-80.13871765136719,5.861005783081055,-51.160797119140625,-74.8759536743164,271.9249572753906,-14.250000953674316,-40.20000076293945,-2.8500001430511475
4.43,66.80780792236328,-91.36273956298828,1.2641384601593018,-107.65084075927734,-86.0673828125,253.1393585205078,-12.90000057220459,-41.85000228881836,-3.0
4.44,98.33465576171875,-69.4126968383789,-2.5665841102600098,-97.12557220458984,-99.12403869628906,243.94639587402344,-11.700000762939453,-42.60000228881836,-2.700000047683716
4.453,130.24456787109375,-48.68848419189453,1.4939818382263184,-72.21133422851562,-117.24349212646484,219.9647674560547,-11.40000057220459,-43.05000305175781,-2.25
4.46,123.96218872070312,-49.37801742553711,4.941632270812988,-50.76110076904297,-109.11638641357422,217.30015563964844,-12.0,-42.150001525878906,-3.6000001430511475
4.47,117.02857971191406,-52.3659782409668,4.405331134796143,-72.74425506591797,-117.11026000976562,204.37672424316406,-12.0,-42.150001525878906,-3.6000001430511475
4.48,117.56488037109375,-51.52322006225586,4.481945514678955,-83.66921997070312,-139.6263427734375,163.74119567871094,-9.15000057220459,-42.60000228881836,-5.25
4.49,106.87716674804688,-43.785160064697266,7.7763671875,-76.74119567871094,-128.03521728515625,121.77335357666016,-10.5,-44.400001525878906,-5.100000381469727
4.509,79.6407241821289,-34.782962799072266,14.441824913024902,21.050535202026367,-118.30934143066406,91.3966293334961,-9.15000057220459,-43.80000305175781,-5.25
4.513,54.281341552734375,-39.60967254638672,1.1109095811843872,126.83613586425781,-59.95405578613281,121.64012145996094,-9.90000057220459,-42.30000305175781,-6.750000476837158
4.52,-1.455674648284912,-75.50354766845703,-2.911349296569824,163.74119567871094,-33.30780792236328,138.56048583984375,-9.90000057220459,-42.30000305175781,-6.750000476837158
4.53,-16.625335693359375,-95.61483764648438,10.266336441040039,139.89280700683594,1.5987749099731445,119.24195861816406,-8.700000762939453,-43.5,-7.050000190734863
4.54,-20.11129379272461,-91.5159683227539,31.794998168945312,59.15467071533203,39.43644714355469,38.10413360595703,-7.500000476837158,-43.95000076293945,-7.950000286102295
4.55,-26.66183090209961,-57.499149322509766,27.083209991455078,-30.24349021911621,31.575803756713867,-22.116384506225586,-8.550000190734863,-43.650001525878906,-7.650000095367432
4.568,-41.29519271850586,-14.939818382263184,17.391481399536133,-145.88819885253906,6.5283308029174805,-129.6339874267578,-8.550000190734863,-43.650001525878906,-7.650000095367432
4.572,-49.3014030456543,30.0711727142334,-15.782577514648438,-116.57733154296875,41.168453216552734,-268.7274169921875,-9.450000762939453,-42.30000305175781,-8.25
4.58,-31.22039031982422,99.40725708007812,4.750096321105957,-53.42572784423828,39.03675079345703,-318.5558776855469,-10.800000190734863,-44.400001525878906,-8.40000057220459
4.59,2.9496564865112305,118.10118103027344,6.3973069190979,63.81776428222656,42.23430252075195,-362.7886657714844,-10.800000190734863,-43.20000076293945,-10.65000057220459
4.6,27.46628189086914,97.10881805419922,9.002198219299316,164.4073486328125,51.160797119140625,-392.0995178222656,-11.25,-42.45000076293945,-8.700000762939453
4.61,26.815059661865234,53.51519775390625,2.5282769203186035,190.78712463378906,71.14547729492188,-449.5221862792969,-11.25,-42.45000076293945,-8.700000762939453
4.629,12.48815631866455,16.70195198059082,-1.072602391242981,179.72894287109375,66.61561584472656,-503.4808349609375,-13.500000953674316,-41.70000076293945,-7.650000095367432
4.633,9.423578262329102,-0.8427590131759644,2.6431987285614014,115.2450180053711,91.79632568359375,-572.2281494140625,-13.65000057220459,-38.400001525878906,-7.800000190734863
4.64,23.367408752441406,-2.1068975925445557,6.358999729156494,88.46553802490234,90.99693298339844,-600.7396240234375,-13.65000057220459,-38.400001525878906,-7.800000190734863
4.65,29.994558334350586,-3.3710360527038574,7.661445617675781,53.159263610839844,98.59111785888672,-610.7319946289062,-15.90000057220459,-38.400001525878906,-7.500000476837158
4.66,33.90189743041992,-6.358999729156494,6.205770969390869,43.96630859375,100.05665588378906,-634.1806640625,-15.90000057220459,-38.400001525878906,-7.500000476837158
4.67,35.74064254760742,-16.855180740356445,5.746084213256836,24.51454734802246,104.85298156738281,-649.7687377929688,-19.05000114440918,-36.30000305175781,-6.600000381469727
4.688,38.03907775878906,-26.2021427154541,1.455674648284912,-2.131699800491333,111.38131713867188,-660.9601440429688,-19.950000762939453,-34.5,-6.0
4.693,43.593624114990234,-31.794998168945312,-4.098873138427734,13.189892768859863,110.31546783447266,-656.69677734375,-24.0,-30.450000762939453,-5.850000381469727
4.809,107.56669616699219,-103.77427673339844,0.8810662031173706,125.63705444335938,17.186830520629883,-368.6508483886719,-27.750001907348633,-15.750000953674316,-2.1000001430511475
4.813,111.43572235107422,-118.33102416992188,3.2178070545196533,53.95865249633789,11.324655532836914,-264.4640197753906,-27.450000762939453,-13.200000762939453,-1.9500000476837158
4.82,105.3448715209961,-119.55685424804688,4.098873138427734,-12.790199279785156,19.718223571777344,-227.5589599609375,-27.450000762939453,-13.200000762939453,-1.9500000476837158
4.83,100.90123748779297,-113.84908294677734,5.592854976654053,-98.32465362548828,19.45176124572754,-177.99693298339844,-27.30000114440918,-13.500000953674316,-1.8000000715255737
4.84,92.43534088134766,-104.1956558227539,5.439626216888428,-151.48391723632812,5.595712184906006,-127.23583221435547,-27.30000114440918,-13.500000953674316,-1.8000000715255737
4.85,81.17301177978516,-89.29414367675781,3.294421434402466,-210.77182006835938,22.649311065673828,-90.73047637939453,-27.30000114440918,-13.500000953674316,-1.8000000715255737
4.869,70.40868377685547,-73.93294525146484,4.865017890930176,-231.4226531982422,13.056661605834961,-48.49617004394531,-25.650001525878906,-11.700000762939453,-1.2000000476837158
4.873,64.81582641601562,-56.426544189453125,4.596867084503174,-232.48851013183594,1.1990811824798584,-19.718223571777344,-27.450000762939453,-11.700000762939453,-1.2000000476837158
4.88,75.04386138916016,-28.61549949645996,12.564770698547363,-187.58958435058594,-14.12251091003418,0.1332312375307083,-27.000001907348633,-10.800000190734863,0.0
4.89,85.08035278320312,-15.437812805175781,14.135366439819336,-104.85298156738281,-30.24349021911621,36.5053596496582,-27.000001907348633,-10.800000190734863,0.0
4.9,90.51998138427734,-5.477933406829834,14.211980819702148,-3.0643184185028076,-45.831546783447266,61.41960144042969,-26.700000762939453,-10.200000762939453,0.9000000357627869
4.91,95.00192260742188,-4.558559894561768,20.30282974243164,91.92955017089844,-70.3460922241211,82.6033706665039,-27.750001907348633,-10.350000381469727,-0.30000001192092896
4.929,92.93333435058594,-5.2480902671813965,15.437812805175781,133.76416015625,-53.159263610839844,110.18223571777344,-27.150001525878906,-11.700000762939453,-0.45000001788139343
4.933,86.03803253173828,-5.746084213256836,13.828908920288086,144.95558166503906,-30.110260009765625,128.56814575195312,-26.400001525878906,-11.700000762939453,-1.2000000476837158
4.94,77.26567840576172,-11.530475616455078,18.88546371459961,164.94027709960938,-10.791729927062988,139.35987854003906,-26.400001525878906,-11.700000762939453,-1.2000000476837158
4.95,74.6990966796875,-15.552734375,22.026655197143555,185.4578857421875,37.97090148925781,203.3108673095703,-26.250001907348633,-13.500000953674316,-0.6000000238418579
4.96,74.43093872070312,-48.11387634277344,37.694313049316406,108.983154296875,32.108726501464844,260.4670715332031,-27.30000114440918,-13.500000953674316,-0.30000001192092896
4.97,94.88700103759766,-125.647705078125,35.0128059387207,-142.15773010253906,50.36140823364258,220.09800720214844,-26.55000114440918,-16.5,0.0
4.989,105.03841400146484,-165.79368591308594,35.85556411743164,-402.8912658691406,42.36753463745117,96.72587585449219,-25.650001525878906,-15.15000057220459,0.9000000357627869
4.993,131.27886962890625,-65.50535583496094,8.274360656738281,-453.9188232421875,29.577335357666016,75.67534637451172,-25.650001525878906,-15.15000057220459,0.9000000357627869
5.0,162.46095275878906,100.74800872802734,8.887276649475098,-334.1439514160156,45.16539001464844,103.92036437988281,-27.30000114440918,-15.450000762939453,1.8000000715255737
5.01,166.82797241210938,151.69662475585938,-6.933608055114746,-136.29556274414062,71.41194152832031,160.6768798828125,-25.80000114440918,-17.700000762939453,1.350000023841858
5.02,130.66595458984375,158.74514770507812,19.000385284423828,84.60183715820312,77.14088439941406,187.3231201171875,-26.55000114440918,-16.200000762939453,1.8000000715255737
5.03,102.9698257446289,128.099365234375,31.7183837890625,288.44561767578125,31.575803756713867,225.96017456054688,-26.400001525878906,-16.350000381469727,2.700000047683716
5.05,108.2562255859375,70.79175567626953,-15.897499084472656,436.0658264160156,30.110260009765625,282.84991455078125,-26.400001525878906,-16.350000381469727,2.700000047683716
5.054,116.6072006225586,-7.2783732414245605,15.476119995117188,444.5926513671875,30.643184661865234,255.0045928955078,-25.500001907348633,-19.650001525878906,3.3000001907348633
5.06,89.60060119628906,-64.24121856689453,-2.6815059185028076,355.4609375,36.905052185058594,244.87901306152344,-27.000001907348633,-20.400001525878906,2.5500001907348633
5.07,64.77751922607422,-67.11426544189453,27.77273941040039,205.44256591796875,42.500762939453125,193.58499145507812,-26.700000762939453,-19.5,1.9500000476837158
5.08,50.18246841430664,-89.1792221069336,33.71036148071289,52.226646423339844,29.177640914916992,162.1424102783203,-25.80000114440918,-21.900001525878906,2.1000001430511475
5.09,62.74723815917969,-71.8260498046875,50.60384750366211,-50.36140823364258,27.17917251586914,133.89739990234375,-25.80000114440918,-21.900001525878906,2.1000001430511475
5.109,84.50574493408203,-46.0452880859375,30.186094284057617,-87.79938507080078,27.71209716796875,129.36753845214844,-26.55000114440918,-20.850000381469727,2.8500001430511475
5.112,99.2540283203125,-15.629348754882812,20.64759635925293,-3.197549819946289,-1.5987749099731445,123.50535583496094,-26.250001907348633,-23.100000381469727,3.9000000953674316
5.12,109.94174194335938,-5.937620162963867,-4.558559894561768,56.756507873535156,-19.584991455078125,126.03675079345703,-25.950000762939453,-22.950000762939453,4.200000286102295
5.13,105.45979309082031,-5.70777702331543,-15.85919189453125,136.16232299804688,-42.76722717285156,139.09341430664062,-25.950000762939453,-23.700000762939453,3.0
5.14,101.55245971679688,-26.393678665161133,2.6815059185028076,140.95864868164062,-39.43644714355469,126.43644714355469,-25.950000762939453,-23.700000762939453,3.0
5.15,107.10700988769531,-43.70854568481445,6.512228488922119,81.67074584960938,-32.64165496826172,120.04134368896484,-24.900001525878906,-22.950000762939453,1.6500000953674316
5.169,108.67760467529297,-39.035064697265625,15.322891235351562,66.61561584472656,-29.84379768371582,117.11026000976562,-25.05000114440918,-24.750001907348633,3.9000000953674316
5.173,89.48567962646484,-33.82528305053711,17.73624610900879,83.26952362060547,-35.306278228759766,105.78560638427734,-26.700000762939453,-25.200000762939453,2.700000047683716
5.18,60.64033889770508,-38.115692138671875,15.667655944824219,73.54364013671875,-37.57120895385742,105.25267791748047,-26.700000762939453,-25.200000762939453,2.700000047683716
5.19,53.51519775390625,-46.73481750488281,18.387468338012695,85.13475799560547,-70.74578857421875,88.06584930419922,-24.450000762939453,-25.200000762939453,3.450000047683716
5.2,61.444793701171875,-60.678646087646484,16.1656494140625,7.06125545501709,-43.69984436035156,72.47779083251953,-25.200000762939453,-25.650001525878906,3.0
5.21,76.42292022705078,-44.89606857299805,26.700138092041016,8.127105712890625,-34.24042892456055,59.55436325073242,-25.500001907348633,-25.05000114440918,2.5500001907348633
5.229,72.93695831298828,-30.569168090820312,6.703764915466309,61.9525260925293,5.196018218994141,57.289432525634766,-24.900001525878906,-26.400001525878906,2.25
5.233,67.72718048095703,-65.77350616455078,39.26490783691406,33.4410400390625,-41.568145751953125,58.754974365234375,-24.900001525878906,-26.400001525878906,2.25
5.24,69.3743896484375,-44.93437576293945,6.358999729156494,15.987748146057129,-39.9693717956543,40.9019889831543,-24.450000762939453,-27.150001525878906,3.0
5.25,78.989501953125,-47.65419006347656,5.5545477867126465,0.6661561727523804,-31.575803756713867,39.569679260253906,-24.900001525878906,-26.850000381469727,1.6500000953674316
5.26,78.989501953125,-39.149986267089844,10.687716484069824,-3.197549819946289,-41.701377868652344,48.76263427734375,-23.700000762939453,-26.100000381469727,2.25
5.27,72.05589294433594,-26.278757095336914,10.802638053894043,1.8652373552322388,-41.30168533325195,60.75344467163086,-24.150001525878906,-25.650001525878906,3.450000047683716
5.289,74.50755310058594,-18.387468338012695,14.633360862731934,8.526799201965332,-34.24042892456055,62.618682861328125,-24.150001525878906,-25.650001525878906,3.450000047683716
5.293,73.28172302246094,-23.405715942382812,15.284584045410156,12.390504837036133,-30.643184661865234,72.21133422851562,-24.450000762939453,-27.900001525878906,3.450000047683716
5.3,68.41670989990234,-35.0128059387207,14.36521053314209,1.8652373552322388,-40.9019889831543,75.8085708618164,-22.950000762939453,-26.850000381469727,3.0
5.31,68.03363800048828,-40.452430725097656,14.786589622497559,-19.85145378112793,-26.779478073120117,63.28483963012695,-24.150001525878906,-26.850000381469727,3.450000047683716
5.32,64.81582641601562,-35.77894973754883,14.518439292907715,-25.580398559570312,-23.04900360107422,57.289432525634766,-22.80000114440918,-27.750001907348633,2.5500001907348633
5.33,64.93074798583984,-35.54910659790039,9.576807022094727,-15.987748146057129,-35.17304611206055,76.74119567871094,-22.80000114440918,-27.750001907348633,2.5500001907348633
5.349,67.65056610107422,-38.15399932861328,8.619126319885254,-7.860642910003662,-30.509952545166016,64.61714935302734,-23.55000114440918,-26.55000114440918,1.8000000715255737
5.352,72.93695831298828,-30.99054718017578,-0.9193734526634216,-22.382848739624023,-24.11485481262207,110.31546783447266,-22.200000762939453,-28.350000381469727,0.15000000596046448
5.36,74.12448120117188,-28.500577926635742,1.1492167711257935,-29.7105655670166,-12.390504837036133,92.99540710449219,-23.400001525878906,-27.600000381469727,0.9000000357627869
5.37,76.76768493652344,-23.75048065185547,0.8810662031173706,-16.920366287231445,-11.324655532836914,147.8866729736328,-22.200000762939453,-28.350000381469727,1.6500000953674316
5.38,76.69107055664062,-15.24627685546875,1.647210717201233,-12.790199279785156,-14.255742073059082,161.6094970703125,-22.200000762939453,-28.350000381469727,1.6500000953674316
5.39,78.87458038330078,-16.089035034179688,9.691728591918945,-6.661561965942383,-9.592649459838867,178.92955017089844,-23.55000114440918,-30.150001525878906,1.0500000715255737
5.409,73.12849426269531,-27.044902801513672,14.901511192321777,-26.113323211669922,-21.716691970825195,207.5742645263672,-24.150001525878906,-29.55000114440918,-0.45000001788139343
5.412,70.44699096679688,-45.892059326171875,12.48815631866455,-23.715160369873047,-21.316997528076172,200.91270446777344,-24.150001525878906,-29.55000114440918,-0.45000001788139343
5.42,72.86034393310547,-46.54328155517578,13.139378547668457,-34.373661041259766,-23.581928253173828,233.42112731933594,-22.200000762939453,-31.05000114440918,0.9000000357627869
5.43,78.87458038330078,-46.504974365234375,11.798625946044922,-55.69065856933594,-25.447166442871094,241.814697265625,-22.200000762939453,-31.05000114440918,0.9000000357627869
5.44,81.4028549194336,-49.416324615478516,11.453861236572266,-73.27718353271484,-30.90964698791504,251.94027709960938,-20.55000114440918,-32.85000228881836,0.6000000238418579
5.45,78.10843658447266,-48.343719482421875,7.508216381072998,-88.59877014160156,-17.719755172729492,270.1929626464844,-20.700000762939453,-32.55000305175781,-0.45000001788139343
5.469,90.44336700439453,-46.73481750488281,2.183511972427368,-115.51148223876953,-17.453292846679688,280.98468017578125,-21.150001525878906,-34.95000076293945,0.15000000596046448
5.473,106.60901641845703,-33.32728576660156,2.145204782485962,-89.93108367919922,-36.905052185058594,303.2342834472656,-19.950000762939453,-34.20000076293945,0.15000000596046448
5.48,103.35289764404297,-32.25468444824219,2.183511972427368,-78.47319793701172,-30.37672233581543,330.2802429199219,-19.950000762939453,-34.20000076293945,0.15000000596046448
5.49,107.71992492675781,-43.13393783569336,5.861005783081055,-85.4012222290039,-31.842266082763672,348.0,-18.900001525878906,-34.95000076293945,-0.45000001788139343
5.5,118.90563201904297,-60.7552604675293,5.171475887298584,-96.19295501708984,-44.63246536254883,366.6523742675781,-18.900001525878906,-34.5,-0.9000000357627869
5.51,141.66012573242188,-54.12811279296875,7.891288757324219,-106.18529510498047,-57.55589294433594,395.56353759765625,-18.30000114440918,-37.05000305175781,-1.8000000715255737
5.527,142.2347412109375,-22.984336853027344,12.181697845458984,-75.8085708618164,-38.90352249145508,391.4333801269531,-18.0,-38.25,-2.8500001430511475
5.531,37.42616271972656,-31.871612548828125,12.947842597961426,-47.830013275146484,-38.50382614135742,392.76568603515625,-18.0,-38.25,-2.8500001430511475
5.54,26.891674041748047,-48.68848419189453,10.113107681274414,-56.09035110473633,-23.98162269592285,390.5007629394531,-16.200000762939453,-39.150001525878906,-2.25
5.55,20.83913230895996,-74.20109558105469,7.240066051483154,-113.51301574707031,-10.525267601013184,354.2618713378906,-16.05000114440918,-37.80000305175781,-3.6000001430511475
5.56,5.784391403198242,-57.001155853271484,2.4899697303771973,-135.76263427734375,1.8652373552322388,321.88665771484375,-13.65000057220459,-39.60000228881836,-3.0
5.57,-9.040505409240723,-41.83149337768555,0.7661445140838623,-95.9264907836914,3.597243309020996,304.5666198730469,-13.65000057220459,-39.60000228881836,-3.0
5.589,-19.99637222290039,-58.68667221069336,-3.6774938106536865,-76.74119567871094,-3.86370587348938,295.9065856933594,-13.65000057220459,-39.60000228881836,-5.700000286102295
5.593,40.41412353515625,-84.39082336425781,-2.719813108444214,-106.05206298828125,-26.246553421020508,266.1960144042969,-11.40000057220459,-41.55000305175781,-6.750000476837158
5.6,61.866172790527344,-77.763671875,0.2298433631658554,-103.52066802978516,-32.77488327026367,253.1393585205078,-11.40000057220459,-41.55000305175781,-6.750000476837158
5.61,91.70750427246094,-66.07996368408203,1.8770540952682495,-77.80704498291016,-57.02296829223633,262.4655456542969,-13.200000762939453,-41.55000305175781,-7.050000190734863
5.62,126.56707763671875,-57.26930618286133,12.871228218078613,-53.69218826293945,-73.27718353271484,257.13629150390625,-13.200000762939453,-41.55000305175781,-7.050000190734863
5.63,131.89178466796875,-64.31783294677734,21.6818904876709,-68.21439361572266,-78.20673370361328,226.62632751464844,-10.950000762939453,-41.55000305175781,-7.050000190734863
5.645,122.16175079345703,-72.4772720336914,20.915746688842773,-86.86676788330078,-87.39968872070312,193.45175170898438,-8.700000762939453,-42.30000305175781,-7.800000190734863
5.65,105.4214859008789,-59.5294303894043,15.207969665527344,-91.79632568359375,-93.2618637084961,174.66615295410156,-8.700000762939453,-42.30000305175781,-7.800000190734863
5.66,96.3809814453125,-56.80961608886719,9.691728591918945,-64.61714935302734,-83.00305938720703,153.0826873779297,-8.700000762939453,-42.60000228881836,-7.500000476837158
5.67,80.33025360107422,-52.67243576049805,-0.5363011956214905,8.793261528015137,-70.74578857421875,136.69525146484375,-8.700000762939453,-42.60000228881836,-7.500000476837158
5.68,63.168617248535156,-73.12849426269531,-6.244078159332275,92.19601440429688,-41.434913635253906,137.8943328857422,-7.950000286102295,-43.5,-9.300000190734863
5.69,42.1762580871582,-78.68304443359375,-0.6129156351089478,116.71056365966797,-13.056661605834961,132.9647674560547,-8.700000762939453,-43.05000305175781,-9.75
5.703,21.37543296813965,-65.19889831542969,17.544710159301758,60.22052001953125,27.17917251586914,80.73812866210938,-7.800000190734863,-42.900001525878906,-9.90000057220459
5.71,-5.018246650695801,-43.74685287475586,21.56696891784668,48.8958625793457,37.83767318725586,43.83307647705078,-7.800000190734863,-42.900001525878906,-9.90000057220459
5.72,-23.44402313232422,-31.028854370117188,25.39769172668457,35.839202880859375,49.82848358154297,5.595712184906006,-7.800000190734863,-42.900001525878906,-9.90000057220459
5.73,-48.68848419189453,-16.012420654296875,27.849353790283203,-23.04900360107422,31.842266082763672,-81.27105712890625,-7.650000095367432,-43.5,-9.0
5.74,-59.146358489990234,7.393294811248779,6.550535678863525,-125.7702865600586,12.656967163085938,-203.17764282226562,-7.650000095367432,-42.30000305175781,-8.550000190734863
5.758,-64.39444732666016,28.462270736694336,-33.02082824707031,-89.66461944580078,18.385910034179688,-289.64471435546875,-6.300000190734863,-43.95000076293945,-10.950000762939453
5.762,-38.07738494873047,64.24121856689453,-18.081010818481445,-33.30780792236328,16.520673751831055,-378.9096374511719,-8.40000057220459,-42.60000228881836,-11.100000381469727
5.77,7.086836814880371,78.72135162353516,-3.8307228088378906,28.644716262817383,31.842266082763672,-411.2848205566406,-8.40000057220459,-42.60000228881836,-11.100000381469727
5.78,21.75850486755371,76.00154113769531,-2.6815059185028076,117.9096450805664,47.297088623046875,-444.8591003417969,-9.300000190734863,-43.20000076293945,-9.450000762939453
5.79,27.88766098022461,54.089805603027344,-7.048529624938965,201.4456329345703,64.3506851196289,-458.1822204589844,-11.40000057220459,-41.10000228881836,-10.950000762939453
5.8,16.127342224121094,18.11931800842285,-1.723825216293335,211.30474853515625,67.814697265625,-492.2894287109375,-12.15000057220459,-40.35000228881836,-11.850000381469727
5.819,13.10107135772705,-14.288596153259277,4.750096321105957,166.00611877441406,75.67534637451172,-544.5160522460938,-12.15000057220459,-40.35000228881836,-11.850000381469727
5.823,21.605276107788086,-28.883649826049805,5.746084213256836,77.67381286621094,65.81623077392578,-576.8912353515625,-15.750000953674316,-38.55000305175781,-9.15000057220459
5.83,36.88985824584961,-35.97048568725586,4.252102375030518,58.62174606323242,55.69065856933594,-581.421142578125,-16.80000114440918,-39.0,-8.40000057220459
5.84,37.924156188964844,-36.123714447021484,5.592854976654053,23.848390579223633,67.68146514892578,-590.6140747070312,-17.55000114440918,-36.60000228881836,-8.700000762939453
5.85,42.061336517333984,-36.50678634643555,9.27034854888916,16.920366287231445,69.4134750366211,-591.0137939453125,-17.400001525878906,-35.70000076293945,-9.300000190734863
5.86,40.452430725097656,-37.54108428955078,8.580819129943848,22.915773391723633,62.618682861328125,-579.2894287109375,-17.400001525878906,-35.70000076293945,-9.300000190734863
5.878,43.09563064575195,-46.54328155517578,8.772355079650879,12.923430442810059,58.355281829833984,-577.0244750976562,-20.700000762939453,-33.0,-7.050000190734863
5.883,46.198516845703125,-58.03544998168945,8.504204750061035,3.3307809829711914,65.81623077392578,-557.972412109375,-22.5,-33.60000228881836,-7.650000095367432
5.89,46.619895935058594,-65.2372055053711,5.171475887298584,-8.260336875915527,83.5359878540039,-567.4318237304688,-23.55000114440918,-28.950000762939453,-7.950000286102295
5.9,47.002967834472656,-67.99533081054688,7.048529624938965,3.3307809829711914,81.67074584960938,-545.4486694335938,-23.55000114440918,-28.950000762939453,-7.950000286102295
5.91,49.79939651489258,-68.761474609375,9.423578262329102,3.86370587348938,88.46553802490234,-544.5160522460938,-23.55000114440918,-27.000001907348633,-7.950000286102295
5.92,57.805606842041016,-70.37037658691406,7.4316020011901855,15.588054656982422,96.05972290039062,-530.1270751953125,-24.150001525878906,-25.200000762939453,-7.500000476837158
5.94,66.19488525390625,-72.93695831298828,8.274360656738281,25.7136287689209,87.13323211669922,-505.74578857421875,-24.900001525878906,-24.150001525878906,-6.750000476837158
5.943,73.664794921875,-74.2394027709961,13.752294540405273,13.58958625793457,85.26799011230469,-487.22662353515625,-24.30000114440918,-23.55000114440918,-6.600000381469727
5.95,79.29595947265625,-74.6607894897461,16.47210693359375,18.91883659362793,86.3338394165039,-483.76263427734375,-24.30000114440918,-23.55000114440918,-6.600000381469727
5.96,80.90486145019531,-75.9249267578125,13.21599292755127,15.321592330932617,73.0107192993164,-475.3690490722656,-25.650001525878906,-22.5,-6.0
5.97,88.48969268798828,-76.30799865722656,5.439626216888428,30.37672233581543,58.355281829833984,-438.0643005371094,-24.900001525878906,-19.05000114440918,-5.700000286102295
5.98,101.97383880615234,-78.29997253417969,0.2298433631658554,28.111791610717773,48.62940216064453,-407.6875915527344,-25.80000114440918,-18.450000762939453,-6.900000095367432
5.999,110.97603607177734,-82.4754638671875,-4.865017890930176,12.923430442810059,43.03369140625,-373.1806945800781,-25.650001525878906,-15.90000057220459,-4.950000286102295
6.004,111.47402954101562,-84.04605865478516,-8.236053466796875,-25.313934326171875,35.439510345458984,-316.6906433105469,-25.650001525878906,-15.90000057220459,-4.950000286102295
6.01,98.79434204101562,-86.45941162109375,-1.8387469053268433,-41.434913635253906,20.91730499267578,-295.24041748046875,-27.000001907348633,-15.450000762939453,-6.600000381469727
6.02,94.69546508789062,-84.19928741455078,-0.15322890877723694,-87.0,25.04747200012207,-286.1806945800781,-26.55000114440918,-14.250000953674316,-5.100000381469727
6.03,90.67321014404297,-81.63269805908203,4.213795185089111,-126.5696792602539,27.71209716796875,-230.75650024414062,-26.700000762939453,-12.90000057220459,-3.450000047683716
6.04,86.38279724121094,-75.58016204833984,7.010222434997559,-173.0673828125,29.84379768371582,-206.90811157226562,-26.400001525878906,-12.90000057220459,-4.5
6.06,81.441162109375,-69.10623931884766,9.691728591918945,-221.96324157714844,44.89892578125,-181.06124877929688,-26.400001525878906,-12.90000057220459,-4.5
6.063,76.65276336669922,-57.920528411865234,12.373234748840332,-220.76416015625,65.68299865722656,-147.35374450683594,-27.450000762939453,-11.40000057220459,-4.5
6.07,79.5641098022461,-35.97048568725586,19.038692474365234,-169.8698272705078,52.493106842041016,-108.58345794677734,-25.200000762939453,-10.200000762939453,-3.750000238418579
6.08,87.72354888916016,-31.871612548828125,20.11129379272461,-83.80245208740234,31.575803756713867,-33.57427215576172,-27.150001525878906,-8.700000762939453,-4.200000286102295
6.09,94.00593566894531,-45.432373046875,9.806650161743164,-40.102603912353516,20.91730499267578,21.45022964477539,-27.30000114440918,-10.800000190734863,-1.8000000715255737
6.1,88.14492797851562,-60.64033889770508,3.485957622528076,-46.764163970947266,8.660030364990234,57.15620040893555,-27.30000114440918,-10.800000190734863,-1.8000000715255737
6.119,85.19527435302734,-56.19670104980469,-1.4173674583435059,-61.9525260925293,4.663093090057373,113.91270446777344,-26.250001907348633,-10.050000190734863,-2.5500001907348633
6.123,93.9293212890625,-48.80340576171875,-10.917559623718262,-45.16539001464844,-28.644716262817383,220.8973846435547,-26.250001907348633,-10.350000381469727,-3.3000001907348633
6.13,101.16938781738281,-83.7012939453125,-10.72602367401123,-13.856048583984375,8.127105712890625,196.915771484375,-25.950000762939453,-12.15000057220459,-2.25
6.14,90.86474609375,-61.40648651123047,24.861391067504883,65.949462890625,-19.85145378112793,207.30780029296875,-25.500001907348633,-12.750000953674316,-1.8000000715255737
6.15,107.79653930664062,-55.23902130126953,61.48310089111328,-109.915771484375,-43.43338394165039,147.8866729736328,-25.500001907348633,-12.750000953674316,-1.8000000715255737
6.16,130.39779663085938,-9.232041358947754,1.5705963373184204,-217.30015563964844,5.995405673980713,92.3292465209961,-25.650001525878906,-11.700000762939453,-2.25
6.179,127.63967895507812,90.09859466552734,-20.379444122314453,-118.44257354736328,25.580398559570312,155.34762573242188,-25.650001525878906,-13.65000057220459,-1.6500000953674316
6.183,142.80934143066406,186.1348114013672,-6.856993675231934,93.92802429199219,27.045940399169922,238.75038146972656,-27.450000762939453,-14.100000381469727,-1.6500000953674316
6.19,109.5203628540039,115.95597839355469,94.61885070800781,219.56507873535156,25.846860885620117,231.02296447753906,-26.700000762939453,-14.40000057220459,-0.9000000357627869
6.2,99.33064270019531,68.26348114013672,79.90887451171875,396.3629455566406,20.91730499267578,225.8269500732422,-26.700000762939453,-14.40000057220459,-0.9000000357627869
6.21,114.11723327636719,33.25067138671875,-1.2258312702178955,376.9111633300781,54.35834503173828,264.59722900390625,-28.05000114440918,-15.750000953674316,-1.350000023841858
6.22,110.59296417236328,-50.71876907348633,39.57136535644531,260.7335205078125,48.8958625793457,191.0535888671875,-25.80000114440918,-17.700000762939453,-1.350000023841858
6.239,96.72574615478516,-158.400390625,-9.883264541625977,-15.188361167907715,66.882080078125,122.83920288085938,-26.55000114440918,-18.900001525878906,-1.8000000715255737
6.243,66.73119354248047,-76.61445617675781,-24.89969825744629,-118.57579803466797,33.70750427246094,161.6094970703125,-26.55000114440918,-18.900001525878906,-1.8000000715255737
6.25,87.80016326904297,-1.1109095811843872,-12.143390655517578,-57.02296829223633,13.722817420959473,156.81317138671875,-26.700000762939453,-18.75,-0.45000001788139343
6.26,122.35328674316406,33.48051834106445,17.659631729125977,84.33537292480469,8.793261528015137,169.73660278320312,-26.250001907348633,-18.900001525878906,-1.8000000715255737
6.27,146.83160400390625,56.15839385986328,59.91250228881836,207.5742645263672,7.194486618041992,206.24195861816406,-25.500001907348633,-20.100000381469727,-0.6000000238418579
6.28,119.7100830078125,37.46446990966797,74.85232543945312,247.67686462402344,-24.248085021972656,219.83154296875,-25.650001525878906,-20.25,0.15000000596046448
6.3,107.10700988769531,-43.4020881652832,37.502777099609375,170.0030517578125,-31.709033966064453,200.77947998046875,-25.650001525878906,-20.25,0.15000000596046448
6.304,90.21351623535156,-112.66155242919922,-20.264522552490234,-36.372127532958984,-14.12251091003418,152.68299865722656,-26.400001525878906,-21.75,-0.45000001788139343
6.31,46.16020965576172,-87.53201293945312,-25.933992385864258,-57.955589294433594,-19.718223571777344,140.95864868164062,-25.650001525878906,-22.5,-0.15000000596046448
6.32,52.55751419067383,-59.22297286987305,-18.34916114807129,-40.502296447753906,-20.38437843322754,109.11638641357422,-25.500001907348633,-23.55000114440918,-2.1000001430511475
6.33,71.55789947509766,-27.811046600341797,9.423578262329102,-1.9984685182571411,-16.25421142578125,104.5865249633789,-26.700000762939453,-22.5,-1.9500000476837158
6.34,85.99972534179688,-27.313053131103516,8.925583839416504,-8.660030364990234,-4.263399600982666,85.53445434570312,-26.700000762939453,-22.5,-1.9500000476837158
6.359,85.99972534179688,-41.48672866821289,1.6855180263519287,-19.31852912902832,4.130168437957764,79.2725830078125,-27.000001907348633,-22.350000381469727,-0.30000001192092896
6.363,76.92091369628906,-46.390052795410156,1.9536685943603516,-35.439510345458984,3.4640121459960938,73.54364013671875,-26.250001907348633,-23.100000381469727,-1.8000000715255737
6.37,72.32404327392578,-33.44221115112305,12.449849128723145,-30.90964698791504,8.260336875915527,66.48238372802734,-25.05000114440918,-23.100000381469727,-2.1000001430511475
6.38,71.8643569946289,-26.96828842163086,15.437812805175781,-21.316997528076172,0.39969372749328613,63.81776428222656,-24.150001525878906,-22.5,-1.2000000476837158
6.39,75.38862609863281,-22.256498336791992,22.754493713378906,0.5329249501228333,-11.058192253112793,49.16232681274414,-24.150001525878906,-22.5,-1.2000000476837158
6.4,74.04786682128906,-17.238252639770508,25.665842056274414,32.24195861816406,-23.448698043823242,76.87442779541016,-25.650001525878906,-24.450000762939453,-1.6500000953674316
6.419,73.47325897216797,-31.948226928710938,30.722396850585938,33.70750427246094,-25.313934326171875,52.093414306640625,-25.05000114440918,-24.750001907348633,-0.6000000238418579
6.423,65.96504211425781,-54.894256591796875,14.633360862731934,4.263399600982666,-34.906585693359375,42.633995056152344,-25.80000114440918,-26.250001907348633,-0.6000000238418579
6.43,71.213134765625,-53.055511474609375,4.367023944854736,-13.456355094909668,-37.57120895385742,38.23736572265625,-24.450000762939453,-25.650001525878906,-1.9500000476837158
6.44,77.49552154541016,-33.82528305053711,6.703764915466309,-7.460949420928955,-28.111791610717773,35.17304611206055,-24.450000762939453,-25.650001525878906,-1.9500000476837158
6.45,80.1770248413086,-17.00840950012207,13.828908920288086,11.324655532836914,-24.248085021972656,32.64165496826172,-25.80000114440918,-25.05000114440918,-2.8500001430511475
6.46,75.19709014892578,-24.823083877563477,12.105083465576172,14.255742073059082,-18.652372360229492,53.026031494140625,-24.750001907348633,-26.250001907348633,-2.8500001430511475
6.479,71.71112823486328,-38.613685607910156,7.086836814880371,-7.194486618041992,-20.517610549926758,55.55742645263672,-24.30000114440918,-25.500001907348633,-2.1000001430511475
6.482,74.2394027709961,-39.341522216796875,5.056553840637207,-27.17917251586914,-3.86370587348938,68.88054656982422,-24.750001907348633,-25.05000114440918,-3.6000001430511475
6.49,72.63050079345703,-26.240449905395508,10.074800491333008,-22.249616622924805,0.2664624750614166,69.01377868652344,-24.750001907348633,-25.05000114440918,-3.6000001430511475
6.5,68.53163146972656,-27.811046600341797,10.879252433776855,-16.65390396118164,3.197549819946289,92.3292465209961,-24.900001525878906,-26.400001525878906,-2.700000047683716
6.51,62.90046691894531,-39.4947509765625,14.135366439819336,-27.31240463256836,6.395099639892578,77.54058074951172,-25.950000762939453,-25.200000762939453,-2.25
6.52,65.2372055053711,-49.531246185302734,8.197746276855469,-59.15467071533203,15.055130004882812,75.14241790771484,-25.80000114440918,-26.250001907348633,-2.1000001430511475
6.539,69.9489974975586,-43.05732345581055,5.286397457122803,-59.4211311340332,3.9969370365142822,77.4073486328125,-23.55000114440918,-26.55000114440918,-2.8500001430511475
6.543,81.17301177978516,-27.657817840576172,11.683704376220703,-34.50688934326172,-4.663093090057373,106.71822357177734,-24.900001525878906,-25.200000762939453,-3.0
6.55,85.19527435302734,-27.849353790283203,11.60708999633789,-42.633995056152344,-5.329249382019043,112.18070220947266,-24.900001525878906,-25.200000762939453,-3.0
6.56,93.3547134399414,-30.301015853881836,13.21599292755127,-45.03215789794922,-14.92189884185791,146.82083129882812,-25.05000114440918,-28.200000762939453,-3.3000001907348633
6.57,102.66336822509766,-23.405715942382812,15.514427185058594,-46.764163970947266,-25.580398559570312,162.5421142578125,-26.400001525878906,-27.600000381469727,-2.25
6.58,93.77609252929688,-8.734047889709473,22.17988395690918,-14.255742073059082,-19.584991455078125,185.19142150878906,-23.700000762939453,-26.400001525878906,-4.200000286102295
6.599,74.20109558105469,-19.19192123413086,25.474306106567383,-10.125574111938477,-5.8621745109558105,185.5911102294922,-23.700000762939453,-26.400001525878906,-4.200000286102295
6.603,50.68046188354492,-41.180267333984375,20.11129379272461,-36.372127532958984,-6.794793128967285,199.31393432617188,-21.900001525878906,-29.55000114440918,-4.200000286102295
6.61,51.10184097290039,-64.0879898071289,15.591041564941406,-58.888206481933594,-14.388973236083984,187.72280883789062,-21.900001525878906,-29.55000114440918,-4.200000286102295
6.62,60.257266998291016,-61.40648651123047,10.036493301391602,-80.47166442871094,-12.923430442810059,176.7978515625,-23.700000762939453,-28.80000114440918,-4.200000286102295
6.63,74.35432434082031,-46.27513122558594,2.2218191623687744,-76.07503509521484,-36.63859176635742,193.3185272216797,-23.700000762939453,-28.80000114440918,-4.200000286102295
6.64,92.7034912109375,-32.599449157714844,-0.1149216815829277,-43.56661605834961,-51.693721771240234,239.5497589111328,-22.200000762939453,-29.850000381469727,-3.0
6.66,101.20769500732422,-24.13355255126953,3.9839515686035156,-23.715160369873047,-58.08882141113281,254.47166442871094,-22.5,-31.200000762939453,-5.100000381469727
6.664,64.54767608642578,-31.986534118652344,13.21599292755127,-4.796324729919434,-50.62786865234375,262.865234375,-20.25,-31.200000762939453,-3.9000000953674316
6.67,58.80159378051758,-44.35976791381836,17.42978858947754,-15.321592330932617,-50.89433288574219,262.06585693359375,-20.25,-31.200000762939453,-3.9000000953674316
6.68,55.35394287109375,-54.01319122314453,18.808849334716797,-45.56508255004883,-50.89433288574219,269.2603454589844,-20.25,-31.200000762939453,-3.9000000953674316
6.69,41.5633430480957,-57.499149322509766,21.26051139831543,-61.552833557128906,-28.24502182006836,244.07962036132812,-21.0,-33.900001525878906,-5.400000095367432
6.7,50.757076263427734,-65.888427734375,17.00840950012207,-83.40275573730469,-36.372127532958984,250.34149169921875,-21.0,-33.60000228881836,-2.8500001430511475
6.716,85.34850311279297,-66.80780792236328,12.334927558898926,-96.59264373779297,-52.626338958740234,271.39202880859375,-20.55000114440918,-34.35000228881836,-6.150000095367432
6.72,111.58895111083984,-31.756690979003906,6.933608055114746,-83.93567657470703,-65.68299865722656,286.713623046875,-20.55000114440918,-34.35000228881836,-6.150000095367432
6.73,104.42549896240234,-23.367408752441406,6.205770969390869,-63.151607513427734,-55.95711898803711,301.23583984375,-20.55000114440918,-34.35000228881836,-6.150000095367432
6.74,79.0278091430664,-31.10546875,10.074800491333008,-44.36600112915039,-58.4885139465332,317.6232604980469,-19.200000762939453,-34.20000076293945,-6.750000476837158
6.75,65.54366302490234,-56.618080139160156,6.320692539215088,-56.756507873535156,-66.882080078125,305.2327575683594,-18.900001525878906,-36.900001525878906,-6.750000476837158
6.76,37.46446990966797,-57.53745651245117,3.3710360527038574,-69.4134750366211,-51.160797119140625,297.2388916015625,-18.150001525878906,-34.95000076293945,-8.25
6.778,13.48414421081543,-59.79758071899414,2.5665841102600098,-70.3460922241211,-49.42878723144531,276.32159423828125,-18.150001525878906,-34.95000076293945,-8.25
6.781,22.83110809326172,-73.0135726928711,0.49799394607543945,-77.94027709960938,-43.30015182495117,266.46246337890625,-16.650001525878906,-37.95000076293945,-9.0
6.79,27.006595611572266,-73.0518798828125,-0.4213795065879822,-82.86982727050781,-50.4946403503418,265.3966369628906,-14.40000057220459,-37.95000076293945,-10.050000190734863
6.8,44.398075103759766,-62.74723815917969,2.4133553504943848,-87.53292083740234,-52.626338958740234,266.72894287109375,-15.90000057220459,-39.150001525878906,-9.0
6.81,54.089805603027344,-60.52541732788086,2.9879636764526367,-76.07503509521484,-55.29096221923828,257.26953125,-13.500000953674316,-38.25,-8.700000762939453
6.828,71.32805633544922,-70.48529815673828,8.887276649475098,-84.73506927490234,-67.814697265625,250.74119567871094,-13.500000953674316,-38.25,-8.700000762939453
6.832,96.76405334472656,-68.87639617919922,10.381258964538574,-97.5252685546875,-75.00918579101562,244.21286010742188,-13.500000953674316,-37.5,-9.15000057220459
6.84,101.89722442626953,-57.65237808227539,11.492168426513672,-81.13782501220703,-67.94792938232422,255.0045928955078,-12.450000762939453,-41.55000305175781,-10.800000190734863
6.85,108.40945434570312,-58.45682907104492,12.411541938781738,-71.94486999511719,-83.5359878540039,252.3399658203125,-12.300000190734863,-41.25,-12.0
6.86,119.82500457763672,-60.1423454284668,15.514427185058594,-71.94486999511719,-89.39816284179688,215.7013702392578,-11.550000190734863,-39.75,-10.65000057220459
6.87,115.419677734375,-56.2733154296875,16.1656494140625,-72.0781021118164,-81.40428924560547,196.51608276367188,-11.550000190734863,-39.75,-10.65000057220459
6.88,97.45358276367188,-48.07556915283203,14.288596153259277,-57.02296829223633,-79.67227935791016,158.0122528076172,-11.550000190734863,-40.95000076293945,-12.0
6.893,70.86837005615234,-45.81544494628906,15.782577514648438,3.597243309020996,-59.02143859863281,112.71363067626953,-10.5,-39.75,-11.700000762939453
6.9,41.333499908447266,-40.79719543457031,18.847156524658203,25.7136287689209,-49.29555892944336,86.60030364990234,-10.800000190734863,-40.20000076293945,-13.500000953674316
6.91,19.268535614013672,-39.647979736328125,16.1656494140625,44.89892578125,-10.125574111938477,83.80245208740234,-10.65000057220459,-39.60000228881836,-13.65000057220459
6.92,-4.252102375030518,-47.76911163330078,20.95405387878418,124.03828430175781,-10.92496109008789,60.35375213623047,-10.65000057220459,-39.60000228881836,-13.65000057220459
6.93,-16.510414123535156,-45.470680236816406,7.316680431365967,84.73506927490234,18.2526798248291,36.10566711425781,-11.25,-39.75,-13.500000953674316
6.949,-38.000770568847656,-43.55531692504883,7.163451671600342,15.854516983032227,14.92189884185791,-26.113323211669922,-10.5,-39.75,-13.500000953674316
6.953,-37.809234619140625,-36.928165435791016,-11.185709953308105,-66.08269500732422,21.316997528076172,-162.27565002441406,-12.0,-41.25,-13.950000762939453
6.96,-48.38202667236328,13.407529830932617,-23.63555908203125,-91.66309356689453,19.85145378112793,-246.74424743652344,-9.90000057220459,-39.900001525878906,-14.100000381469727
6.97,-30.722396850585938,52.71074295043945,-7.891288757324219,-49.96171569824219,29.577335357666016,-336.0091857910156,-9.90000057220459,-39.900001525878906,-14.100000381469727
6.98,-4.290409564971924,95.07853698730469,1.4939818382263184,54.4915771484375,37.70444107055664,-388.6355285644531,-12.750000953674316,-39.0,-13.950000762939453
6.99,20.76251792907715,108.48606872558594,10.5344877243042,187.72280883789062,37.97090148925781,-386.3705749511719,-12.90000057220459,-40.35000228881836,-13.350000381469727
7.1,81.13470458984375,-86.91909790039062,19.958065032958984,-53.82542037963867,9.459418296813965,-672.8177490234375,-25.950000762939453,-26.400001525878906,-9.0
7.11,76.69107055664062,-79.94718170166016,15.935806274414062,-90.06431579589844,11.324655532836914,-669.4869384765625,-25.950000762939453,-26.400001525878906,-9.0
7.129,77.61044311523438,-70.90667724609375,14.709975242614746,-98.99080657958984,17.852985382080078,-655.0980224609375,-25.05000114440918,-22.80000114440918,-8.40000057220459
7.133,84.77389526367188,-66.57795715332031,11.990161895751953,-83.5359878540039,20.117916107177734,-625.2542114257812,-28.200000762939453,-21.0,-9.300000190734863
7.14,104.42549896240234,-83.54806518554688,11.070788383483887,-69.14701080322266,15.321592330932617,-621.7901611328125,-28.05000114440918,-18.150001525878906,-9.450000762939453
7.15,108.869140625,-87.30216979980469,10.342951774597168,-73.27718353271484,11.324655532836914,-585.4180297851562,-28.05000114440918,-16.950000762939453,-7.950000286102295
7.16,108.67760467529297,-83.77790832519531,14.020444869995117,-59.82082748413086,13.722817420959473,-510.0091857910156,-28.05000114440918,-16.950000762939453,-7.950000286102295
7.17,108.10299682617188,-82.66699981689453,11.185709953308105,-44.36600112915039,16.65390396118164,-498.01837158203125,-28.80000114440918,-14.550000190734863,-8.40000057220459
7.189,103.96581268310547,-75.58016204833984,9.040505409240723,-9.192955017089844,32.77488327026367,-425.140869140625,-29.400001525878906,-13.200000762939453,-8.550000190734863
7.193,97.33866119384766,-67.53564453125,7.623138427734375,-8.793261528015137,38.90352249145508,-405.8223571777344,-28.950000762939453,-9.75,-8.550000190734863
7.309,84.04605865478516,-69.06793212890625,19.536685943603516,-303.7672119140625,89.26493072509766,-58.4885139465332,-28.05000114440918,-0.75,-4.350000381469727
7.312,92.39703369140625,-54.396263122558594,18.464082717895508,-298.8376770019531,70.74578857421875,22.382848739624023,-28.05000114440918,-0.75,-4.350000381469727
7.32,98.06649780273438,-40.22258758544922,14.250288963317871,-250.4747314453125,32.24195861816406,52.093414306640625,-28.80000114440918,1.8000000715255737,-4.350000381469727
7.33,101.7056884765625,-26.355371475219727,6.856993675231934,-203.8437957763672,18.91883659362793,84.06890869140625,-28.05000114440918,0.75,-3.6000001430511475
7.34,97.33866119384766,-5.20978307723999,-7.738059997558594,-144.2894287109375,5.196018218994141,125.50382232666016,-27.900001525878906,0.9000000357627869,-3.0
7.35,89.71552276611328,13.943830490112305,-20.341136932373047,-74.47626495361328,8.260336875915527,168.5375213623047,-27.900001525878906,0.9000000357627869,-3.0
7.369,82.85853576660156,15.054739952087402,-19.07699966430664,3.197549819946289,13.856048583984375,236.08575439453125,-28.80000114440918,-0.75,-2.5500001907348633
7.373,82.36053466796875,-17.8128604888916,-8.734047889709473,83.40275573730469,-9.192955017089844,279.3858947753906,-28.05000114440918,-0.30000001192092896,-2.8500001430511475
7.38,92.35872650146484,-102.20368194580078,57.614070892333984,45.56508255004883,-22.915773391723633,199.84686279296875,-30.30000114440918,-1.0500000715255737,-2.5500001907348633
7.39,110.82280731201172,-74.00955963134766,30.301015853881836,-121.24042510986328,-1.9984685182571411,120.30780792236328,-30.000001907348633,-2.25,-2.8500001430511475
7.4,140.62582397460938,19.728221893310547,18.4257755279541,-124.70443725585938,15.987748146057129,130.83306884765625,-30.000001907348633,-2.25,-2.8500001430511475
7.41,147.71266174316406,102.47183227539062,7.738059997558594,48.62940216064453,5.995405673980713,210.63858032226562,-29.55000114440918,-3.750000238418579,-3.6000001430511475
7.429,141.5452117919922,135.3394317626953,23.558944702148438,168.27105712890625,-27.578866958618164,244.34608459472656,-30.150001525878906,-2.8500001430511475,-1.9500000476837158
7.432,99.71371459960938,75.61846923828125,53.63011932373047,259.2679748535156,26.513015747070312,231.2894287109375,-30.450000762939453,-4.350000381469727,-3.0
7.44,78.03182220458984,6.244078159332275,67.95702362060547,230.88973999023438,9.192955017089844,207.0413360595703,-31.500001907348633,-6.150000095367432,-3.3000001907348633
7.45,107.56669616699219,-5.094861030578613,25.81907081604004,148.28636169433594,-5.8621745109558105,244.07962036132812,-31.500001907348633,-6.150000095367432,-3.3000001907348633
7.46,121.89360046386719,-45.35575866699219,5.51624059677124,79.53904724121094,12.25727367401123,179.32923889160156,-30.750001907348633,-5.700000286102295,-3.6000001430511475
7.47,106.26425170898438,-67.53564453125,-22.562957763671875,24.781009674072266,23.04900360107422,150.41806030273438,-31.500001907348633,-10.050000190734863,-3.9000000953674316
7.491,92.35872650146484,-10.687716484069824,-53.668426513671875,71.67840576171875,15.321592330932617,181.19448852539062,-30.900001525878906,-9.0,-2.25
7.494,83.50975799560547,12.449849128723145,-37.73262023925781,226.49310302734375,7.594180583953857,180.79478454589844,-31.650001525878906,-10.5,-3.750000238418579
7.5,97.0322036743164,1.2641384601593018,11.338939666748047,227.95864868164062,15.987748146057129,183.45941162109375,-31.650001525878906,-10.5,-3.750000238418579
7.51,108.17961120605469,-18.004396438598633,37.88584899902344,150.81776428222656,11.058192253112793,177.73046875,-29.700000762939453,-10.200000762939453,-4.200000286102295
7.52,130.4744110107422,-42.7508659362793,35.204341888427734,33.57427215576172,20.251148223876953,187.85604858398438,-31.650001525878906,-12.15000057220459,-2.700000047683716
