time,accel_x,accel_y,accel_z,gyro_x,gyro_y,gyro_z,mag_x,mag_y,mag_z
0.0,-1.499103307723999,-9.57487964630127,1.8029918670654297,0.0039706239476799965,-0.0024434609804302454,-0.003817907767370343,-12.247880935668945,83.71820831298828,-25.489622116088867
0.019,-1.4644074440002441,-9.541379928588867,1.7862420082092285,0.0029016099870204926,-0.003512475173920393,-0.006261368282139301,-11.970184326171875,83.10435485839844,-26.045015335083008
0.023,-1.4691929817199707,-9.594021797180176,1.8245272636413574,0.0050396379083395,0.0003054326225537807,-0.005650503095239401,-11.853259086608887,83.03128051757812,-25.855012893676758
0.03,-1.4871392250061035,-9.610772132873535,1.7635102272033691,0.005955935921519995,-0.00015271631127689034,-0.00809396430850029,-12.028646469116211,83.51359558105469,-25.358083724975586
0.04,-1.5086746215820312,-9.57368278503418,1.7443677186965942,0.006872233934700489,-0.0012217304902151227,-0.010690141469240189,-11.999415397644043,83.33820343017578,-25.50423812866211
0.05,-1.5469597578048706,-9.598808288574219,1.753938913345337,0.008246680721640587,0.0029016099870204926,-0.012828170321881771,-11.692487716674805,82.75357818603516,-26.4104061126709
0.06,-1.4787644147872925,-9.585646629333496,1.7635102272033691,0.008399397134780884,0.0024434609804302454,-0.014355332590639591,-11.765565872192383,83.1628189086914,-25.957321166992188
0.07,-1.428515076637268,-9.586843490600586,1.7910276651382446,0.010690141469240189,-0.0025961773935705423,-0.012675453908741474,-12.101724624633789,83.33820343017578,-26.39579200744629
0.089,-1.4620145559310913,-9.591629981994629,1.8077774047851562,0.009010262787342072,-0.0024434609804302454,-0.010537425056099892,-11.736333847045898,83.06050872802734,-25.182693481445312
0.093,-1.4333007335662842,-9.56650447845459,1.7898313999176025,0.010537425056099892,-0.0025961773935705423,-0.01114829070866108,-11.619409561157227,83.14820098876953,-25.182693481445312
0.1,-1.4811570644378662,-9.584450721740723,1.8460626602172852,0.007635815534740686,-0.0027488935738801956,-0.009926560334861279,-11.765565872192383,83.33820343017578,-25.387313842773438
0.11,-1.5672988891601562,-9.571290016174316,1.8628122806549072,0.007177666295319796,-0.0022907445672899485,-0.01160643994808197,-11.999415397644043,83.2066650390625,-26.32271385192871
0.12,-1.5158531665802002,-9.58923625946045,1.7970097064971924,0.005192354787141085,0.0088575454428792,-0.012828170321881771,-11.502485275268555,84.05436706542969,-26.33732795715332
0.13,-1.4057832956314087,-9.597611427307129,1.7958134412765503,0.005955935921519995,0.009926560334861279,-0.011759155429899693,-12.028646469116211,83.57205200195312,-25.32884979248047
0.147,-1.384247899055481,-9.629914283752441,1.7742778062820435,0.008704829961061478,0.00015271631127689034,-0.0039706239476799965,-12.540192604064941,83.83513641357422,-26.4104061126709
0.151,-1.3854442834854126,-9.633503913879395,1.7443677186965942,0.00809396430850029,-0.002138028386980295,-0.0039706239476799965,-12.160186767578125,83.23589324951172,-26.293479919433594
0.16,-1.4488540887832642,-9.616753578186035,1.7994025945663452,0.009621127508580685,-0.010079275816679,-0.0025961773935705423,-11.721718788146973,83.52820587158203,-26.52733039855957
0.17,-1.530210018157959,-9.56770133972168,1.7910276651382446,0.00809396430850029,-0.009162978269159794,-0.0032070425804704428,-11.619409561157227,83.86436462402344,-26.205787658691406
0.18,-1.6103696823120117,-9.564111709594727,1.8161523342132568,0.00809396430850029,-0.0024434609804302454,-0.0074830991216003895,-11.940953254699707,83.30897521972656,-25.665008544921875
0.19,-1.55413818359375,-9.568897247314453,1.7934205532073975,0.008399397134780884,0.004734205547720194,-0.0138971833512187,-11.970184326171875,83.35282135009766,-26.556564331054688
0.203,-1.3986047506332397,-9.57487964630127,1.817348837852478,0.007177666295319796,0.00427605677396059,-0.012980885803699493,-12.028646469116211,83.52820587158203,-25.489622116088867
0.21,-1.3938192129135132,-9.577272415161133,1.8257235288619995,0.005497787147760391,0.002138028386980295,-0.009773843921720982,-12.320959091186523,83.586669921875,-26.0304012298584
0.22,-1.3830513954162598,-9.600004196166992,1.813759446144104,0.0044287727214396,0.0018325956771150231,-0.0064140851609408855,-12.043262481689453,83.86436462402344,-26.220401763916016
0.23,-1.3962119817733765,-9.623931884765625,1.7922240495681763,0.003359758760780096,0.0003054326225537807,-0.0018325956771150231,-12.467114448547363,83.61589813232422,-26.4104061126709
0.24,-1.4632110595703125,-9.602396965026855,1.8448662757873535,0.004123340360820293,0.005192354787141085,-0.0022907445672899485,-11.926337242126465,83.4697494506836,-25.650394439697266
0.25,-1.557727575302124,-9.614360809326172,1.6905291080474854,0.0074830991216003895,0.0074830991216003895,-0.003359758760780096,-12.23326587677002,83.42589569091797,-25.88424301147461
0.266,-1.5708880424499512,-9.548558235168457,1.7575281858444214,0.009162978269159794,0.003054326167330146,-0.011301006190478802,-12.306343078613281,83.2066650390625,-26.366558074951172
0.27,-1.5182459354400635,-9.577272415161133,1.7718851566314697,0.00855211354792118,0.0044287727214396,-0.013439035043120384,-12.160186767578125,83.35282135009766,-25.84039878845215
0.28,-1.4895319938659668,-9.614360809326172,1.758724570274353,0.010231993161141872,0.004886921960860491,-0.01664607785642147,-12.101724624633789,83.57205200195312,-26.264249801635742
0.29,-1.4919248819351196,-9.591629981994629,1.782652735710144,0.010537425056099892,0.004123340360820293,-0.01710422709584236,-12.028646469116211,83.36743927001953,-26.23501968383789
0.3,-1.4297115802764893,-9.597611427307129,1.7970097064971924,0.00931569468230009,0.0050396379083395,-0.014813481830060482,-12.028646469116211,83.70359802246094,-26.30809783935547
0.319,-1.3818550109863281,-9.613164901733398,1.798206090927124,0.009162978269159794,0.0018325956771150231,-0.010842857882380486,-11.926337242126465,83.32359313964844,-26.220401763916016
0.323,-1.412961721420288,-9.58325481414795,1.813759446144104,0.010690141469240189,-0.004123340360820293,-0.007177666295319796,-12.467114448547363,83.52820587158203,-26.0304012298584
0.33,-1.4428720474243164,-9.598808288574219,1.8029918670654297,0.01038470957428217,-0.005650503095239401,-0.006872233934700489,-11.9847993850708,83.51359558105469,-25.855012893676758
0.34,-1.4775679111480713,-9.58325481414795,1.7754743099212646,0.007788531482219696,-0.00855211354792118,-0.005650503095239401,-12.130955696105957,83.07512664794922,-25.89885902404785
0.35,-1.502692461013794,-9.590433120727539,1.8149559497833252,0.0088575454428792,-0.0064140851609408855,-0.007635815534740686,-12.584039688110352,83.5428237915039,-25.723472595214844
0.36,-1.4237295389175415,-9.614360809326172,1.7862420082092285,0.01038470957428217,-0.005497787147760391,-0.007177666295319796,-11.955568313598633,84.28822326660156,-26.176557540893555
0.378,-1.412961721420288,-9.598808288574219,1.7862420082092285,0.00931569468230009,-0.0029016099870204926,-0.005650503095239401,-11.970184326171875,83.68898010253906,-26.54194450378418
0.382,-1.4500504732131958,-9.617950439453125,1.820937991142273,0.012522736564278603,0.0010690141934901476,-0.0027488935738801956,-11.9847993850708,83.5428237915039,-26.220401763916016
0.39,-1.4775679111480713,-9.592824935913086,1.7874385118484497,0.011453723534941673,0.001527163083665073,-0.0032070425804704428,-12.204033851623535,83.74744415283203,-26.60040855407715
0.4,-1.4943177700042725,-9.55214786529541,1.7599210739135742,0.012217304669320583,0.0006108652451075613,-0.005192354787141085,-12.335575103759766,83.805908203125,-25.562700271606445
0.41,-1.5014961957931519,-9.562914848327637,1.7443677186965942,0.014049900695681572,-0.001527163083665073,-0.009773843921720982,-12.160186767578125,83.65975189208984,-26.015785217285156
0.42,-1.514656662940979,-9.613164901733398,1.7670994997024536,0.016951510682702065,-0.005345070734620094,-0.013744467869400978,-11.765565872192383,83.4697494506836,-26.176557540893555
0.439,-1.5601202249526978,-9.556933403015137,1.7515461444854736,0.01710422709584236,-0.009468411095440388,-0.019089538604021072,-11.999415397644043,83.23589324951172,-25.752704620361328
0.443,-1.4799607992172241,-9.594021797180176,1.8029918670654297,0.01725694164633751,-0.0050396379083395,-0.026114489883184433,-12.043262481689453,83.48435974121094,-25.752704620361328
0.45,-1.4871392250061035,-9.607182502746582,1.8017953634262085,0.019089538604021072,-0.005345070734620094,-0.026419920846819878,-11.911721229553223,83.48435974121094,-26.556564331054688
0.46,-1.439282774925232,-9.595218658447266,1.8029918670654297,0.021991148591041565,-0.0022907445672899485,-0.02672535367310047,-12.072493553161621,83.5428237915039,-26.454252243041992
0.47,-1.467996597290039,-9.57368278503418,1.8077774047851562,0.01863138936460018,0.006261368282139301,-0.027183502912521362,-12.160186767578125,83.93743896484375,-26.61502456665039
0.48,-1.4536396265029907,-9.602396965026855,1.7264214754104614,0.022602012380957603,0.010537425056099892,-0.027183502912521362,-11.677871704101562,83.89360046386719,-26.454252243041992
0.498,-1.4572290182113647,-9.584450721740723,1.8017953634262085,0.02168571576476097,0.0012217304902151227,-0.030085112899541855,-12.42326831817627,83.805908203125,-26.381174087524414
0.504,-1.6091731786727905,-9.611968040466309,1.8161523342132568,0.022449297830462456,0.0022907445672899485,-0.03634648025035858,-12.247880935668945,83.61589813232422,-26.161941528320312
0.51,-1.588834285736084,-9.608378410339355,1.7766706943511963,0.02168571576476097,0.01237002108246088,-0.04092797264456749,-11.853259086608887,83.93743896484375,-27.097341537475586
0.52,-1.3603196144104004,-9.605986595153809,1.7575281858444214,0.022907447069883347,0.014355332590639591,-0.03940080478787422,-11.9847993850708,84.09822082519531,-26.132709503173828
0.53,-1.2646067142486572,-9.591629981994629,1.8376877307891846,0.021532999351620674,0.0012217304902151227,-0.03375030308961868,-12.23326587677002,83.90821075439453,-26.454252243041992
0.54,-1.2981061935424805,-9.588040351867676,1.8628122806549072,0.022907447069883347,-0.0010690141934901476,-0.025656340643763542,-12.277112007141113,84.22975158691406,-25.752704620361328
0.559,-1.4644074440002441,-9.68973445892334,1.9082759618759155,0.024129178375005722,0.006872233934700489,-0.031612277030944824,-12.627885818481445,83.4697494506836,-25.92809295654297
0.563,-1.2035897970199585,-10.005587577819824,1.8999011516571045,0.021991148591041565,-0.07590001076459885,-0.07757988572120667,-12.437883377075195,83.87898254394531,-26.746564865112305
0.57,-1.077966570854187,-9.8931245803833,1.8041881322860718,0.01618792861700058,-0.18310685455799103,-0.1241583600640297,-12.65711784362793,83.74744415283203,-26.161941528320312
0.58,-1.1676974296569824,-9.373882293701172,1.6785650253295898,0.0277943667024374,-0.23777928948402405,-0.14508049190044403,-12.437883377075195,83.38204956054688,-26.351943969726562
0.59,-1.6941183805465698,-9.261420249938965,1.6426726579666138,0.022143863141536713,-0.21151207387447357,-0.11636982858181,-12.335575103759766,83.06050872802734,-26.30809783935547
0.6,-1.8484554290771484,-9.509077072143555,1.8747763633728027,0.020311269909143448,-0.11911872029304504,-0.09957103431224823,-13.022507667541504,83.64513397216797,-26.045015335083008
0.62,-1.6845470666885376,-9.77707290649414,1.9800606966018677,0.017562376335263252,-0.05864306166768074,-0.1014036312699318,-13.300204277038574,83.06050872802734,-26.191171646118164
0.623,-1.1892328262329102,-10.074979782104492,1.9501503705978394,-0.015271631069481373,-0.1111774668097496,-0.14156801998615265,-12.744811058044434,83.805908203125,-25.88424301147461
0.63,-1.2059825658798218,-9.737591743469238,1.573280930519104,-0.04260785132646561,-0.12064588069915771,-0.15134187042713165,-12.715579986572266,83.55744171142578,-26.556564331054688
0.64,-1.2454640865325928,-9.131011009216309,1.727617859840393,-0.058184914290905,-0.10583239793777466,-0.07299839705228806,-12.744811058044434,83.57205200195312,-26.381174087524414
0.65,-0.9092725515365601,-9.389435768127441,2.093719720840454,-0.07773260027170181,-0.09300423413515091,0.0074830991216003895,-12.774043083190918,83.1628189086914,-25.665008544921875
0.66,-0.8159525394439697,-9.827322959899902,2.194218397140503,-0.10308350622653961,-0.09483683109283447,0.0913243517279625,-12.481730461120605,83.48435974121094,-26.30809783935547
0.68,-1.1700901985168457,-9.878767967224121,2.108076810836792,-0.11514809727668762,-0.04337143152952194,0.15683965384960175,-12.671732902526855,83.2066650390625,-27.1704158782959
0.683,-1.2299107313156128,-9.832107543945312,2.073380708694458,-0.13148874044418335,0.04520402476191521,0.21792617440223694,-12.832504272460938,82.73896789550781,-26.52733039855957
0.69,-1.1473584175109863,-9.704092025756836,2.0554347038269043,-0.13530665636062622,0.0685696229338646,0.24129176139831543,-12.510961532592773,83.38204956054688,-26.644256591796875
0.7,-1.4141581058502197,-9.603592872619629,1.8987046480178833,-0.15042555332183838,0.09651671350002289,0.2750420570373535,-11.926337242126465,83.33820343017578,-26.074249267578125
0.71,-1.4847464561462402,-9.449256896972656,1.9633108377456665,-0.13561208546161652,0.09224064648151398,0.2919935882091522,-12.437883377075195,83.29435729980469,-26.074249267578125
0.72,-1.4656038284301758,-9.41934585571289,1.810170292854309,-0.12522737681865692,0.08567384630441666,0.2871066629886627,-12.306343078613281,83.19204711914062,-26.205787658691406
0.739,-1.3483555316925049,-9.198010444641113,1.7060824632644653,-0.09056076407432556,0.08475754410028458,0.26740625500679016,-11.721718788146973,83.1628189086914,-25.796550750732422
0.743,-1.4715858697891235,-9.291330337524414,0.9846464395523071,-0.06688974052667618,0.06765332818031311,0.22708913683891296,-11.809412002563477,82.88512420654297,-25.577316284179688
0.75,-1.4009976387023926,-9.360721588134766,1.1341978311538696,-0.04734205827116966,0.030237827450037003,0.2203696370124817,-11.926337242126465,82.607421875,-25.445777893066406
0.76,-1.8556338548660278,-9.468399047851562,0.9224331378936768,-0.02168571576476097,-0.0734565407037735,0.21395555138587952,-11.312481880187988,82.82665252685547,-25.40192985534668
0.77,-2.1571295261383057,-9.449256896972656,0.7441678643226624,0.0036651913542300463,-0.11056660860776901,0.1924225389957428,-11.064016342163086,82.91435241699219,-25.036537170410156
0.78,-2.1643080711364746,-9.512666702270508,0.8590232729911804,0.026114489883184433,-0.14187344908714294,0.17699819803237915,-10.727856636047363,82.81204223632812,-25.738086700439453
0.8,-1.8460626602172852,-9.510272979736328,1.0372885465621948,0.05009094625711441,-0.15332716703414917,0.15042555332183838,-10.523239135742188,82.35896301269531,-25.387313842773438
0.804,-1.5852450132369995,-9.488738059997559,1.3411771059036255,0.0858265683054924,-0.16081027686595917,0.13041973114013672,-9.967845916748047,82.8705062866211,-25.533470153808594
0.81,-1.7324036359786987,-9.591629981994629,1.4105688333511353,0.08933904021978378,-0.1391245573759079,0.1212567538022995,-10.21631145477295,82.43203735351562,-25.67962646484375
0.82,-1.3674980401992798,-9.383453369140625,1.6307085752487183,0.10965030640363693,-0.09437867254018784,0.10216721147298813,-9.850920677185059,82.91435241699219,-26.366558074951172
0.83,-0.98703932762146,-9.335597038269043,1.9058831930160522,0.12889257073402405,-0.06261368840932846,0.09636398404836655,-9.675533294677734,82.6512680053711,-25.31423568725586
0.84,-0.6460620760917664,-9.280562400817871,2.0398812294006348,0.1472185254096985,-0.041233401745557785,0.09758572280406952,-9.763227462768555,82.57819366455078,-25.518856048583984
0.859,-0.4666004180908203,-9.45045280456543,2.091326951980591,0.1644754558801651,-0.03848451003432274,0.10980302840471268,-10.01169204711914,82.53434753417969,-25.694242477416992
0.863,-0.556331217288971,-9.44207763671875,2.946760892868042,0.18814648687839508,-0.0138971833512187,0.13286319375038147,-9.73399543762207,82.82665252685547,-26.68810272216797
0.87,-1.435693621635437,-9.54377269744873,2.2372889518737793,0.17608189582824707,-0.10201448947191238,0.13484850525856018,-10.230926513671875,82.32972717285156,-26.61502456665039
0.88,-2.8151557445526123,-9.747162818908691,1.2287143468856812,0.17928895354270935,-0.1134682148694992,0.16951508820056915,-9.909382820129395,82.81204223632812,-26.088863372802734
0.89,-3.377469062805176,-9.371489524841309,1.1054840087890625,0.19013181328773499,-0.05650503188371658,0.1976149082183838,-9.602456092834473,83.01666259765625,-26.4104061126709
0.9,-2.6799612045288086,-9.275776863098145,0.9571290016174316,0.2002110779285431,0.007177666295319796,0.18784105777740479,-9.719380378723145,82.76819610595703,-26.907337188720703
0.919,-1.1748758554458618,-9.547362327575684,1.2167502641677856,0.19975292682647705,-0.018478674814105034,0.2863430678844452,-8.696288108825684,82.9435806274414,-27.024263381958008
0.923,0.0526420958340168,-9.719645500183105,2.2983059883117676,0.18860463798046112,-0.0910189226269722,0.29428431391716003,-8.403975486755371,82.7828140258789,-26.468870162963867
0.93,-0.2632104754447937,-9.503094673156738,1.9669002294540405,0.19394971430301666,-0.2028072625398636,0.3159700334072113,-8.360128402709961,83.35282135009766,-26.468870162963867
0.94,-1.483549952507019,-9.635896682739258,2.469392776489258,0.1670716404914856,-0.31551188230514526,0.37110063433647156,-8.272435188293457,82.97280883789062,-27.63811683654785
0.95,-2.3676979541778564,-9.482755661010742,2.8354947566986084,0.13072516024112701,-0.33337968587875366,0.3617849349975586,-7.8047356605529785,83.61589813232422,-26.775794982910156
0.96,-2.7972095012664795,-9.290133476257324,2.8977081775665283,0.12553280591964722,-0.22159136831760406,0.3428480923175812,-7.863198280334473,83.27973937988281,-26.702720642089844
0.979,-2.964707136154175,-9.373882293701172,2.4227328300476074,0.10552696883678436,-0.07040221989154816,0.2831360399723053,-7.234726905822754,83.10435485839844,-27.491960525512695
0.982,-2.644068956375122,-9.42772102355957,1.7551352977752686,0.10567968338727951,-0.0481056347489357,0.26832255721092224,-7.117801666259766,83.17743682861328,-28.003507614135742
0.99,-2.3533408641815186,-9.747162818908691,1.7611173391342163,0.1014036312699318,-0.0354301817715168,0.2506074607372284,-6.620871067047119,83.4697494506836,-27.565038681030273
1.0,-2.0757734775543213,-9.82971477508545,1.514656662940979,0.09697485715150833,-0.07757988572120667,0.22663100063800812,-6.664718151092529,82.88512420654297,-28.383514404296875
1.01,-1.8005989789962769,-9.707681655883789,1.9621144533157349,0.11392636597156525,-0.10949759185314178,0.2021963894367218,-6.123940467834473,82.82665252685547,-28.193510055541992
1.02,-2.1786649227142334,-10.090532302856445,1.8125630617141724,0.08857545256614685,-0.2837468981742859,0.08888089656829834,-6.401637077331543,83.17743682861328,-27.945045471191406
1.039,-3.6681969165802,-9.359525680541992,1.8831512928009033,0.11026117950677872,-0.1560760736465454,0.0029016099870204926,-6.021631240844727,82.9874267578125,-27.535808563232422
1.042,-3.510270595550537,-9.416953086853027,1.6630116701126099,0.11591167747974396,-0.1258382350206375,-0.00931569468230009,-6.153171539306641,82.9874267578125,-28.17889404296875
1.05,-3.046063184738159,-9.473184585571289,1.8484554290771484,0.1293507218360901,-0.032070424407720566,-0.03145955875515938,-5.846243858337402,83.2505111694336,-28.368898391723633
1.06,-2.242074728012085,-9.42054271697998,2.1607186794281006,0.13958270847797394,0.038026362657547,-0.04642575979232788,-5.773165702819824,83.10435485839844,-28.16427993774414
1.07,-1.8544374704360962,-9.433703422546387,2.2612173557281494,0.13408491015434265,0.05345070734620094,-0.031154125928878784,-5.729318618774414,82.47588348388672,-28.79275131225586
1.08,-1.9920247793197632,-9.517451286315918,2.3270199298858643,0.12507465481758118,0.06520986557006836,-0.009162978269159794,-5.8900909423828125,83.0020523071289,-28.70505714416504
1.099,-2.1296122074127197,-9.584450721740723,2.306680917739868,0.09529497474431992,0.15103644132614136,0.019089538604021072,-5.846243858337402,82.89973449707031,-29.026599884033203
1.103,-2.137986898422241,-9.519845008850098,2.647658109664917,0.07987063378095627,0.17318028211593628,0.01970040239393711,-5.846243858337402,82.9874267578125,-28.763521194458008
1.11,-1.9118653535842896,-9.4121675491333,2.6297121047973633,0.06643159687519073,0.19517144560813904,0.02535090781748295,-6.0362467765808105,82.69512176513672,-29.36275863647461
1.12,-2.007578134536743,-9.268598556518555,2.5076780319213867,0.051312681287527084,0.21319197118282318,0.04001167416572571,-6.109324932098389,82.76819610595703,-28.485822677612305
1.13,-2.042273998260498,-9.494720458984375,2.620140552520752,0.027488935738801956,0.22937989234924316,0.04505131021142006,-6.343174934387207,82.32972717285156,-29.172758102416992
1.14,-1.23589289188385,-9.33320426940918,2.504088878631592,-0.015118913725018501,0.20402897894382477,0.060933806002140045,-6.0362467765808105,82.6512680053711,-28.412744522094727
1.159,-1.148554801940918,-9.601200103759766,2.317448616027832,-0.04886921867728233,-0.039248090237379074,0.1114829033613205,-6.255480766296387,82.9874267578125,-29.041215896606445
1.163,-1.184447169303894,-9.486345291137695,2.3078773021698,-0.04764748737215996,-0.07941248267889023,0.11591167747974396,-6.0362467765808105,82.72434997558594,-28.23735809326172
1.17,-1.2059825658798218,-9.262616157531738,2.321038007736206,-0.0354301817715168,-0.14553864300251007,0.13698652386665344,-5.743934631347656,82.6512680053711,-28.953521728515625
1.18,-1.9800606966018677,-9.253045082092285,1.9884356260299683,-0.03039054572582245,-0.2168571650981903,0.1463022232055664,-5.32008171081543,83.17743682861328,-28.82198143005371
1.19,-2.304288148880005,-9.369096755981445,2.170289993286133,-0.014355332590639591,-0.2148718386888504,0.15073098242282867,-5.407775402069092,83.10435485839844,-29.055830001831055
1.2,-1.9334007501602173,-9.375079154968262,2.4119651317596436,-0.02519819140434265,-0.18891006708145142,0.16340644657611847,-4.925460338592529,83.08973693847656,-29.15814208984375
1.215,-1.1892328262329102,-9.342775344848633,2.449054002761841,-0.030695976689457893,-0.2765692174434662,0.20586158335208893,-4.998538494110107,82.38819122314453,-28.544286727905273
1.22,-1.3208380937576294,-9.396614074707031,2.528017044067383,-0.03787364438176155,-0.31841349601745605,0.21212296187877655,-5.159310340881348,82.75357818603516,-28.456592559814453
1.23,-1.975274920463562,-9.57487964630127,2.2301106452941895,-0.04138611629605293,-0.38469237089157104,0.23350323736667633,-4.983922958374023,82.09587860107422,-28.778135299682617
1.24,-3.4707889556884766,-9.868000030517578,1.7001004219055176,-0.09178250283002853,-0.36331209540367126,0.22632557153701782,-4.355451583862305,82.73896789550781,-29.114294052124023
1.25,-3.7627134323120117,-9.621540069580078,1.5397813320159912,-0.0754418596625328,-0.17104226350784302,0.21532998979091644,-4.004676818847656,82.54896545410156,-28.63197898864746
1.26,-2.80558443069458,-9.726823806762695,1.5936198234558105,-0.09758572280406952,0.0074830991216003895,0.19578230381011963,-3.4492838382720947,82.4028091430664,-28.748903274536133
1.279,-1.6019947528839111,-9.561718940734863,1.95852530002594,-0.06276640295982361,0.010690141469240189,0.22831088304519653,-3.3469743728637695,82.66588592529297,-28.982751846313477
1.282,-1.810170292854309,-9.56052303314209,1.9238293170928955,-0.05772676318883896,-0.011301006190478802,0.2393064647912979,-3.4054369926452637,82.08126068115234,-28.9096736907959
1.29,-2.605783700942993,-9.486345291137695,2.066202163696289,-0.051770828664302826,-0.0012217304902151227,0.2496911585330963,-3.507746458053589,82.30049896240234,-28.9096736907959
1.3,-2.4837498664855957,-9.372685432434082,2.0374884605407715,-0.06154467165470123,0.05421429127454758,0.26282477378845215,-3.683133363723755,82.51973724365234,-28.16427993774414
1.31,-1.8556338548660278,-9.493523597717285,2.2683956623077393,-0.06429356336593628,0.06108652427792549,0.289244681596756,-3.66851806640625,82.51973724365234,-28.52967071533203
1.32,-1.8580267429351807,-9.389435768127441,2.557927370071411,-0.08246680349111557,0.025961771607398987,0.31780263781547546,-2.5723471641540527,82.37358093261719,-28.251972198486328
1.332,-2.084148406982422,-9.213563919067383,2.4705893993377686,-0.09376781433820724,0.006108652334660292,0.36163219809532166,-2.4408068656921387,81.89126586914062,-27.72580909729004
1.34,-2.142772674560547,-9.343972206115723,2.513659954071045,-0.11270463466644287,0.010537425056099892,0.38148534297943115,-2.3092663288116455,81.97895050048828,-27.491960525512695
1.35,-2.0410776138305664,-9.346364974975586,2.4873390197753906,-0.1241583600640297,0.005345070734620094,0.41981711983680725,-2.616194009780884,82.13972473144531,-28.675825119018555
1.36,-2.218146562576294,-9.414560317993164,2.3856441974639893,-0.14324790239334106,-0.009926560334861279,0.445931613445282,-2.2654194831848145,81.52587127685547,-28.28120231628418
1.37,-2.2983059883117676,-9.322437286376953,2.486142635345459,-0.15851953625679016,-0.0064140851609408855,0.4812090992927551,-1.3592517375946045,81.27740478515625,-28.032737731933594
1.38,-2.1619153022766113,-9.306883811950684,2.502892255783081,-0.16401731967926025,0.0019853119738399982,0.5134322047233582,-0.6577024459838867,81.67202758789062,-28.28120231628418
1.395,-2.919243335723877,-9.254240989685059,1.975274920463562,-0.16768251359462738,0.014966198243200779,0.5390886068344116,-0.24846535921096802,81.40895080566406,-27.886581420898438
1.4,-3.0855445861816406,-9.170492172241211,1.798206090927124,-0.16814064979553223,0.04382958263158798,0.5416847467422485,0.2192341536283493,80.61970520019531,-28.193510055541992
1.41,-2.7696919441223145,-9.20997428894043,1.683350682258606,-0.16584990918636322,0.0832303911447525,0.5491678714752197,0.4092370569705963,80.76585388183594,-27.375036239624023
1.42,-2.3401803970336914,-9.432506561279297,1.7419748306274414,-0.1638645976781845,0.05406157299876213,0.5670356750488281,1.0230926275253296,80.42969512939453,-26.95118522644043
1.43,-2.6261227130889893,-9.534201622009277,1.8640087842941284,-0.17531833052635193,-0.02474004216492176,0.5962044596672058,1.3592517375946045,80.21046447753906,-27.316574096679688
1.449,-2.6727828979492188,-9.233901977539062,2.0985054969787598,-0.18096882104873657,-0.029168814420700073,0.6320928335189819,0.891552209854126,80.3712387084961,-27.696578979492188
1.453,-2.9180471897125244,-9.610772132873535,2.1272192001342773,-0.20570887625217438,-0.027947084978222847,0.6575964689254761,1.9584916830062866,79.5235366821289,-27.55042266845703
1.46,-3.1381869316101074,-9.701699256896973,2.30069899559021,-0.21853703260421753,-0.0006108652451075613,0.6753115057945251,2.4408068656921387,79.93276977539062,-27.1704158782959
1.47,-3.263810157775879,-9.707681655883789,2.1032910346984863,-0.2321287989616394,0.050854530185461044,0.6785185933113098,2.776965856552124,79.40660858154297,-27.097341537475586
1.48,-3.607180118560791,-9.920642852783203,2.1367905139923096,-0.23884831368923187,0.08933904021978378,0.6988298296928406,3.843905448913574,79.42121887207031,-26.161941528320312
1.49,-4.274777412414551,-9.82971477508545,1.636690616607666,-0.22861631214618683,0.1492038369178772,0.7290676236152649,3.829289674758911,78.76351928710938,-26.775794982910156
1.509,-3.6526436805725098,-9.68375301361084,1.506281852722168,-0.2831360399723053,0.2168571650981903,0.7883215546607971,4.413913726806641,78.83659362792969,-26.52733039855957
1.513,-0.3409772217273712,-9.588040351867676,2.757727861404419,-0.25793784856796265,0.19089537858963013,0.7142542004585266,4.910844802856445,78.29582214355469,-25.694242477416992
1.521,-2.764906644821167,-10.036694526672363,2.6596221923828125,-0.24342979490756989,0.040164388716220856,0.8324565887451172,5.1154632568359375,78.22274017333984,-25.489622116088867
1.53,-4.989035129547119,-10.743773460388184,2.389233350753784,-0.2684752643108368,0.21181751787662506,0.8232936263084412,5.817012310028076,77.66735076904297,-25.665008544921875
1.54,-3.6634113788604736,-10.637292861938477,2.3078773021698,-0.2889392673969269,0.3978259861469269,0.8344419598579407,6.299327373504639,77.60888671875,-26.205787658691406
1.55,-2.6213371753692627,-11.551351547241211,2.26959228515625,-0.3173445165157318,0.4398229718208313,0.869719386100769,6.606255531311035,77.31657409667969,-24.96346092224121
1.569,-2.7278177738189697,-12.343376159667969,2.2157537937164307,-0.37339136004447937,0.3975205719470978,0.9279043078422546,7.775504112243652,77.1850357055664,-24.627302169799805
1.573,-2.796013355255127,-12.075379371643066,2.011167287826538,-0.4242459237575531,0.40194934606552124,1.0444267988204956,7.950891494750977,76.5857925415039,-24.817304611206055
1.58,-2.9276182651519775,-11.888738632202148,1.9573287963867188,-0.4355469048023224,0.4164573848247528,1.1050552129745483,8.462437629699707,76.35194396972656,-24.831920623779297
1.59,-2.8175485134124756,-11.92821979522705,1.951346755027771,-0.4668537676334381,0.4786129295825958,1.1838568449020386,8.886290550231934,75.21192169189453,-24.788074493408203
1.6,-2.83669114112854,-11.912667274475098,2.1774685382843018,-0.4786129295825958,0.5167919993400574,1.2736539840698242,9.704765319824219,74.75884246826172,-24.70037841796875
1.61,-3.597608804702759,-11.659028053283691,2.021935224533081,-0.4833471179008484,0.6064364910125732,1.3420708179473877,9.909382820129395,73.83805847167969,-22.94650650024414
1.629,-3.458824872970581,-11.507083892822266,2.224128484725952,-0.4761694371700287,0.7396051287651062,1.394299864768982,10.552470207214355,73.4142074584961,-22.537269592285156
1.633,-3.7076785564422607,-11.496315956115723,1.7335999011993408,-0.4579961895942688,0.8593347072601318,1.4396566152572632,11.575562477111816,72.42034912109375,-22.785736083984375
1.64,-3.94815731048584,-11.516655921936035,1.470389485359192,-0.43967023491859436,0.9239336848258972,1.4599679708480835,11.765565872192383,71.92341613769531,-22.142648696899414
1.65,-4.116851329803467,-11.700902938842773,0.9822536706924438,-0.42668935656547546,1.0461066961288452,1.476613998413086,12.394037246704102,71.39724731445312,-21.324174880981445
1.66,-3.521038293838501,-11.910274505615234,0.5216353535652161,-0.4349360466003418,1.1760683059692383,1.4931074380874634,12.861736297607422,71.2949447631836,-21.061092376708984
1.67,-2.551945447921753,-12.059825897216797,0.1579262912273407,-0.45662176609039307,1.273043155670166,1.5308282375335693,12.993276596069336,70.15492248535156,-21.046478271484375
1.689,-1.5337992906570435,-12.367303848266602,0.0023928226437419653,-0.4954116940498352,1.3167200088500977,1.6000088453292847,13.417129516601562,69.21952056884766,-20.038002014160156
1.693,-1.4715858697891235,-12.594621658325195,-0.49651068449020386,-0.5821545720100403,1.4109458923339844,1.7151567935943604,13.884828567504883,68.05027770996094,-19.687227249145508
1.7,-1.5493526458740234,-12.887742042541504,-0.19381862878799438,-0.6056728959083557,1.5143349170684814,1.779908537864685,14.001753807067871,67.61180877685547,-18.78105926513672
1.71,-0.07896314561367035,-13.02652645111084,-0.05982056260108948,-0.6873761415481567,1.718363881111145,1.8602373600006104,14.323297500610352,66.77871704101562,-17.918737411499023
1.72,2.137986898422241,-13.007383346557617,0.7441678643226624,-0.7107416987419128,1.6916385889053345,1.931708574295044,14.937153816223145,65.6533203125,-16.486408233642578
1.73,2.5495524406433105,-13.006186485290527,0.9332008361816406,-0.7160868048667908,1.4596624374389648,2.0175352096557617,14.703303337097168,64.84945678710938,-16.76410484313965
1.749,1.7898313999176025,-12.863814353942871,1.0528419017791748,-0.6702718734741211,1.310916781425476,2.138333797454834,15.258696556091309,64.04560089111328,-15.477930068969727
1.753,1.2179466485977173,-12.143574714660645,0.4666004180908203,-0.6088799238204956,1.1917980909347534,2.2014055252075195,15.887167930603027,62.70096206665039,-14.177140235900879
1.76,0.5455635190010071,-11.568100929260254,-0.40319061279296875,-0.5761985778808594,0.9989173412322998,2.264019250869751,16.501022338867188,61.45863342285156,-14.35252857208252
1.77,-1.470389485359192,-11.233105659484863,-0.6281159520149231,-0.5314527750015259,0.632398247718811,2.3693935871124268,16.588716506958008,60.33323287963867,-14.761765480041504
1.78,-3.8799617290496826,-11.154142379760742,0.397208571434021,-0.4801400899887085,0.3162754774093628,2.3912320137023926,17.81642723083496,59.485530853271484,-14.045600891113281
1.79,-4.394418716430664,-11.845667839050293,0.2763710021972656,-0.5384777188301086,0.2768746614456177,2.144136905670166,18.43028450012207,59.105525970458984,-13.621747970581055
1.809,-2.796013355255127,-10.447062492370605,1.588834285736084,-0.4547891914844513,0.0022907445672899485,2.032501459121704,19.83338165283203,56.34317398071289,-15.22946548461914
1.813,-2.7086751461029053,-9.020940780639648,3.001795768737793,-0.4407392740249634,-0.669355571269989,2.0483837127685547,20.169540405273438,56.606258392333984,-15.375621795654297
1.82,-4.118047714233398,-7.160521507263184,2.5124638080596924,-0.3672827482223511,-0.9395107626914978,2.085799217224121,20.71031951904297,55.84624481201172,-15.477930068969727
1.83,-6.5288166999816895,-4.080958843231201,3.9876389503479004,-0.09162978827953339,-1.0352638959884644,2.045940399169922,21.36802101135254,54.969303131103516,-15.726396560668945
1.84,-8.544769287109375,-4.1312079429626465,4.281955718994141,0.056810468435287476,-0.251218318939209,1.0302242040634155,22.303421020507812,54.77930450439453,-16.574100494384766
1.85,-4.350151538848877,-4.748556613922119,3.1716861724853516,0.1368338167667389,0.4488332271575928,0.36972618103027344,22.44957733154297,53.829288482666016,-17.114879608154297
1.869,0.31106695532798767,-5.61834716796875,1.867598056793213,0.13484850525856018,0.9146180152893066,-0.15714508295059204,20.91493797302246,55.071617126464844,-16.997953414916992
1.873,5.839683532714844,-4.761716842651367,1.8257235288619995,0.24159719049930573,0.6801984310150146,-0.725860595703125,20.052616119384766,55.261619567871094,-17.90412139892578
1.88,6.787241458892822,-4.356133460998535,1.8017953634262085,0.3104722499847412,0.26145032048225403,-0.9569203853607178,19.46799087524414,56.12394332885742,-17.31949806213379
1.89,5.971288204193115,-4.047459602355957,1.1629117727279663,0.4072943925857544,-0.3790418803691864,-1.2638801336288452,18.547208786010742,56.56240463256836,-18.18181800842285
1.9,2.1020946502685547,-4.005584716796875,1.0971091985702515,0.5303837656974792,-1.0041097402572632,-1.606575608253479,17.97719955444336,58.345516204833984,-19.292604446411133
1.91,-0.6903292536735535,-4.1659040451049805,1.2969098091125488,0.6068946123123169,-1.1261299848556519,-1.9759962558746338,17.04180145263672,59.00321578979492,-19.789535522460938
1.929,-2.080559253692627,-4.187439441680908,1.2598210573196411,0.7687739133834839,-0.7857254147529602,-2.750420570373535,14.63022518157959,61.400177001953125,-22.274188995361328
1.932,-2.0650060176849365,-4.3752760887146,1.1078768968582153,0.7872526049613953,-0.7446447610855103,-2.8464791774749756,12.993276596069336,62.744815826416016,-22.74188804626465
1.94,-1.6773686408996582,-4.734199523925781,1.1736794710159302,0.8382598161697388,-0.658970832824707,-3.1079294681549072,12.014030456542969,63.73867416381836,-23.22420310974121
1.95,-1.6307085752487183,-5.531009197235107,1.4632110595703125,0.8802568316459656,-0.5981897711753845,-3.4523050785064697,9.675533294677734,65.74100494384766,-24.086524963378906
1.96,-2.0123636722564697,-6.76092004776001,1.5337992906570435,0.8834638595581055,-0.49525898694992065,-3.703981399536133,6.957030296325684,67.31949615478516,-25.168079376220703
1.97,-2.1858434677124023,-7.704888343811035,1.3232309818267822,0.8712465763092041,-0.3952298164367676,-3.919311285018921,4.384682655334473,69.19029235839844,-26.23501968383789
1.99,-2.638087034225464,-8.324629783630371,1.1030912399291992,0.8836165070533752,-0.3323107063770294,-4.096767425537109,-2.616194009780884,72.88804626464844,-28.04735565185547
1.994,-3.576073169708252,-9.385847091674805,1.1030912399291992,0.8973610401153564,-0.2730567753314972,-4.348138809204102,-3.3615901470184326,73.57498168945312,-28.251972198486328
2.0,-3.6921253204345703,-9.841679573059082,1.1006983518600464,0.898124635219574,-0.24037547409534454,-4.462217807769775,-6.328558921813965,74.58345031738281,-29.581993103027344
2.013,-3.4432716369628906,-11.095518112182617,0.8662018179893494,0.9040805101394653,-0.2422080636024475,-4.572784423828125,-11.122478485107422,75.47500610351562,-31.262788772583008
2.02,-3.6191442012786865,-11.49512004852295,0.698704183101654,0.915534257888794,-0.27641651034355164,-4.595233917236328,-13.753289222717285,76.33732604980469,-31.408945083618164
2.03,-4.130012035369873,-11.875578880310059,0.6376872062683105,0.9280570149421692,-0.31001412868499756,-4.607756614685059,-17.78719711303711,76.99503326416016,-32.82666015625
2.04,-4.450649738311768,-12.242877006530762,0.6089733242988586,0.9335548281669617,-0.2912300229072571,-4.616308689117432,-21.718795776367188,77.62350463867188,-34.60976028442383
2.05,-4.292723655700684,-12.789636611938477,0.5539384484291077,0.9355401396751404,-0.3165809214115143,-4.600425720214844,-25.518856048583984,77.40426635742188,-36.159019470214844
2.06,-4.346562385559082,-13.375877380371094,0.5335994362831116,0.9382889866828918,-0.4034765064716339,-4.554152965545654,-29.552762985229492,77.68196105957031,-36.93364715576172
2.078,-5.485545635223389,-13.831710815429688,0.3445664644241333,0.9045386910438538,-0.46105054020881653,-4.385554313659668,-36.88979721069336,76.26425170898438,-38.07366180419922
2.082,-5.666203498840332,-13.89392375946045,0.34576284885406494,0.8961393237113953,-0.445931613445282,-4.360508441925049,-37.94212341308594,75.60655212402344,-38.658287048339844
2.09,-5.741578102111816,-14.015957832336426,0.22013966739177704,0.8518515229225159,-0.37782013416290283,-4.280638217926025,-40.1636962890625,74.74422454833984,-39.87138366699219
2.1,-5.412564277648926,-13.801799774169922,0.07178467512130737,0.7861835360527039,-0.28725937008857727,-4.15159273147583,-43.496055603027344,73.57498168945312,-41.47909927368164
2.11,-5.178067684173584,-13.506287574768066,-0.06939185410737991,0.7225008606910706,-0.24098633229732513,-4.08500862121582,-46.22917175292969,72.12803649902344,-42.516807556152344
2.128,-4.644468784332275,-13.238290786743164,-0.14835500717163086,0.6731734871864319,-0.2655736804008484,-4.035376071929932,-48.81613540649414,70.09646606445312,-43.48143768310547
2.132,-5.918646335601807,-13.496715545654297,0.2560320198535919,0.6420193314552307,-0.31642818450927734,-3.8154642581939697,-51.60771560668945,67.27565002441406,-43.40835952758789
2.14,-6.655636310577393,-13.359128952026367,0.08733802288770676,0.6139195561408997,-0.2658790946006775,-3.682753801345825,-53.04004669189453,67.10026550292969,-45.8199348449707
2.15,-6.8410797119140625,-12.921241760253906,-0.23808583617210388,0.6033821702003479,-0.11835514008998871,-3.411682367324829,-55.4954719543457,64.1771469116211,-46.59456253051758
2.16,-7.256234169006348,-12.290733337402344,-0.4749752879142761,0.611323356628418,-0.03955352306365967,-3.1247284412384033,-57.07395553588867,62.68634796142578,-47.26688003540039
2.17,-7.733603000640869,-12.003594398498535,-0.6065804958343506,0.6133086681365967,0.012064589187502861,-2.799900770187378,-58.6378288269043,60.93247604370117,-48.2607421875
2.18,-7.440481662750244,-12.568300247192383,-0.8769694566726685,0.583528995513916,0.1345430612564087,-2.4642302989959717,-59.70476150512695,59.60245895385742,-49.020755767822266
2.195,-6.396015167236328,-12.838689804077148,-1.2119646072387695,0.42241328954696655,0.294437050819397,-1.8147279024124146,-60.27477264404297,57.80473327636719,-48.976905822753906
2.2,-6.1016974449157715,-12.76810073852539,-1.246660590171814,0.37369680404663086,0.29367345571517944,-1.6099352836608887,-60.68401336669922,56.84010314941406,-50.263084411621094
2.21,-5.941378116607666,-12.386445999145508,-1.3184452056884766,0.2782491147518158,0.24098633229732513,-1.1817187070846558,-60.96170425415039,55.87547302246094,-50.46770095825195
2.22,-6.372086524963379,-11.655439376831055,-1.1306086778640747,0.1944078654050827,0.2232712358236313,-0.7820602059364319,-61.400177001953125,55.04238510131836,-51.06694030761719
2.23,-5.763113021850586,-11.266605377197266,-1.0432707071304321,0.10674870014190674,0.28787022829055786,-0.4360050857067108,-60.68401336669922,54.32621765136719,-51.12540054321289
2.249,-4.577469348907471,-10.904091835021973,-0.8973084688186646,0.024129178375005722,0.3171917796134949,-0.1287398487329483,-60.844783782958984,53.99005889892578,-52.075416564941406
2.253,-2.6488544940948486,-10.357333183288574,-0.7968099117279053,-0.08964447677135468,0.16203199326992035,0.24938572943210602,-60.34785079956055,53.46390151977539,-52.075416564941406
2.26,-2.24566388130188,-10.224531173706055,-0.665204644203186,-0.14233160018920898,0.010690141469240189,0.4057672321796417,-60.33323287963867,53.40544128417969,-51.914642333984375
2.27,-1.397408366203308,-10.27597713470459,-0.3601197898387909,-0.21700987219810486,-0.22968532145023346,0.5858197212219238,-59.880149841308594,53.25928497314453,-52.718502044677734
2.28,-1.1976077556610107,-10.265209197998047,0.04666003957390785,-0.2718350291252136,-0.5065600275993347,0.7677049040794373,-59.456298828125,53.40544128417969,-52.04618453979492
2.29,-1.2669994831085205,-10.177870750427246,0.46779680252075195,-0.31093040108680725,-0.7557929754257202,0.9355401396751404,-58.623207092285156,53.87313461303711,-52.03157043457031
2.309,-1.5290136337280273,-10.021141052246094,0.9044869542121887,-0.3271183371543884,-0.9451612830162048,1.100168228149414,-58.21397399902344,53.522361755371094,-51.4615592956543
2.313,-1.9310078620910645,-9.31166934967041,1.439282774925232,-0.2964223325252533,-1.0283915996551514,1.275944709777832,-57.48318862915039,53.87313461303711,-50.526161193847656
2.32,-2.172683000564575,-8.761320114135742,1.8017953634262085,-0.2499965876340866,-0.9902125597000122,1.3358094692230225,-57.24934387207031,53.99005889892578,-50.146156311035156
2.33,-2.8067808151245117,-8.474181175231934,3.012563705444336,-0.14217887818813324,-0.8965974450111389,1.377806544303894,-56.313941955566406,54.443145751953125,-50.39461898803711
2.34,-2.8630123138427734,-9.56770133972168,4.84187650680542,-0.10231993347406387,-0.608421802520752,1.3339769840240479,-55.2177734375,54.39929962158203,-50.0
2.35,-0.6675975322723389,-13.463215827941895,7.077969074249268,-0.20906862616539001,-0.056352317333221436,1.140179991722107,-54.867000579833984,54.764686584472656,-49.18152618408203
2.369,4.807180404663086,-18.6975154876709,3.016152858734131,-0.667828381061554,0.8759807348251343,0.9505062699317932,-54.58930206298828,55.02777099609375,-50.146156311035156
2.373,8.258827209472656,-11.210373878479004,-3.184846878051758,-0.33368512988090515,0.49586984515190125,1.5538884401321411,-53.50774383544922,54.6185302734375,-50.555397033691406
2.38,5.511867046356201,-7.568498134613037,-1.210768222808838,-0.10980302840471268,0.023518310859799385,1.7429511547088623,-52.19234085083008,55.1593132019043,-50.336158752441406
2.39,1.9836498498916626,-7.138986110687256,1.0336993932724,-0.09040804952383041,-0.24449880421161652,1.747685432434082,-51.82695388793945,55.08623123168945,-50.233848571777344
2.4,0.0203389935195446,-7.572086811065674,1.657029628753662,-0.13729196786880493,-0.2480112910270691,1.6447546482086182,-50.365386962890625,55.773162841796875,-50.29231262207031
2.41,0.43549370765686035,-8.404788970947266,1.148554801940918,-0.19608773291110992,-0.2580905556678772,1.3968960046768188,-49.41537857055664,55.84624481201172,-49.88307571411133
2.43,1.1892328262329102,-9.735198020935059,0.42352959513664246,-0.2047925740480423,-0.45891252160072327,1.3906346559524536,-47.80765914916992,56.197017669677734,-49.853843688964844
2.433,-0.4654039740562439,-9.2255277633667,3.710071325302124,0.028557950630784035,-1.1504119634628296,1.6314682960510254,-47.106109619140625,56.13855743408203,-50.0
2.44,-3.915853977203369,-10.792826652526855,5.4556355476379395,0.10064005106687546,-1.4734069108963013,1.7762433290481567,-46.65302658081055,56.182403564453125,-49.4007568359375
2.45,-7.033702373504639,-12.051450729370117,5.641078948974609,-0.10583239793777466,-1.0002918243408203,1.698816180229187,-45.62993240356445,56.416255950927734,-49.4007568359375
2.46,-5.26181697845459,-8.895318031311035,2.359323024749756,-0.13515393435955048,-0.20922134816646576,1.493260145187378,-45.30839157104492,57.293190002441406,-48.77228546142578
2.47,0.25363919138908386,-8.47776985168457,3.239881753921509,-0.07131851464509964,-0.1036943718791008,1.4552338123321533,-43.77375030517578,57.26395797729492,-49.239986419677734
2.489,3.0664021968841553,-10.15035343170166,2.2719850540161133,-0.15241087973117828,-0.34834590554237366,1.5112805366516113,-43.15989685058594,57.322418212890625,-49.44460678100586
2.493,0.9391828775405884,-9.667003631591797,2.7840490341186523,-0.20616701245307922,-0.6609561443328857,1.5771013498306274,-42.37065124511719,57.0154914855957,-50.17538833618164
2.5,0.5395814776420593,-8.955138206481934,1.6175479888916016,-0.18768833577632904,-0.6548475623130798,1.5282320976257324,-41.946800231933594,57.46857452392578,-49.86845779418945
2.51,1.223928689956665,-8.505288124084473,2.6153552532196045,-0.13469578325748444,-0.6945537328720093,1.488373041152954,-40.70447540283203,57.556270599365234,-49.97077178955078
2.52,2.076970100402832,-8.34018325805664,2.3497517108917236,-0.11927143484354019,-1.0320568084716797,1.4970780611038208,-40.10523223876953,57.541656494140625,-49.18152618408203
2.53,-0.11485548317432404,-9.456435203552246,0.6376872062683105,-0.1114829033613205,-1.4149165153503418,1.6169601678848267,-39.403682708740234,57.07395553588867,-48.9622917175293
2.549,-4.96630334854126,-10.63370418548584,-0.6065804958343506,-0.13759739696979523,-1.6661349534988403,1.762804388999939,-37.86904525756836,57.05934143066406,-48.24612808227539
2.553,-8.015955924987793,-9.097511291503906,-0.4498506486415863,-0.13011428713798523,-1.019075870513916,1.5593862533569336,-36.75825881958008,56.82548904418945,-48.23151397705078
2.56,-6.297908782958984,-8.288737297058105,0.2799602448940277,-0.07513642311096191,-0.7568620443344116,1.4595097303390503,-36.34901809692383,57.46857452392578,-48.5822868347168
2.57,-3.339184045791626,-8.897710800170898,0.8901299834251404,-0.07559457421302795,-0.46822819113731384,1.2962559461593628,-35.77901077270508,57.35165023803711,-48.52382278442383
2.58,-1.9238293170928955,-9.376275062561035,0.9236294627189636,-0.04963279888033867,-0.5076289772987366,1.2542589902877808,-34.902076721191406,57.03010559082031,-48.90382766723633
2.59,-2.203789472579956,-9.759126663208008,1.0408778190612793,-0.046731188893318176,-0.550084114074707,1.2273809909820557,-34.361297607421875,57.04472732543945,-48.6407470703125
2.609,-2.6392831802368164,-9.982855796813965,0.665204644203186,-0.05513058975338936,-0.3937026560306549,1.1653780937194824,-33.22127914428711,57.117801666259766,-48.99152374267578
2.612,-1.9836498498916626,-9.884749412536621,1.4811570644378662,-0.06963863968849182,-0.37659841775894165,1.1624765396118164,-33.002044677734375,57.117801666259766,-49.18152618408203
2.62,-1.2490533590316772,-9.856036186218262,1.4069796800613403,-0.0780380368232727,-0.39645153284072876,1.1749993562698364,-32.56357955932617,56.98625946044922,-49.049983978271484
2.63,-1.506281852722168,-10.060623168945312,1.361515998840332,-0.09529497474431992,-0.5038110613822937,1.1827878952026367,-32.31510925292969,56.84010314941406,-49.093833923339844
2.64,-2.392822504043579,-9.546165466308594,1.5086746215820312,-0.09193521738052368,-0.5427537560462952,1.1962268352508545,-31.350481033325195,57.42472839355469,-48.90382766723633
2.65,-3.486342430114746,-8.918049812316895,2.0853447914123535,-0.0809396430850029,-0.5096142888069153,1.1249083280563354,-30.99970817565918,56.927799224853516,-48.74305725097656
2.67,-4.7988057136535645,-8.901299476623535,1.9381862878799438,-0.06582073122262955,-0.4749477207660675,1.0312931537628174,-29.698917388916016,57.103187561035156,-47.9391975402832
2.673,-3.8213376998901367,-9.029315948486328,1.6905291080474854,-0.080634206533432,-0.2025018185377121,0.9049968719482422,-29.87430763244629,56.737796783447266,-47.851505279541016
2.68,-3.1310083866119385,-9.330811500549316,1.6043875217437744,-0.0754418596625328,-0.19792033731937408,0.85994553565979,-29.391992568969727,57.293190002441406,-47.500728607177734
2.69,-2.6668004989624023,-9.54496955871582,0.7956134676933289,-0.08185594528913498,-0.2272418737411499,0.8335255980491638,-29.041215896606445,56.78164291381836,-48.69921112060547
2.7,-2.390429735183716,-9.58325481414795,0.6999006271362305,-0.0861319974064827,-0.2820670008659363,0.8483390808105469,-28.06197166442871,56.5770263671875,-48.24612808227539
2.71,-2.4023938179016113,-9.67537784576416,0.5144568085670471,-0.08429940044879913,-0.327271044254303,0.8610145449638367,-27.565038681030273,56.53317642211914,-49.473838806152344
2.729,-2.449054002761841,-9.512666702270508,0.9044869542121887,-0.07727444916963577,-0.3536909520626068,0.8953757286071777,-26.98041534423828,56.47471618652344,-48.55305480957031
2.732,-2.8618156909942627,-8.992227554321289,1.444068431854248,-0.05268712714314461,-0.3381139039993286,0.8857545852661133,-27.389652252197266,56.16778564453125,-48.17304992675781
2.74,-3.4743783473968506,-8.933603286743164,2.025524377822876,-0.08124507963657379,-0.35216379165649414,0.8831583857536316,-26.264249801635742,56.65010070800781,-49.166908264160156
2.75,-3.3499515056610107,-9.09990406036377,2.5160529613494873,-0.08979719132184982,-0.3147483170032501,0.896291971206665,-26.585792541503906,56.34317398071289,-49.37152862548828
2.76,-3.0233314037323,-9.160921096801758,2.0685951709747314,-0.10674870014190674,-0.22739459574222565,0.887739896774292,-25.89885902404785,56.53317642211914,-48.9622917175293
2.77,-3.2925240993499756,-8.998208999633789,2.4873390197753906,-0.0959058403968811,-0.24266621470451355,0.9222537875175476,-25.24115753173828,56.6793327331543,-48.33382034301758
2.79,-4.468596458435059,-8.50050163269043,1.7599210739135742,-0.06887505203485489,-0.24190261960029602,0.9382889866828918,-24.13037109375,55.977787017822266,-47.9391975402832
2.794,-3.988835334777832,-9.244669914245605,1.0289136171340942,-0.060933806002140045,-0.05451972037553787,0.9842565655708313,-23.9695987701416,56.05086135864258,-47.866119384765625
2.8,-2.898904800415039,-9.189635276794434,1.2693923711776733,-0.051770828664302826,-0.016798794269561768,1.0172432661056519,-23.677288055419922,55.992401123046875,-48.24612808227539
2.81,-2.6979076862335205,-9.005387306213379,0.8386843204498291,-0.055436018854379654,-0.021532999351620674,1.101084589958191,-23.487285614013672,55.68547058105469,-48.18766403198242
2.82,-3.3822548389434814,-8.925228118896484,0.37926235795021057,-0.028710665181279182,0.0022907445672899485,1.1785117387771606,-23.31189727783203,55.45161819458008,-48.6407470703125
2.83,-3.6705896854400635,-9.128618240356445,-0.24885353446006775,0.01313360221683979,0.0988074541091919,1.211498498916626,-22.961122512817383,55.583160400390625,-48.669979095458984
2.849,-3.538984537124634,-8.324629783630371,-0.40797626972198486,0.27779096364974976,0.2551889419555664,1.2791517972946167,-20.608009338378906,55.64162826538086,-49.10844802856445
2.852,-5.660221576690674,-7.885546684265137,-1.4333007335662842,0.3730859160423279,0.46471571922302246,1.3326025009155273,-20.549545288085938,55.787784576416016,-48.93306350708008
2.86,-5.8444695472717285,-10.254441261291504,-0.17706885933876038,0.2545780837535858,0.6655376553535461,1.236543893814087,-19.511838912963867,55.363929748535156,-48.421512603759766
2.87,0.9846464395523071,-10.177870750427246,1.3830513954162598,0.21441368758678436,0.5781839489936829,1.289841890335083,-19.54106903076172,55.30546951293945,-49.75153350830078
2.88,-0.6795615553855896,-9.387042999267578,0.9798608422279358,0.18524488806724548,0.32528576254844666,1.4928019046783447,-18.62028694152832,55.20315933227539,-49.41537857055664
2.89,-4.25084924697876,-10.17906665802002,1.7527425289154053,0.16340644657611847,0.3016147017478943,1.6560556888580322,-18.18181800842285,54.92546081542969,-50.160770416259766
2.909,-8.118846893310547,-6.978667259216309,2.510071039199829,0.21151207387447357,0.537408709526062,1.6936237812042236,-16.486408233642578,54.70622634887695,-50.233848571777344
2.912,-9.390631675720215,-7.578068733215332,1.660618782043457,0.22418753802776337,0.6278167366981506,1.6907222270965576,-16.033323287963867,54.238529205322266,-50.20461654663086
2.92,-8.441878318786621,-8.597411155700684,1.155733346939087,0.2431243658065796,0.9161451458930969,1.6226108074188232,-15.536393165588379,54.38468551635742,-50.80385971069336
2.93,-2.884547472000122,-10.25922679901123,0.9655039310455322,0.1791362315416336,0.9320276379585266,1.6650660037994385,-15.039462089538574,53.30312728881836,-50.2776985168457
2.94,-3.363112211227417,-11.490333557128906,2.3365912437438965,0.1725694239139557,0.665232241153717,1.849547266960144,-14.337912559509277,53.71236038208008,-50.233848571777344
2.95,-6.272784233093262,-10.75454044342041,1.3758729696273804,0.22937989234924316,0.7221954464912415,1.9889771938323975,-12.978660583496094,52.952354431152344,-49.15229415893555
2.969,-7.802994728088379,-11.749955177307129,1.5326027870178223,0.36911532282829285,1.2095131874084473,2.2272145748138428,-10.800935745239258,52.14849853515625,-49.663841247558594
2.973,-3.0795626640319824,-16.387245178222656,0.7716853022575378,0.26511549949645996,1.3043500185012817,2.2456932067871094,-10.68401050567627,52.58695983886719,-49.92692184448242
2.98,-0.9631110429763794,-17.614763259887695,-0.05862415209412575,0.19746218621730804,0.9472992420196533,2.4975225925445557,-9.690149307250977,52.13387680053711,-50.48231506347656
2.99,-2.7625136375427246,-17.748760223388672,2.242074728012085,0.11392636597156525,0.6362161040306091,2.8235716819763184,-8.31628131866455,51.22771453857422,-49.7223014831543
3.0,-5.351547718048096,-9.351150512695312,2.715853691101074,0.1722639948129654,0.6663012504577637,2.9078712463378906,-6.474714756011963,50.01461410522461,-50.2776985168457
3.01,-9.559326171875,-8.992227554321289,4.076173305511475,0.294895201921463,0.7832819223403931,2.9153544902801514,-5.378544330596924,49.6784553527832,-49.210758209228516
3.029,-6.772884368896484,-3.933800458908081,2.7672994136810303,0.5175555348396301,1.2754865884780884,2.6584856510162354,-3.0108156204223633,47.237648010253906,-49.53229904174805
3.033,-7.334001064300537,-4.329812526702881,2.2432711124420166,0.5621487498283386,1.3410018682479858,2.5917484760284424,-2.2800350189208984,46.974571228027344,-49.4007568359375
3.04,-6.8171515464782715,-3.1728827953338623,0.8853443264961243,0.5992587804794312,1.5092952251434326,2.4717133045196533,-2.0754165649414062,46.477638244628906,-49.780765533447266
3.05,-6.640082836151123,-3.7363924980163574,-1.5397813320159912,0.6646214127540588,1.4584407806396484,2.3997840881347656,-0.9646301865577698,45.176849365234375,-50.30692672729492
3.06,-6.358925819396973,-8.204988479614258,-3.6681969165802,0.5997169613838196,1.4723379611968994,2.4081833362579346,-0.26308098435401917,45.0599250793457,-49.53229904174805
3.07,-3.8261232376098633,-6.029912948608398,-5.030909538269043,0.4786129295825958,1.4468343257904053,2.3547327518463135,0.8477053642272949,43.7006721496582,-48.78690719604492
3.089,-3.9050865173339844,-8.041080474853516,-2.1918253898620605,-0.03084869496524334,0.28496861457824707,2.4491114616394043,3.0254311561584473,41.91756820678711,-48.479976654052734
3.092,-5.772684574127197,-6.678368091583252,-1.1341978311538696,-0.10308350622653961,0.19914206862449646,2.4527766704559326,3.66851806640625,41.49371337890625,-48.465362548828125
3.1,-8.96231746673584,-6.1770710945129395,1.1318050622940063,-0.17623461782932281,0.060475654900074005,2.433687210083008,4.3262200355529785,40.689857482910156,-47.5591926574707
3.11,-10.341778755187988,-8.58066177368164,3.565305471420288,-0.2506074607372284,0.2252565622329712,2.3105976581573486,4.735457420349121,39.85676574707031,-48.289974212646484
3.12,-9.20758056640625,-9.647860527038574,4.773681163787842,-0.32131510972976685,0.551305890083313,2.2235493659973145,5.787781238555908,39.1844482421875,-47.96842956542969
3.13,-9.57607650756836,-12.478569030761719,5.9437713623046875,-0.31932979822158813,0.6473644375801086,2.1786508560180664,6.182402610778809,37.78135299682617,-47.96842956542969
3.148,-7.7036919593811035,-20.889341354370117,5.3802618980407715,-0.30711251497268677,1.335962176322937,2.1930062770843506,7.877813339233398,35.22361755371094,-46.097633361816406
3.151,-6.960721015930176,-21.71486473083496,5.5345988273620605,-0.29993483424186707,1.3726141452789307,2.191173553466797,7.907044887542725,35.20900344848633,-45.39608383178711
3.16,-6.062215805053711,-23.51426887512207,2.9455647468566895,-0.4005748927593231,1.3811663389205933,2.217288017272949,8.155509948730469,34.185909271240234,-45.162235260009766
3.17,-6.3661041259765625,-19.829320907592773,-1.5409777164459229,-0.46547931432724,1.365283727645874,2.009746551513672,8.301666259765625,33.30897521972656,-44.986846923828125
3.18,-4.387239933013916,-12.636495590209961,-4.706681728363037,-0.4150829017162323,1.2382237911224365,1.670716404914856,8.71090316772461,31.949722290039062,-43.86144256591797
3.19,-4.468596458435059,-7.374679088592529,-4.012763500213623,-0.18768833577632904,-0.07880160957574844,1.6392568349838257,9.280911445617676,30.722009658813477,-44.182987213134766
3.203,-7.95733118057251,-3.5940194129943848,-0.4570291042327881,0.08200865983963013,-1.2063060998916626,1.623068928718567,10.114001274108887,29.421222686767578,-43.52528381347656
3.21,-11.803792953491211,-1.4021941423416138,0.41874393820762634,0.12263119220733643,-1.4285084009170532,1.4822643995285034,10.05553913116455,28.52967071533203,-43.71529006958008
3.22,-13.895119667053223,1.377069354057312,3.005384922027588,0.28756481409072876,-1.1339186429977417,1.083369493484497,10.581701278686523,27.63811683654785,-44.29991149902344
3.23,-10.066604614257812,5.069194793701172,3.8141591548919678,0.294437050819397,0.05955936014652252,0.4508185386657715,10.479392051696777,27.08272361755371,-44.007598876953125
3.24,-2.410768747329712,4.871786594390869,1.8747763633728027,0.2967277765274048,1.7933475971221924,-0.8080219626426697,10.523239135742188,26.30809783935547,-43.04296875
3.25,7.713263511657715,0.6783652305603027,3.6681969165802,0.6044511198997498,1.8756617307662964,-1.437366008758545,10.070155143737793,26.191171646118164,-42.19526290893555
3.266,8.26121997833252,-1.8819550275802612,5.203192710876465,0.7658722400665283,1.1343767642974854,-1.9744691848754883,10.084770202636719,26.351943969726562,-41.712947845458984
3.27,6.309872627258301,-0.9236294627189636,3.950549840927124,0.845132052898407,0.7243334650993347,-2.101529121398926,9.54399299621582,26.54194450378418,-41.3037109375
3.28,2.7972095012664795,1.0121638774871826,1.5960125923156738,1.0418306589126587,0.48059821128845215,-2.5523476600646973,8.740134239196777,26.731950759887695,-41.332942962646484
3.29,0.25004997849464417,1.1222338676452637,0.2763710021972656,1.2348641157150269,0.5575672388076782,-3.0024025440216064,7.8339667320251465,27.901199340820312,-40.2660026550293
3.3,0.9296115636825562,-1.275374412536621,-0.18065811693668365,1.309389591217041,0.5786421298980713,-3.469561815261841,8.023969650268555,28.325050354003906,-41.34756088256836
3.318,3.3535408973693848,-2.5878376960754395,-1.31365966796875,1.3797918558120728,0.36713001132011414,-3.8093554973602295,6.007015228271484,29.24583625793457,-40.38292694091797
3.323,4.177868366241455,-2.7290141582489014,-1.2131609916687012,1.4853187799453735,-0.4127922058105469,-4.094171524047852,4.589301109313965,30.166616439819336,-41.99064636230469
3.33,3.8943188190460205,-2.9012973308563232,-0.873380184173584,1.4877623319625854,-0.8827002644538879,-4.2697954177856445,4.501607418060303,30.707395553588867,-42.268341064453125
3.34,2.4083759784698486,-3.610769271850586,-0.5407779216766357,1.4785993099212646,-1.4775302410125732,-4.456109046936035,3.580824375152588,31.49663734436035,-41.756797790527344
3.35,-0.24765713512897491,-4.894518852233887,-0.28594231605529785,1.433548092842102,-1.6720908880233765,-4.616766452789307,2.674656629562378,32.59280776977539,-43.01374053955078
3.36,-2.018345832824707,-4.870590686798096,-0.14835500717163086,1.3956743478775024,-1.6884315013885498,-4.730998516082764,1.8269511461257935,33.83513641357422,-43.53989791870117
3.378,-3.4755747318267822,-4.5367913246154785,1.5038889646530151,1.3655892610549927,-1.587027907371521,-4.908454895019531,0.42385268211364746,34.682838439941406,-44.75299835205078
3.382,-5.148157596588135,-4.759324073791504,2.3090739250183105,1.2313514947891235,-1.1565206050872803,-5.003597259521484,-1.2130956649780273,35.472084045410156,-45.24992752075195
3.39,-5.90787935256958,-4.758127689361572,2.1260228157043457,1.228450059890747,-0.7115052938461304,-5.003597259521484,-2.5138847827911377,36.0274772644043,-45.235313415527344
3.503,-12.112467765808105,-8.062615394592285,1.3890334367752075,0.01970040239393711,-0.6519458889961243,-2.975677251815796,-17.43642234802246,42.09295654296875,-46.95995330810547
3.51,-12.453445434570312,-8.566305160522461,1.7635102272033691,-0.014660765416920185,-0.5691736936569214,-2.814255952835083,-18.035661697387695,41.97603225708008,-47.281497955322266
3.52,-12.805190086364746,-9.475577354431152,1.4811570644378662,-0.019853120669722557,-0.3602577745914459,-2.565786600112915,-19.35106658935547,41.78602600097656,-47.8807373046875
3.53,-12.831511497497559,-10.413564682006836,1.2849457263946533,0.032070424407720566,-0.04596760869026184,-2.2745566368103027,-19.71645736694336,41.698333740234375,-47.96842956542969
3.54,-12.485748291015625,-11.054840087890625,1.0504491329193115,0.04993823170661926,0.2828305959701538,-2.03540301322937,-21.148786544799805,41.888336181640625,-48.026893615722656
3.559,-11.263016700744629,-11.57168960571289,0.41515469551086426,-0.008704829961061478,0.741284966468811,-1.8440494537353516,-21.26571273803711,41.9029541015625,-47.67612075805664
3.563,-8.58903694152832,-12.211770057678223,-0.24765713512897491,-0.10552696883678436,1.1059714555740356,-1.5890130996704102,-22.74188804626465,42.09295654296875,-48.1584358215332
3.57,-7.2430739402771,-12.041879653930664,-0.35892340540885925,-0.1434006243944168,1.2134836912155151,-1.4534010887145996,-22.785736083984375,42.35603332519531,-48.56766891479492
3.58,-5.595615386962891,-11.783454895019531,-0.3194418251514435,-0.2122756689786911,1.317941665649414,-1.2834279537200928,-23.31189727783203,42.54603958129883,-48.6407470703125
3.59,-4.3477582931518555,-11.377870559692383,-0.3038884699344635,-0.24388794600963593,1.3226759433746338,-1.0842857360839844,-23.253435134887695,42.18064880371094,-48.75767135620117
3.6,-3.8045878410339355,-11.266605377197266,0.21296119689941406,-0.24388794600963593,1.1959214210510254,-0.9150761365890503,-23.735750198364258,42.15141677856445,-48.421512603759766
3.619,-3.2614171504974365,-11.871988296508789,1.1880364418029785,-0.2768746614456177,1.105513334274292,-0.7472409009933472,-24.042678833007812,42.326805114746094,-49.54691696166992
3.623,-3.1680970191955566,-12.741780281066895,2.423929214477539,-0.30314186215400696,0.7699956297874451,-0.4925100803375244,-24.203449249267578,41.85910415649414,-48.465362548828125
3.63,-3.9828531742095947,-12.928420066833496,2.7637100219726562,-0.29993483424186707,0.5099197626113892,-0.17791450023651123,-24.46653175354004,41.77141189575195,-49.18152618408203
3.64,-5.874379634857178,-13.737194061279297,2.7732813358306885,-0.33108893036842346,0.2750420570373535,0.18219056725502014,-24.11575698852539,42.10757064819336,-49.15229415893555
3.65,-6.55992317199707,-13.824531555175781,1.2610174417495728,-0.34987306594848633,0.2955060601234436,0.33735033869743347,-23.604209899902344,41.39140701293945,-49.56153106689453
3.66,-4.6301116943359375,-12.422338485717773,1.0815558433532715,-0.29657506942749023,0.584139883518219,0.48197266459465027,-23.808828353881836,41.84449005126953,-49.780765533447266
3.679,-1.6546367406845093,-11.192427635192871,1.0839486122131348,-0.2687807083129883,0.9740245938301086,0.5910121202468872,-23.29728126525879,41.46448516845703,-49.70768737792969
3.683,4.898108005523682,-9.315258026123047,-2.2396819591522217,-0.20876319706439972,0.8562803268432617,0.5496259927749634,-22.858814239501953,41.82987594604492,-49.15229415893555
3.69,7.046862602233887,-8.82114028930664,-2.344965934753418,-0.1644754558801651,0.1869247555732727,0.8556694388389587,-22.624963760375977,41.53756332397461,-49.473838806152344
3.7,2.0027923583984375,-8.48734188079834,-0.9547362327575684,-0.23151792585849762,-1.064738154411316,1.5392277240753174,-22.361881256103516,41.66910171508789,-50.146156311035156
3.71,-3.6370902061462402,-10.060623168945312,5.0392842292785645,-0.28496861457824707,-1.6626224517822266,1.2403618097305298,-21.324174880981445,40.967552185058594,-50.233848571777344
3.72,-2.5639095306396484,-13.907085418701172,10.040284156799316,-0.2460259646177292,-1.7166839838027954,0.8657487034797668,-21.10494041442871,41.3037109375,-50.39461898803711
3.741,-7.112664699554443,-18.44028663635254,3.4540393352508545,-0.5215262174606323,-0.9550877809524536,1.3154982328414917,-20.18415641784668,40.8652458190918,-50.29231262207031
3.744,2.3676979541778564,-19.481164932250977,7.121039867401123,0.0757472887635231,0.0682641938328743,1.2220358848571777,-19.7310733795166,40.90909194946289,-50.90616989135742
3.751,6.7752766609191895,-18.29432487487793,6.379265308380127,0.06429356336593628,0.3478877544403076,1.0819951295852661,-19.891843795776367,40.74831771850586,-51.6807975769043
3.76,13.668998718261719,-11.778668403625488,7.3567328453063965,0.3871358335018158,0.10659598559141159,0.9434813261032104,-19.0733699798584,40.558319091796875,-51.92926025390625
3.77,14.635699272155762,-13.173685073852539,4.210171222686768,0.2684752643108368,-0.849255383014679,1.3494013547897339,-18.941829681396484,40.529083251953125,-51.72464370727539
3.78,4.634897232055664,-16.35733413696289,1.9692928791046143,0.07941248267889023,-1.8961256742477417,1.8906278610229492,-17.933351516723633,40.47062301635742,-51.63694763183594
3.799,-3.645465135574341,-14.974284172058105,0.18544374406337738,0.23655755817890167,-2.17437481880188,1.8894060850143433,-17.480268478393555,40.09061813354492,-52.1192626953125
3.9,-3.8943188190460205,-8.557929992675781,1.0336993932724,0.408363401889801,0.24785856902599335,0.6730207204818726,-11.780181884765625,39.19906234741211,-53.653900146484375
3.919,-4.8813581466674805,-9.195616722106934,1.8376877307891846,0.38408151268959045,0.4502076804637909,0.4980078935623169,-11.546331405639648,39.49137496948242,-54.20929718017578
3.922,-2.829512596130371,-9.141778945922852,2.9072792530059814,0.37171149253845215,0.4050036370754242,0.45723262429237366,-11.385560035705566,38.833675384521484,-53.34697341918945
3.93,-3.0963122844696045,-8.58903694152832,2.8701906204223633,0.35643988847732544,0.30283644795417786,0.39354991912841797,-11.444022178649902,38.62905502319336,-53.8585205078125
3.94,-5.489135265350342,-8.827122688293457,1.9477574825286865,0.26374107599258423,0.24434609711170197,0.3127630054950714,-11.04940128326416,38.1467399597168,-53.77082824707031
3.95,-5.706881999969482,-9.91705322265625,0.7106683254241943,0.1973094791173935,0.2802344262599945,0.18310685455799103,-11.414791107177734,38.51213073730469,-53.829288482666016
3.96,-2.8007986545562744,-10.065407752990723,2.2671992778778076,0.14584407210350037,0.30940327048301697,0.12721268832683563,-10.874013900756836,38.570594787597656,-53.68313217163086
3.979,-1.8544374704360962,-9.710074424743652,2.713460922241211,0.0959058403968811,0.11789698898792267,0.17119498550891876,-11.180940628051758,38.73136520385742,-54.42852783203125
3.983,-4.2137603759765625,-9.592824935913086,2.847459077835083,0.06948591768741608,0.18096882104873657,0.20005835592746735,-10.932476043701172,38.93598175048828,-54.92546081542969
3.99,-2.9802606105804443,-9.41934585571289,2.8558335304260254,0.06994406878948212,0.3459024429321289,0.18845191597938538,-11.151710510253906,38.263668060302734,-53.91698455810547
4.0,-1.7934205532073975,-9.08674430847168,2.688336133956909,0.06933320313692093,0.34605515003204346,0.2119702398777008,-10.96170711517334,38.55597686767578,-54.457759857177734
4.01,-3.0352954864501953,-8.721837997436523,2.2360928058624268,0.05467243865132332,0.24846942722797394,0.2232712358236313,-10.727856636047363,38.658287048339844,-53.96083068847656
4.02,-4.281955718994141,-9.078369140625,1.7790635824203491,0.02535090781748295,0.21166479587554932,0.21319197118282318,-10.698626518249512,38.54136276245117,-52.689273834228516
4.039,-4.0247273445129395,-9.597611427307129,1.5493526458740234,-0.03680463135242462,0.24449880421161652,0.22770002484321594,-10.581701278686523,38.161354064941406,-53.58082580566406
4.043,-2.8378875255584717,-9.342775344848633,1.0767701864242554,-0.03955352306365967,0.23411409556865692,0.24205534160137177,-10.552470207214355,38.804443359375,-53.142356872558594
4.05,-2.1367905139923096,-9.379863739013672,1.659422516822815,-0.0481056347489357,0.1693623811006546,0.29077184200286865,-10.201695442199707,38.51213073730469,-53.08388900756836
4.06,-1.9609181880950928,-8.874979019165039,2.3784656524658203,-0.05726861581206322,0.09453140199184418,0.36483925580978394,-10.187079429626465,38.61444091796875,-53.7562141418457
4.07,-2.706282138824463,-8.206185340881348,2.9766714572906494,-0.08246680349111557,0.02474004216492176,0.4031710624694824,-10.830166816711426,37.78135299682617,-53.78544235229492
4.08,-3.393022298812866,-8.675178527832031,2.662015199661255,-0.11911872029304504,-0.012217304669320583,0.4277583956718445,-10.479392051696777,38.190589904785156,-53.653900146484375
4.099,-3.012563705444336,-8.757730484008789,2.306680917739868,-0.1537853181362152,-0.04596760869026184,0.5287038683891296,-10.05553913116455,37.839813232421875,-53.72698211669922
4.103,-2.1164515018463135,-8.745766639709473,2.2911276817321777,-0.1569923609495163,-0.08765916526317596,0.5719225406646729,-9.456298828125,37.79596710205078,-53.40544128417969
4.11,-2.148754596710205,-8.73499870300293,2.311466693878174,-0.16203199326992035,-0.12400564551353455,0.6177374720573425,-9.54399299621582,37.57673263549805,-52.77696990966797
4.12,-2.2013967037200928,-8.452645301818848,2.6763720512390137,-0.17791450023651123,-0.18539761006832123,0.7063129544258118,-9.26629638671875,38.33674621582031,-53.27389907836914
4.13,-1.2957134246826172,-8.48016357421875,3.5234313011169434,-0.18448129296302795,-0.29275718331336975,0.79213947057724,-9.54399299621582,37.62057876586914,-52.98158645629883
4.14,-5.07517671585083,-10.709076881408691,3.4671998023986816,-0.3497203588485718,-0.3283400535583496,0.9167559742927551,-8.740134239196777,37.48904037475586,-52.57234573364258
4.159,-3.783052444458008,-7.165307521820068,0.989432156085968,-0.3901901841163635,0.06215553730726242,0.9248499870300293,-8.623209953308105,37.3867301940918,-52.689273834228516
4.162,-3.2853453159332275,-7.219145774841309,0.9332008361816406,-0.38087448477745056,0.046273037791252136,0.9447030425071716,-8.740134239196777,37.24057388305664,-52.55773162841797
4.17,-2.5734806060791016,-7.88076114654541,0.35054853558540344,-0.31642818450927734,-0.05054909735918045,1.0384708642959595,-8.47705364227295,36.81671905517578,-52.23618698120117
4.18,-3.2781667709350586,-9.336793899536133,1.23589289188385,-0.260992169380188,-0.07559457421302795,1.1284207105636597,-7.717041492462158,36.919029235839844,-52.39695739746094
4.19,-4.110869407653809,-10.140782356262207,1.1832507848739624,-0.21563541889190674,-0.031154125928878784,1.1968377828598022,-7.687810897827148,36.96287536621094,-51.95848846435547
4.2,-3.996013641357422,-9.76989459991455,1.5936198234558105,-0.20922134816646576,0.08857545256614685,1.2806789875030518,-7.424729347229004,36.67056655883789,-52.22157287597656
4.219,-3.290131092071533,-10.374082565307617,0.3960121273994446,-0.1924225389957428,0.10216721147298813,1.5572481155395508,-6.343174934387207,36.62671661376953,-51.82695388793945
4.222,-2.7936203479766846,-10.06421184539795,0.7106683254241943,-0.1488984078168869,0.15332716703414917,1.6055065393447876,-6.007015228271484,36.655948638916016,-51.885414123535156
4.23,-2.231307029724121,-7.593622207641602,2.8426733016967773,-0.13637566566467285,0.18066339194774628,1.6462817192077637,-6.240865230560303,36.12978744506836,-51.286170959472656
4.24,-5.715256690979004,-8.092525482177734,3.2542386054992676,-0.1420261561870575,0.04566217586398125,1.741729497909546,-5.1446943283081055,35.63285446166992,-51.65156173706055
4.25,-9.537790298461914,-8.785247802734375,2.115255117416382,-0.2629774808883667,0.34208452701568604,1.7124079465866089,-4.750072956085205,35.895938873291016,-51.914642333984375
4.26,-9.251848220825195,-10.396814346313477,1.2717852592468262,-0.3309362530708313,0.7225008606910706,1.6869043111801147,-4.676995277404785,35.355159759521484,-50.64308547973633
4.279,-2.7074787616729736,-16.15873146057129,0.08853442966938019,-0.6641632318496704,0.6681338548660278,2.0480785369873047,-3.0400466918945312,34.09821701049805,-51.403099060058594
4.283,-1.3483555316925049,-17.655441284179688,0.6759723424911499,-0.6992879509925842,0.6357579827308655,2.1447479724884033,-3.0692780017852783,34.27360534667969,-51.33001708984375
4.29,-1.32921302318573,-20.42154312133789,1.628315806388855,-0.7757988572120667,0.47082436084747314,2.4167356491088867,-2.6015784740448,33.68898010253906,-49.73691940307617
4.3,-0.41156551241874695,-15.99362564086914,3.2303104400634766,-0.7473936080932617,0.4720461070537567,2.635119915008545,-1.8854135274887085,33.14820098876953,-49.18152618408203
4.31,-4.265206336975098,-6.445067405700684,3.4325039386749268,-0.6108652353286743,0.4008803069591522,2.7154488563537598,-1.0961706638336182,32.57819366455078,-49.225372314453125
4.32,-10.511669158935547,-3.528217077255249,3.603590726852417,-0.3623957931995392,0.7115052938461304,2.621833562850952,-0.8330897688865662,32.2274169921875,-48.12919998168945
4.337,-6.556333541870117,-4.735395908355713,0.5730810165405273,-0.1488984078168869,1.2693780660629272,2.327854633331299,0.17538732290267944,30.985092163085938,-47.79304122924805
4.341,-5.359922409057617,-5.9330034255981445,0.6041877269744873,-0.16111570596694946,1.2643383741378784,2.31945538520813,0.7600116729736328,30.955860137939453,-47.866119384765625
4.35,-1.9669002294540405,-4.917250633239746,-0.26919254660606384,-0.23777928948402405,1.0824532508850098,2.2572999000549316,0.9938614368438721,30.225080490112305,-47.500728607177734
4.36,-6.198606967926025,-3.6011979579925537,-0.47018963098526,-0.2396118938922882,0.6805039048194885,2.2954788208007812,1.3738672733306885,29.81584358215332,-46.63841247558594
4.37,-10.560722351074219,-8.840283393859863,-0.43190446496009827,-0.3500257730484009,0.637132465839386,2.278069019317627,1.7246419191360474,28.588130950927734,-46.56533432006836
4.38,-7.301697731018066,-10.235298156738281,-0.38763725757598877,-0.503963828086853,0.7785477042198181,2.2177462577819824,2.3531131744384766,28.16427993774414,-45.93686294555664
4.399,-4.412364959716797,-8.5100736618042,0.8709874153137207,-0.6394231915473938,0.3836233615875244,2.358855962753296,3.2592811584472656,27.08272361755371,-44.28529739379883
4.404,-5.184049606323242,-6.891329288482666,0.8374878764152527,-0.6139195561408997,0.27290403842926025,2.3277018070220947,3.4054369926452637,26.98041534423828,-44.22683334350586
4.41,-8.416753768920898,-4.459024906158447,0.8877371549606323,-0.5962044596672058,0.15302173793315887,2.289064645767212,2.9961998462677,26.819643020629883,-44.22683334350586
4.42,-11.96889877319336,-7.276573657989502,0.3601197898387909,-0.6062837243080139,0.2814561426639557,2.20583438873291,3.624671220779419,26.205787658691406,-43.30604934692383
4.43,-9.9469633102417,-11.190034866333008,-0.12442676723003387,-0.7225008606910706,0.767857551574707,2.0413589477539062,3.653902292251587,25.738086700439453,-43.627593994140625
4.44,-6.01675271987915,-15.966108322143555,0.20578275620937347,-0.8350527882575989,0.7822129726409912,2.0199787616729736,3.756211757659912,25.080385208129883,-42.896812438964844
4.453,-5.134997367858887,-16.279569625854492,0.8925228118896484,-0.902553379535675,0.632398247718811,1.9249889850616455,4.501607418060303,24.086524963378906,-42.54603958129883
4.46,-5.9306111335754395,-14.8199462890625,0.745364248752594,-0.9135489463806152,0.45921796560287476,1.811826229095459,4.983922958374023,24.159603118896484,-41.28909683227539
4.47,-6.405585765838623,-14.778071403503418,0.7836494445800781,-0.9717338681221008,0.44806966185569763,1.678046703338623,4.881613731384277,24.086524963378906,-40.543701171875
4.48,-5.788238048553467,-14.161920547485352,1.4069796800613403,-1.0659598112106323,0.656069278717041,1.3585642576217651,5.75855016708374,24.144987106323242,-40.44139099121094
4.49,-3.693321704864502,-10.359725952148438,1.3938192129135132,-1.0699304342269897,0.65958172082901,1.0228937864303589,5.349313259124756,23.38497543334961,-39.1844482421875
4.509,-3.293720245361328,-7.217949390411377,0.9607182741165161,-0.9828821420669556,-0.05253440886735916,0.7816020846366882,5.349313259124756,23.01958465576172,-38.468284606933594
4.513,-6.7692952156066895,-0.8662018179893494,-0.4654039740562439,-0.5036584138870239,-0.9317222237586975,0.8622362613677979,5.32008171081543,22.712656021118164,-38.468284606933594
4.52,-10.493722915649414,1.903490424156189,0.7118647694587708,-0.312304824590683,-1.2767083644866943,1.0680978298187256,5.539316177368164,22.785736083984375,-37.54750061035156
4.53,-12.467802047729492,2.906083106994629,3.3547372817993164,0.04138611629605293,-1.1456778049468994,0.9744827747344971,5.48085355758667,22.800350189208984,-38.24905014038086
4.54,-8.654839515686035,3.410968542098999,3.9278182983398438,0.2687807083129883,-0.6472117304801941,0.46700647473335266,5.80239725112915,22.11341667175293,-37.56211853027344
4.55,-3.7806599140167236,4.703092575073242,2.524427890777588,0.26832255721092224,0.05375614017248154,-0.018325956538319588,5.451622009277344,23.12189483642578,-37.32826614379883
4.568,1.5493526458740234,5.747560024261475,-0.5682953596115112,0.07391469925642014,0.9767735004425049,-0.7586946487426758,5.685472011566162,22.858814239501953,-37.45980453491211
4.572,11.49272632598877,5.787041664123535,0.0023928226437419653,0.29428431391716003,1.1271990537643433,-2.0001254081726074,5.027769565582275,23.443437576293945,-37.211341857910156
4.58,15.670595169067383,1.688136339187622,1.399801254272461,0.3142901659011841,0.48915034532546997,-2.492635726928711,4.720841884613037,24.101139068603516,-35.95439910888672
4.59,14.267204284667969,-3.0723841190338135,1.4931212663650513,0.3978259861469269,-0.3514002561569214,-2.864499807357788,3.78544282913208,24.714996337890625,-36.34901809692383
4.6,9.123832702636719,-3.5090742111206055,0.9308079481124878,0.4755585789680481,-1.1775954961776733,-3.123811960220337,3.2446651458740234,26.191171646118164,-36.75825881958008
4.61,3.524627685546875,-1.92741858959198,0.3433700203895569,0.5555819272994995,-1.5691601037979126,-3.475670576095581,2.864659309387207,26.907337188720703,-36.62671661376953
4.629,0.314656138420105,-0.9332008361816406,0.436690092086792,0.6498079299926758,-1.518763780593872,-3.902512550354004,1.5638701915740967,28.295820236206055,-37.57673263549805
4.633,-0.436690092086792,-2.724228620529175,0.8662018179893494,0.7365507483482361,-1.0005972385406494,-4.493524551391602,0.4384683072566986,29.640457153320312,-37.78135299682617
4.64,-0.5335994362831116,-3.779463291168213,1.219143033027649,0.7693847417831421,-0.7623597979545593,-4.6835036277771,-0.6723180413246155,30.415081024169922,-38.263668060302734
4.65,-0.7238287925720215,-4.327419757843018,1.054038405418396,0.8103127479553223,-0.5149593949317932,-4.873177528381348,-1.3300204277038574,32.02280044555664,-38.278282165527344
4.66,-1.657029628753662,-4.415954113006592,0.8578268885612488,0.8903360962867737,-0.36224305629730225,-4.997946262359619,-2.733119010925293,33.250511169433594,-38.760597229003906
4.67,-2.816352128982544,-4.671986103057861,0.5491527915000916,0.9318749308586121,-0.20754145085811615,-5.003597259521484,-4.852382659912109,34.06898498535156,-39.19906234741211
4.688,-3.493520736694336,-5.240281105041504,-0.09571290761232376,0.9454666376113892,-0.07116580009460449,-5.003597259521484,-6.284712314605713,35.82286071777344,-39.140602111816406
4.693,-3.999603033065796,-6.984649181365967,-0.5024927258491516,0.9587529897689819,-0.08994990587234497,-5.003597259521484,-8.506284713745117,37.299034118652344,-40.38292694091797
4.809,-14.816357612609863,-14.262419700622559,0.314656138420105,0.23029619455337524,-1.0279334783554077,-2.702467679977417,-25.036537170410156,41.727561950683594,-43.262203216552734
4.813,-15.895520210266113,-13.573285102844238,0.4821537435054779,0.18280142545700073,-0.5641340017318726,-2.2412643432617188,-25.22654151916504,42.078338623046875,-42.896812438964844
4.82,-15.501900672912598,-13.058829307556152,0.6580261588096619,0.16294831037521362,-0.10247264802455902,-1.9437732696533203,-25.41654396057129,41.727561950683594,-43.3645133972168
4.83,-14.405988693237305,-12.112467765808105,0.8267201781272888,0.12476921826601028,0.5539020299911499,-1.5300647020339966,-26.293479919433594,41.74217987060547,-43.78836441040039
4.84,-12.495319366455078,-10.738987922668457,0.5300102233886719,0.10445795953273773,1.1986702680587769,-1.0561859607696533,-26.658872604370117,41.99064636230469,-43.33528137207031
4.85,-9.929017066955566,-9.168099403381348,0.6795615553855896,0.10812314599752426,1.5743523836135864,-0.698677122592926,-27.301958084106445,41.332942962646484,-43.627593994140625
4.869,-7.633103847503662,-8.286344528198242,0.6029912829399109,0.1495092660188675,1.8212946653366089,-0.45036038756370544,-27.55042266845703,41.93218231201172,-43.65682601928711
4.873,-3.9936206340789795,-9.218348503112793,1.3878371715545654,0.04413501173257828,1.9034559726715088,-0.18356500566005707,-28.17889404296875,41.3037109375,-43.75913619995117
4.88,-1.5792629718780518,-10.459028244018555,1.8424733877182007,-0.04993823170661926,1.7052302360534668,-0.08170322328805923,-27.871967315673828,42.063724517822266,-44.66530227661133
4.89,0.3565305471420288,-11.316854476928711,1.7359927892684937,-0.26633724570274353,0.8958338499069214,0.2770273983478546,-28.091201782226562,41.28909683227539,-44.022212982177734
4.9,0.745364248752594,-12.072986602783203,2.5950162410736084,-0.394618958234787,0.10720684379339218,0.5186246037483215,-27.477344512939453,41.80064392089844,-45.3814697265625
4.91,0.4342972934246063,-11.825328826904297,2.2564315795898438,-0.4853324294090271,-0.6244570016860962,0.6548475623130798,-27.345806121826172,41.449867248535156,-44.85530471801758
4.929,-0.314656138420105,-10.839487075805664,2.0207386016845703,-0.4407392740249634,-1.0270171165466309,0.8188648223876953,-26.644256591796875,41.77141189575195,-44.84069061279297
4.933,-0.8793622851371765,-9.610772132873535,2.493321180343628,-0.2304489016532898,-1.1956160068511963,1.0487028360366821,-26.42502212524414,41.77141189575195,-43.96375274658203
4.94,-1.3244272470474243,-9.199206352233887,2.78165602684021,-0.08002334833145142,-1.3142764568328857,1.1314750909805298,-26.23501968383789,41.2452507019043,-45.08915710449219
4.95,-4.628915309906006,-8.671588897705078,4.124029636383057,0.24587324261665344,-1.4830280542373657,1.5010486841201782,-25.50423812866211,41.318328857421875,-45.498390197753906
4.96,-16.009180068969727,-11.716455459594727,5.412564277648926,0.22708913683891296,-1.1898127794265747,2.119396924972534,-24.437299728393555,41.17217254638672,-45.235313415527344
4.97,-23.142183303833008,-12.90927791595459,4.642076015472412,0.3871358335018158,0.6068946123123169,1.930486798286438,-23.764982223510742,41.27448272705078,-46.112247467041016
4.989,-15.817753791809082,-15.035301208496094,1.8472589254379272,0.29565879702568054,2.6707029342651367,1.0728321075439453,-22.537269592285156,41.34756088256836,-45.615318298339844
4.993,12.346964836120605,-20.184654235839844,2.0231313705444336,0.2915354371070862,3.9341249465942383,0.508698046207428,-22.47880744934082,40.79216766357422,-46.08301544189453
5.0,20.236101150512695,-20.559131622314453,-0.04905286058783531,0.25335633754730225,2.8939740657806396,0.8156577944755554,-22.566499710083008,41.084476470947266,-46.170711517333984
5.01,22.432710647583008,-16.85743522644043,2.4023938179016113,0.5419901609420776,1.4300354719161987,1.2741122245788574,-21.952646255493164,40.71908950805664,-46.755332946777344
5.02,19.73360824584961,-13.365111351013184,4.506881237030029,0.6743952035903931,-0.2454151064157486,1.4631749391555786,-22.142648696899414,40.63139724731445,-47.544578552246094
5.03,13.473983764648438,-13.61037540435791,0.12323036044836044,0.3683517277240753,-1.8759671449661255,1.7056884765625,-21.397253036499023,40.529083251953125,-47.836891174316406
5.05,3.706482172012329,-14.118849754333496,-0.02153540402650833,0.25763240456581116,-3.3261611461639404,2.2119429111480713,-19.43876075744629,40.44139099121094,-47.96842956542969
5.054,-8.39162826538086,-12.314661026000977,-0.1543370485305786,0.24633140861988068,-3.7274997234344482,2.0900754928588867,-19.17568016052246,40.134464263916016,-47.64688491821289
5.06,-10.036694526672363,-8.840283393859863,2.620140552520752,0.37140607833862305,-3.115870714187622,1.9159787893295288,-18.488744735717773,40.339080810546875,-48.026893615722656
5.07,-11.921042442321777,-6.239284515380859,4.163511276245117,0.2675589621067047,-1.962557315826416,1.715462327003479,-17.933351516723633,39.929847717285156,-48.27535629272461
5.08,-11.358729362487793,-7.2634124755859375,5.862415313720703,0.2724458873271942,-0.8174903988838196,1.3570371866226196,-17.187957763671875,39.929847717285156,-48.24612808227539
5.09,-7.88913631439209,-9.756733894348145,4.924428939819336,0.21838431060314178,0.24678955972194672,1.1621711254119873,-16.734872817993164,39.973690032958984,-48.9184455871582
5.109,-3.104687213897705,-11.82174015045166,3.1692936420440674,0.15256358683109283,0.5297728776931763,0.9964739084243774,-16.2525577545166,39.389068603515625,-48.83074951171875
5.112,0.40797626972198486,-14.057832717895508,-0.31106695532798767,0.05100724473595619,0.19898934662342072,0.9807441234588623,-15.828704833984375,39.447532653808594,-48.6407470703125
5.12,0.6089733242988586,-13.487144470214844,-1.5050853490829468,-0.08399397134780884,-0.31841349601745605,0.9813550114631653,-15.81408977508545,39.8859977722168,-48.713829040527344
5.13,-1.3387842178344727,-12.918848037719727,-0.3026920557022095,-0.19883663952350616,-0.9644034504890442,1.0435105562210083,-15.56562328338623,39.345218658447266,-48.39228439331055
5.14,-5.181657314300537,-13.153346061706543,0.6915256977081299,-0.36132678389549255,-1.2202032804489136,1.0322095155715942,-14.367143630981445,39.330604553222656,-48.27535629272461
5.15,-5.623133182525635,-13.666605949401855,2.0470597743988037,-0.2863430678844452,-0.7903068661689758,1.0286970138549805,-14.308682441711426,39.038291931152344,-47.64688491821289
5.169,-3.988835334777832,-11.651848793029785,2.39401912689209,-0.2151772677898407,-0.5484042763710022,0.9860891699790955,-14.07483196258545,39.140602111816406,-48.77228546142578
5.173,-4.371686935424805,-8.4562349319458,1.867598056793213,-0.23396137356758118,-0.6424775123596191,0.9019425511360168,-13.621747970581055,38.68751907348633,-48.34843444824219
5.18,-5.1050872802734375,-6.9750776290893555,2.159522294998169,-0.2658790946006775,-0.6467536091804504,0.8564330339431763,-13.534053802490234,38.585208892822266,-48.31920623779297
5.19,-6.270391464233398,-8.496912956237793,3.071187734603882,-0.39675697684288025,-0.6588181853294373,0.7596108913421631,-13.49020767211914,38.833675384521484,-48.39228439331055
5.2,-5.085944175720215,-9.65503978729248,1.727617859840393,-0.35124751925468445,-0.08109235763549805,0.6036875247955322,-12.70096492767334,38.775211334228516,-48.494590759277344
5.21,-3.59043025970459,-9.249455451965332,0.9427720904350281,-0.3269656002521515,-0.1488984078168869,0.508698046207428,-12.803274154663086,38.32212829589844,-48.216896057128906
5.229,-2.9754748344421387,-7.683353424072266,-3.0376882553100586,-0.27809640765190125,-0.28725937008857727,0.4059199392795563,-12.642502784729004,38.468284606933594,-48.465362548828125
5.233,-5.723631381988525,-8.350950241088867,1.4452649354934692,-0.24342979490756989,-0.2750420570373535,0.4014911651611328,-12.978660583496094,38.1467399597168,-47.310726165771484
5.24,-5.643471717834473,-9.658628463745117,1.9537396430969238,-0.30711251497268677,-0.21319197118282318,0.3848450779914856,-12.832504272460938,38.32212829589844,-46.974571228027344
5.25,-5.03449821472168,-9.919445991516113,0.9655039310455322,-0.31322115659713745,-0.06062837690114975,0.3396410644054413,-12.1455717086792,38.190589904785156,-47.76381301879883
5.26,-3.4432716369628906,-9.146564483642578,1.4500504732131958,-0.28725937008857727,0.029474247246980667,0.36804628372192383,-12.335575103759766,37.95673751831055,-47.36919021606445
5.27,-2.20737886428833,-9.363115310668945,1.9082759618759155,-0.28878653049468994,0.001527163083665073,0.430965393781662,-12.072493553161621,38.17597198486328,-47.63227081298828
5.289,-2.4155545234680176,-9.284152030944824,2.073380708694458,-0.27580565214157104,-0.1661553531885147,0.5992587804794312,-11.458637237548828,37.95673751831055,-47.500728607177734
5.293,-3.974478244781494,-8.718249320983887,1.8065810203552246,-0.27580565214157104,-0.16050483286380768,0.625220537185669,-11.575562477111816,37.591346740722656,-47.354576110839844
5.3,-4.754538536071777,-8.599804878234863,2.014756679534912,-0.2898555397987366,-0.06582073122262955,0.6395758986473083,-11.6047945022583,37.3867301940918,-47.16456985473633
5.31,-4.515256404876709,-8.414360046386719,1.8484554290771484,-0.26251932978630066,0.076052725315094,0.6498079299926758,-11.385560035705566,37.62057876586914,-47.1791877746582
5.32,-4.2723846435546875,-8.070990562438965,1.5972089767456055,-0.2515237629413605,0.11407908797264099,0.6470589637756348,-11.064016342163086,37.605960845947266,-45.60070037841797
5.33,-4.557130336761475,-8.239684104919434,1.117448091506958,-0.2165517359972,0.13775010406970978,0.6473644375801086,-11.122478485107422,37.109031677246094,-46.916107177734375
5.349,-3.9840495586395264,-8.950352668762207,0.12921242415905,-0.1774563491344452,0.09422595798969269,0.7719809412956238,-10.596317291259766,36.99210739135742,-46.22917175292969
5.352,-3.7806599140167236,-9.0843505859375,0.064606212079525,-0.1492038369178772,0.13301590085029602,0.8367326259613037,-10.362466812133789,36.80210494995117,-46.7991828918457
5.36,-3.235095977783203,-9.462416648864746,0.4043869972229004,-0.1368338167667389,0.16951508820056915,0.9196576476097107,-9.967845916748047,37.22595977783203,-47.1207275390625
5.37,-1.8077774047851562,-9.632307052612305,0.13639087975025177,-0.08155050873756409,0.14737124741077423,1.1018481254577637,-9.8655366897583,37.35749816894531,-46.8430290222168
5.38,-1.9010975360870361,-10.100104331970215,1.25862455368042,-0.12293662130832672,0.09346237778663635,1.2835805416107178,-9.719380378723145,37.094417572021484,-45.95147705078125
5.39,-2.775674343109131,-9.498309135437012,1.9836498498916626,-0.15347988903522491,0.035582900047302246,1.4581352472305298,-9.324758529663086,36.4074821472168,-46.46302032470703
5.409,-5.399404048919678,-8.937192916870117,1.7515461444854736,-0.2070833146572113,0.12400564551353455,1.7056884765625,-8.374743461608887,35.50131607055664,-45.96609115600586
5.412,-5.55733060836792,-8.9850492477417,1.7288143634796143,-0.2243402600288391,0.17104226350784302,1.7351627349853516,-7.965507507324219,35.80824279785156,-46.316864013671875
5.42,-5.925825119018555,-9.878767967224121,1.5756735801696777,-0.2474004179239273,0.2405281811952591,1.8066338300704956,-7.395498275756836,35.282081604003906,-46.44840621948242
5.43,-5.903093338012695,-10.529616355895996,1.5170494318008423,-0.24342979490756989,0.3604104816913605,1.9466747045516968,-7.147032737731934,34.799766540527344,-46.69687271118164
5.44,-6.425925254821777,-9.768697738647461,1.2837493419647217,-0.2393064647912979,0.4967861771583557,2.021658420562744,-6.825489521026611,34.49283981323242,-46.126861572265625
5.45,-5.96171760559082,-10.765308380126953,0.7932206988334656,-0.19135352969169617,0.7089090943336487,2.0806069374084473,-5.9193220138549805,34.44898986816406,-45.70301055908203
5.469,-4.193421840667725,-13.636695861816406,0.5371886491775513,-0.24908030033111572,0.8324565887451172,2.375044107437134,-4.3262200355529785,33.425899505615234,-45.42531204223633
5.473,-3.61435866355896,-13.24307632446289,0.5168496966362,-0.260992169380188,0.7973318696022034,2.414750099182129,-4.355451583862305,33.51359558105469,-44.70914840698242
5.48,-4.521238327026367,-13.280165672302246,0.6484549045562744,-0.279928982257843,0.6829473376274109,2.5480713844299316,-3.3615901470184326,33.30897521972656,-44.4022216796875
5.49,-7.101897239685059,-14.7266263961792,0.745364248752594,-0.30695977807044983,0.6348416805267334,2.7310259342193604,-2.703887701034546,32.76819610595703,-43.51066970825195
5.5,-7.286144256591797,-16.959129333496094,0.8757730722427368,-0.3474296033382416,0.730900228023529,2.9034423828125,-2.5577316284179688,31.862030029296875,-43.072200775146484
5.51,-4.309473514556885,-18.936798095703125,1.6067804098129272,-0.4616613984107971,0.8527678847312927,3.1557297706604004,-1.5784857273101807,31.511253356933594,-43.72990417480469
5.527,-2.3497517108917236,-5.391029357910156,1.691725492477417,-0.41172316670417786,0.6198754906654358,3.176499128341675,-0.42385268211364746,29.830459594726562,-41.99064636230469
5.531,-3.617947816848755,-4.169493198394775,1.6618152856826782,-0.3816380500793457,0.5216789245605469,3.1755828857421875,-0.4823150932788849,29.932767868041992,-42.063724517822266
5.54,-9.103493690490723,-2.77447772026062,1.2167502641677856,-0.25213462114334106,0.3822489380836487,3.1621439456939697,0.7015492916107178,28.89505958557129,-41.61064147949219
5.55,-8.60459041595459,-1.3830513954162598,0.7657032608985901,-0.14019358158111572,0.8107708692550659,2.92543363571167,1.0084770917892456,28.105815887451172,-42.18064880371094
5.56,-5.163711071014404,0.6101697683334351,0.22971096634864807,-0.04841107130050659,1.0829113721847534,2.6555838584899902,1.943876028060913,27.258113861083984,-41.65448760986328
5.57,-6.142375469207764,2.313859462738037,-0.34217363595962524,-0.03894266113638878,0.7883215546607971,2.4863743782043457,2.1631100177764893,26.907337188720703,-40.777549743652344
5.589,-10.783255577087402,-4.475774765014648,-0.38165518641471863,-0.15347988903522491,0.7861835360527039,2.176970958709717,3.0400466918945312,25.796550750732422,-40.017539978027344
5.593,-10.256834030151367,-6.010769844055176,-0.21296119689941406,-0.22021691501140594,0.8455901741981506,2.1111502647399902,3.4346680641174316,25.825780868530273,-39.85676574707031
5.6,-8.304290771484375,-10.381260871887207,0.21176479756832123,-0.29794952273368835,0.8458956480026245,2.074345588684082,3.493130683898926,25.40192985534668,-39.5059928894043
5.61,-6.764509677886963,-15.081960678100586,1.0995019674301147,-0.47372597455978394,0.6473644375801086,2.0748038291931152,3.9608304500579834,24.68576431274414,-39.06752395629883
5.62,-7.403393268585205,-16.798810958862305,2.66560435295105,-0.5946772694587708,0.4896084666252136,2.027308940887451,4.048523902893066,24.554224014282227,-38.73136520385742
5.63,-8.71107006072998,-15.64427375793457,2.6500511169433594,-0.6424775123596191,0.44165557622909546,1.8813122510910034,4.443145275115967,23.633440017700195,-37.51826858520508
5.645,-7.884350299835205,-13.733604431152344,2.258824348449707,-0.7023422718048096,0.660803496837616,1.549612283706665,5.159310340881348,22.288803100585938,-37.079803466796875
5.65,-7.067201137542725,-12.953545570373535,1.7204394340515137,-0.7307475805282593,0.7435756921768188,1.4506522417068481,4.823151111602783,22.683425903320312,-37.18210983276367
5.66,-5.747560024261475,-10.837093353271484,0.31824538111686707,-0.7522805333137512,0.5592471361160278,1.2574660778045654,5.013154029846191,22.47880744934082,-37.1236457824707
5.67,-6.515655517578125,-8.551947593688965,-0.24406790733337402,-0.6513350009918213,-0.010231993161141872,1.2189815044403076,4.998538494110107,21.83572006225586,-36.451332092285156
5.68,-9.152545928955078,-5.401796817779541,-0.26081767678260803,-0.37980544567108154,-0.674089789390564,1.0745118856430054,4.866997718811035,22.069570541381836,-35.925167083740234
5.69,-8.092525482177734,-2.8941190242767334,1.9597216844558716,-0.10125090926885605,-0.9346237778663635,1.0447322130203247,5.612394332885742,21.178016662597656,-35.720550537109375
5.703,-6.661618232727051,-0.234496608376503,2.444268226623535,0.16890422999858856,-0.5523748993873596,0.7009678483009338,5.773165702819824,21.455713272094727,-36.14440155029297
5.71,-4.469792366027832,1.990828275680542,3.2159535884857178,0.23273965716362,-0.44837507605552673,0.5279402732849121,6.211634159088135,21.57263946533203,-35.76439666748047
5.72,-2.8761725425720215,5.398207664489746,3.5270204544067383,0.4112650156021118,-0.30512717366218567,0.10873401165008545,6.430868148803711,21.587255477905273,-36.17363357543945
5.73,-0.46061834692955017,7.094718933105469,1.781456470489502,0.33628129959106445,0.10048733651638031,-0.46899178624153137,6.708564758300781,22.303421020507812,-35.662086486816406
5.74,2.6871397495269775,7.579265117645264,-2.6536402702331543,0.16722436249256134,0.8497135639190674,-1.4109458923339844,5.75855016708374,22.157264709472656,-35.282081604003906
5.758,7.652246475219727,6.083751201629639,-2.495713949203491,0.21594086289405823,0.8503244519233704,-2.177734613418579,5.495469093322754,22.990352630615234,-35.22361755371094
5.762,10.789237022399902,0.34695929288864136,-0.5383850932121277,0.17928895354270935,0.4508185386657715,-2.8683176040649414,4.223911285400391,23.472667694091797,-34.49283981323242
5.77,11.040483474731445,-1.852044701576233,0.014356935396790504,0.2402227520942688,-0.17379117012023926,-3.2504138946533203,3.78544282913208,24.56884002685547,-34.40514373779297
5.78,8.739784240722656,-3.177668571472168,-0.4139583110809326,0.38316524028778076,-0.8755226135253906,-3.470630645751953,3.3323590755462646,25.31423568725586,-34.46360778808594
5.79,4.089333534240723,-2.1930220127105713,-0.14715859293937683,0.5607743263244629,-1.486693263053894,-3.637855052947998,2.3531131744384766,25.913476943969727,-35.545162200927734
5.8,-0.6927221417427063,-1.6534403562545776,0.7477570176124573,0.6270532011985779,-1.7270687818527222,-3.9009852409362793,2.1923413276672363,27.491960525512695,-35.69131851196289
5.819,-3.521038293838501,-2.472982168197632,0.8338987231254578,0.6026185750961304,-1.5042556524276733,-4.23986291885376,1.490792155265808,28.354280471801758,-36.480560302734375
5.823,-4.875375747680664,-4.481756687164307,0.865005373954773,0.5455026626586914,-0.7600690722465515,-4.560414791107178,0.1607716977596283,30.54662322998047,-36.58287048339844
5.83,-4.676771640777588,-4.837090969085693,0.9523433446884155,0.5674937963485718,-0.4911356270313263,-4.632038116455078,-0.5115463137626648,30.824321746826172,-36.23209762573242
5.84,-4.657629013061523,-5.3108696937561035,1.4344971179962158,0.5965099334716797,-0.2690861225128174,-4.693124771118164,-1.388482928276062,32.35895919799805,-36.14440155029297
5.85,-4.473381996154785,-5.205585479736328,1.148554801940918,0.5801692605018616,-0.15836679935455322,-4.71022891998291,-2.776965856552124,32.95820236206055,-36.62671661376953
5.86,-5.248656272888184,-5.3934221267700195,1.2406784296035767,0.5800164937973022,-0.1696678102016449,-4.661665439605713,-4.01929235458374,33.820518493652344,-37.0067253112793
5.878,-6.681956768035889,-5.785844802856445,1.176072359085083,0.5853615999221802,-0.12553280591964722,-4.589125156402588,-5.817012310028076,35.0043830871582,-36.96287536621094
5.883,-8.086544036865234,-5.8995041847229,0.7166503667831421,0.6235406994819641,-0.009773843921720982,-4.5633158683776855,-7.541654109954834,36.275943756103516,-36.55363845825195
5.89,-8.251648902893066,-5.96171760559082,0.9822536706924438,0.6650795340538025,0.035124752670526505,-4.514904975891113,-8.871675491333008,36.87518310546875,-37.25518798828125
5.9,-8.286344528198242,-6.282355785369873,1.2370892763137817,0.6901249885559082,0.022449297830462456,-4.418846130371094,-10.391697883605957,38.1028938293457,-37.89827346801758
5.91,-8.449056625366211,-7.026523113250732,1.1401798725128174,0.6908885836601257,-0.04046982154250145,-4.343556880950928,-11.297865867614746,38.08827590942383,-37.4451904296875
5.92,-8.645268440246582,-8.014759063720703,1.0959126949310303,0.7562512159347534,-0.15271630883216858,-4.204585552215576,-12.408652305603027,39.023677825927734,-37.31365203857422
5.94,-9.09152889251709,-9.2255277633667,1.643869161605835,0.7802276015281677,-0.19578230381011963,-4.104403495788574,-14.410990715026855,39.35983657836914,-38.219818115234375
5.943,-9.19322395324707,-9.987641334533691,2.137986898422241,0.7394523620605469,-0.16768251359462738,-3.981008768081665,-16.413330078125,39.5059928894043,-39.06752395629883
5.95,-9.165706634521484,-10.293922424316406,1.7898313999176025,0.6982190012931824,-0.16065755486488342,-3.90541410446167,-17.100261688232422,40.03215408325195,-38.35136032104492
5.96,-9.375079154968262,-11.105090141296387,1.00259268283844,0.6284275650978088,-0.15515977144241333,-3.8006505966186523,-18.327974319458008,40.74831771850586,-37.95673751831055
5.97,-9.431309700012207,-12.507284164428711,0.259621262550354,0.5597052574157715,-0.18509215116500854,-3.6144895553588867,-19.43876075744629,41.05524826049805,-38.1467399597168
5.98,-10.078568458557129,-13.907085418701172,-0.30508488416671753,0.43905937671661377,-0.24785856902599335,-3.2849276065826416,-21.134170532226562,41.756797790527344,-38.07366180419922
5.999,-10.529616355895996,-14.10688591003418,-0.873380184173584,0.3822489380836487,-0.1725694239139557,-3.001486301422119,-22.332651138305664,41.099090576171875,-39.08213806152344
6.004,-11.01296615600586,-13.063614845275879,-0.38644087314605713,0.2822197377681732,0.12003502249717712,-2.5384504795074463,-23.721134185791016,41.6252555847168,-39.023677825927734
6.01,-10.951948165893555,-12.20100212097168,-0.09451649338006973,0.24938572943210602,0.25564709305763245,-2.411695718765259,-24.554224014282227,41.5814094543457,-38.87752151489258
6.02,-10.686345100402832,-11.599207878112793,0.3852444291114807,0.18906280398368835,0.6090326309204102,-2.1149680614471436,-25.13884925842285,41.65448760986328,-38.96521759033203
6.03,-10.079764366149902,-11.009376525878906,0.8697909712791443,0.19975292682647705,0.9257662296295166,-1.9002490043640137,-25.650394439697266,41.11370849609375,-39.72522735595703
6.04,-9.444470405578613,-10.223334312438965,1.2885348796844482,0.26801711320877075,1.324813961982727,-1.723861575126648,-27.05349349975586,41.61064147949219,-40.11984634399414
6.06,-7.820940971374512,-9.598808288574219,1.5996018648147583,0.3591887652873993,1.7676912546157837,-1.558011770248413,-27.141185760498047,41.142940521240234,-39.63753128051758
6.063,-4.144368648529053,-9.860821723937988,2.389233350753784,0.5047274231910706,1.8093827962875366,-1.171486735343933,-28.105815887451172,41.888336181640625,-40.6021614074707
6.07,-3.236292600631714,-10.780862808227539,2.592623233795166,0.4786129295825958,1.5859588384628296,-0.9801332950592041,-28.310436248779297,41.74217987060547,-41.6252555847168
6.08,-3.9146575927734375,-12.051450729370117,1.8065810203552246,0.3061962127685547,0.778853178024292,-0.31551188230514526,-28.295820236206055,41.42063903808594,-40.587547302246094
6.09,-6.912864685058594,-11.380264282226562,0.4666004180908203,0.17699819803237915,0.331852525472641,0.16523903608322144,-28.04735565185547,41.55217742919922,-41.17217254638672
6.1,-7.532605171203613,-10.886146545410156,0.15912269055843353,0.06169738993048668,0.27641651034355164,0.42500948905944824,-27.945045471191406,41.49371337890625,-41.42063903808594
6.119,-5.685346603393555,-11.350354194641113,-1.4751750230789185,0.02733621932566166,0.5311473608016968,0.6998988389968872,-26.99502944946289,41.37678909301758,-40.93832015991211
6.123,-10.382457733154297,-12.775279998779297,-1.1425727605819702,-0.2496911585330963,0.2981022298336029,1.8295413255691528,-27.05349349975586,41.81526184082031,-41.17217254638672
6.13,-8.173882484436035,-11.471190452575684,0.22013966739177704,-0.035735614597797394,0.16172656416893005,1.640173077583313,-26.176557540893555,41.21601867675781,-41.099090576171875
6.14,-6.799205303192139,-13.584053039550781,7.892724990844727,-0.04153883829712868,-0.5809328556060791,1.648572564125061,-26.132709503173828,41.698333740234375,-41.49371337890625
6.15,-5.295316219329834,-15.796217918395996,2.014756679534912,-0.3903428912162781,0.5120577812194824,1.3840678930282593,-25.533470153808594,41.449867248535156,-41.157554626464844
6.16,8.14397144317627,-15.911073684692383,-0.7776673436164856,-0.06062837690114975,1.7805194854736328,0.8109236359596252,-25.080385208129883,41.37678909301758,-41.2452507019043
6.179,22.758136749267578,-17.053646087646484,-3.0388846397399902,0.15851953625679016,1.2098186016082764,0.9611964225769043,-24.70037841796875,41.3037109375,-41.49371337890625
6.183,17.972490310668945,-14.36889934539795,10.977072715759277,0.18906280398368835,-0.5398521423339844,1.8860464096069336,-23.998830795288086,40.79216766357422,-42.268341064453125
6.19,12.005987167358398,-12.3338041305542,11.082358360290527,0.2542726695537567,-1.5115859508514404,1.8545868396759033,-23.721134185791016,40.71908950805664,-41.888336181640625
6.2,6.813561916351318,-14.10688591003418,1.277767300605774,0.14065171778202057,-2.9993484020233154,1.7482962608337402,-22.72727394104004,41.23063278198242,-42.39988327026367
6.21,-4.329812526702881,-13.74556827545166,3.9565322399139404,0.37201693654060364,-3.2820262908935547,2.116189956665039,-21.864952087402344,41.17217254638672,-43.189125061035156
6.22,-18.58026695251465,-13.000205039978027,1.8831512928009033,0.4306599795818329,-2.3744330406188965,1.8813122510910034,-20.73954963684082,41.04063034057617,-43.21835708618164
6.239,-17.78824234008789,-8.341379165649414,-4.66241455078125,0.6229298114776611,-0.23976460099220276,1.0706939697265625,-19.877227783203125,41.128326416015625,-43.48143768310547
6.243,-0.4570291042327881,-10.408778190612793,-1.7730815410614014,0.29184088110923767,1.0587822198867798,1.3658946752548218,-20.213388442993164,40.73370361328125,-43.6422119140625
6.25,4.559523582458496,-14.267204284667969,1.223928689956665,0.15302173793315887,0.6188065409660339,1.281595230102539,-19.102602005004883,40.967552185058594,-43.77375030517578
6.26,8.577072143554688,-18.13759422302246,6.619743347167969,0.08429940044879913,-0.4260784983634949,1.318858027458191,-18.63490104675293,40.879859924316406,-43.61297607421875
6.27,7.4907307624816895,-16.35972785949707,9.328418731689453,0.060475654900074005,-1.4796682596206665,1.5569428205490112,-18.35720443725586,40.339080810546875,-43.55451583862305
6.28,-1.5361920595169067,-14.037493705749512,6.7178497314453125,-0.14844025671482086,-2.074192762374878,1.7727309465408325,-17.50950050354004,40.529083251953125,-44.53376388549805
6.3,-12.708280563354492,-12.256037712097168,-0.47976091504096985,-0.266642689704895,-1.5265522003173828,1.621694564819336,-16.9541072845459,40.07600402832031,-43.817596435546875
6.304,-13.805390357971191,-6.349354267120361,-3.4743783473968506,-0.14187344908714294,0.215482696890831,1.239292860031128,-16.164865493774414,40.2221565246582,-43.72990417480469
6.31,-8.889335632324219,-6.273980617523193,-2.80558443069458,-0.17348572611808777,0.4187481105327606,1.137431025505066,-15.931015014648438,39.75445556640625,-43.3206672668457
6.32,-3.4169507026672363,-8.358129501342773,0.4043869972229004,-0.1569923609495163,0.42470404505729675,0.9208793640136719,-15.28792667388916,39.330604553222656,-44.577606201171875
6.33,-2.4610180854797363,-10.25802993774414,1.852044701576233,-0.15225815773010254,0.1007927656173706,0.8069530129432678,-15.14177131652832,39.75445556640625,-43.94913864135742
6.34,-4.3202409744262695,-10.908878326416016,0.7070790529251099,-0.06062837690114975,0.0032070425804704428,0.7408268451690674,-15.083308219909668,39.418296813964844,-43.30604934692383
6.359,-5.783452033996582,-9.6466646194458,0.41874393820762634,-0.013286319561302662,0.08811730891466141,0.6618725061416626,-14.674072265625,39.52061080932617,-43.90529251098633
6.363,-4.315455436706543,-9.004191398620605,1.4009976387023926,0.028405234217643738,0.2499965876340866,0.6020076870918274,-15.024847030639648,39.66676330566406,-43.627593994140625
6.37,-3.2709884643554688,-8.944371223449707,2.1619153022766113,0.029474247246980667,0.247094988822937,0.5537493228912354,-14.615609169006348,39.27214050292969,-43.7445182800293
6.38,-2.6285154819488525,-9.352347373962402,2.5806589126586914,0.018478674814105034,0.15424346923828125,0.5575672388076782,-14.63022518157959,39.140602111816406,-43.3645133972168
6.39,-1.9369899034500122,-9.470791816711426,3.473181962966919,-0.05650503188371658,-0.014966198243200779,0.5166392922401428,-14.030985832214355,38.92136764526367,-43.53989791870117
6.4,-2.9276182651519775,-9.528219223022461,3.888336658477783,-0.11636982858181,-0.2232712358236313,0.5525276064872742,-14.367143630981445,39.374454498291016,-43.40835952758789
6.419,-6.193820953369141,-8.404788970947266,2.0650060176849365,-0.27229318022727966,-0.17867808043956757,0.37797287106513977,-13.7240571975708,38.89213943481445,-42.56065368652344
6.423,-7.470392227172852,-8.577072143554688,0.9667003750801086,-0.28420504927635193,-0.11957687139511108,0.35063666105270386,-13.840982437133789,39.19906234741211,-43.10143280029297
6.43,-5.174479007720947,-9.428916931152344,0.8123632073402405,-0.2863430678844452,0.058948494493961334,0.3121521472930908,-13.519438743591309,38.62905502319336,-42.692195892333984
6.44,-2.021935224533081,-10.067800521850586,1.6893328428268433,-0.2603813111782074,0.02535090781748295,0.3065016567707062,-13.475592613220215,38.804443359375,-42.56065368652344
6.45,-2.5591237545013428,-9.360721588134766,1.7527425289154053,-0.2203696370124817,-0.12721268832683563,0.37980544567108154,-13.855597496032715,38.4244384765625,-42.48757553100586
6.46,-4.49132776260376,-8.8438720703125,1.277767300605774,-0.16249015927314758,-0.13637566566467285,0.4338670074939728,-13.402514457702637,38.760597229003906,-43.14527893066406
6.479,-5.227120876312256,-9.151350021362305,0.9475577473640442,-0.05757404863834381,0.20845776796340942,0.49754971265792847,-12.70096492767334,38.7459831237793,-43.23297119140625
6.482,-3.376272678375244,-9.125028610229492,1.2251251935958862,-0.043218713253736496,0.22418753802776337,0.513126790523529,-12.861736297607422,38.570594787597656,-42.867584228515625
6.49,-2.9970104694366455,-8.792426109313965,1.4644074440002441,-0.003817907767370343,0.18707747757434845,0.5739078521728516,-12.744811058044434,38.64366912841797,-43.04296875
6.5,-4.468596458435059,-7.8795647621154785,1.867598056793213,0.05207626149058342,0.1641700267791748,0.5998696684837341,-12.350189208984375,38.73136520385742,-43.27682113647461
6.51,-6.008377552032471,-8.044669151306152,1.4452649354934692,0.08781187981367111,0.22586742043495178,0.6041457653045654,-12.072493553161621,38.278282165527344,-42.633731842041016
6.52,-5.7786664962768555,-8.678768157958984,0.8446664214134216,0.08735372871160507,0.4034765064716339,0.603076696395874,-12.408652305603027,38.029815673828125,-42.136802673339844
6.539,-3.0687947273254395,-10.115657806396484,1.4883357286453247,0.01863138936460018,0.3904955983161926,0.7319692969322205,-11.254019737243652,38.278282165527344,-42.56065368652344
6.543,-3.25663161277771,-10.700701713562012,1.5290136337280273,-0.009773843921720982,0.3400992155075073,0.806647539138794,-11.458637237548828,38.00058364868164,-42.29757308959961
6.55,-3.5952160358428955,-11.609975814819336,1.7024933099746704,-0.054367005825042725,0.32100966572761536,0.9294314384460449,-11.283249855041504,37.635196685791016,-42.18064880371094
6.56,-3.253042459487915,-12.827921867370605,1.9441683292388916,-0.12049316614866257,0.3721696436405182,1.1357512474060059,-10.844781875610352,37.839813232421875,-42.48757553100586
6.57,-1.0683952569961548,-12.252447128295898,2.825923442840576,-0.1915062516927719,0.39278632402420044,1.2867876291275024,-10.537854194641113,37.3867301940918,-42.823734283447266
6.58,-0.8123632073402405,-9.742377281188965,3.174079179763794,-0.1699732542037964,0.19074267148971558,1.4384349584579468,-9.982461929321289,37.91289138793945,-42.29757308959961
6.599,-4.497309684753418,-7.020541191101074,2.6021945476531982,-0.04382958263158798,0.1511891484260559,1.496467113494873,-9.163987159729004,37.15288162231445,-42.326805114746094
6.603,-7.892724990844727,-6.1363935470581055,2.392822504043579,-0.058795779943466187,0.25473082065582275,1.489442229270935,-8.98859977722168,37.065185546875,-42.29757308959961
6.61,-7.963313102722168,-7.408178806304932,1.5206387042999268,-0.08536841720342636,0.4335615932941437,1.442100167274475,-9.441683769226074,36.99210739135742,-41.78602600097656
6.62,-6.309872627258301,-9.017352104187012,0.5718846321105957,-0.1440114825963974,0.6099489331245422,1.4622586965560913,-9.003214836120605,36.4074821472168,-41.17217254638672
6.63,-4.051048755645752,-11.119446754455566,0.2835494577884674,-0.2557998299598694,0.5951354503631592,1.5916093587875366,-8.389359474182129,35.99824523925781,-42.19526290893555
6.64,-2.8701906204223633,-12.885350227355957,0.17347964644432068,-0.355981707572937,0.4242459237575531,1.8109099864959717,-7.205495357513428,35.939781188964844,-42.10757064819336
6.66,-2.8175485134124756,-8.967103004455566,1.6259229183197021,-0.45784348249435425,0.06688974052667618,2.098932981491089,-6.693948745727539,35.20900344848633,-41.65448760986328
6.664,-4.357329845428467,-7.887939453125,2.0267207622528076,-0.45234569907188416,0.04688390716910362,2.121687650680542,-6.343174934387207,35.06284713745117,-41.099090576171875
6.67,-6.524030685424805,-7.101897239685059,2.4705893993377686,-0.4291328191757202,0.08124507963657379,2.1178698539733887,-5.9923996925354,34.902076721191406,-41.42063903808594
6.68,-7.154539585113525,-5.685346603393555,2.7361927032470703,-0.3660609722137451,0.3142901659011841,2.071138620376587,-5.510084629058838,34.142066955566406,-40.149078369140625
6.69,-7.6905317306518555,-5.402993679046631,2.4466609954833984,-0.30375272035598755,0.4248567819595337,2.0192148685455322,-5.1300787925720215,34.551300048828125,-39.82753372192383
6.7,-8.647661209106445,-10.345367431640625,1.7168502807617188,-0.3243694305419922,0.6029239296913147,2.0694587230682373,-4.340836048126221,33.45513153076172,-39.65214920043945
6.716,-4.5236310958862305,-14.2456693649292,0.8889335989952087,-0.4547891914844513,0.7652614116668701,2.235766887664795,-3.9608304500579834,33.07512283325195,-39.8859977722168
6.72,-2.9994029998779297,-13.872387886047363,0.9523433446884155,-0.5096142888069153,0.721737265586853,2.3066272735595703,-3.624671220779419,32.812042236328125,-39.25752639770508
6.73,-2.311466693878174,-10.516454696655273,0.7836494445800781,-0.5482515692710876,0.5073235630989075,2.4295637607574463,-3.4200527667999268,32.066646575927734,-38.51213073730469
6.74,-5.960521221160889,-8.799604415893555,0.9559326767921448,-0.5288565754890442,0.3176499307155609,2.537992238998413,-2.630809783935547,31.993568420410156,-37.7228889465332
6.75,-7.501498699188232,-6.251248836517334,0.8243273496627808,-0.5134322047233582,0.45921796560287476,2.487137794494629,-2.2800350189208984,31.67202377319336,-37.43057632446289
6.76,-7.051648139953613,-1.8221343755722046,0.4295116364955902,-0.4639521539211273,0.4973970353603363,2.397645950317383,-1.6077170372009277,30.57585334777832,-36.7436408996582
6.778,-8.941977500915527,-2.798405885696411,0.29431718587875366,-0.4219551682472229,0.5319108963012695,2.238668441772461,-0.058462437242269516,29.71353530883789,-36.6851806640625
6.781,-9.044869422912598,-3.148954391479492,0.15553347766399384,-0.41462478041648865,0.5946772694587708,2.194227933883667,-0.7600116729736328,29.333528518676758,-36.465946197509766
6.79,-8.271987915039062,-4.971088886260986,0.19381862878799438,-0.42760565876960754,0.6673702597618103,2.130392551422119,-0.2923122048377991,28.80736541748047,-36.37825393676758
6.8,-7.099504470825195,-6.6520466804504395,0.5312066078186035,-0.48288896679878235,0.6626361012458801,2.074498414993286,0.029231218621134758,27.842735290527344,-35.69131851196289
6.81,-8.34736156463623,-8.671588897705078,1.0348957777023315,-0.5036584138870239,0.5778785347938538,2.063655376434326,0.7015492916107178,27.62350082397461,-35.2674674987793
6.828,-8.781658172607422,-11.68175983428955,1.2885348796844482,-0.5447390675544739,0.6522513628005981,2.054187059402466,1.1254018545150757,27.111955642700195,-35.092079162597656
6.832,-6.915257453918457,-12.78485107421875,1.5780664682388306,-0.6064364910125732,0.7423539757728577,2.040595293045044,1.1984800100326538,26.454252243041992,-35.41362380981445
6.84,-6.843472957611084,-13.335200309753418,1.5469597578048706,-0.6348416805267334,0.660803496837616,2.0758728981018066,1.9877228736877441,26.05963134765625,-34.03975296020508
6.85,-7.287341117858887,-14.857034683227539,1.9477574825286865,-0.6798930168151855,0.5879577994346619,2.0022635459899902,1.9877228736877441,25.986553192138672,-33.2066650390625
6.86,-6.659224987030029,-14.544772148132324,1.9465612173080444,-0.7002043128013611,0.6029239296913147,1.8156441450119019,2.952353000640869,25.31423568725586,-33.060508728027344
6.87,-5.748756408691406,-12.67717456817627,2.0781664848327637,-0.7415904402732849,0.5655084848403931,1.580155611038208,2.1631100177764893,24.97807502746582,-32.402809143066406
6.88,-5.002195358276367,-9.456435203552246,2.1643080711364746,-0.7186830043792725,0.45265114307403564,1.342987298965454,2.3384976387023926,24.247295379638672,-32.943580627441406
6.893,-4.636093616485596,-5.572883605957031,2.489731788635254,-0.5566509366035461,0.01817324012517929,0.7512114644050598,2.3969600200653076,24.349605560302734,-32.09587860107422
6.9,-4.342973232269287,-3.535395383834839,2.431107759475708,-0.42638394236564636,-0.12476921826601028,0.6061310172080994,2.5138847827911377,23.954984664916992,-31.525867462158203
6.91,-5.272584438323975,0.2225324958562851,2.3545374870300293,-0.17577646672725677,-0.3822489380836487,0.6655376553535461,2.908506155014038,24.203449249267578,-31.59894561767578
6.92,-6.013163089752197,1.8125630617141724,2.605783700942993,-0.1111774668097496,-1.0908526182174683,0.5316054821014404,3.1131248474121094,24.13037109375,-32.21280288696289
6.93,-5.467599391937256,4.577469348907471,0.9846464395523071,0.1342376321554184,-0.7156286239624023,0.2921462953090668,3.2008185386657715,24.349605560302734,-31.891260147094727
6.949,-5.8683977127075195,5.084747791290283,-0.8817551136016846,0.10445795953273773,-0.3700316250324249,0.0032070425804704428,2.87927508354187,24.013446807861328,-31.978952407836914
6.953,0.6640082597732544,6.725028038024902,-3.087937355041504,0.1359175145626068,0.5068654417991638,-1.2660181522369385,2.747734546661377,24.67115020751953,-32.1689567565918
6.96,4.29033088684082,5.237888813018799,-1.210768222808838,0.1823432743549347,0.6973026394844055,-1.8238909244537354,2.586962938308716,24.84653663635254,-31.75971794128418
6.97,12.358928680419922,1.3555339574813843,0.28953152894973755,0.21532998979091644,0.48288896679878235,-2.5479187965393066,1.7246419191360474,25.78193473815918,-31.438175201416016
6.98,15.183655738830566,-1.9106688499450684,1.5565310716629028,0.29596421122550964,-0.2577851414680481,-2.9990429878234863,1.3738672733306885,26.585792541503906,-30.44431495666504
6.99,12.43430233001709,-3.462414264678955,1.0241280794143677,0.3465133011341095,-1.2186760902404785,-3.090672731399536,0.6138556003570557,27.214263916015625,-31.20432472229004
7.1,-10.905288696289062,-9.93140983581543,2.137986898422241,0.16019940376281738,0.28725937008857727,-5.003597259521484,-12.978660583496094,39.8421516418457,-35.06284713745117
