time,accel_x,accel_y,accel_z,gyro_x,gyro_y,gyro_z,mag_x,mag_y,mag_z
0.0,-17.774553298950195,21.183897018432617,2.2601263523101807,-4.263399600982666,10.92496109008789,-0.1332312375307083,-31.80000114440918,-30.150001525878906,14.700000762939453
0.01,77.1890640258789,8.121131896972656,9.308655738830566,-2.6646246910095215,6.261868000030518,2.9310872554779053,-31.200000762939453,-29.55000114440918,15.600000381469727
0.02,77.95520782470703,8.542511940002441,9.806650161743164,1.5987749099731445,0.5329249501228333,1.0658499002456665,-32.400001525878906,-31.05000114440918,15.15000057220459
0.032,76.42292022705078,9.461885452270508,11.338939666748047,-7.594180583953857,4.663093090057373,-0.9326186776161194,-31.80000114440918,-30.150001525878906,15.750000953674316
0.04,76.11646270751953,9.691728591918945,11.338939666748047,-11.724349021911621,2.6646246910095215,-1.8652373552322388,-33.45000076293945,-30.30000114440918,15.90000057220459
0.05,75.77169799804688,9.155426979064941,9.078812599182129,-0.1332312375307083,-4.529861927032471,-2.398162364959717,-33.150001525878906,-29.55000114440918,16.350000381469727
0.06,74.54586791992188,9.768342971801758,11.262324333190918,-5.995405673980713,5.728943347930908,-10.525267601013184,-33.150001525878906,-29.55000114440918,16.350000381469727
0.07,75.00555419921875,9.461885452270508,10.687716484069824,-0.6661561727523804,11.724349021911621,-9.592649459838867,-33.0,-29.700000762939453,15.450000762939453
0.08,73.43495178222656,9.768342971801758,10.342951774597168,9.992342948913574,8.39356803894043,0.5329249501228333,-32.25,-29.250001907348633,15.750000953674316
0.1,75.50354766845703,9.423578262329102,7.8529815673828125,19.718223571777344,7.72741174697876,-1.4655436277389526,-33.0,-31.950000762939453,15.000000953674316
0.104,81.70931243896484,10.955866813659668,9.002198219299316,0.5329249501228333,18.78560447692871,5.595712184906006,-33.0,-31.950000762939453,15.000000953674316
0.11,80.1770248413086,10.457873344421387,9.002198219299316,-4.396630764007568,14.92189884185791,-15.854516983032227,-33.0,-31.950000762939453,15.000000953674316
0.12,80.44517517089844,11.645397186279297,9.117119789123535,-4.396630764007568,1.0658499002456665,1.0658499002456665,-32.70000076293945,-29.55000114440918,15.600000381469727
0.13,76.76768493652344,10.304644584655762,10.15141487121582,-15.055130004882812,-6.5283308029174805,-9.859111785888672,-32.400001525878906,-30.30000114440918,15.15000057220459
0.14,75.38862609863281,10.15141487121582,9.806650161743164,-14.655436515808105,-14.388973236083984,-10.392036437988281,-32.70000076293945,-29.850000381469727,16.350000381469727
0.156,74.81401824951172,8.848969459533691,10.189722061157227,-16.25421142578125,-7.06125545501709,-13.856048583984375,-31.950000762939453,-29.100000381469727,14.850000381469727
0.16,75.58016204833984,9.615114212036133,9.117119789123535,-8.926492691040039,-18.652372360229492,-3.597243309020996,-31.950000762939453,-29.100000381469727,14.850000381469727
0.17,75.38862609863281,9.959878921508789,10.381258964538574,3.597243309020996,-15.188361167907715,-4.663093090057373,-32.55000305175781,-30.450000762939453,15.750000953674316
0.18,75.73339080810547,9.959878921508789,8.772355079650879,10.525267601013184,0.1332312375307083,-16.12097930908203,-33.0,-30.450000762939453,15.000000953674316
0.19,78.49150848388672,9.385271072387695,10.304644584655762,27.578866958618164,0.39969372749328613,2.531393527984619,-32.55000305175781,-28.500001907348633,16.05000114440918
0.209,79.67903137207031,9.959878921508789,11.03248119354248,20.784072875976562,11.324655532836914,5.329249382019043,-32.70000076293945,-29.55000114440918,15.600000381469727
0.213,82.82022857666016,7.929595947265625,11.760318756103516,3.0643184185028076,10.525267601013184,-2.2649309635162354,-32.70000076293945,-29.55000114440918,15.600000381469727
0.22,80.21533203125,7.2783732414245605,11.453861236572266,-1.8652373552322388,11.724349021911621,-6.661561965942383,-32.55000305175781,-30.900001525878906,15.750000953674316
0.23,76.537841796875,6.89530086517334,11.262324333190918,-6.9280242919921875,5.8621745109558105,-0.9326186776161194,-31.200000762939453,-29.55000114440918,15.90000057220459
0.24,73.7031021118164,5.937620162963867,9.461885452270508,-11.457886695861816,-0.9326186776161194,-1.0658499002456665,-33.0,-30.450000762939453,14.700000762939453
0.25,74.6990966796875,5.669469833374023,9.84495735168457,-18.519142150878906,2.797856092453003,-3.86370587348938,-32.70000076293945,-29.850000381469727,15.90000057220459
0.26,77.38059997558594,6.052541732788086,9.730035781860352,-4.130168437957764,0.7993874549865723,4.130168437957764,-32.70000076293945,-29.850000381469727,15.90000057220459
0.274,79.33426666259766,7.316680431365967,8.65743350982666,-2.398162364959717,-9.059723854064941,8.660030364990234,-33.45000076293945,-30.600000381469727,15.600000381469727
0.28,77.61044311523438,9.423578262329102,9.998186111450195,8.793261528015137,-1.4655436277389526,13.58958625793457,-33.45000076293945,-30.30000114440918,15.600000381469727
0.29,76.38461303710938,9.500192642211914,10.764330863952637,-1.8652373552322388,3.9969370365142822,5.595712184906006,-32.70000076293945,-30.600000381469727,14.850000381469727
0.3,75.58016204833984,10.802638053894043,10.381258964538574,-1.8652373552322388,9.992342948913574,-11.324655532836914,-31.950000762939453,-31.05000114440918,16.650001525878906
0.31,76.61445617675781,10.342951774597168,11.109095573425293,-9.192955017089844,7.860642910003662,-2.2649309635162354,-31.950000762939453,-31.05000114440918,16.650001525878906
0.33,75.58016204833984,11.91354751586914,10.687716484069824,-10.92496109008789,2.398162364959717,3.7304747104644775,-32.25,-30.150001525878906,15.750000953674316
0.333,74.20109558105469,12.334927558898926,10.228029251098633,-8.660030364990234,-0.2664624750614166,6.794793128967285,-31.950000762939453,-29.850000381469727,16.350000381469727
0.34,75.15878295898438,14.09705924987793,11.41555404663086,-2.6646246910095215,6.128636837005615,1.7320060729980469,-31.950000762939453,-29.850000381469727,16.350000381469727
0.35,75.8866195678711,13.522451400756836,10.879252433776855,-10.125574111938477,13.989279747009277,-8.660030364990234,-31.950000762939453,-30.30000114440918,15.90000057220459
0.36,78.22335815429688,14.403517723083496,9.883264541625977,-3.4640121459960938,6.794793128967285,-7.72741174697876,-31.950000762939453,-30.30000114440918,15.90000057220459
0.37,77.07414245605469,13.599065780639648,11.683704376220703,10.258805274963379,0.6661561727523804,3.86370587348938,-31.950000762939453,-30.30000114440918,15.90000057220459
0.38,76.65276336669922,13.21599292755127,10.5344877243042,7.594180583953857,10.258805274963379,-8.793261528015137,-31.80000114440918,-29.700000762939453,16.05000114440918
0.393,75.12047576904297,9.040505409240723,10.496180534362793,18.91883659362793,3.86370587348938,-2.9310872554779053,-32.400001525878906,-29.850000381469727,15.90000057220459
0.4,73.93294525146484,7.7763671875,10.879252433776855,15.987748146057129,7.194486618041992,-2.6646246910095215,-32.400001525878906,-29.850000381469727,15.90000057220459
0.41,74.46924591064453,5.363011837005615,10.955866813659668,8.926492691040039,12.124042510986328,-5.995405673980713,-31.200000762939453,-30.30000114440918,16.350000381469727
0.42,75.15878295898438,5.1331682205200195,10.457873344421387,7.460949420928955,8.39356803894043,-2.6646246910095215,-31.200000762939453,-30.30000114440918,16.350000381469727
0.43,77.87859344482422,5.286397457122803,11.836933135986328,13.456355094909668,8.127105712890625,4.929555892944336,-31.950000762939453,-28.80000114440918,15.600000381469727
0.45,77.57213592529297,6.971915245056152,11.798625946044922,8.526799201965332,14.12251091003418,14.12251091003418,-33.0,-29.700000762939453,15.750000953674316
0.453,78.49150848388672,6.205770969390869,12.373234748840332,1.3323123455047607,14.655436515808105,12.790199279785156,-31.80000114440918,-30.900001525878906,16.05000114440918
0.46,76.99752807617188,6.971915245056152,11.568782806396484,-7.594180583953857,25.846860885620117,0.0,-31.80000114440918,-30.900001525878906,16.05000114440918
0.47,76.23138427734375,7.891288757324219,10.879252433776855,-2.6646246910095215,10.791729927062988,2.531393527984619,-31.80000114440918,-30.900001525878906,16.05000114440918
0.48,76.38461303710938,9.308655738830566,9.806650161743164,-7.194486618041992,8.926492691040039,19.185298919677734,-32.55000305175781,-29.250001907348633,15.450000762939453
0.49,75.46524047851562,9.155426979064941,10.5344877243042,-7.06125545501709,10.791729927062988,-5.462480545043945,-32.25,-30.150001525878906,16.80000114440918
0.51,75.65677642822266,10.994174003601074,10.764330863952637,-1.1990811824798584,3.9969370365142822,12.390504837036133,-32.25,-30.150001525878906,18.0
0.514,74.96724700927734,11.262324333190918,10.266336441040039,4.130168437957764,2.131699800491333,3.9969370365142822,-32.70000076293945,-30.600000381469727,16.650001525878906
0.52,73.32003021240234,10.113107681274414,10.84094524383545,10.658498764038086,4.529861927032471,-3.7304747104644775,-32.70000076293945,-30.600000381469727,16.650001525878906
0.53,74.85232543945312,10.917559623718262,10.687716484069824,10.658498764038086,14.655436515808105,-0.2664624750614166,-31.650001525878906,-30.600000381469727,14.850000381469727
0.54,74.77571105957031,9.998186111450195,11.03248119354248,19.98468589782715,6.395099639892578,-5.728943347930908,-32.400001525878906,-29.850000381469727,17.100000381469727
0.55,77.41890716552734,10.304644584655762,10.802638053894043,23.581928253173828,10.791729927062988,1.5987749099731445,-32.25,-29.850000381469727,15.600000381469727
0.57,77.91690063476562,9.691728591918945,11.60708999633789,17.586523056030273,21.183767318725586,-4.130168437957764,-32.25,-29.700000762939453,16.80000114440918
0.573,78.3382797241211,9.806650161743164,10.457873344421387,20.117916107177734,11.058192253112793,-0.39969372749328613,-33.150001525878906,-31.500001907348633,17.100000381469727
0.58,77.45721435546875,8.695740699768066,10.036493301391602,18.652372360229492,13.856048583984375,3.9969370365142822,-33.150001525878906,-31.500001907348633,17.100000381469727
0.59,76.42292022705078,8.274360656738281,10.036493301391602,10.658498764038086,27.578866958618164,-12.523736000061035,-31.80000114440918,-31.200000762939453,17.55000114440918
0.6,74.58417510986328,5.746084213256836,10.113107681274414,12.523736000061035,24.51454734802246,-11.058192253112793,-31.80000114440918,-29.250001907348633,17.25
0.61,73.74140930175781,5.975927352905273,9.232041358947754,19.185298919677734,16.520673751831055,-7.06125545501709,-31.80000114440918,-29.250001907348633,17.25
0.63,74.89063262939453,5.439626216888428,7.508216381072998,11.990811347961426,14.788667678833008,-5.329249382019043,-31.05000114440918,-30.450000762939453,17.25
0.634,76.42292022705078,6.742072105407715,8.121131896972656,10.258805274963379,14.788667678833008,-4.529861927032471,-32.55000305175781,-30.450000762939453,17.55000114440918
0.64,76.34630584716797,6.588842868804932,9.423578262329102,2.398162364959717,18.2526798248291,-6.261868000030518,-31.950000762939453,-31.05000114440918,17.700000762939453
0.65,77.41890716552734,5.746084213256836,9.730035781860352,0.1332312375307083,11.857580184936523,-0.6661561727523804,-31.650001525878906,-29.850000381469727,16.350000381469727
0.66,76.92091369628906,6.856993675231934,9.691728591918945,-8.127105712890625,15.987748146057129,-2.131699800491333,-31.650001525878906,-29.850000381469727,16.350000381469727
0.67,76.03984832763672,6.473921298980713,8.006210327148438,-14.388973236083984,6.794793128967285,-2.398162364959717,-32.25,-31.650001525878906,16.80000114440918
0.69,75.50354766845703,7.661445617675781,7.814674377441406,-10.125574111938477,10.92496109008789,6.5283308029174805,-30.450000762939453,-30.600000381469727,17.100000381469727
0.693,75.15878295898438,6.703764915466309,9.500192642211914,-11.857580184936523,9.326186180114746,10.658498764038086,-30.750001907348633,-30.450000762939453,16.5
0.7,76.95922088623047,7.7763671875,8.96389102935791,-17.719755172729492,13.456355094909668,-1.5987749099731445,-31.650001525878906,-28.80000114440918,16.350000381469727
0.71,76.72937774658203,9.53849983215332,9.461885452270508,-15.055130004882812,15.588054656982422,5.196018218994141,-31.650001525878906,-28.80000114440918,16.350000381469727
0.72,76.69107055664062,9.615114212036133,7.8529815673828125,-19.98468589782715,16.12097930908203,1.3323123455047607,-31.650001525878906,-28.80000114440918,16.350000381469727
0.73,78.07012939453125,9.921571731567383,8.734047889709473,-18.91883659362793,19.85145378112793,6.9280242919921875,-32.400001525878906,-31.05000114440918,17.400001525878906
0.75,79.06611633300781,10.15141487121582,9.002198219299316,-13.856048583984375,4.929555892944336,10.525267601013184,-32.400001525878906,-31.500001907348633,17.700000762939453
0.754,78.75965881347656,10.228029251098633,9.155426979064941,-25.447166442871094,2.797856092453003,13.722817420959473,-32.70000076293945,-31.05000114440918,18.150001525878906
0.76,76.42292022705078,9.423578262329102,8.695740699768066,-28.644716262817383,3.3307809829711914,3.7304747104644775,-31.200000762939453,-30.600000381469727,17.700000762939453
0.77,75.38862609863281,9.232041358947754,8.465897560119629,-37.4379768371582,10.791729927062988,-3.197549819946289,-31.200000762939453,-30.600000381469727,17.700000762939453
0.78,73.24341583251953,10.381258964538574,7.048529624938965,-39.9693717956543,10.125574111938477,-0.39969372749328613,-32.400001525878906,-31.500001907348633,17.400001525878906
0.79,72.78372955322266,10.764330863952637,7.891288757324219,-30.90964698791504,-4.796324729919434,7.72741174697876,-33.150001525878906,-31.80000114440918,17.700000762939453
0.809,73.0135726928711,10.113107681274414,7.469909191131592,-41.967838287353516,8.526799201965332,-9.992342948913574,-32.400001525878906,-31.80000114440918,18.150001525878906
0.813,73.39664459228516,11.224017143249512,5.51624059677124,-43.56661605834961,17.32006072998047,-14.788667678833008,-31.500001907348633,-31.950000762939453,17.55000114440918
0.82,75.12047576904297,11.262324333190918,3.026270866394043,-41.168453216552734,9.592649459838867,-1.3323123455047607,-31.500001907348633,-31.950000762939453,17.55000114440918
0.83,74.39263153076172,12.258312225341797,3.1028854846954346,-46.364471435546875,6.261868000030518,12.523736000061035,-31.500001907348633,-32.400001525878906,17.55000114440918
0.84,73.12849426269531,12.526463508605957,4.443638324737549,-64.61714935302734,1.3323123455047607,1.1990811824798584,-33.0,-30.450000762939453,17.25
0.85,70.48529815673828,11.990161895751953,4.941632270812988,-76.4747314453125,-10.125574111938477,5.196018218994141,-31.500001907348633,-33.150001525878906,17.25
0.87,67.4973373413086,13.254301071166992,6.282385349273682,-78.87289428710938,-34.24042892456055,5.062787055969238,-31.80000114440918,-31.950000762939453,16.80000114440918
0.873,65.8501205444336,12.411541938781738,4.098873138427734,-77.80704498291016,-43.96630859375,13.856048583984375,-31.80000114440918,-31.950000762939453,16.80000114440918
0.88,64.77751922607422,12.564770698547363,4.022258758544922,-75.5421142578125,-41.967838287353516,8.926492691040039,-31.950000762939453,-31.05000114440918,16.350000381469727
0.89,64.93074798583984,11.568782806396484,2.3367409706115723,-53.29249572753906,-51.4272575378418,20.251148223876953,-30.750001907348633,-31.650001525878906,16.05000114440918
0.9,65.08397674560547,11.798625946044922,4.32871675491333,-34.50688934326172,-51.4272575378418,18.519142150878906,-32.25,-32.400001525878906,15.000000953674316
0.91,65.04566955566406,12.258312225341797,2.9879636764526367,-25.846860885620117,-49.29555892944336,12.124042510986328,-33.150001525878906,-31.80000114440918,14.850000381469727
0.929,66.23319244384766,13.867216110229492,4.9799394607543945,3.4640121459960938,-51.560489654541016,29.444103240966797,-33.150001525878906,-31.80000114440918,14.850000381469727
0.933,66.5013427734375,13.982137680053711,6.244078159332275,13.323123931884766,-43.03369140625,25.846860885620117,-32.70000076293945,-31.80000114440918,15.600000381469727
0.94,68.7997817993164,16.127342224121094,6.205770969390869,15.45482349395752,-38.37059783935547,33.04134750366211,-32.55000305175781,-33.150001525878906,15.450000762939453
0.95,71.44297790527344,16.433799743652344,9.232041358947754,34.50688934326172,-29.444103240966797,37.03828430175781,-32.400001525878906,-31.80000114440918,14.850000381469727
0.96,77.22737121582031,16.203956604003906,11.070788383483887,54.091880798339844,-29.7105655670166,34.10719680786133,-32.400001525878906,-33.45000076293945,15.15000057220459
0.97,84.314208984375,19.919757843017578,12.066776275634766,66.48238372802734,-15.45482349395752,50.22817611694336,-32.400001525878906,-33.45000076293945,15.15000057220459
0.99,89.67721557617188,25.28277015686035,14.250288963317871,68.08116149902344,4.130168437957764,62.21898651123047,-32.400001525878906,-33.75,14.40000057220459
0.993,92.24380493164062,26.738445281982422,13.905523300170898,93.12863159179688,18.652372360229492,90.19754791259766,-30.450000762939453,-33.75,15.90000057220459
1.0,88.68122863769531,26.929981231689453,13.675680160522461,101.38896942138672,37.4379768371582,87.0,-31.950000762939453,-34.5,15.600000381469727
1.01,84.8888168334961,26.240449905395508,13.024456977844238,113.11331939697266,59.287899017333984,84.06890869140625,-32.70000076293945,-34.5,15.600000381469727
1.02,80.10041046142578,25.28277015686035,12.871228218078613,130.96630859375,69.4134750366211,83.80245208740234,-32.70000076293945,-34.5,15.600000381469727
1.03,78.07012939453125,24.66985511779785,14.633360862731934,148.55282592773438,66.48238372802734,85.26799011230469,-31.500001907348633,-33.900001525878906,16.5
1.049,78.03182220458984,21.605276107788086,15.514427185058594,157.612548828125,72.34455871582031,70.87902069091797,-31.950000762939453,-33.45000076293945,18.150001525878906
1.053,78.4148941040039,20.41775131225586,17.774553298950195,163.87442016601562,70.21286010742188,70.21286010742188,-31.05000114440918,-33.900001525878906,18.0
1.06,80.21533203125,19.68991470336914,16.931795120239258,162.00918579101562,78.20673370361328,59.68759536743164,-30.000001907348633,-37.05000305175781,18.0
1.07,81.441162109375,17.889474868774414,16.28057098388672,155.747314453125,84.33537292480469,48.49617004394531,-30.750001907348633,-36.30000305175781,18.30000114440918
1.08,81.09639739990234,16.66364288330078,15.820884704589844,135.0964813232422,92.19601440429688,33.04134750366211,-30.750001907348633,-36.30000305175781,18.30000114440918
1.09,79.71733856201172,16.05072784423828,18.808849334716797,109.915771484375,94.9938735961914,30.643184661865234,-31.200000762939453,-34.5,19.650001525878906
1.11,79.6407241821289,15.437812805175781,20.187908172607422,88.99846649169922,88.46553802490234,23.848390579223633,-31.500001907348633,-36.30000305175781,20.100000381469727
1.113,80.71332550048828,14.403517723083496,24.286781311035156,55.95711898803711,76.74119567871094,21.84992218017578,-28.950000762939453,-34.20000076293945,21.75
1.12,82.93515014648438,15.514427185058594,24.631547927856445,29.044410705566406,81.40428924560547,-1.8652373552322388,-32.400001525878906,-36.45000076293945,22.950000762939453
1.13,85.27188873291016,14.939818382263184,25.435998916625977,2.9310872554779053,73.0107192993164,0.6661561727523804,-32.400001525878906,-36.45000076293945,22.950000762939453
1.14,91.74581146240234,15.322891235351562,25.972299575805664,-40.502296447753906,76.4747314453125,-5.595712184906006,-31.200000762939453,-35.25,22.950000762939453
1.15,102.24198913574219,16.012420654296875,28.53888511657715,-108.71669006347656,90.19754791259766,-22.116384506225586,-29.55000114440918,-34.80000305175781,23.55000114440918
1.17,110.47804260253906,16.203956604003906,28.883649826049805,-172.2679901123047,97.12557220458984,-14.655436515808105,-29.250001907348633,-35.55000305175781,23.850000381469727
1.173,118.25440979003906,19.19192123413086,26.66183090209961,-242.34762573242188,145.88819885253906,-12.390504837036133,-28.950000762939453,-35.25,22.5
1.18,122.5448226928711,19.68991470336914,20.30282974243164,-254.2052001953125,170.4027557373047,-6.261868000030518,-28.950000762939453,-35.25,22.5
1.19,120.82099151611328,20.149600982666016,17.085023880004883,-246.3445587158203,215.43490600585938,18.519142150878906,-28.80000114440918,-36.60000228881836,22.80000114440918
1.2,114.27046203613281,22.984336853027344,5.746084213256836,-192.25267028808594,311.49462890625,43.96630859375,-28.650001525878906,-37.20000076293945,23.25
1.21,99.48387145996094,14.020444869995117,-39.72459411621094,-94.46094512939453,436.1990661621094,63.81776428222656,-29.700000762939453,-36.45000076293945,23.700000762939453
1.23,86.1146469116211,22.256498336791992,-35.6257209777832,59.4211311340332,411.8177490234375,126.43644714355469,-27.750001907348633,-37.80000305175781,25.350000381469727
1.233,87.76185607910156,35.77894973754883,-6.856993675231934,234.22052001953125,131.63246154785156,183.1929473876953,-25.950000762939453,-38.400001525878906,27.000001907348633
1.24,100.05847930908203,31.871612548828125,9.155426979064941,215.56814575195312,18.78560447692871,178.26339721679688,-25.950000762939453,-38.400001525878906,27.000001907348633
1.25,96.53421020507812,23.52063751220703,-0.9193734526634216,112.31393432617188,-24.381317138671875,150.55130004882812,-26.250001907348633,-37.05000305175781,27.150001525878906
1.26,87.83847045898438,17.1999454498291,-2.2218191623687744,17.852985382080078,1.1990811824798584,129.90045166015625,-25.80000114440918,-39.75,27.900001525878906
1.27,79.25765228271484,14.786589622497559,1.4939818382263184,-38.50382614135742,29.84379768371582,89.13169860839844,-24.750001907348633,-38.25,28.650001525878906
1.289,70.14053344726562,12.105083465576172,-2.451662540435791,-49.16232681274414,48.49617004394531,67.28177642822266,-24.750001907348633,-38.25,28.650001525878906
1.293,59.29958724975586,10.381258964538574,-11.91354751586914,14.12251091003418,41.967838287353516,71.67840576171875,-24.30000114440918,-39.75,29.700000762939453
1.3,43.172245025634766,10.189722061157227,-22.256498336791992,52.493106842041016,8.926492691040039,57.55589294433594,-24.30000114440918,-39.75,29.700000762939453
1.31,39.647979736328125,8.810662269592285,-19.80483627319336,69.4134750366211,-49.16232681274414,56.889739990234375,-22.80000114440918,-39.30000305175781,28.650001525878906
1.32,32.982521057128906,4.865017890930176,-19.038692474365234,31.575803756713867,-95.79325866699219,46.897396087646484,-24.750001907348633,-39.0,29.700000762939453
1.33,29.64979362487793,7.546523571014404,-15.552734375,-59.15467071533203,-128.03521728515625,19.584991455078125,-24.750001907348633,-39.0,29.700000762939453
1.349,27.58120346069336,13.867216110229492,-10.496180534362793,-101.78866577148438,-150.95098876953125,0.6661561727523804,-22.5,-40.95000076293945,28.650001525878906
1.353,28.07919692993164,22.2948055267334,-0.689530074596405,-113.11331939697266,-151.6171417236328,-34.50688934326172,-21.900001525878906,-40.650001525878906,27.000001907348633
1.36,26.240449905395508,21.107282638549805,-1.723825216293335,-104.32006072998047,-157.0796356201172,-39.16998291015625,-21.900001525878906,-40.650001525878906,27.000001907348633
1.37,23.3291015625,22.333112716674805,-4.32871675491333,-88.59877014160156,-173.33384704589844,-53.82542037963867,-22.950000762939453,-42.30000305175781,26.55000114440918
1.38,22.7161865234375,23.367408752441406,-8.772355079650879,-72.34455871582031,-201.31239318847656,-69.81317138671875,-22.950000762939453,-42.30000305175781,26.55000114440918
1.39,25.780763626098633,25.972299575805664,-7.7763671875,-62.35221862792969,-228.35833740234375,-92.99540710449219,-22.950000762939453,-42.30000305175781,26.55000114440918
1.41,35.24264907836914,26.01060676574707,-4.520252704620361,-33.04134750366211,-238.75038146972656,-125.7702865600586,-24.450000762939453,-39.900001525878906,24.0
1.414,50.41231155395508,23.13756561279297,-0.727837324142456,26.64624786376953,-223.56201171875,-147.8866729736328,-25.200000762939453,-40.650001525878906,23.25
1.42,55.58378601074219,23.21417999267578,-0.727837324142456,65.949462890625,-225.02755737304688,-156.81317138671875,-24.750001907348633,-40.650001525878906,23.25
1.43,66.57795715332031,24.746469497680664,0.689530074596405,138.56048583984375,-202.511474609375,-166.1393585205078,-24.750001907348633,-41.70000076293945,22.80000114440918
1.44,90.13690185546875,23.788787841796875,0.8427590131759644,241.14854431152344,-204.2434844970703,-166.67227172851562,-24.750001907348633,-41.70000076293945,22.80000114440918
1.45,112.85308837890625,23.63555908203125,4.903325080871582,337.8744201660156,-228.4915771484375,-159.74424743652344,-24.150001525878906,-39.900001525878906,21.75
1.469,136.4886474609375,25.39769172668457,-3.294421434402466,354.7947998046875,-231.4226531982422,-159.3445587158203,-25.500001907348633,-39.30000305175781,23.850000381469727
1.473,172.4974365234375,14.250288963317871,-24.401702880859375,335.2098083496094,-227.1592559814453,-151.35069274902344,-27.30000114440918,-36.60000228881836,22.350000381469727
1.48,174.25958251953125,5.592854976654053,-18.88546371459961,324.151611328125,-246.74424743652344,-152.1500701904297,-27.30000114440918,-36.60000228881836,22.350000381469727
1.49,167.5941162109375,-5.439626216888428,-2.6815059185028076,281.7840576171875,-287.1133117675781,-169.20367431640625,-26.55000114440918,-36.60000228881836,23.850000381469727
1.5,153.49705505371094,-10.41956615447998,11.530475616455078,202.9111785888672,-331.2128601074219,-165.2067413330078,-27.750001907348633,-36.60000228881836,24.150001525878906
1.51,141.621826171875,-8.08282470703125,24.018630981445312,103.12097930908203,-350.3981628417969,-169.20367431640625,-26.250001907348633,-35.10000228881836,26.400001525878906
1.529,140.81736755371094,-6.550535678863525,22.792800903320312,-79.9387435913086,-315.0918884277344,-159.21133422851562,-27.450000762939453,-36.900001525878906,24.0
1.533,164.6061553955078,6.01423454284668,13.139378547668457,-122.83920288085938,-313.7595520019531,-152.949462890625,-27.450000762939453,-36.900001525878906,24.0
1.54,169.39456176757812,7.7763671875,16.778566360473633,-202.64471435546875,-324.8177490234375,-146.9540557861328,-28.80000114440918,-33.900001525878906,22.80000114440918
1.55,181.34642028808594,9.998186111450195,15.552734375,-290.1776428222656,-349.06585693359375,-184.92495727539062,-27.450000762939453,-33.0,21.450000762939453
1.56,188.3949432373047,15.667655944824219,9.002198219299316,-411.68450927734375,-332.8116455078125,-217.03369140625,-28.200000762939453,-34.20000076293945,21.450000762939453
1.57,180.3504180908203,19.000385284423828,-11.91354751586914,-467.9081115722656,-278.5865173339844,-238.2174530029297,-29.55000114440918,-33.150001525878906,20.55000114440918
1.589,163.3803253173828,33.978511810302734,-27.236438751220703,-387.16998291015625,-207.84072875976562,-250.74119567871094,-29.55000114440918,-33.150001525878906,20.55000114440918
1.593,117.02857971191406,40.64396667480469,-17.085023880004883,-267.7947998046875,-171.60183715820312,-237.01837158203125,-29.55000114440918,-32.400001525878906,19.05000114440918
1.6,110.6695785522461,36.66001510620117,-11.683704376220703,-229.95712280273438,-189.0551300048828,-206.37518310546875,-28.80000114440918,-31.650001525878906,20.100000381469727
1.61,99.59879302978516,33.288978576660156,-1.6855180263519287,-112.58039855957031,-180.12863159179688,-167.87135314941406,-31.200000762939453,-33.45000076293945,16.650001525878906
1.62,83.1266860961914,24.44001007080078,5.2480902671813965,54.89126968383789,-148.8192901611328,-118.97549438476562,-32.70000076293945,-33.45000076293945,18.150001525878906
1.63,70.40868377685547,18.732234954833984,9.078812599182129,189.72128295898438,-96.45941925048828,-90.86370086669922,-32.70000076293945,-33.45000076293945,18.150001525878906
1.649,59.031436920166016,15.284584045410156,10.879252433776855,281.6508483886719,-25.7136287689209,-59.82082748413086,-32.70000076293945,-30.600000381469727,19.650001525878906
1.652,43.44039535522461,6.244078159332275,9.53849983215332,280.98468017578125,4.929555892944336,-63.151607513427734,-32.70000076293945,-30.600000381469727,19.650001525878906
1.66,43.3637809753418,5.784391403198242,7.508216381072998,270.326171875,18.91883659362793,-60.62021255493164,-32.400001525878906,-30.30000114440918,19.950000762939453
1.67,42.252872467041016,7.661445617675781,14.058752059936523,215.7013702392578,37.97090148925781,-41.035221099853516,-32.400001525878906,-28.80000114440918,21.150001525878906
1.68,42.252872467041016,2.1068975925445557,13.713987350463867,161.87594604492188,48.49617004394531,-10.658498764038086,-32.400001525878906,-28.80000114440918,21.150001525878906
1.69,42.252872467041016,-7.048529624938965,6.588842868804932,147.22052001953125,50.89433288574219,21.84992218017578,-32.400001525878906,-28.80000114440918,21.150001525878906
1.703,37.42616271972656,-15.705963134765625,1.5322890281677246,101.65543365478516,75.5421142578125,64.48391723632812,-33.150001525878906,-26.100000381469727,23.700000762939453
1.71,28.692113876342773,-17.276559829711914,0.26815059781074524,37.97090148925781,89.7978515625,85.93415069580078,-31.950000762939453,-26.100000381469727,24.0
1.72,22.448034286499023,-17.92778205871582,0.3447650372982025,-51.160797119140625,110.44869232177734,76.87442779541016,-31.500001907348633,-27.450000762939453,26.100000381469727
1.73,15.820884704589844,-16.318878173828125,1.0342950820922852,-114.71209716796875,118.30934143066406,132.29861450195312,-32.55000305175781,-25.05000114440918,26.400001525878906
1.74,12.947842597961426,-14.709975242614746,1.3407529592514038,-166.40582275390625,147.75344848632812,128.16845703125,-32.55000305175781,-25.05000114440918,26.400001525878906
1.75,9.576807022094727,-12.22000503540039,5.056553840637207,-155.21438598632812,171.46859741210938,141.22511291503906,-31.05000114440918,-27.750001907348633,27.450000762939453
1.77,0.9959878921508789,-10.611102104187012,7.546523571014404,-93.92802429199219,186.92343139648438,146.1546630859375,-31.05000114440918,-27.000001907348633,29.700000762939453
1.773,-15.782577514648438,-3.44765043258667,13.522451400756836,20.517610549926758,214.7687530517578,128.16845703125,-31.05000114440918,-27.000001907348633,29.700000762939453
1.78,-15.897499084472656,-3.6774938106536865,13.828908920288086,78.3399658203125,215.03521728515625,111.781005859375,-30.150001525878906,-29.55000114440918,27.30000114440918
1.79,-19.460071563720703,-1.7621324062347412,17.276559829711914,121.24042510986328,193.45175170898438,124.8376693725586,-30.150001525878906,-29.55000114440918,27.30000114440918
1.8,-18.195932388305664,-2.451662540435791,12.7946138381958,112.84685516357422,171.20213317871094,172.40121459960938,-29.250001907348633,-28.500001907348633,31.500001907348633
1.81,-17.353174209594727,0.7661445140838623,5.51624059677124,-427.8055114746094,8.39356803894043,53.026031494140625,-28.950000762939453,-29.55000114440918,31.80000114440918
1.822,-8.465897560119629,32.9442138671875,-23.099258422851562,-759.2848510742188,-49.29555892944336,6.261868000030518,-28.200000762939453,-31.80000114440918,31.05000114440918
1.83,-1.5705963373184204,29.381643295288086,-9.117119789123535,-672.0183715820312,-24.914241790771484,21.583459854125977,-28.500001907348633,-31.650001525878906,30.900001525878906
1.84,3.485957622528076,21.6818904876709,-2.719813108444214,-490.5574035644531,2.531393527984619,36.372127532958984,-28.500001907348633,-31.650001525878906,30.900001525878906
1.85,16.740259170532227,10.496180534362793,4.596867084503174,-308.83001708984375,26.64624786376953,63.551300048828125,-28.500001907348633,-34.35000228881836,28.950000762939453
1.86,41.86980056762695,3.907337188720703,15.361198425292969,-136.9617156982422,28.24502182006836,73.54364013671875,-27.450000762939453,-36.45000076293945,28.05000114440918
1.87,78.4148941040039,-4.9799394607543945,22.448034286499023,8.660030364990234,-0.7993874549865723,79.13935852050781,-27.150001525878906,-34.95000076293945,25.200000762939453
1.889,84.65897369384766,8.695740699768066,45.04929733276367,167.47166442871094,-87.79938507080078,12.390504837036133,-27.30000114440918,-38.55000305175781,26.400001525878906
1.892,231.5288848876953,0.9959878921508789,14.441824913024902,76.20826721191406,-53.69218826293945,-31.575803756713867,-27.30000114440918,-38.55000305175781,26.400001525878906
1.9,248.72882080078125,16.70195198059082,2.451662540435791,-145.75497436523438,30.643184661865234,6.5283308029174805,-27.30000114440918,-37.80000305175781,26.100000381469727
1.91,216.28260803222656,35.28095626831055,1.9536685943603516,-333.34454345703125,124.97090148925781,32.77488327026367,-29.400001525878906,-37.650001525878906,26.250001907348633
1.92,139.32337951660156,11.60708999633789,11.836933135986328,-373.1806945800781,169.8698272705078,24.914241790771484,-28.80000114440918,-37.5,25.650001525878906
1.93,91.66919708251953,6.780379295349121,20.532672882080078,-341.8713684082031,153.0826873779297,80.8713607788086,-29.55000114440918,-39.0,23.850000381469727
1.943,71.32805633544922,11.109095573425293,25.780763626098633,-251.27410888671875,104.98621368408203,155.21438598632812,-29.55000114440918,-39.0,23.850000381469727
1.95,80.90486145019531,20.915746688842773,29.075185775756836,-168.27105712890625,75.40888214111328,204.11026000976562,-30.30000114440918,-42.150001525878906,23.850000381469727
1.96,90.8264389038086,19.574993133544922,25.09123420715332,-26.246553421020508,38.37059783935547,238.35067749023438,-28.650001525878906,-41.10000228881836,24.450000762939453
1.97,102.73998260498047,16.548721313476562,16.395492553710938,118.97549438476562,30.90964698791504,261.9326171875,-28.500001907348633,-42.150001525878906,23.850000381469727
1.98,118.40763854980469,17.92778205871582,6.244078159332275,220.6309356689453,75.94180297851562,249.40887451171875,-28.950000762939453,-42.60000228881836,25.200000762939453
1.99,130.972412109375,15.169661521911621,4.213795185089111,300.9693603515625,121.77335357666016,234.4869842529297,-28.80000114440918,-43.95000076293945,23.850000381469727
2.003,125.647705078125,15.016432762145996,9.27034854888916,361.9892578125,177.86370849609375,196.915771484375,-28.80000114440918,-43.95000076293945,23.850000381469727
2.01,109.75020599365234,17.8128604888916,15.131354331970215,388.5022888183594,178.39662170410156,201.4456329345703,-26.400001525878906,-45.75,28.500001907348633
2.02,106.3791732788086,17.276559829711914,18.081010818481445,410.08575439453125,195.983154296875,189.32159423828125,-27.000001907348633,-46.650001525878906,29.700000762939453
2.03,103.46781921386719,19.115306854248047,22.103269577026367,439.2633972167969,210.2388916015625,182.39356994628906,-26.250001907348633,-46.35000228881836,30.450000762939453
2.04,106.11102294921875,20.570980072021484,19.651607513427734,439.6630859375,225.8269500732422,196.24961853027344,-26.55000114440918,-45.150001525878906,31.200000762939453
2.05,116.14751434326172,20.570980072021484,18.923770904541016,401.0260314941406,262.865234375,192.3859100341797,-26.55000114440918,-45.150001525878906,31.200000762939453
2.063,131.54701232910156,18.23423957824707,21.26051139831543,299.37060546875,306.2986145019531,147.22052001953125,-24.450000762939453,-44.55000305175781,35.10000228881836
2.07,145.72068786621094,23.712173461914062,23.44402313232422,232.75497436523438,325.4839172363281,137.22817993164062,-25.05000114440918,-44.400001525878906,38.55000305175781
2.08,143.61380004882812,29.075185775756836,24.13355255126953,126.03675079345703,328.1485290527344,122.17304229736328,-24.450000762939453,-43.5,39.900001525878906
2.09,134.84144592285156,33.978511810302734,21.107282638549805,24.381317138671875,355.1944885253906,96.05972290039062,-21.450000762939453,-43.5,40.650001525878906
2.1,121.35729217529297,35.54910659790039,14.633360862731934,-168.1378173828125,408.6202087402344,85.13475799560547,-21.450000762939453,-43.5,40.650001525878906
2.12,99.2540283203125,13.21599292755127,-43.86177444458008,-655.6309204101562,563.7013549804688,51.4272575378418,-21.450000762939453,-44.55000305175781,44.25
2.123,62.93877410888672,-38.80522155761719,-104.38719177246094,-960.4639892578125,27.17917251586914,197.58192443847656,-17.400001525878906,-47.25,44.70000076293945
2.13,94.65715789794922,-4.63517427444458,7.546523571014404,-716.117919921875,-207.4410400390625,279.6523742675781,-17.400001525878906,-47.25,44.70000076293945
2.14,83.01176452636719,6.933608055114746,-70.5619125366211,-255.9372100830078,-149.88514709472656,147.75344848632812,-17.700000762939453,-48.45000076293945,42.75
2.15,74.08617401123047,40.79719543457031,-79.75564575195312,27.17917251586914,-90.33078002929688,164.80703735351562,-17.700000762939453,-48.45000076293945,42.75
2.16,69.22116088867188,51.94459915161133,-11.453861236572266,123.10566711425781,-78.47319793701172,165.87289428710938,-17.55000114440918,-51.30000305175781,40.80000305175781
2.17,53.208740234375,60.41049575805664,-13.675680160522461,78.20673370361328,-59.15467071533203,149.21897888183594,-16.950000762939453,-51.900001525878906,42.45000076293945
2.182,23.482330322265625,42.40610122680664,-11.262324333190918,-73.27718353271484,-109.11638641357422,111.5145492553711,-16.650001525878906,-51.900001525878906,42.45000076293945
2.19,-4.558559894561768,30.722396850585938,8.887276649475098,-130.30015563964844,-164.27410888671875,60.08728790283203,-16.650001525878906,-51.900001525878906,42.45000076293945
2.2,-11.836933135986328,28.960264205932617,8.504204750061035,-142.15773010253906,-219.16539001464844,-23.715160369873047,-16.650001525878906,-51.900001525878906,42.45000076293945
2.21,-18.34916114807129,31.450233459472656,6.742072105407715,-101.52220153808594,-224.3614044189453,-81.8039779663086,-18.30000114440918,-50.55000305175781,41.85000228881836
2.22,-14.901511192321777,31.83330535888672,4.63517427444458,-69.54670715332031,-193.85145568847656,-167.6049041748047,-20.55000114440918,-51.750003814697266,42.60000228881836
2.24,-11.990161895751953,29.075185775756836,3.4093432426452637,-17.852985382080078,-192.3859100341797,-105.25267791748047,-21.0,-49.80000305175781,40.35000228881836
2.243,-11.1474027633667,27.88766098022461,-1.37906014919281,22.382848739624023,-141.35833740234375,-171.06890869140625,-22.650001525878906,-48.45000076293945,41.70000076293945
2.25,-10.189722061157227,33.17405700683594,-7.508216381072998,-10.525267601013184,-134.96324157714844,-142.4241943359375,-22.650001525878906,-48.45000076293945,41.70000076293945
2.26,-4.098873138427734,35.54910659790039,-9.155426979064941,-113.91270446777344,-134.43031311035156,-192.11944580078125,-26.250001907348633,-49.80000305175781,40.05000305175781
2.27,10.381258964538574,25.09123420715332,-11.568782806396484,-249.1424102783203,-139.7595672607422,-261.5329284667969,-28.05000114440918,-49.500003814697266,38.55000305175781
2.28,39.647979736328125,2.8347349166870117,-24.631547927856445,-261.13323974609375,-190.25421142578125,-363.05511474609375,-28.80000114440918,-47.10000228881836,39.0
2.299,73.0901870727539,-9.27034854888916,-35.16603469848633,-107.78407287597656,-278.4532775878906,-446.7243347167969,-30.150001525878906,-46.5,39.150001525878906
2.303,89.33245086669922,-3.485957622528076,-39.647979736328125,227.5589599609375,-300.5696716308594,-463.37823486328125,-31.80000114440918,-45.150001525878906,38.55000305175781
2.31,108.56268310546875,1.2641384601593018,-56.733001708984375,393.2986145019531,-262.73199462890625,-481.63092041015625,-31.80000114440918,-45.150001525878906,38.55000305175781
2.32,120.322998046875,5.975927352905273,-52.480899810791016,608.8667602539062,-214.3690643310547,-442.1944885253906,-36.75,-42.45000076293945,36.30000305175781
2.33,138.63385009765625,12.832921028137207,-36.8132438659668,714.252685546875,-159.8774871826172,-563.568115234375,-41.55000305175781,-34.80000305175781,35.55000305175781
2.34,187.59048461914062,19.651607513427734,-14.173673629760742,757.68603515625,-101.38896942138672,-559.7044067382812,-41.55000305175781,-28.500001907348633,35.55000305175781
2.36,255.9305877685547,36.54509353637695,10.113107681274414,612.0643310546875,-137.3614044189453,-469.6401062011719,-41.55000305175781,-28.500001907348633,35.55000305175781
2.363,286.99774169921875,65.69689178466797,39.954437255859375,324.6845397949219,-195.5834503173828,-214.90199279785156,-44.400001525878906,-21.450000762939453,35.400001525878906
2.37,276.271728515625,52.174442291259766,74.16278839111328,96.59264373779297,-240.21592712402344,-168.1378173828125,-44.25,-16.950000762939453,35.25
2.38,264.70294189453125,12.143390655517578,80.33025360107422,-96.99234008789062,-296.17303466796875,-176.6646270751953,-43.05000305175781,-15.750000953674316,32.25
2.39,251.6401824951172,-25.28277015686035,51.21676254272461,-81.13782501220703,-270.5926513671875,-215.83460998535156,-45.30000305175781,-15.450000762939453,31.200000762939453
2.4,222.75653076171875,-30.26270866394043,8.121131896972656,-70.21286010742188,-227.42572021484375,-221.16384887695312,-45.30000305175781,-15.450000762939453,31.200000762939453
2.42,156.8297882080078,-7.316680431365967,4.098873138427734,-127.90198516845703,-180.3950958251953,-168.67074584960938,-45.150001525878906,-13.200000762939453,28.500001907348633
2.424,117.8330307006836,12.411541938781738,-4.060565948486328,-172.53445434570312,-118.04287719726562,-110.98162078857422,-45.150001525878906,-12.90000057220459,26.55000114440918
2.43,94.31239318847656,21.490354537963867,-3.9456443786621094,-196.78253173828125,-110.44869232177734,-100.45635223388672,-44.55000305175781,-11.550000190734863,26.850000381469727
2.44,86.99571228027344,24.66985511779785,3.6391866207122803,-209.4394989013672,-112.18070220947266,-103.52066802978516,-43.5,-11.550000190734863,25.650001525878906
2.45,78.87458038330078,25.81907081604004,2.030282974243164,-172.6676788330078,-115.11178588867188,-80.33843994140625,-43.5,-11.550000190734863,25.650001525878906
2.46,70.37037658691406,22.026655197143555,-0.1149216815829277,-85.13475799560547,-92.06278228759766,-45.831546783447266,-43.95000076293945,-10.200000762939453,26.250001907348633
2.48,58.9165153503418,13.139378547668457,-3.1028854846954346,31.842266082763672,-43.16691970825195,-59.287899017333984,-43.5,-11.100000381469727,24.150001525878906
2.484,50.5655403137207,5.171475887298584,-7.738059997558594,138.96017456054688,39.70290756225586,-46.497703552246094,-43.20000076293945,-11.40000057220459,24.0
2.49,47.2711181640625,0.49799394607543945,-5.937620162963867,169.4701385498047,57.422664642333984,-13.056661605834961,-41.55000305175781,-10.350000381469727,24.150001525878906
2.5,45.777137756347656,-6.703764915466309,-2.4899697303771973,166.00611877441406,92.59571075439453,38.50382614135742,-41.55000305175781,-10.350000381469727,24.150001525878906
2.51,45.04929733276367,-13.867216110229492,5.899312973022461,153.34915161132812,105.5191421508789,73.54364013671875,-42.30000305175781,-10.800000190734863,24.900001525878906
2.52,41.29519271850586,-22.256498336791992,10.228029251098633,98.99080657958984,101.38896942138672,90.73047637939453,-41.25,-10.350000381469727,24.600000381469727
2.54,33.48051834106445,-25.244462966918945,13.752294540405273,16.65390396118164,80.60489654541016,130.03369140625,-42.150001525878906,-8.700000762939453,26.55000114440918
2.543,26.66183090209961,-21.950040817260742,11.530475616455078,-89.5313949584961,90.86370086669922,136.29556274414062,-40.5,-10.800000190734863,26.100000381469727
2.55,20.456058502197266,-16.318878173828125,8.504204750061035,-162.80857849121094,93.2618637084961,167.47166442871094,-40.5,-10.800000190734863,26.100000381469727
2.56,13.675680160522461,-19.07699966430664,3.6774938106536865,-192.11944580078125,112.58039855957031,157.0796356201172,-40.95000076293945,-9.75,28.500001907348633
2.57,4.596867084503174,-16.47210693359375,-0.3064578175544739,-220.8973846435547,124.30474090576172,182.6600341796875,-41.25,-11.850000381469727,28.200000762939453
2.58,-2.2218191623687744,-13.713987350463867,-4.711789131164551,-196.915771484375,156.94639587402344,169.33689880371094,-40.5,-13.800000190734863,28.950000762939453
2.6,-11.492168426513672,-6.780379295349121,-6.588842868804932,-106.58499145507812,189.72128295898438,201.31239318847656,-40.650001525878906,-12.90000057220459,31.05000114440918
2.604,-13.752294540405273,-4.558559894561768,-1.1875240802764893,140.6921844482422,225.69371032714844,202.24502563476562,-40.650001525878906,-12.90000057220459,31.05000114440918
2.61,-25.28277015686035,2.75812029838562,3.332728862762451,261.79937744140625,246.07809448242188,204.37672424316406,-40.650001525878906,-12.90000057220459,31.05000114440918
2.62,-26.738445281982422,3.026270866394043,3.8307228088378906,440.72894287109375,245.0122528076172,114.71209716796875,-38.70000076293945,-15.90000057220459,31.350000381469727
2.63,-29.34333610534668,2.6815059185028076,12.411541938781738,510.8085632324219,231.68911743164062,115.2450180053711,-37.95000076293945,-15.15000057220459,31.80000114440918
2.64,-25.550920486450195,5.51624059677124,6.512228488922119,-456.1837463378906,16.920366287231445,-46.497703552246094,-37.80000305175781,-15.450000762939453,33.45000076293945
2.66,9.53849983215332,27.236438751220703,-54.12811279296875,-974.4532470703125,-96.72587585449219,-236.88514709472656,-37.05000305175781,-12.750000953674316,33.45000076293945
2.663,7.8529815673828125,22.869415283203125,1.9153614044189453,-565.8330688476562,-6.661561965942383,-140.02603149414062,-37.05000305175781,-12.750000953674316,33.45000076293945
2.67,23.597251892089844,38.230613708496094,23.482330322265625,-282.7166748046875,-30.24349021911621,-212.5038299560547,-36.900001525878906,-14.100000381469727,31.80000114440918
2.68,33.59543991088867,36.27694320678711,31.756690979003906,68.88054656982422,-44.63246536254883,-190.25421142578125,-37.20000076293945,-14.850000381469727,31.80000114440918
2.69,57.84391403198242,28.309040069580078,34.09343338012695,262.99847412109375,-67.01531219482422,-97.7917251586914,-37.650001525878906,-12.450000762939453,31.80000114440918
2.7,75.42693328857422,12.90953540802002,42.90409469604492,320.4211120605469,-135.4961700439453,-32.5084228515625,-36.45000076293945,-11.40000057220459,32.55000305175781
2.719,118.29271697998047,11.03248119354248,54.35795593261719,274.056640625,-178.5298614501953,-83.66921997070312,-36.45000076293945,-11.40000057220459,32.55000305175781
2.723,161.84803771972656,18.387468338012695,57.57576370239258,17.186830520629883,-223.69525146484375,75.94180297851562,-39.30000305175781,-9.600000381469727,32.25
2.73,208.2380828857422,8.08282470703125,39.18829345703125,-165.87289428710938,-166.00611877441406,142.15773010253906,-37.80000305175781,-10.050000190734863,29.400001525878906
2.74,207.28041076660156,9.078812599182129,14.441824913024902,-373.3139343261719,-67.5482406616211,190.65390014648438,-37.05000305175781,-8.850000381469727,28.200000762939453
2.759,184.52590942382812,-2.030282974243164,-8.772355079650879,-500.1500549316406,91.26339721679688,135.4961700439453,-36.45000076293945,-10.200000762939453,27.30000114440918
2.763,123.65573120117188,-17.73624610900879,4.213795185089111,-474.5696716308594,104.5865249633789,129.50076293945312,-36.45000076293945,-10.200000762939453,27.30000114440918
2.77,115.84105682373047,-17.544710159301758,6.090848922729492,-421.27716064453125,131.7657012939453,127.5022964477539,-37.20000076293945,-10.950000762939453,28.500001907348633
2.78,102.43352508544922,-11.338939666748047,7.354987621307373,-314.6921691894531,147.22052001953125,136.56201171875,-36.900001525878906,-14.100000381469727,29.250001907348633
2.79,97.5685043334961,-2.3367409706115723,10.687716484069824,-184.25880432128906,134.5635528564453,149.7519073486328,-36.75,-14.250000953674316,29.700000762939453
2.809,101.39923095703125,6.933608055114746,20.724210739135742,-26.113323211669922,111.91423797607422,188.2557373046875,-37.20000076293945,-14.40000057220459,29.55000114440918
2.813,107.71992492675781,14.786589622497559,22.677879333496094,159.47779846191406,97.92495727539062,231.2894287109375,-37.20000076293945,-14.40000057220459,29.55000114440918
2.82,111.66556549072266,15.974113464355469,17.50640296936035,265.2633972167969,98.19142150878906,247.14395141601562,-36.30000305175781,-14.550000190734863,29.400001525878906
2.83,112.85308837890625,16.1656494140625,12.22000503540039,400.49310302734375,122.43950653076172,254.2052001953125,-34.80000305175781,-15.750000953674316,30.900001525878906
2.84,111.2824935913086,15.437812805175781,13.10107135772705,531.9923095703125,162.00918579101562,259.5344543457031,-35.400001525878906,-15.90000057220459,32.10000228881836
2.85,112.77647399902344,15.054739952087402,16.70195198059082,630.8499145507812,197.848388671875,232.62173461914062,-34.05000305175781,-16.200000762939453,30.450000762939453
2.86,118.75240325927734,11.30063247680664,15.667655944824219,601.6722412109375,259.8009033203125,231.55589294433594,-34.05000305175781,-16.200000762939453,30.450000762939453
2.876,129.74658203125,-3.754108190536499,39.68628692626953,386.5038146972656,287.77947998046875,136.16232299804688,-35.25,-15.450000762939453,32.70000076293945
2.88,144.6097869873047,25.780763626098633,33.32728576660156,336.40887451171875,289.9111633300781,114.97856140136719,-35.25,-15.450000762939453,32.70000076293945
2.89,143.34564208984375,30.339323043823242,30.301015853881836,104.45329284667969,349.3323059082031,98.99080657958984,-32.400001525878906,-14.100000381469727,32.85000228881836
2.9,134.9946746826172,48.68848419189453,36.35355758666992,-148.8192901611328,386.1041259765625,125.50382232666016,-30.900001525878906,-13.65000057220459,35.85000228881836
2.91,124.30695343017578,54.894256591796875,35.24264907836914,-238.2174530029297,398.2281799316406,120.70750427246094,-30.900001525878906,-13.65000057220459,35.85000228881836
2.929,118.40763854980469,49.37801742553711,23.367408752441406,-295.6401062011719,422.6094970703125,131.0995330810547,-30.900001525878906,-13.65000057220459,35.85000228881836
2.933,106.14933013916016,45.85375213623047,4.9799394607543945,-923.8253784179688,1008.2940063476562,218.76568603515625,-28.05000114440918,-18.150001525878906,38.25
2.94,-3.1028854846954346,-68.1868667602539,-328.52276611328125,-1163.3751220703125,551.8438110351562,297.37213134765625,-27.450000762939453,-18.30000114440918,39.45000076293945
2.95,87.26386260986328,-1.6089035272598267,-20.072986602783203,-431.2695007324219,-397.42877197265625,167.2052001953125,-25.05000114440918,-20.100000381469727,42.60000228881836
2.96,64.39444732666016,9.615114212036133,-51.82967758178711,61.81929397583008,-304.83306884765625,177.73046875,-25.650001525878906,-22.5,41.25
2.97,51.40829849243164,57.38422775268555,-54.85594940185547,232.2220458984375,-149.08575439453125,184.92495727539062,-25.650001525878906,-22.5,41.25
2.98,61.559715270996094,77.57213592529297,-0.5363011956214905,280.05206298828125,-69.81317138671875,189.85450744628906,-26.700000762939453,-23.25,37.95000076293945
2.996,45.892059326171875,68.7231674194336,11.1474027633667,16.920366287231445,22.382848739624023,188.52220153808594,-28.650001525878906,-24.900001525878906,39.150001525878906
3.0,-3.3710360527038574,37.57939147949219,8.197746276855469,-79.67227935791016,30.24349021911621,169.33689880371094,-28.650001525878906,-24.900001525878906,39.150001525878906
3.01,-9.193734169006348,34.01681900024414,11.568782806396484,-219.83154296875,-23.04900360107422,102.98774719238281,-25.950000762939453,-26.100000381469727,39.900001525878906
3.02,-13.828908920288086,36.123714447021484,14.863204002380371,-297.2388916015625,-110.58192443847656,5.995405673980713,-25.950000762939453,-26.100000381469727,39.900001525878906
3.03,-15.24627685546875,38.8818359375,7.1251444816589355,-316.15771484375,-174.66615295410156,-63.81776428222656,-27.150001525878906,-25.200000762939453,39.150001525878906
3.05,-14.211980819702148,36.96647262573242,5.51624059677124,-300.9693603515625,-217.03369140625,-155.21438598632812,-26.700000762939453,-26.400001525878906,37.20000076293945
3.054,-11.568782806396484,35.66402816772461,-0.9193734526634216,-244.74578857421875,-230.62327575683594,-181.46095275878906,-29.250001907348633,-25.80000114440918,34.5
3.06,-7.738059997558594,32.292991638183594,-4.941632270812988,-181.59417724609375,-236.7519073486328,-220.09800720214844,-29.250001907348633,-25.80000114440918,34.5
3.07,-6.933608055114746,30.109479904174805,-12.564770698547363,-156.5467071533203,-217.1669158935547,-259.4012145996094,-29.250001907348633,-25.80000114440918,34.5
3.08,-3.6391866207122803,33.25067138671875,-17.12333106994629,-190.25421142578125,-229.69065856933594,-317.3568115234375,-30.150001525878906,-25.200000762939453,32.85000228881836
3.09,16.70195198059082,29.419950485229492,-41.71657180786133,-69.14701080322266,-225.96017456054688,-362.12249755859375,-31.200000762939453,-24.450000762939453,31.05000114440918
3.11,55.46886444091797,8.159439086914062,-83.62467956542969,150.151611328125,-172.2679901123047,-418.612548828125,-31.05000114440918,-22.80000114440918,31.200000762939453
3.113,93.2780990600586,-2.6431987285614014,-69.3743896484375,507.8774719238281,-188.78866577148438,-413.5497741699219,-32.55000305175781,-20.850000381469727,27.450000762939453
3.12,101.6673812866211,7.738059997558594,-32.982521057128906,664.4241943359375,-200.24655151367188,-427.13934326171875,-32.55000305175781,-20.850000381469727,27.450000762939453
3.13,107.56669616699219,7.661445617675781,-35.93217849731445,820.5711669921875,-180.66156005859375,-473.23736572265625,-32.55000305175781,-20.850000381469727,27.450000762939453
3.14,124.11541748046875,18.732234954833984,-24.631547927856445,871.1990356445312,-157.612548828125,-480.2986145019531,-33.900001525878906,-16.350000381469727,27.000001907348633
3.15,144.37994384765625,30.91393280029297,-3.1028854846954346,896.11328125,-156.28024291992188,-518.0030517578125,-34.05000305175781,-13.500000953674316,24.600000381469727
3.17,201.61093139648438,41.98472213745117,23.903709411621094,765.14697265625,-191.18682861328125,-488.29248046875,-34.80000305175781,-9.600000381469727,23.55000114440918
3.173,276.38665771484375,61.253257751464844,50.5655403137207,345.6018371582031,-229.82388305664062,-369.84991455078125,-36.0,-8.40000057220459,22.80000114440918
3.18,318.0649108886719,72.63050079345703,76.19307708740234,109.38284301757812,-235.4196014404297,-311.8943176269531,-36.0,-8.40000057220459,22.80000114440918
3.19,317.91168212890625,48.07556915283203,64.27952575683594,-151.2174530029297,-250.20826721191406,-259.8009033203125,-36.150001525878906,-4.350000381469727,20.400001525878906
3.2,303.0484619140625,9.84495735168457,46.96466064453125,-251.80703735351562,-247.8101043701172,-245.9448699951172,-36.30000305175781,-3.450000047683716,16.80000114440918
3.21,280.9068908691406,-16.855180740356445,8.35097599029541,-173.0673828125,-247.2771759033203,-213.9693603515625,-36.75,-3.750000238418579,16.05000114440918
3.23,220.45809936523438,-30.301015853881836,-11.836933135986328,-91.66309356689453,-272.32464599609375,-176.6646270751953,-36.75,-3.750000238418579,16.05000114440918
3.233,147.32958984375,-14.97812557220459,-14.441824913024902,-56.889739990234375,-231.95558166503906,-152.41653442382812,-38.70000076293945,-2.8500001430511475,12.600000381469727
3.24,102.66336822509766,9.078812599182129,-27.236438751220703,-79.13935852050781,-195.983154296875,-106.58499145507812,-38.55000305175781,-3.0,12.0
3.25,96.11283111572266,14.480132102966309,-15.897499084472656,-112.04747009277344,-149.08575439453125,-65.81623077392578,-37.650001525878906,-3.6000001430511475,11.550000190734863
3.26,84.69728088378906,16.81687355041504,-1.6089035272598267,-104.85298156738281,-132.43185424804688,-2.531393527984619,-37.5,-3.450000047683716,12.0
3.27,71.97927856445312,11.30063247680664,7.967903137207031,-45.43185043334961,-91.13016510009766,0.9326186776161194,-37.5,-3.450000047683716,12.0
3.289,56.80961608886719,8.65743350982666,8.504204750061035,69.54670715332031,-31.575803756713867,16.12097930908203,-37.5,-3.450000047683716,12.0
3.293,44.97268295288086,7.010222434997559,7.048529624938965,191.58651733398438,17.852985382080078,-0.9326186776161194,-39.150001525878906,-4.800000190734863,7.800000190734863
3.3,35.204341888427734,4.175487995147705,5.20978307723999,226.89279174804688,33.97396469116211,74.34303283691406,-38.70000076293945,-5.100000381469727,9.0
3.31,28.807035446166992,1.455674648284912,1.3024457693099976,226.09341430664062,62.618682861328125,76.34149932861328,-39.0,-5.700000286102295,7.950000286102295
3.32,30.224401473999023,-6.512228488922119,5.20978307723999,222.76263427734375,82.86982727050781,84.4686050415039,-40.20000076293945,-6.300000190734863,8.550000190734863
3.33,31.756690979003906,-10.074800491333008,11.262324333190918,207.17457580566406,80.20520782470703,121.24042510986328,-40.20000076293945,-6.300000190734863,8.550000190734863
3.35,33.48051834106445,-15.131354331970215,15.476119995117188,134.83001708984375,81.67074584960938,128.03521728515625,-39.150001525878906,-8.25,9.0
3.354,32.178070068359375,-17.085023880004883,17.774553298950195,-10.258805274963379,77.27411651611328,171.20213317871094,-41.400001525878906,-8.700000762939453,7.500000476837158
3.36,27.58120346069336,-15.744270324707031,15.820884704589844,-54.89126968383789,67.28177642822266,165.2067413330078,-40.5,-10.350000381469727,10.65000057220459
3.37,23.367408752441406,-14.97812557220459,13.024456977844238,-145.88819885253906,70.21286010742188,100.9892807006836,-41.55000305175781,-9.600000381469727,8.40000057220459
3.38,12.641385078430176,-21.222204208374023,6.933608055114746,-262.06585693359375,107.91730499267578,180.5283203125,-41.55000305175781,-9.600000381469727,8.40000057220459
3.39,3.8307228088378906,-20.95405387878418,2.298433542251587,-272.4578857421875,138.16079711914062,142.5574188232422,-41.400001525878906,-14.850000381469727,9.75
3.41,-3.869029998779297,-14.556746482849121,0.2298433631658554,-228.35833740234375,150.2848358154297,160.01071166992188,-39.900001525878906,-14.40000057220459,10.800000190734863
3.413,-12.679692268371582,-9.308655738830566,2.298433542251587,-97.39203643798828,184.1255645751953,199.5803985595703,-40.650001525878906,-16.350000381469727,10.050000190734863
3.42,-23.3291015625,-0.8427590131759644,9.615114212036133,25.18070411682129,186.12403869628906,164.5405731201172,-42.0,-16.200000762939453,11.40000057220459
3.43,-30.645782470703125,1.3024457693099976,13.407529830932617,294.174560546875,195.5834503173828,118.30934143066406,-42.0,-16.200000762939453,11.40000057220459
3.44,-32.905906677246094,2.2218191623687744,21.183897018432617,407.02142333984375,166.67227172851562,103.7871322631836,-42.75,-17.700000762939453,13.200000762939453
3.45,-30.60747528076172,-0.6512228846549988,20.992361068725586,439.1301574707031,125.63705444335938,42.500762939453125,-41.400001525878906,-18.75,14.850000381469727
3.47,-19.153614044189453,-3.869029998779297,6.090848922729492,-546.248046875,-71.81163787841797,-108.84992218017578,-41.400001525878906,-21.0,15.90000057220459
3.473,62.70893096923828,-1.8387469053268433,-122.16175079345703,-1260.3675537109375,-114.04593658447266,-287.51300048828125,-42.30000305175781,-19.650001525878906,17.25
3.48,4.405331134796143,28.653806686401367,4.252102375030518,-1102.488525390625,-66.34915924072266,-171.60183715820312,-42.30000305175781,-20.400001525878906,15.450000762939453
3.49,2.183511972427368,31.373619079589844,6.090848922729492,-761.949462890625,-18.385910034179688,-92.46247863769531,-42.30000305175781,-20.400001525878906,15.450000762939453
3.5,18.34916114807129,32.905906677246094,4.32871675491333,-475.3690490722656,-7.594180583953857,-56.889739990234375,-42.30000305175781,-19.650001525878906,15.450000762939453
3.51,34.284969329833984,18.54069709777832,8.810662269592285,-225.16079711914062,4.263399600982666,-13.722817420959473,-42.30000305175781,-19.200000762939453,13.950000762939453
3.53,57.38422775268555,-3.9456443786621094,19.728221893310547,72.0781021118164,2.131699800491333,-8.793261528015137,-43.95000076293945,-19.05000114440918,13.350000381469727
3.533,84.62066650390625,-9.883264541625977,38.46045684814453,346.5344543457031,-31.309341430664062,-95.52679443359375,-42.900001525878906,-21.450000762939453,14.100000381469727
3.54,129.55503845214844,5.592854976654053,51.10184097290039,388.5022888183594,-104.32006072998047,-12.390504837036133,-42.900001525878906,-21.450000762939453,14.100000381469727
3.55,155.14427185058594,10.802638053894043,59.452816009521484,329.3476257324219,-134.43031311035156,138.02755737304688,-44.400001525878906,-19.05000114440918,15.90000057220459
3.56,193.06842041015625,22.677879333496094,63.398460388183594,101.2557373046875,-170.4027557373047,191.9862060546875,-43.650001525878906,-18.30000114440918,15.90000057220459
3.57,240.9907684326172,18.310853958129883,60.52541732788086,-106.05206298828125,-161.47625732421875,187.58958435058594,-45.900001525878906,-20.55000114440918,15.15000057220459
3.59,243.8638153076172,10.113107681274414,30.339323043823242,-239.28330993652344,-46.764163970947266,211.9709014892578,-44.55000305175781,-20.100000381469727,14.250000953674316
3.593,203.0666046142578,9.078812599182129,-5.324704647064209,-264.73046875,118.30934143066406,164.4073486328125,-44.55000305175781,-20.100000381469727,14.250000953674316
3.6,142.00489807128906,8.35097599029541,-6.550535678863525,-277.6539001464844,184.5252685546875,178.39662170410156,-43.80000305175781,-21.900001525878906,14.700000762939453
3.61,129.55503845214844,8.848969459533691,-0.8427590131759644,-234.8866729736328,228.89126586914062,168.5375213623047,-45.150001525878906,-23.700000762939453,15.15000057220459
3.62,114.46199798583984,13.10107135772705,8.887276649475098,-164.14088439941406,246.61102294921875,176.7978515625,-43.5,-24.30000114440918,16.5
3.63,98.90926361083984,18.272546768188477,13.330915451049805,-81.00459289550781,243.01377868652344,185.19142150878906,-44.70000076293945,-25.200000762939453,17.100000381469727
3.65,84.81220245361328,22.90772247314453,13.369222640991211,35.306278228759766,225.8269500732422,228.89126586914062,-44.70000076293945,-25.200000762939453,17.100000381469727
3.653,81.05809020996094,26.01060676574707,16.1656494140625,209.57273864746094,206.37518310546875,258.2021484375,-42.900001525878906,-25.650001525878906,19.650001525878906
3.66,88.45138549804688,28.53888511657715,23.980323791503906,291.1102600097656,208.77334594726562,258.7350769042969,-42.45000076293945,-28.350000381469727,20.400001525878906
3.67,99.02418518066406,27.083209991455078,29.879636764526367,387.16998291015625,207.17457580566406,264.86370849609375,-41.70000076293945,-27.600000381469727,21.75
3.68,120.8976058959961,22.60126495361328,37.617698669433594,413.6829833984375,223.69525146484375,245.4119415283203,-40.95000076293945,-29.55000114440918,24.750001907348633
3.69,143.5754852294922,25.28277015686035,36.39186477661133,373.713623046875,286.713623046875,202.3782501220703,-40.95000076293945,-29.55000114440918,24.750001907348633
3.71,162.6141815185547,29.419950485229492,24.861391067504883,207.97396850585938,371.4486999511719,154.54823303222656,-40.80000305175781,-28.200000762939453,26.850000381469727
3.713,149.74295043945312,51.369991302490234,28.8453426361084,-75.00918579101562,446.19140625,142.95712280273438,-39.150001525878906,-29.100000381469727,29.55000114440918
3.72,140.1661376953125,51.40829849243164,26.393678665161133,-156.01377868652344,459.64776611328125,151.084228515625,-38.55000305175781,-28.950000762939453,30.150001525878906
3.73,129.47842407226562,42.674251556396484,17.391481399536133,-278.85296630859375,533.9907836914062,137.49464416503906,-36.150001525878906,-29.850000381469727,31.05000114440918
3.74,107.10700988769531,22.677879333496094,-82.85853576660156,-985.6447143554688,1045.865234375,56.889739990234375,-36.150001525878906,-29.850000381469727,31.05000114440918
3.75,17.161638259887695,-71.94097137451172,-242.59967041015625,-760.8836059570312,-21.183767318725586,273.6569519042969,-36.150001525878906,-29.850000381469727,31.05000114440918
3.769,110.59296417236328,4.367023944854736,5.324704647064209,-87.9326171875,-359.0581970214844,129.2342987060547,-33.30000305175781,-33.900001525878906,36.75
3.773,75.42693328857422,12.832921028137207,-109.40544128417969,303.90045166015625,-82.20367431640625,248.47625732421875,-32.70000076293945,-33.45000076293945,33.60000228881836
3.78,69.79576873779297,68.1102523803711,-9.998186111450195,276.7212829589844,-34.10719680786133,274.056640625,-32.70000076293945,-35.25,33.30000305175781
3.79,73.81802368164062,65.08397674560547,28.309040069580078,97.7917251586914,-43.30015182495117,277.25421142578125,-34.5,-36.60000228881836,33.45000076293945
3.8,42.1762580871582,41.946414947509766,34.284969329833984,-143.62327575683594,-40.502296447753906,234.35374450683594,-34.5,-36.60000228881836,33.45000076293945
3.81,5.2480902671813965,25.89568519592285,28.807035446166992,-317.3568115234375,-73.0107192993164,151.48391723632812,-33.45000076293945,-36.900001525878906,34.35000228881836
3.829,-13.982137680053711,27.925968170166016,16.35718536376953,-344.80242919921875,-116.31086730957031,73.41041564941406,-33.75,-35.85000228881836,31.200000762939453
3.833,-12.066776275634766,52.67243576049805,-1.4173674583435059,-320.4211120605469,-158.14547729492188,-33.04134750366211,-32.55000305175781,-39.0,30.150001525878906
3.84,-9.423578262329102,50.37400436401367,-2.145204782485962,-245.545166015625,-170.13629150390625,1.0658499002456665,-32.55000305175781,-39.0,30.150001525878906
3.85,-5.5545477867126465,46.16020965576172,0.038307227194309235,-172.00152587890625,-182.92648315429688,-18.385910034179688,-32.55000305175781,-39.0,30.150001525878906
3.86,-6.665457725524902,42.061336517333984,-13.905523300170898,-205.30934143066406,-167.87135314941406,-89.13169860839844,-35.70000076293945,-37.95000076293945,28.500001907348633
3.87,-15.667655944824219,47.424346923828125,-19.843143463134766,-322.4195861816406,-172.80091857910156,-179.4624786376953,-35.400001525878906,-36.900001525878906,25.80000114440918
3.889,-19.421764373779297,44.35976791381836,-16.28057098388672,-339.7396545410156,-202.24502563476562,-204.50994873046875,-36.150001525878906,-36.900001525878906,24.450000762939453
3.893,-24.13355255126953,35.24264907836914,-32.178070068359375,-31.176109313964844,-223.9617156982422,-297.2388916015625,-36.30000305175781,-37.5,23.100000381469727
3.9,-6.742072105407715,35.16603469848633,-49.37801742553711,210.1056671142578,-244.74578857421875,-303.3675231933594,-36.30000305175781,-37.5,23.100000381469727
3.91,16.47210693359375,8.312667846679688,-30.875625610351562,365.85296630859375,-260.7335205078125,-314.8254089355469,-39.75,-35.55000305175781,20.100000381469727
3.92,42.1762580871582,-10.304644584655762,-25.39769172668457,403.9571228027344,-281.117919921875,-368.117919921875,-39.900001525878906,-32.55000305175781,19.650001525878906
3.93,78.60643005371094,-27.657817840576172,-50.5655403137207,450.98773193359375,-249.6753387451172,-446.4578857421875,-41.70000076293945,-33.0,18.900001525878906
3.949,93.9293212890625,-15.85919189453125,-48.72679138183594,542.517578125,-218.0995330810547,-429.8039855957031,-42.150001525878906,-30.600000381469727,16.650001525878906
3.953,136.64187622070312,20.226215362548828,-24.44001007080078,663.6248168945312,-188.92189025878906,-521.8667602539062,-45.150001525878906,-27.150001525878906,17.400001525878906
3.96,143.80532836914062,30.760704040527344,-14.403517723083496,738.10107421875,-177.33078002929688,-514.8054809570312,-45.150001525878906,-27.150001525878906,17.400001525878906
3.97,168.36026000976562,38.34553527832031,-3.600879430770874,710.2557373046875,-171.3353729248047,-604.736572265625,-45.150001525878906,-24.450000762939453,17.100000381469727
3.98,210.80467224121094,53.43858337402344,33.7486686706543,581.82080078125,-202.77793884277344,-541.5849609375,-46.95000076293945,-21.75,16.350000381469727
3.99,264.8561706542969,80.2536392211914,63.13031005859375,332.0122375488281,-247.8101043701172,-335.7427062988281,-48.150001525878906,-18.30000114440918,14.850000381469727
4.006,281.7113342285156,88.83445739746094,88.75784301757812,-90.19754791259766,-279.11944580078125,-294.57427978515625,-48.30000305175781,-16.200000762939453,13.500000953674316
4.01,289.2961730957031,28.19411849975586,63.475074768066406,-123.10566711425781,-257.0030517578125,-216.2342987060547,-48.30000305175781,-16.200000762939453,13.500000953674316
4.02,288.14697265625,12.832921028137207,52.67243576049805,-239.68299865722656,-226.89279174804688,-287.646240234375,-48.900001525878906,-17.100000381469727,13.050000190734863
4.03,268.57196044921875,-10.41956615447998,16.318878173828125,-211.70443725585938,-158.14547729492188,-225.8269500732422,-48.750003814697266,-15.450000762939453,12.0
4.04,220.30487060546875,-16.970102310180664,-15.897499084472656,-128.83460998535156,-125.37059783935547,-173.73353576660156,-49.05000305175781,-15.000000953674316,11.700000762939453
4.05,150.85386657714844,-15.667655944824219,-13.445837020874023,-109.78253936767578,-137.8943328857422,-116.31086730957031,-49.05000305175781,-15.000000953674316,11.700000762939453
4.07,111.8954086303711,7.6997528076171875,-12.258312225341797,-51.82695007324219,-116.0444107055664,-112.98008728027344,-48.45000076293945,-14.40000057220459,10.800000190734863
4.073,80.94316864013672,39.341522216796875,-3.6391866207122803,121.64012145996094,-46.764163970947266,-99.79019927978516,-49.05000305175781,-13.800000190734863,11.700000762939453
4.08,79.0278091430664,39.954437255859375,3.3710360527038574,163.6079559326172,-26.912710189819336,-93.79479217529297,-49.80000305175781,-14.250000953674316,10.200000762939453
4.09,75.81000518798828,41.90810775756836,10.15141487121582,141.4915771484375,-28.378253936767578,-60.48698043823242,-49.650001525878906,-14.850000381469727,10.050000190734863
4.1,67.91871643066406,34.70634841918945,11.492168426513672,124.97090148925781,-22.782541275024414,-34.906585693359375,-49.650001525878906,-14.850000381469727,10.050000190734863
4.118,59.83588790893555,21.6818904876709,7.738059997558594,138.42726135253906,-7.06125545501709,-19.45176124572754,-49.95000076293945,-14.850000381469727,11.100000381469727
4.122,53.59181213378906,6.665457725524902,3.2561142444610596,176.53138732910156,31.842266082763672,1.1990811824798584,-48.0,-14.550000190734863,11.700000762939453
4.13,47.50096130371094,-8.312667846679688,-0.727837324142456,183.45941162109375,70.3460922241211,9.459418296813965,-49.05000305175781,-14.250000953674316,10.950000762939453
4.14,43.4020881652832,-15.322891235351562,-3.064578056335449,136.82847595214844,97.92495727539062,56.09035110473633,-46.5,-15.450000762939453,13.200000762939453
4.15,40.29920196533203,-20.034679412841797,3.332728862762451,62.21898651123047,112.31393432617188,81.13782501220703,-46.5,-15.450000762939453,13.200000762939453
4.16,31.871612548828125,-24.823083877563477,11.683704376220703,2.531393527984619,93.79479217529297,108.3169937133789,-47.55000305175781,-15.750000953674316,15.000000953674316
4.17,25.052927017211914,-21.528661727905273,13.48414421081543,-104.5865249633789,72.74425506591797,89.13169860839844,-46.80000305175781,-16.5,16.5
4.189,19.19192123413086,-31.90991973876953,11.453861236572266,-202.3782501220703,83.5359878540039,123.10566711425781,-46.95000076293945,-17.100000381469727,16.650001525878906
4.193,4.6734819412231445,-35.89387130737305,0.2298433631658554,-318.5558776855469,87.53292083740234,109.915771484375,-46.95000076293945,-17.100000381469727,16.650001525878906
4.2,1.6855180263519287,-32.369606018066406,1.5705963373184204,-334.8100891113281,100.9892807006836,135.4961700439453,-46.95000076293945,-17.100000381469727,16.650001525878906
4.21,-2.5665841102600098,-25.014619827270508,-3.2561142444610596,-335.7427062988281,101.12251281738281,94.32771301269531,-46.650001525878906,-18.30000114440918,16.650001525878906
4.22,-9.615114212036133,-17.42978858947754,-2.9496564865112305,-301.3690490722656,111.91423797607422,91.52986145019531,-43.650001525878906,-17.850000381469727,17.700000762939453
4.23,-13.867216110229492,-10.5344877243042,2.451662540435791,-228.6248016357422,96.32618713378906,123.9050521850586,-45.75,-19.200000762939453,16.05000114440918
4.243,-22.562957763671875,-5.2480902671813965,9.461885452270508,-52.75957107543945,61.81929397583008,110.18223571777344,-44.55000305175781,-19.650001525878906,16.05000114440918
4.25,-30.37763023376465,-3.4093432426452637,9.921571731567383,71.41194152832031,37.70444107055664,158.27871704101562,-44.55000305175781,-19.650001525878906,16.05000114440918
4.26,-30.79901123046875,-1.5705963373184204,7.929595947265625,169.20367431640625,-2.398162364959717,101.78866577148438,-44.400001525878906,-20.55000114440918,19.200000762939453
4.27,-26.470293045043945,-5.286397457122803,-3.9456443786621094,224.62786865234375,-15.188361167907715,54.4915771484375,-43.650001525878906,-21.0,18.150001525878906
4.28,-29.34333610534668,69.22116088867188,-194.90716552734375,-5.995405673980713,81.00459289550781,79.2725830078125,-45.150001525878906,-22.5,18.900001525878906
4.29,11.03248119354248,31.871612548828125,-119.51854705810547,-292.1761169433594,148.4196014404297,-3.597243309020996,-44.55000305175781,-21.600000381469727,18.75
4.303,6.473921298980713,-9.385271072387695,-13.10107135772705,-267.9280090332031,124.70443725585938,-72.61102294921875,-44.55000305175781,-21.600000381469727,18.75
4.31,20.877439498901367,-26.54690933227539,39.533058166503906,-124.8376693725586,64.61714935302734,-134.96324157714844,-43.5,-20.400001525878906,19.5
4.32,40.452430725097656,-25.627534866333008,53.51519775390625,144.2894287109375,-49.56201934814453,-190.78712463378906,-42.30000305175781,-20.100000381469727,18.75
4.33,82.20730590820312,-29.611486434936523,80.56009674072266,350.66461181640625,-156.679931640625,-397.0290832519531,-42.900001525878906,-18.75,18.150001525878906
4.34,70.71514129638672,0.49799394607543945,112.69985961914062,489.35833740234375,-359.4578857421875,-217.69984436035156,-43.5,-18.150001525878906,18.0
4.35,193.94949340820312,8.695740699768066,94.46562194824219,399.42724609375,-377.57733154296875,-125.90351867675781,-43.5,-18.150001525878906,18.0
4.363,215.63137817382812,45.04929733276367,61.36817932128906,100.05665588378906,-239.41653442382812,145.2220458984375,-43.05000305175781,-15.000000953674316,17.25
4.37,204.9819793701172,49.9526252746582,17.046716690063477,-99.79019927978516,-108.84992218017578,250.34149169921875,-43.05000305175781,-15.450000762939453,13.950000762939453
4.38,193.41319274902344,29.688100814819336,6.320692539215088,-231.2894287109375,20.251148223876953,313.2266540527344,-43.95000076293945,-15.600000381469727,14.100000381469727
4.39,163.61016845703125,0.1149216815829277,3.7924153804779053,-289.7779541015625,114.17916870117188,269.1271057128906,-43.95000076293945,-16.350000381469727,14.40000057220459
4.4,130.58934020996094,-6.282385349273682,3.907337188720703,-295.50689697265625,153.882080078125,252.87289428710938,-42.75,-19.650001525878906,13.500000953674316
4.42,103.85089111328125,-4.941632270812988,5.20978307723999,-290.57733154296875,165.2067413330078,252.07350158691406,-42.75,-19.650001525878906,13.500000953674316
4.423,91.17120361328125,-7.086836814880371,6.742072105407715,-227.6921844482422,181.72740173339844,212.63705444335938,-42.900001525878906,-21.75,12.600000381469727
4.43,90.97966766357422,0.9193734526634216,10.572794914245605,-188.52220153808594,191.9862060546875,193.85145568847656,-42.30000305175781,-22.80000114440918,14.250000953674316
4.44,95.1934585571289,9.921571731567383,9.27034854888916,-116.57733154296875,204.37672424316406,192.7855987548828,-42.0,-24.30000114440918,14.250000953674316
4.45,103.65935516357422,21.528661727905273,9.653421401977539,-64.084228515625,232.88819885253906,216.2342987060547,-39.75,-23.850000381469727,15.750000953674316
4.46,109.59697723388672,27.083209991455078,12.986149787902832,-51.693721771240234,271.5252685546875,241.68145751953125,-39.75,-23.850000381469727,15.750000953674316
4.479,111.74217987060547,29.113492965698242,29.4582576751709,-26.113323211669922,277.1209716796875,291.2434997558594,-39.0,-27.450000762939453,18.30000114440918
4.483,116.56889343261719,35.54910659790039,52.63412857055664,29.84379768371582,258.4685974121094,294.57427978515625,-38.55000305175781,-27.000001907348633,19.5
4.49,131.27886962890625,29.53487205505371,50.948612213134766,54.75803756713867,259.8009033203125,263.66461181640625,-38.55000305175781,-28.200000762939453,19.5
4.5,140.43429565429688,30.224401473999023,51.44660568237305,88.59877014160156,273.1240234375,235.8192901611328,-37.650001525878906,-30.30000114440918,20.700000762939453
4.51,146.86990356445312,30.0711727142334,42.40610122680664,92.06278228759766,317.22357177734375,186.79019165039062,-37.650001525878906,-30.30000114440918,20.700000762939453
4.52,143.9968719482422,34.32327651977539,30.530860900878906,69.01377868652344,372.1148376464844,160.6768798828125,-36.0,-31.200000762939453,23.100000381469727
4.54,137.67617797851562,35.77894973754883,17.12333106994629,10.791729927062988,432.2021484375,155.21438598632812,-34.20000076293945,-31.80000114440918,25.500001907348633
4.543,127.90782928466797,41.67826461791992,11.185709953308105,-88.33231353759766,514.006103515625,202.511474609375,-33.75,-31.650001525878906,25.350000381469727
4.55,111.47402954101562,43.44039535522461,0.5363011956214905,-161.6094970703125,550.9111938476562,221.43031311035156,-33.45000076293945,-33.0,28.80000114440918
4.56,102.8932113647461,42.90409469604492,-5.5545477867126465,-740.4992065429688,934.084228515625,224.09494018554688,-33.45000076293945,-33.0,28.80000114440918
4.57,30.60747528076172,-18.579004287719727,-382.5359802246094,-1562.13623046875,305.09954833984375,588.4823608398438,-30.450000762939453,-34.20000076293945,32.55000305175781
4.58,115.80274963378906,-4.290409564971924,32.40791320800781,-768.2113037109375,-566.0995483398438,82.7365951538086,-27.000001907348633,-37.80000305175781,32.25
4.599,75.2737045288086,40.873809814453125,-105.3448715209961,-40.9019889831543,-289.9111633300781,112.98008728027344,-27.450000762939453,-40.35000228881836,27.000001907348633
4.604,61.36817932128906,86.68925476074219,-78.79796600341797,515.3384399414062,-71.67840576171875,214.63552856445312,-28.05000114440918,-40.95000076293945,24.900001525878906
4.61,59.83588790893555,79.14273071289062,7.4316020011901855,563.8345947265625,-17.32006072998047,245.81163024902344,-28.05000114440918,-40.95000076293945,24.900001525878906
4.62,42.90409469604492,66.69288635253906,-5.631162166595459,405.8223571777344,42.101070404052734,270.1929626464844,-26.55000114440918,-40.5,27.900001525878906
4.63,18.195932388305664,46.35174560546875,-15.131354331970215,161.07656860351562,43.16691970825195,258.06890869140625,-25.650001525878906,-40.650001525878906,29.250001907348633
4.64,6.244078159332275,27.849353790283203,8.542511940002441,-42.90045928955078,-32.64165496826172,106.4517593383789,-23.400001525878906,-43.80000305175781,28.500001907348633
4.66,-10.304644584655762,20.226215362548828,30.454246520996094,-138.8269500732422,-131.89892578125,-8.526799201965332,-21.900001525878906,-40.650001525878906,30.30000114440918
4.663,-10.036493301391602,26.087221145629883,23.865402221679688,-155.08116149902344,-201.17916870117188,-104.32006072998047,-21.900001525878906,-40.650001525878906,30.30000114440918
4.67,-13.024456977844238,30.837318420410156,2.451662540435791,-190.5206756591797,-217.96630859375,-119.64165496826172,-21.900001525878906,-40.650001525878906,30.30000114440918
4.68,-11.836933135986328,31.22039031982422,-2.75812029838562,-195.050537109375,-198.781005859375,-220.23123168945312,-22.650001525878906,-38.400001525878906,28.500001907348633
4.69,-11.951854705810547,31.948226928710938,-5.975927352905273,-143.88973999023438,-186.25726318359375,-231.02296447753906,-22.80000114440918,-39.0,27.150001525878906
4.7,-14.135366439819336,30.68408966064453,-3.141192674636841,-81.13782501220703,-152.81622314453125,-264.73046875,-22.5,-39.30000305175781,26.850000381469727
4.72,-12.90953540802002,34.51481246948242,-9.53849983215332,-101.2557373046875,-156.81317138671875,-289.37823486328125,-23.700000762939453,-37.650001525878906,26.250001907348633
4.723,-7.393294811248779,40.682273864746094,-10.074800491333008,-194.2511444091797,-163.4747314453125,-326.6829833984375,-23.55000114440918,-35.10000228881836,23.55000114440918
4.73,32.484527587890625,23.9420166015625,-37.54108428955078,-165.87289428710938,-152.41653442382812,-363.98773193359375,-23.55000114440918,-35.10000228881836,23.55000114440918
4.74,60.10403823852539,13.254301071166992,-60.831878662109375,6.5283308029174805,-138.42726135253906,-393.96478271484375,-24.450000762939453,-35.25,23.700000762939453
4.75,97.37696838378906,9.040505409240723,-48.343719482421875,257.5359802246094,-199.04747009277344,-420.7442626953125,-23.700000762939453,-33.45000076293945,21.75
4.76,103.62104797363281,11.262324333190918,-30.569168090820312,444.0597229003906,-235.15313720703125,-431.2695007324219,-24.750001907348633,-33.150001525878906,22.80000114440918
4.78,120.13146209716797,6.780379295349121,-33.212364196777344,601.5390625,-211.9709014892578,-486.29400634765625,-24.750001907348633,-33.150001525878906,22.80000114440918
4.783,141.08551025390625,9.730035781860352,-26.087221145629883,787.9295654296875,-169.8698272705078,-529.3276977539062,-25.05000114440918,-26.55000114440918,20.850000381469727
4.79,187.55218505859375,26.087221145629883,-5.477933406829834,827.2327270507812,-145.0888214111328,-620.0581665039062,-25.05000114440918,-26.55000114440918,20.850000381469727
4.8,222.67991638183594,39.07337188720703,5.1331682205200195,760.084228515625,-117.11026000976562,-684.9417724609375,-26.250001907348633,-24.750001907348633,20.55000114440918
4.81,281.9411926269531,63.66661071777344,37.656005859375,630.8499145507812,-165.87289428710938,-465.24346923828125,-25.80000114440918,-22.350000381469727,22.05000114440918
4.82,315.23016357421875,84.85050964355469,70.21714782714844,359.5910949707031,-202.3782501220703,-312.8269348144531,-25.80000114440918,-22.350000381469727,22.05000114440918
4.84,290.71356201171875,73.32003021240234,85.80818939208984,45.03215789794922,-204.6431884765625,-258.7350769042969,-28.05000114440918,-16.5,21.30000114440918
4.843,263.28558349609375,27.925968170166016,77.84028625488281,-82.86982727050781,-247.67686462402344,-203.57733154296875,-27.30000114440918,-13.050000190734863,22.80000114440918
4.85,229.99659729003906,-5.056553840637207,35.817256927490234,-91.66309356689453,-250.34149169921875,-143.2235870361328,-27.30000114440918,-13.050000190734863,22.80000114440918
4.86,194.14102172851562,-14.441824913024902,18.77054214477539,-62.085758209228516,-266.46246337890625,-84.06890869140625,-27.900001525878906,-11.40000057220459,22.200000762939453
4.87,145.14608764648438,-31.948226928710938,0.4596867263317108,-23.182235717773438,-237.6845245361328,-50.22817611694336,-27.900001525878906,-11.40000057220459,22.200000762939453
4.88,111.12926483154297,-38.34553527832031,-14.595053672790527,-46.231239318847656,-190.25421142578125,-40.502296447753906,-29.250001907348633,-8.850000381469727,21.600000381469727
4.9,89.56229400634766,-19.99637222290039,-13.982137680053711,-51.560489654541016,-126.16998291015625,-66.34915924072266,-30.900001525878906,-7.050000190734863,21.150001525878906
4.904,77.22737121582031,-5.784391403198242,-16.58702850341797,-37.17151641845703,-60.88667678833008,-57.15620040893555,-30.450000762939453,-6.300000190734863,19.950000762939453
4.91,67.07595825195312,6.703764915466309,-3.754108190536499,-19.584991455078125,-26.246553421020508,-52.493106842041016,-30.450000762939453,-6.300000190734863,19.950000762939453
4.92,63.36015319824219,8.236053466796875,0.4596867263317108,41.434913635253906,13.456355094909668,45.96477508544922,-30.450000762939453,-6.300000190734863,19.950000762939453
4.93,56.77130889892578,11.41555404663086,5.822698593139648,78.87289428710938,19.45176124572754,-38.10413360595703,-29.700000762939453,-4.350000381469727,17.700000762939453
4.94,49.68447494506836,9.959878921508789,5.056553840637207,128.96783447265625,44.23276901245117,-0.7993874549865723,-30.450000762939453,-4.350000381469727,17.400001525878906
4.96,45.54729461669922,6.627150535583496,4.32871675491333,159.74424743652344,68.4808578491211,-5.196018218994141,-29.700000762939453,-4.350000381469727,18.900001525878906
4.963,41.5250358581543,0.7661445140838623,4.711789131164551,137.3614044189453,70.74578857421875,84.86830139160156,-29.700000762939453,-4.350000381469727,18.900001525878906
4.97,38.65199279785156,-6.3973069190979,7.929595947265625,98.59111785888672,63.551300048828125,92.99540710449219,-29.700000762939453,-4.350000381469727,18.900001525878906
4.98,34.55311965942383,-9.155426979064941,13.024456977844238,41.83460998535156,67.68146514892578,167.73812866210938,-29.400001525878906,-4.050000190734863,15.90000057220459
4.99,27.427974700927734,-14.901511192321777,11.185709953308105,-46.897396087646484,68.61408996582031,165.87289428710938,-28.500001907348633,-3.0,16.05000114440918
5.0,23.482330322265625,-17.238252639770508,12.986149787902832,-74.60948944091797,128.3016815185547,367.98468017578125,-30.150001525878906,-4.050000190734863,16.350000381469727
5.019,17.161638259887695,-12.90953540802002,11.990161895751953,-201.31239318847656,68.08116149902344,230.4900360107422,-31.05000114440918,-6.150000095367432,15.750000953674316
5.023,8.121131896972656,-15.744270324707031,6.320692539215088,-241.68145751953125,93.39509582519531,197.0489959716797,-31.05000114440918,-6.150000095367432,15.750000953674316
5.03,-0.6512228846549988,-14.211980819702148,0.2298433631658554,-229.0244903564453,110.44869232177734,180.9280242919922,-30.30000114440918,-8.100000381469727,17.55000114440918
5.04,-6.01423454284668,-10.41956615447998,1.6089035272598267,-152.68299865722656,110.58192443847656,203.17764282226562,-28.80000114440918,-7.200000286102295,17.25
5.05,-13.637372970581055,-9.500192642211914,8.08282470703125,-36.372127532958984,122.43950653076172,185.0581817626953,-30.450000762939453,-9.0,16.350000381469727
5.06,-19.460071563720703,-5.1331682205200195,12.22000503540039,110.98162078857422,102.45481872558594,198.51454162597656,-30.30000114440918,-8.40000057220459,16.80000114440918
5.08,-25.550920486450195,-4.750096321105957,14.480132102966309,219.9647674560547,93.79479217529297,159.74424743652344,-30.30000114440918,-8.40000057220459,16.80000114440918
5.084,-25.780763626098633,-8.121131896972656,10.342951774597168,219.83154296875,98.72434997558594,76.07503509521484,-30.30000114440918,-9.600000381469727,16.05000114440918
5.09,-10.72602367401123,-3.8307228088378906,-5.631162166595459,168.1378173828125,93.39509582519531,74.20980072021484,-31.500001907348633,-11.100000381469727,16.05000114440918
5.1,2.5665841102600098,-3.7924153804779053,-21.720197677612305,-754.3552856445312,181.99386596679688,-60.08728790283203,-29.400001525878906,-11.700000762939453,17.400001525878906
5.11,33.63374710083008,10.342951774597168,-42.82748031616211,-690.5374755859375,201.0459442138672,-147.22052001953125,-31.500001907348633,-10.350000381469727,16.80000114440918
5.12,28.347347259521484,3.294421434402466,16.970102310180664,-372.2480773925781,183.5926513671875,-182.39356994628906,-31.500001907348633,-10.350000381469727,16.80000114440918
5.139,41.86980056762695,0.9959878921508789,39.4947509765625,-52.493106842041016,107.51760864257812,-207.70750427246094,-30.30000114440918,-10.350000381469727,18.0
5.143,51.29337692260742,1.5705963373184204,54.24303436279297,261.6661376953125,-26.379785537719727,-226.7595672607422,-31.200000762939453,-10.5,17.700000762939453
5.15,68.34009552001953,4.903325080871582,63.93476104736328,370.2496032714844,-117.37671661376953,-223.69525146484375,-30.900001525878906,-9.75,18.150001525878906
5.16,79.71733856201172,11.262324333190918,68.761474609375,379.1761169433594,-225.8269500732422,-224.3614044189453,-30.900001525878906,-7.800000190734863,17.100000381469727
5.17,107.87315368652344,20.685903549194336,67.07595825195312,241.68145751953125,-306.5650634765625,-85.66768646240234,-30.900001525878906,-7.800000190734863,17.100000381469727
5.18,147.90420532226562,33.13574981689453,58.839900970458984,-73.9433364868164,-324.5513000488281,83.00305938720703,-31.80000114440918,-6.150000095367432,15.450000762939453
5.201,185.0622100830078,46.88804626464844,33.212364196777344,-439.9295349121094,-210.2388916015625,99.52373504638672,-32.70000076293945,-7.500000476837158,15.600000381469727
5.205,201.45770263671875,45.04929733276367,3.6774938106536865,-729.3078002929688,-22.116384506225586,237.95098876953125,-32.25,-6.450000286102295,15.750000953674316
5.21,187.74371337890625,10.611102104187012,-7.7763671875,-710.522216796875,27.71209716796875,220.8973846435547,-31.80000114440918,-9.15000057220459,14.700000762939453
5.22,169.89254760742188,1.1492167711257935,-4.520252704620361,-607.0015258789062,87.79938507080078,190.1209716796875,-31.80000114440918,-9.15000057220459,14.700000762939453
5.23,137.52294921875,-2.719813108444214,2.145204782485962,-441.1286315917969,139.49310302734375,146.28790283203125,-33.75,-10.800000190734863,15.750000953674316
5.24,121.5871353149414,5.5545477867126465,4.941632270812988,-262.73199462890625,163.0750274658203,164.5405731201172,-32.70000076293945,-10.950000762939453,16.350000381469727
5.259,114.04061889648438,16.548721313476562,11.377246856689453,-102.72128295898438,175.7320098876953,166.40582275390625,-34.80000305175781,-10.350000381469727,17.25
5.263,109.71189880371094,20.83913230895996,21.337125778198242,77.27411651611328,154.14854431152344,206.77488708496094,-33.45000076293945,-12.15000057220459,15.90000057220459
5.27,100.97785186767578,26.048913955688477,22.7161865234375,170.53598022460938,150.151611328125,224.22817993164062,-33.45000076293945,-12.15000057220459,15.90000057220459
5.28,95.1551513671875,26.96828842163086,22.06496238708496,306.2986145019531,149.3522186279297,261.0,-33.75,-13.500000953674316,18.30000114440918
5.29,92.0522689819336,25.129541397094727,21.298818588256836,397.69525146484375,150.95098876953125,263.2649230957031,-32.55000305175781,-14.250000953674316,16.80000114440918
5.3,95.8063735961914,22.90772247314453,20.532672882080078,442.8606262207031,180.5283203125,250.20826721191406,-33.150001525878906,-13.65000057220459,17.100000381469727
5.32,114.8067626953125,15.131354331970215,24.631547927856445,412.2174377441406,211.9709014892578,218.49923706054688,-35.400001525878906,-15.15000057220459,17.700000762939453
5.324,139.3616943359375,36.621707916259766,23.252487182617188,359.32464599609375,287.2465515136719,191.8529815673828,-35.400001525878906,-15.15000057220459,17.700000762939453
5.33,139.8979949951172,41.71657180786133,18.923770904541016,276.8545227050781,350.1316833496094,171.7350616455078,-33.75,-16.950000762939453,18.30000114440918
5.34,140.74075317382812,44.206539154052734,16.395492553710938,111.24808502197266,415.01531982421875,158.545166015625,-33.30000305175781,-17.400001525878906,18.75
5.35,133.19422912597656,43.32547378540039,25.09123420715332,-23.448698043823242,430.3368835449219,171.46859741210938,-34.80000305175781,-18.150001525878906,19.5
5.36,116.95196533203125,38.57537841796875,21.643583297729492,-111.91423797607422,444.5926513671875,163.0750274658203,-33.45000076293945,-20.25,20.700000762939453
5.38,108.94575500488281,33.7486686706543,14.288596153259277,-389.3016662597656,657.3629150390625,120.97396087646484,-33.45000076293945,-20.25,20.700000762939453
5.383,57.0777702331543,-53.70673370361328,-260.4891357421875,-994.1715087890625,327.882080078125,163.20826721191406,-32.25,-21.150001525878906,24.900001525878906
5.39,99.44556427001953,4.098873138427734,14.288596153259277,-524.3981323242188,-340.13934326171875,161.47625732421875,-31.200000762939453,-23.25,26.55000114440918
5.4,78.29997253417969,-5.2480902671813965,-23.252487182617188,11.857580184936523,-316.55743408203125,193.58499145507812,-32.55000305175781,-25.05000114440918,25.350000381469727
5.41,68.7231674194336,25.244462966918945,-85.92311096191406,127.90198516845703,-133.49769592285156,205.97549438476562,-33.150001525878906,-27.900001525878906,23.25
5.42,73.43495178222656,60.946800231933594,6.588842868804932,154.14854431152344,-98.4578857421875,233.68759155273438,-33.150001525878906,-27.900001525878906,23.25
5.439,61.866172790527344,62.70893096923828,28.040889739990234,65.81623077392578,-85.26799011230469,245.0122528076172,-33.150001525878906,-27.900001525878906,23.25
5.443,-1.4939818382263184,23.060951232910156,8.044517517089844,-176.13169860839844,-48.49617004394531,158.81163024902344,-31.500001907348633,-30.900001525878906,22.05000114440918
5.45,-11.951854705810547,25.014619827270508,10.15141487121582,-245.4119415283203,-51.560489654541016,95.66002655029297,-31.200000762939453,-32.55000305175781,21.450000762939453
5.46,-20.149600982666016,32.599449157714844,9.959878921508789,-266.46246337890625,-89.5313949584961,146.42112731933594,-30.900001525878906,-33.0,19.950000762939453
5.47,-29.84132957458496,42.252872467041016,7.6997528076171875,-284.98162841796875,-120.4410400390625,7.9938740730285645,-31.200000762939453,-32.25,18.900001525878906
5.48,-21.75850486755371,45.24083709716797,4.290409564971924,-270.5926513671875,-162.94180297851562,-54.4915771484375,-31.200000762939453,-32.25,18.900001525878906
5.499,-19.345149993896484,46.58158874511719,-1.723825216293335,-244.34608459472656,-178.39662170410156,-64.084228515625,-30.900001525878906,-33.45000076293945,17.700000762939453
5.503,-19.19192123413086,44.35976791381836,-5.631162166595459,-191.18682861328125,-169.60336303710938,-160.94332885742188,-28.500001907348633,-34.35000228881836,16.80000114440918
5.51,-9.423578262329102,33.32728576660156,-7.163451671600342,-152.016845703125,-170.13629150390625,-187.72280883789062,-28.650001525878906,-34.20000076293945,14.100000381469727
5.52,-7.201758861541748,34.20835494995117,-11.262324333190918,-127.90198516845703,-178.79632568359375,-230.4900360107422,-28.200000762939453,-32.55000305175781,14.100000381469727
5.53,-5.784391403198242,38.38384246826172,-15.85919189453125,-168.0045928955078,-194.51760864257812,-301.23583984375,-28.200000762939453,-32.55000305175781,14.100000381469727
5.54,11.492168426513672,37.27293395996094,-35.0128059387207,-66.61561584472656,-179.72894287109375,-371.5819091796875,-27.750001907348633,-31.200000762939453,11.40000057220459
5.559,55.12409973144531,12.411541938781738,-72.93695831298828,176.26492309570312,-179.72894287109375,-394.4976806640625,-28.650001525878906,-31.500001907348633,9.300000190734863
5.563,83.6629867553711,5.899312973022461,-32.331298828125,433.93414306640625,-225.42726135253906,-440.72894287109375,-25.950000762939453,-27.600000381469727,9.300000190734863
5.57,92.62687683105469,3.6391866207122803,-36.8515510559082,543.7166748046875,-231.02296447753906,-441.1286315917969,-25.950000762939453,-27.600000381469727,9.300000190734863
5.58,98.90926361083984,1.072602391242981,-35.28095626831055,646.0382690429688,-201.17916870117188,-493.6217346191406,-25.950000762939453,-27.600000381469727,9.300000190734863
5.59,114.57691955566406,10.113107681274414,-30.109479904174805,691.4700927734375,-161.07656860351562,-521.2006225585938,-25.80000114440918,-25.80000114440918,6.900000095367432
5.6,136.45034790039062,25.933992385864258,-13.905523300170898,696.1332397460938,-99.3905029296875,-578.8897094726562,-27.750001907348633,-23.850000381469727,8.700000762939453
5.619,171.1949920654297,41.60165023803711,9.155426979064941,589.0153198242188,-111.11485290527344,-504.679931640625,-25.500001907348633,-24.750001907348633,5.400000095367432
5.622,279.83428955078125,67.91871643066406,66.38642120361328,456.3169860839844,-150.95098876953125,-403.8238830566406,-25.500001907348633,-24.750001907348633,5.400000095367432
5.63,289.1429443359375,66.73119354248047,79.06611633300781,276.7212829589844,-166.2725830078125,-400.22662353515625,-25.500001907348633,-24.750001907348633,5.400000095367432
5.64,293.2801208496094,54.31964874267578,79.71733856201172,99.79019927978516,-189.45481872558594,-305.6324462890625,-24.900001525878906,-22.950000762939453,6.750000476837158
5.65,287.8788146972656,32.369606018066406,46.083595275878906,-53.95865249633789,-207.97396850585938,-254.73812866210938,-24.0,-21.900001525878906,4.650000095367432
5.66,282.4775085449219,7.201758861541748,43.13393783569336,-69.4134750366211,-228.0918731689453,-227.02603149414062,-25.500001907348633,-23.850000381469727,5.100000381469727
5.679,248.88204956054688,-18.272546768188477,6.665457725524902,43.96630859375,-217.69984436035156,-155.08116149902344,-25.500001907348633,-21.600000381469727,3.9000000953674316
5.683,152.654296875,-31.641769409179688,-0.4213795065879822,61.81929397583008,-194.6508331298828,-132.43185424804688,-25.200000762939453,-21.75,3.750000238418579
5.69,135.03297424316406,-18.272546768188477,-1.9919757843017578,23.04900360107422,-177.19754028320312,-130.96630859375,-25.200000762939453,-21.75,3.750000238418579
5.7,113.04462432861328,-1.3024457693099976,-8.427590370178223,1.1990811824798584,-119.64165496826172,-131.0995330810547,-24.450000762939453,-21.75,3.750000238418579
5.71,93.16317749023438,12.947842597961426,-14.480132102966309,18.91883659362793,-69.14701080322266,-151.48391723632812,-23.700000762939453,-21.450000762939453,3.750000238418579
5.72,81.4028549194336,28.8453426361084,-2.719813108444214,14.788667678833008,-36.10566711425781,-160.01071166992188,-24.0,-21.900001525878906,4.650000095367432
5.739,72.51557922363281,37.00477981567383,9.921571731567383,-20.251148223876953,-30.110260009765625,-36.771820068359375,-25.500001907348633,-23.100000381469727,5.850000381469727
5.742,55.12409973144531,14.633360862731934,8.580819129943848,-20.38437843322754,-13.456355094909668,3.597243309020996,-25.650001525878906,-24.150001525878906,4.5
5.75,50.41231155395508,8.810662269592285,6.052541732788086,10.258805274963379,14.92189884185791,9.459418296813965,-25.650001525878906,-24.150001525878906,4.5
5.76,41.48672866821289,-1.5322890281677246,3.485957622528076,93.12863159179688,52.89280319213867,53.29249572753906,-25.650001525878906,-22.5,6.0
5.77,35.93217849731445,-7.048529624938965,2.5282769203186035,173.46707153320312,80.8713607788086,81.27105712890625,-27.150001525878906,-22.5,6.300000190734863
5.78,25.39769172668457,-13.982137680053711,-0.4213795065879822,194.117919921875,97.12557220458984,85.66768646240234,-27.150001525878906,-22.5,6.300000190734863
5.799,20.187908172607422,-16.778566360473633,3.2178070545196533,161.34303283691406,120.04134368896484,110.04900360107422,-28.200000762939453,-24.150001525878906,9.0
5.804,15.85919189453125,-22.677879333496094,10.917559623718262,37.03828430175781,114.84532928466797,128.43490600585938,-28.500001907348633,-24.750001907348633,9.450000762939453
5.81,14.97812557220459,-23.099258422851562,11.875240325927734,-18.2526798248291,102.45481872558594,139.89280700683594,-29.700000762939453,-24.150001525878906,11.550000190734863
5.82,16.778566360473633,-15.437812805175781,13.675680160522461,-128.83460998535156,106.85145568847656,209.03981018066406,-30.000001907348633,-24.30000114440918,12.0
5.83,12.947842597961426,-23.405715942382812,7.508216381072998,-241.54823303222656,109.64930725097656,225.96017456054688,-30.000001907348633,-24.30000114440918,12.0
5.84,8.274360656738281,-21.605276107788086,4.405331134796143,-320.28790283203125,129.50076293945312,161.47625732421875,-31.05000114440918,-26.250001907348633,11.40000057220459
5.859,2.298433542251587,-17.851167678833008,-1.3407529592514038,-318.2894287109375,168.67074584960938,157.4793243408203,-33.30000305175781,-28.950000762939453,12.0
5.863,-6.971915245056152,-6.282385349273682,-0.6129156351089478,-289.37823486328125,158.81163024902344,156.14700317382812,-32.55000305175781,-28.500001907348633,13.500000953674316
5.87,-7.738059997558594,-4.6734819412231445,0.5363011956214905,-190.65390014648438,164.67381286621094,166.2725830078125,-31.650001525878906,-29.850000381469727,14.100000381469727
5.88,-14.211980819702148,-1.9919757843017578,0.38307225704193115,-21.583459854125977,184.5252685546875,159.3445587158203,-31.650001525878906,-29.850000381469727,14.100000381469727
5.89,-16.433799743652344,0.1149216815829277,3.1028854846954346,145.75497436523438,163.4747314453125,166.53904724121094,-32.55000305175781,-29.250001907348633,16.05000114440918
5.909,-19.421764373779297,1.8387469053268433,5.286397457122803,233.68759155273438,65.15007781982422,94.19448852539062,-33.0,-30.150001525878906,16.80000114440918
5.913,21.298818588256836,6.205770969390869,-19.153614044189453,-522.399658203125,-172.00152587890625,-184.39202880859375,-31.650001525878906,-31.500001907348633,16.650001525878906
5.92,43.01901626586914,51.1401481628418,-115.91767120361328,-620.5911254882812,-90.33078002929688,-165.2067413330078,-33.150001525878906,-29.100000381469727,18.150001525878906
5.93,33.48051834106445,32.63775634765625,-53.553504943847656,-484.1623229980469,-9.72588062286377,-175.19908142089844,-33.150001525878906,-29.100000381469727,18.150001525878906
5.94,21.14558982849121,12.411541938781738,16.127342224121094,-222.36293029785156,-9.592649459838867,-140.1592559814453,-33.150001525878906,-28.80000114440918,16.650001525878906
5.95,30.4925537109375,1.1109095811843872,31.641769409179688,-22.51607894897461,-37.304744720458984,-140.1592559814453,-33.900001525878906,-30.600000381469727,15.90000057220459
5.96,44.35976791381836,-6.933608055114746,35.43418502807617,107.51760864257812,-73.67687225341797,-160.6768798828125,-34.80000305175781,-28.950000762939453,16.80000114440918
5.979,72.89865112304688,-12.641385078430176,42.94240188598633,251.94027709960938,-193.45175170898438,-187.4563446044922,-33.75,-27.750001907348633,15.750000953674316
5.983,133.65391540527344,-5.2480902671813965,59.87419509887695,251.80703735351562,-203.8437957763672,-182.92648315429688,-33.75,-27.750001907348633,15.750000953674316
5.99,145.29931640625,2.8347349166870117,60.946800231933594,230.62327575683594,-232.62173461914062,-105.65237426757812,-34.5,-25.500001907348633,16.05000114440918
6.0,163.26539611816406,15.131354331970215,51.676448822021484,76.60796356201172,-194.78407287597656,-33.30780792236328,-34.05000305175781,-23.850000381469727,14.250000953674316
6.01,170.08409118652344,26.700138092041016,29.611486434936523,-90.33078002929688,-114.97856140136719,98.05818939208984,-35.400001525878906,-24.900001525878906,15.15000057220459
6.029,170.69700622558594,17.659631729125977,17.1999454498291,-245.0122528076172,-34.10719680786133,154.9479217529297,-36.0,-24.30000114440918,14.250000953674316
6.032,165.44891357421875,3.907337188720703,17.42978858947754,-307.63092041015625,6.5283308029174805,163.4747314453125,-36.0,-24.30000114440918,14.250000953674316
6.04,145.60577392578125,7.316680431365967,21.030668258666992,-271.7917175292969,22.382848739624023,187.1898956298828,-34.80000305175781,-25.05000114440918,13.950000762939453
6.05,123.11943054199219,11.03248119354248,15.974113464355469,-199.713623046875,33.97396469116211,195.5834503173828,-34.20000076293945,-26.100000381469727,15.15000057220459
6.06,100.90123748779297,12.258312225341797,8.427590370178223,-139.35987854003906,61.28636932373047,202.11178588867188,-34.20000076293945,-26.100000381469727,13.050000190734863
6.07,86.68925476074219,11.568782806396484,2.145204782485962,-94.59417724609375,107.78407287597656,200.646240234375,-36.0,-27.000001907348633,13.950000762939453
6.08,87.4170913696289,11.262324333190918,4.213795185089111,-19.98468589782715,123.63858795166016,203.44410705566406,-36.0,-27.000001907348633,13.950000762939453
6.099,98.10481262207031,16.548721313476562,4.175487995147705,99.92343139648438,188.2557373046875,232.35528564453125,-34.20000076293945,-27.600000381469727,14.100000381469727
6.103,121.43390655517578,22.984336853027344,11.72201156616211,135.4961700439453,193.45175170898438,246.3445587158203,-34.20000076293945,-27.600000381469727,14.100000381469727
6.11,124.80494689941406,23.980323791503906,15.284584045410156,184.6584930419922,216.36752319335938,251.5405731201172,-33.75,-28.200000762939453,15.000000953674316
6.12,126.18400573730469,23.788787841796875,20.992361068725586,270.8591003417969,206.5084228515625,240.61561584472656,-31.80000114440918,-29.700000762939453,15.000000953674316
6.13,123.27265930175781,16.395492553710938,36.35355758666992,243.14700317382812,210.77182006835938,219.16539001464844,-31.80000114440918,-29.700000762939453,15.000000953674316
6.14,122.50651550292969,16.318878173828125,55.12409973144531,177.99693298339844,212.5038299560547,207.17457580566406,-31.80000114440918,-29.700000762939453,17.25
6.153,131.5087127685547,33.94020462036133,46.46666717529297,163.6079559326172,249.94180297851562,183.05972290039062,-32.55000305175781,-30.450000762939453,17.55000114440918
6.16,131.31716918945312,34.3998908996582,26.355371475219727,110.98162078857422,292.5758056640625,161.34303283691406,-31.05000114440918,-30.900001525878906,18.0
6.17,126.95014953613281,35.35757064819336,21.107282638549805,10.258805274963379,349.5987548828125,143.2235870361328,-30.150001525878906,-30.30000114440918,19.200000762939453
6.18,118.71409606933594,40.91211700439453,16.127342224121094,-67.814697265625,403.15771484375,150.81776428222656,-30.150001525878906,-30.30000114440918,19.200000762939453
6.19,111.2824935913086,45.470680236816406,9.500192642211914,-151.88360595703125,445.5252685546875,166.1393585205078,-30.150001525878906,-30.30000114440918,19.200000762939453
6.209,108.10299682617188,41.21857833862305,6.512228488922119,-260.7335205078125,494.4211120605469,171.20213317871094,-28.80000114440918,-33.150001525878906,21.600000381469727
6.213,101.20769500732422,33.212364196777344,2.451662540435791,-734.6370239257812,776.2052001953125,144.55589294433594,-28.80000114440918,-33.900001525878906,23.850000381469727
6.22,53.783348083496094,-40.83550262451172,-310.4034729003906,-1619.9586181640625,687.7396240234375,350.93109130859375,-27.150001525878906,-36.150001525878906,24.750001907348633
6.23,73.16680145263672,-40.18428039550781,-65.08397674560547,-1258.7686767578125,-381.8407287597656,129.50076293945312,-25.80000114440918,-36.60000228881836,23.850000381469727
6.24,102.66336822509766,-0.6129156351089478,-14.863204002380371,-313.6263427734375,-421.9433288574219,128.83460998535156,-25.80000114440918,-36.60000228881836,23.850000381469727
6.25,78.9511947631836,58.61005783081055,-131.8534698486328,167.73812866210938,-194.2511444091797,120.17457580566406,-26.250001907348633,-38.55000305175781,18.0
6.26,68.83808898925781,74.2777099609375,-5.861005783081055,405.6891174316406,-127.10260009765625,185.72434997558594,-25.80000114440918,-38.55000305175781,16.5
6.273,57.1160774230957,73.7031021118164,-1.2258312702178955,279.9188232421875,-49.69525146484375,228.0918731689453,-25.05000114440918,-41.70000076293945,18.0
6.28,27.044902801513672,55.43055725097656,-7.967903137207031,157.4793243408203,-58.62174606323242,224.62786865234375,-25.500001907348633,-40.95000076293945,19.05000114440918
6.29,19.536685943603516,45.54729461669922,11.530475616455078,57.289432525634766,-110.44869232177734,193.58499145507812,-25.500001907348633,-40.95000076293945,19.05000114440918
6.3,5.363011837005615,29.03687858581543,16.47210693359375,-4.529861927032471,-141.0918731689453,133.09800720214844,-24.0,-42.900001525878906,16.80000114440918
6.31,-11.453861236572266,25.665842056274414,7.661445617675781,-63.28483963012695,-150.41806030273438,59.68759536743164,-24.450000762939453,-42.60000228881836,17.700000762939453
6.33,-18.54069709777832,23.52063751220703,4.596867084503174,-150.2848358154297,-189.1883544921875,-14.655436515808105,-24.30000114440918,-43.95000076293945,18.0
6.333,-23.52063751220703,27.811046600341797,0.038307227194309235,-237.2848358154297,-222.89585876464844,-93.52832794189453,-24.30000114440918,-43.95000076293945,18.0
6.34,-24.89969825744629,25.742456436157227,-3.754108190536499,-225.42726135253906,-218.89892578125,-150.01837158203125,-24.30000114440918,-43.95000076293945,18.0
6.35,-19.306842803955078,20.341136932373047,-5.822698593139648,-131.63246154785156,-203.71055603027344,-186.79019165039062,-26.250001907348633,-43.650001525878906,16.5
6.36,-13.637372970581055,17.8128604888916,-3.179499864578247,-23.715160369873047,-213.70291137695312,-234.8866729736328,-24.750001907348633,-45.150001525878906,14.250000953674316
6.37,-3.7158010005950928,23.903709411621094,-1.8770540952682495,21.183767318725586,-227.02603149414062,-271.1255798339844,-26.250001907348633,-43.20000076293945,14.700000762939453
6.38,13.79060173034668,30.454246520996094,-2.719813108444214,39.03675079345703,-242.747314453125,-323.6186828613281,-27.900001525878906,-43.5,15.600000381469727
6.392,44.398075103759766,24.44001007080078,-18.4257755279541,106.58499145507812,-231.02296447753906,-368.2511291503906,-27.900001525878906,-43.5,15.600000381469727
6.4,90.9030532836914,14.250288963317871,-43.9766960144043,183.5926513671875,-204.6431884765625,-377.9770202636719,-29.250001907348633,-40.5,14.250000953674316
6.41,113.77246856689453,18.272546768188477,-44.16823196411133,338.6737976074219,-207.0413360595703,-397.56201171875,-30.30000114440918,-38.55000305175781,14.250000953674316
6.42,129.3251953125,28.960264205932617,-33.13574981689453,496.15313720703125,-225.2940216064453,-401.29248046875,-31.950000762939453,-37.650001525878906,14.850000381469727
6.43,128.86550903320312,19.728221893310547,-30.60747528076172,590.21435546875,-217.43338012695312,-438.59722900390625,-33.0,-36.30000305175781,14.250000953674316
6.449,122.65974426269531,15.093047142028809,-19.07699966430664,609.0,-175.59877014160156,-505.0796203613281,-33.0,-36.30000305175781,14.250000953674316
6.453,129.63165283203125,17.391481399536133,2.604891538619995,597.4088745117188,-143.09034729003906,-500.81622314453125,-33.75,-32.85000228881836,15.000000953674316
6.46,169.81593322753906,34.782962799072266,25.014619827270508,538.1209716796875,-139.49310302734375,-486.8269348144531,-33.900001525878906,-29.850000381469727,14.850000381469727
6.47,201.99400329589844,40.22258758544922,37.46446990966797,389.70135498046875,-160.94332885742188,-440.0627746582031,-36.45000076293945,-27.150001525878906,16.350000381469727
6.48,230.53289794921875,58.18867874145508,55.89024353027344,175.0658416748047,-186.92343139648438,-347.86676025390625,-35.55000305175781,-26.55000114440918,17.55000114440918
6.49,247.15823364257812,50.450618743896484,69.06793212890625,17.32006072998047,-213.4364471435547,-332.41192626953125,-35.55000305175781,-26.55000114440918,17.55000114440918
6.51,246.43038940429688,16.28057098388672,34.55311965942383,-25.18070411682129,-209.1730499267578,-298.5711975097656,-35.55000305175781,-26.55000114440918,17.55000114440918
6.513,245.01303100585938,0.5363011956214905,13.292608261108398,71.81163787841797,-154.28176879882812,-188.65542602539062,-39.0,-20.400001525878906,12.750000953674316
6.52,201.91738891601562,-11.683704376220703,-12.105083465576172,107.78407287597656,-130.83306884765625,-172.2679901123047,-39.0,-20.400001525878906,12.750000953674316
6.53,170.5437774658203,-22.409727096557617,-1.5705963373184204,122.03981018066406,-144.42266845703125,-163.34149169921875,-38.70000076293945,-18.30000114440918,13.350000381469727
6.54,130.4744110107422,-5.5545477867126465,5.439626216888428,51.4272575378418,-156.81317138671875,-137.76109313964844,-39.45000076293945,-17.100000381469727,13.350000381469727
6.55,107.56669616699219,9.615114212036133,-4.175487995147705,-2.6646246910095215,-115.51148223876953,-136.82847595214844,-39.45000076293945,-17.100000381469727,13.350000381469727
6.569,89.29414367675781,16.47210693359375,-1.1109095811843872,-5.728943347930908,-61.41960144042969,-141.89126586914062,-41.25,-15.000000953674316,11.40000057220459
6.573,79.48749542236328,25.70414924621582,-0.38307225704193115,33.17457962036133,-6.128636837005615,-153.34915161132812,-38.55000305175781,-14.550000190734863,11.40000057220459
6.58,71.05990600585938,34.62973403930664,1.1492167711257935,27.578866958618164,15.854516983032227,-135.89585876464844,-38.55000305175781,-14.550000190734863,11.40000057220459
6.59,69.71915435791016,31.488540649414062,3.179499864578247,30.509952545166016,36.238895416259766,-108.58345794677734,-37.80000305175781,-13.050000190734863,12.0
6.6,65.04566955566406,20.379444122314453,3.4093432426452637,67.814697265625,51.29402542114258,-64.48391723632812,-37.80000305175781,-13.050000190734863,12.0
6.61,60.372188568115234,5.861005783081055,4.865017890930176,126.03675079345703,65.15007781982422,-24.914241790771484,-39.30000305175781,-14.250000953674316,12.0
6.63,54.54949188232422,-6.282385349273682,6.320692539215088,175.865234375,76.74119567871094,1.1990811824798584,-37.95000076293945,-15.15000057220459,12.300000190734863
6.633,48.91832733154297,-14.786589622497559,11.185709953308105,200.91270446777344,69.67993927001953,20.517610549926758,-39.150001525878906,-13.65000057220459,13.050000190734863
6.64,37.387855529785156,-18.847156524658203,10.649409294128418,178.5298614501953,62.085758209228516,47.0306282043457,-39.150001525878906,-13.65000057220459,13.050000190734863
6.65,29.688100814819336,-17.085023880004883,11.568782806396484,135.89585876464844,57.15620040893555,124.30474090576172,-39.150001525878906,-13.65000057220459,13.050000190734863
6.66,20.341136932373047,-19.843143463134766,8.389283180236816,73.0107192993164,80.33843994140625,104.7197494506836,-39.75,-14.250000953674316,13.500000953674316
6.67,11.760318756103516,-16.548721313476562,8.734047889709473,15.321592330932617,68.88054656982422,190.78712463378906,-37.95000076293945,-12.450000762939453,15.15000057220459
6.69,7.2783732414245605,-18.34916114807129,4.865017890930176,-80.73812866210938,75.67534637451172,159.47779846191406,-37.05000305175781,-15.000000953674316,15.450000762939453
6.694,1.647210717201233,-20.41775131225586,2.5282769203186035,-153.0826873779297,91.52986145019531,157.612548828125,-37.05000305175781,-15.000000953674316,15.450000762939453
6.7,-3.2561142444610596,-13.713987350463867,-1.3024457693099976,-166.67227172851562,115.11178588867188,139.6263427734375,-37.05000305175781,-15.000000953674316,15.450000762939453
6.71,-5.286397457122803,-8.35097599029541,-2.1068975925445557,-123.77182006835938,126.16998291015625,155.34762573242188,-38.55000305175781,-16.200000762939453,16.5
6.72,-5.592854976654053,-2.030282974243164,-2.8347349166870117,-28.77794647216797,146.42112731933594,148.8192901611328,-38.55000305175781,-17.400001525878906,16.5
6.73,-5.861005783081055,2.298433542251587,-2.911349296569824,86.3338394165039,178.13015747070312,149.48544311523438,-37.20000076293945,-18.30000114440918,17.400001525878906
6.75,-2.4899697303771973,3.9839515686035156,-2.0685901641845703,179.4624786376953,193.3185272216797,153.7488555908203,-37.20000076293945,-18.30000114440918,17.400001525878906
6.753,4.405331134796143,4.788403511047363,-2.145204782485962,-122.03981018066406,193.85145568847656,116.71056365966797,-38.70000076293945,-19.80000114440918,19.200000762939453
6.76,68.1485595703125,97.18543243408203,-206.62918090820312,-352.6630859375,173.86676025390625,50.09494400024414,-36.30000305175781,-20.400001525878906,20.100000381469727
6.77,64.50936889648438,46.083595275878906,-53.668426513671875,-278.9862060546875,153.0826873779297,8.793261528015137,-38.55000305175781,-19.650001525878906,22.05000114440918
6.78,64.85413360595703,7.738059997558594,16.81687355041504,-66.74884796142578,47.56355285644531,-128.96783447265625,-37.5,-20.100000381469727,20.55000114440918
6.79,83.0500717163086,-1.4173674583435059,61.98109436035156,164.4073486328125,-93.79479217529297,-208.24041748046875,-37.5,-20.100000381469727,20.55000114440918
6.81,109.98004913330078,-3.6774938106536865,78.49150848388672,321.88665771484375,-243.01377868652344,-243.5467071533203,-37.80000305175781,-18.450000762939453,21.600000381469727
6.813,143.652099609375,6.742072105407715,65.8501205444336,248.34303283691406,-276.4548034667969,-184.6584930419922,-37.95000076293945,-15.90000057220459,20.400001525878906
6.82,146.37191772460938,37.924156188964844,8.887276649475098,29.177640914916992,-191.58651733398438,-129.36753845214844,-37.95000076293945,-15.600000381469727,18.150001525878906
6.83,123.7706527709961,53.59181213378906,-60.257266998291016,-243.41346740722656,36.905052185058594,-73.0107192993164,-41.25,-17.400001525878906,17.55000114440918
6.84,65.2755126953125,2.604891538619995,-52.05952072143555,-248.2097930908203,126.5696792602539,-79.13935852050781,-37.20000076293945,-15.15000057220459,18.450000762939453
6.85,37.234622955322266,-9.040505409240723,-26.700138092041016,-211.30474853515625,119.5084228515625,-59.68759536743164,-37.20000076293945,-15.15000057220459,18.450000762939453
6.87,48.99494171142578,7.967903137207031,40.452430725097656,-140.5589599609375,12.923430442810059,-5.8621745109558105,-39.150001525878906,-15.600000381469727,18.900001525878906
6.873,84.00775146484375,17.697938919067383,66.9610366821289,23.448698043823242,-143.75650024414062,90.33078002929688,-38.25,-16.950000762939453,19.80000114440918
6.88,126.52877044677734,27.351360321044922,61.71294403076172,139.6263427734375,-197.44869995117188,151.084228515625,-39.150001525878906,-16.80000114440918,18.450000762939453
6.89,134.76483154296875,33.13574981689453,45.66221618652344,301.9019775390625,-195.84991455078125,224.3614044189453,-37.650001525878906,-18.30000114440918,17.700000762939453
6.9,131.35548400878906,33.557132720947266,16.1656494140625,420.0780944824219,-102.18836212158203,224.62786865234375,-37.650001525878906,-18.30000114440918,17.700000762939453
6.91,127.75460052490234,31.22039031982422,-3.026270866394043,460.4471435546875,13.58958625793457,227.82540893554688,-37.80000305175781,-18.450000762939453,16.80000114440918
6.93,127.71629333496094,26.585216522216797,-13.445837020874023,455.3843688964844,134.43031311035156,195.050537109375,-38.70000076293945,-19.80000114440918,17.100000381469727
6.933,116.87535095214844,22.984336853027344,-7.7763671875,441.39508056640625,210.1056671142578,158.27871704101562,-39.0,-17.700000762939453,19.05000114440918
6.94,94.73377227783203,26.891674041748047,15.591041564941406,444.5926513671875,203.71055603027344,158.27871704101562,-38.70000076293945,-20.55000114440918,20.700000762939453
6.95,90.40505981445312,28.232425689697266,20.034679412841797,452.9862060546875,175.33230590820312,162.40887451171875,-38.70000076293945,-20.55000114440918,20.700000762939453
6.96,90.94136047363281,29.03687858581543,22.026655197143555,438.4639892578125,164.80703735351562,186.12403869628906,-39.45000076293945,-19.05000114440918,22.200000762939453
6.97,95.42330169677734,30.26270866394043,22.409727096557617,406.8882141113281,178.6630859375,188.65542602539062,-37.05000305175781,-19.650001525878906,23.100000381469727
6.99,100.25001525878906,28.002582550048828,18.617311477661133,385.4379577636719,197.18223571777344,175.19908142089844,-37.80000305175781,-19.650001525878906,23.850000381469727
6.993,105.22994995117188,22.06496238708496,18.004396438598633,359.8575744628906,220.8973846435547,170.66921997070312,-36.45000076293945,-20.55000114440918,25.200000762939453
7.0,102.01214599609375,16.089035034179688,21.98834800720215,330.81317138671875,229.15773010253906,163.0750274658203,-36.45000076293945,-20.55000114440918,25.200000762939453
7.01,101.7056884765625,15.24627685546875,25.70414924621582,282.4502258300781,240.48239135742188,141.89126586914062,-37.80000305175781,-20.100000381469727,26.400001525878906
7.02,99.2157211303711,19.843143463134766,29.15180015563965,246.61102294921875,224.62786865234375,126.83613586425781,-36.30000305175781,-20.400001525878906,28.200000762939453
7.03,96.22775268554688,23.060951232910156,20.11129379272461,208.77334594726562,247.41041564941406,118.44257354736328,-35.400001525878906,-19.80000114440918,28.80000114440918
