time,accel_x,accel_y,accel_z,gyro_x,gyro_y,gyro_z,mag_x,mag_y,mag_z
0.0,1.5852450132369995,-9.452845573425293,1.6354942321777344,0.010690141469240189,0.038637224584817886,-0.012522736564278603,-11.195556640625,49.19614028930664,-57.04472732543945
0.02,1.6857434511184692,-9.527023315429688,1.6103696823120117,0.01237002108246088,-0.009773843921720982,-0.004123340360820293,-10.91786003112793,49.75153350830078,-58.08243179321289
0.023,1.7096717357635498,-9.533004760742188,1.6043875217437744,0.015577062964439392,-0.02519819140434265,0.0012217304902151227,-10.800935745239258,49.86845779418945,-58.126277923583984
0.03,1.7012969255447388,-9.527023315429688,1.6115659475326538,0.022143863141536713,-0.0455094613134861,0.00931569468230009,-10.77170467376709,49.2984504699707,-57.38088607788086
0.04,1.6905291080474854,-9.515058517456055,1.6666009426116943,0.028557950630784035,-0.06490442901849747,0.010995574295520782,-11.107863426208496,50.29231262207031,-57.322418212890625
0.05,1.6151552200317383,-9.519845008850098,1.657029628753662,0.025503622367978096,-0.06963863968849182,0.009010262787342072,-11.23940372467041,49.225372314453125,-57.70242691040039
0.06,1.5876377820968628,-9.482755661010742,1.6785650253295898,0.023060161620378494,-0.06169738993048668,0.005345070734620094,-11.444022178649902,50.146156311035156,-58.170127868652344
0.081,1.592423439025879,-9.57368278503418,1.6941183805465698,0.019547687843441963,-0.05451972037553787,0.00015271631127689034,-11.575562477111816,50.40924072265625,-57.67319107055664
0.084,1.557727575302124,-9.598808288574219,1.6199408769607544,0.02580905519425869,-0.039248090237379074,0.0064140851609408855,-11.341712951660156,49.98538589477539,-57.2347297668457
0.09,1.5230315923690796,-9.578468322753906,1.6342978477478027,0.035124752670526505,-0.032070424407720566,0.0088575454428792,-11.590178489685059,49.80999755859375,-57.45396041870117
0.1,1.514656662940979,-9.549755096435547,1.6582260131835938,0.03894266113638878,-0.030237827450037003,0.009773843921720982,-11.312481880187988,50.3800048828125,-58.18474197387695
0.11,1.5122638940811157,-9.53659439086914,1.621137261390686,0.03344487026333809,-0.028557950630784035,0.011301006190478802,-11.254019737243652,49.82461166381836,-58.360130310058594
0.12,1.534995675086975,-9.577272415161133,1.5972089767456055,0.03191770985722542,-0.020922133699059486,0.006261368282139301,-11.546331405639648,50.30692672729492,-57.2347297668457
0.139,1.6115659475326538,-9.608378410339355,1.6175479888916016,0.029474247246980667,-0.010231993161141872,-0.007024950347840786,-11.137094497680664,50.3215446472168,-57.35165023803711
0.143,1.7443677186965942,-9.622735977172852,1.5864413976669312,0.02825251594185829,-0.01160643994808197,-0.009162978269159794,-10.947091102600098,49.7223014831543,-58.25782012939453
0.15,1.7491532564163208,-9.613164901733398,1.5828521251678467,0.02932153083384037,-0.015118913725018501,-0.011759155429899693,-10.96170711517334,49.35691452026367,-57.48318862915039
0.16,1.7443677186965942,-9.525826454162598,1.574477195739746,0.027183502912521362,-0.013744467869400978,-0.016340645030140877,-11.093247413635254,49.53229904174805,-57.132415771484375
0.17,1.7611173391342163,-9.479166984558105,1.5876377820968628,0.02535090781748295,-0.010231993161141872,-0.02168571576476097,-11.341712951660156,50.043846130371094,-57.527042388916016
0.18,1.7670994997024536,-9.517451286315918,1.537388563156128,0.022602012380957603,-0.020158551633358,-0.031154125928878784,-11.385560035705566,49.86845779418945,-57.39550018310547
0.199,1.734796404838562,-9.56052303314209,1.5110673904418945,0.024129178375005722,-0.03695734962821007,-0.03405573591589928,-11.034785270690918,49.73691940307617,-56.97164535522461
0.204,1.6701900959014893,-9.58923625946045,1.5014961957931519,0.030543262138962746,-0.06261368840932846,-0.021991148591041565,-11.370944023132324,49.44460678100586,-58.140892028808594
0.21,1.6031910181045532,-9.628718376159668,1.5565310716629028,0.02977968007326126,-0.07757988572120667,-0.01664607785642147,-11.32709789276123,49.7223014831543,-57.04472732543945
0.22,1.537388563156128,-9.6526460647583,1.6043875217437744,0.01618792861700058,-0.09162978827953339,-0.010537425056099892,-11.283249855041504,49.473838806152344,-58.0970458984375
0.23,1.5038889646530151,-9.677770614624023,1.6354942321777344,0.0012217304902151227,-0.08261951804161072,-0.00931569468230009,-11.47325325012207,49.56153106689453,-57.43934631347656
0.24,1.4368900060653687,-9.644271850585938,1.6187443733215332,-0.010537425056099892,-0.055283304303884506,-0.014202617108821869,-11.312481880187988,49.89768981933594,-57.20549774169922
0.259,1.5014961957931519,-9.488738059997559,1.6414762735366821,-0.011453723534941673,-0.028557950630784035,-0.020616700872778893,-11.005553245544434,49.663841247558594,-57.65857696533203
0.262,1.5122638940811157,-9.461220741271973,1.6378871202468872,-0.010690141469240189,-0.030543262138962746,-0.02229658141732216,-10.844781875610352,49.92692184448242,-57.103187561035156
0.27,1.5134602785110474,-9.462416648864746,1.6414762735366821,-0.006566801108419895,-0.035582900047302246,-0.023976460099220276,-11.546331405639648,49.473838806152344,-58.053199768066406
0.28,1.454836130142212,-9.507880210876465,1.6175479888916016,0.004886921960860491,-0.04077525436878204,-0.02382374368607998,-11.6047945022583,50.146156311035156,-57.527042388916016
0.29,1.415354609489441,-9.528219223022461,1.6331013441085815,0.02687807008624077,-0.03237585723400116,-0.02168571576476097,-11.736333847045898,49.41537857055664,-57.936275482177734
0.3,1.3866406679153442,-9.531808853149414,1.6821541786193848,0.035124752670526505,-0.016798794269561768,-0.01863138936460018,-11.312481880187988,50.0,-58.00935745239258
0.32,1.4416755437850952,-9.517451286315918,1.6689937114715576,0.033139437437057495,-0.0044287727214396,-0.015577062964439392,-11.137094497680664,50.263084411621094,-58.06781768798828
0.323,1.4297115802764893,-9.533004760742188,1.628315806388855,0.035735614597797394,-0.0050396379083395,-0.012217304669320583,-11.268634796142578,49.97077178955078,-57.98012161254883
0.33,1.447657585144043,-9.509077072143555,1.6354942321777344,0.042760565876960754,-0.01114829070866108,-0.010231993161141872,-11.297865867614746,49.42999267578125,-58.33089828491211
0.34,1.5266207456588745,-9.43489933013916,1.6642080545425415,0.05253440886735916,-0.041691552847623825,-0.005955935921519995,-11.166325569152832,49.6784553527832,-58.49167251586914
0.35,1.5756735801696777,-9.367899894714355,1.6618152856826782,0.05054909735918045,-0.07437284290790558,-0.006566801108419895,-11.283249855041504,49.37152862548828,-57.79011917114258
0.36,1.659422516822815,-9.385847091674805,1.5708880424499512,0.05864306166768074,-0.11316278576850891,-0.006719517521560192,-11.268634796142578,49.853843688964844,-57.90704345703125
0.379,1.7515461444854736,-9.598808288574219,1.4715858697891235,0.11087203770875931,-0.16722436249256134,0.001679879380390048,-12.028646469116211,49.663841247558594,-58.40397644042969
0.382,1.7802599668502808,-9.608378410339355,1.4536396265029907,0.11545352637767792,-0.17027868330478668,0.001679879380390048,-11.6047945022583,49.853843688964844,-58.02397155761719
0.39,1.8005989789962769,-9.600004196166992,1.4715858697891235,0.1365283876657486,-0.17058412730693817,0.0064140851609408855,-11.341712951660156,49.283836364746094,-58.243202209472656
0.4,1.7718851566314697,-9.42772102355957,1.4823535680770874,0.13271047174930573,-0.16294831037521362,0.005345070734620094,-11.166325569152832,49.86845779418945,-58.360130310058594
0.41,1.734796404838562,-9.241080284118652,1.3866406679153442,0.11102475225925446,-0.14996741712093353,-0.0013744467869400978,-11.341712951660156,49.98538589477539,-58.447818756103516
0.42,1.7048860788345337,-9.018548011779785,1.2418749332427979,0.0907134935259819,-0.1463022232055664,-0.015118913725018501,-11.940953254699707,50.07307434082031,-58.98860168457031
0.439,1.590030550956726,-9.11426067352295,0.8566304445266724,0.10155634582042694,-0.15821409225463867,-0.07880160957574844,-11.356328010559082,49.663841247558594,-57.86320114135742
0.443,1.5960125923156738,-9.192028045654297,0.8207381367683411,0.11621711403131485,-0.15913039445877075,-0.10201448947191238,-11.341712951660156,49.6784553527832,-58.3162841796875
0.45,1.5290136337280273,-9.586843490600586,0.784845769405365,0.13973543047904968,-0.1569923609495163,-0.1391245573759079,-11.458637237548828,49.92692184448242,-58.40397644042969
0.46,1.4823535680770874,-9.8871431350708,0.9798608422279358,0.14538592100143433,-0.14553864300251007,-0.1788308024406433,-11.619409561157227,49.663841247558594,-58.06781768798828
0.47,1.3028918504714966,-9.90149974822998,1.2957134246826172,0.07742717117071152,-0.13209959864616394,-0.21166479587554932,-11.897106170654297,49.210758209228516,-58.871673583984375
0.48,0.9631110429763794,-9.580862045288086,1.399801254272461,-0.0705549344420433,-0.12507465481758118,-0.24495695531368256,-12.116340637207031,49.780765533447266,-57.921661376953125
0.5,0.8518447875976562,-9.501898765563965,1.1892328262329102,-0.29413163661956787,-0.0962112694978714,-0.22968532145023346,-11.575562477111816,49.44460678100586,-58.82782745361328
0.504,0.9224331378936768,-9.726823806762695,1.2059825658798218,-0.30253100395202637,-0.09743300080299377,-0.21914789080619812,-11.765565872192383,49.70768737792969,-58.433204650878906
0.51,1.0707881450653076,-10.067800521850586,1.3411771059036255,-0.29306259751319885,-0.10995574295520782,-0.1843285858631134,-12.072493553161621,49.48845672607422,-58.667057037353516
0.52,1.2729815244674683,-10.52243709564209,1.521835207939148,-0.26740625500679016,-0.1391245573759079,-0.1342376321554184,-12.057878494262695,49.605377197265625,-57.64396286010742
0.53,1.2526426315307617,-10.749755859375,1.5637094974517822,-0.23411409556865692,-0.1618792861700058,-0.0907134935259819,-12.262495994567871,49.4007568359375,-58.08243179321289
0.54,1.1258230209350586,-10.413564682006836,1.6163517236709595,-0.18891006708145142,-0.13576479256153107,-0.051312681287527084,-11.999415397644043,49.53229904174805,-57.98012161254883
0.555,0.8135596513748169,-9.416953086853027,1.636690616607666,-0.16752979159355164,-0.023976460099220276,-0.0004581489192787558,-12.671732902526855,49.31306457519531,-56.942413330078125
0.56,0.7621140480041504,-9.23031234741211,1.5912269353866577,-0.16783522069454193,0.006872233934700489,-0.003054326167330146,-12.584039688110352,50.043846130371094,-57.38088607788086
0.57,0.7489534616470337,-8.964709281921387,1.5122638940811157,-0.15974126756191254,0.07437284290790558,-0.004123340360820293,-12.715579986572266,49.50307083129883,-57.512420654296875
0.58,0.8087739944458008,-8.957530975341797,1.4715858697891235,-0.13530665636062622,0.14996741712093353,0.0027488935738801956,-12.686349868774414,49.795379638671875,-57.27857208251953
0.59,0.9906285405158997,-9.154938697814941,1.4584254026412964,-0.09789115190505981,0.22372940182685852,0.01618792861700058,-12.540192604064941,49.70768737792969,-57.760887145996094
0.609,1.195214867591858,-9.299705505371094,1.4715858697891235,-0.04184426739811897,0.2871066629886627,0.03985895588994026,-12.320959091186523,49.6199951171875,-56.8985710144043
0.613,1.5110673904418945,-9.306883811950684,1.3483555316925049,0.03130684420466423,0.3358231484889984,0.07773260027170181,-12.189417839050293,49.53229904174805,-57.62934875488281
0.62,1.5708880424499512,-9.221938133239746,1.2981061935424805,0.07849618047475815,0.35781431198120117,0.0988074541091919,-11.809412002563477,49.80999755859375,-57.65857696533203
0.63,1.6139588356018066,-9.07119083404541,1.25862455368042,0.1365283876657486,0.38117989897727966,0.11133018881082535,-11.677871704101562,49.31306457519531,-57.117801666259766
0.64,1.643869161605835,-9.026923179626465,1.2275179624557495,0.17928895354270935,0.3959933817386627,0.1134682148694992,-12.057878494262695,50.08769607543945,-56.82548904418945
0.65,1.710868239402771,-9.122635841369629,1.2681959867477417,0.21074850857257843,0.41111230850219727,0.10384708642959595,-12.028646469116211,49.853843688964844,-57.132415771484375
0.668,1.7862420082092285,-9.266205787658691,1.1545369625091553,0.22876903414726257,0.42806383967399597,0.0913243517279625,-11.736333847045898,49.41537857055664,-57.26395797729492
0.672,1.8783657550811768,-9.371489524841309,1.039681315422058,0.25641068816185,0.49296826124191284,0.0936150997877121,-11.47325325012207,49.45922088623047,-57.556270599365234
0.68,1.9692928791046143,-9.413363456726074,1.0301101207733154,0.26511549949645996,0.535881519317627,0.09346237778663635,-11.502485275268555,49.795379638671875,-57.04472732543945
0.69,2.031506299972534,-9.42772102355957,0.9667003750801086,0.2554943859577179,0.5900958180427551,0.09636398404836655,-11.151710510253906,48.494590759277344,-57.527042388916016
0.7,1.998006820678711,-9.349953651428223,0.818345308303833,0.2396118938922882,0.6550002694129944,0.08032877743244171,-11.254019737243652,48.87459945678711,-57.35165023803711
0.71,2.066202163696289,-9.377471923828125,0.8662018179893494,0.20463986694812775,0.6902776956558228,0.05650503188371658,-11.166325569152832,49.225372314453125,-57.68781280517578
0.73,2.117647886276245,-9.337989807128906,0.8470591902732849,0.13225232064723969,0.7006624341011047,0.0328340083360672,-10.888628959655762,49.45922088623047,-57.86320114135742
0.733,2.183450698852539,-9.120243072509766,0.6532405614852905,0.024129178375005722,0.7220426797866821,0.013744467869400978,-10.289388656616211,49.2984504699707,-57.89242935180664
0.74,2.24566388130188,-9.016155242919922,0.7022933959960938,-0.010231993161141872,0.708450973033905,0.001679879380390048,-10.596317291259766,49.649227142333984,-57.512420654296875
0.75,2.210968017578125,-8.824729919433594,0.576670229434967,-0.08567384630441666,0.6183483004570007,-0.026572639122605324,-10.230926513671875,49.2984504699707,-57.26395797729492
0.76,2.204986095428467,-8.768498420715332,0.22013966739177704,-0.08720101416110992,0.556345522403717,-0.03252857178449631,-10.537854194641113,49.780765533447266,-57.366268157958984
0.77,2.1619153022766113,-8.811569213867188,-0.07178467512130737,-0.052381694316864014,0.5407684445381165,-0.02825251594185829,-10.377082824707031,49.50307083129883,-57.103187561035156
0.788,2.1655044555664062,-8.775676727294922,-0.05982056260108948,-0.04001167416572571,0.5739078521728516,-0.014660765416920185,-10.362466812133789,49.44460678100586,-56.693946838378906
0.792,2.1882362365722656,-8.544769287109375,0.14715859293937683,-0.14309518039226532,0.588874101638794,-0.0013744467869400978,-10.274772644042969,49.6199951171875,-56.416255950927734
0.8,2.1750757694244385,-8.311469078063965,0.19262221455574036,-0.2880229651927948,0.5597052574157715,-0.0003054326225537807,-10.157849311828613,49.69307327270508,-56.97164535522461
0.81,1.7635102272033691,-7.925028324127197,0.7621140480041504,-0.4729623794555664,0.44287729263305664,-0.027947084978222847,-10.552470207214355,49.50307083129883,-56.620872497558594
0.82,1.5170494318008423,-7.513463020324707,0.5982056260108948,-0.5926920175552368,0.2906191349029541,-0.06490442901849747,-10.114001274108887,50.0,-56.28471374511719
0.83,1.4117653369903564,-7.590033054351807,0.3732803165912628,-0.5933029055595398,0.1966986060142517,-0.051312681287527084,-9.938613891601562,49.7223014831543,-55.48085403442383
0.849,1.3028918504714966,-8.02074146270752,0.6544370055198669,-0.517250120639801,0.22571469843387604,-0.0039706239476799965,-10.05553913116455,49.853843688964844,-55.71470260620117
0.853,1.3244272470474243,-8.46341323852539,1.357926845550537,-0.5177083015441895,0.237321138381958,0.02229658141732216,-10.114001274108887,49.093833923339844,-55.72931671142578
0.86,1.3890334367752075,-8.522037506103516,1.3280165195465088,-0.5175555348396301,0.2669481039047241,0.04749477282166481,-10.099386215209961,49.38614273071289,-54.92546081542969
0.87,1.836491346359253,-8.891729354858398,1.6522438526153564,-0.503047525882721,0.28466320037841797,0.10903944075107574,-9.909382820129395,50.160770416259766,-54.92546081542969
0.88,2.2360928058624268,-9.428916931152344,1.6905291080474854,-0.4460843503475189,0.30940327048301697,0.2041817009449005,-9.31014347076416,50.07307434082031,-54.3408317565918
0.89,2.6213371753692627,-10.181459426879883,2.0889341831207275,-0.3819434940814972,0.2506074607372284,0.31001412868499756,-9.0762939453125,49.10844802856445,-54.282371520996094
0.91,3.150151014328003,-10.721041679382324,2.0039889812469482,-0.3068070709705353,0.15806137025356293,0.44684794545173645,-8.52090072631836,49.69307327270508,-53.61005783081055
0.913,3.9074792861938477,-11.008179664611816,1.734796404838562,-0.04260785132646561,0.1641700267791748,0.7278459072113037,-8.637825012207031,49.7223014831543,-53.96083068847656
0.92,4.216153621673584,-10.8490571975708,1.6103696823120117,0.12049316614866257,0.14324790239334106,0.8416195511817932,-8.681672096252441,49.590763092041016,-53.61005783081055
0.93,4.555934429168701,-10.426724433898926,1.4739786386489868,0.3614795207977295,0.0682641938328743,0.9315694570541382,-7.585501670837402,49.35691452026367,-54.41391372680664
0.94,4.692325115203857,-10.114461898803711,1.6893328428268433,0.5850561857223511,-0.04566217586398125,0.9555459022521973,-7.687810897827148,49.45922088623047,-54.39929962158203
0.95,4.840680122375488,-9.954142570495605,2.008774518966675,0.7284567952156067,-0.21853703260421753,0.9280570149421692,-7.249342441558838,48.655364990234375,-54.867000579833984
0.969,4.753342151641846,-9.7998046875,2.042273998260498,0.8280278444290161,-0.3410155177116394,0.897513747215271,-6.284712314605713,48.72844314575195,-56.24086380004883
0.973,4.567898273468018,-10.234102249145508,1.9573287963867188,0.9129380583763123,-0.2588541507720947,0.8483390808105469,-6.0362467765808105,48.50920867919922,-55.758548736572266
0.98,4.449453830718994,-10.591829299926758,2.011167287826538,0.9346237778663635,-0.23900103569030762,0.7820602059364319,-5.860859394073486,48.713829040527344,-55.802398681640625
0.99,3.888336658477783,-10.815557479858398,2.029113531112671,0.932485818862915,-0.3700316250324249,0.628885805606842,-5.217772483825684,48.56766891479492,-57.000877380371094
1.0,3.2997024059295654,-10.912467002868652,1.887937068939209,0.8973610401153564,-0.6527094841003418,0.47998735308647156,-5.057000637054443,48.479976654052734,-57.293190002441406
1.01,2.7278177738189697,-11.033304214477539,1.8783657550811768,0.8443684577941895,-0.9002626538276672,0.39354991912841797,-4.530838966369629,48.099971771240234,-58.3162841796875
1.029,2.2815563678741455,-11.308479309082031,1.9381862878799438,0.8048149347305298,-0.9876163601875305,0.37568211555480957,-5.217772483825684,47.14995574951172,-58.82782745361328
1.033,2.1308083534240723,-11.656635284423828,2.334198474884033,0.7409795522689819,-0.9399688839912415,0.3805690407752991,-4.560070037841797,47.14995574951172,-59.14937210083008
1.04,2.2097716331481934,-11.787043571472168,2.444268226623535,0.693637490272522,-0.873842716217041,0.38728857040405273,-4.253142356872559,47.61765670776367,-59.44168472290039
1.05,2.297109603881836,-11.889935493469238,2.4335005283355713,0.669966459274292,-0.7365507483482361,0.37827828526496887,-4.574686050415039,46.76995086669922,-60.216312408447266
1.06,2.678764820098877,-12.156734466552734,2.475374937057495,0.702189564704895,-0.575893223285675,0.33979377150535583,-4.501607418060303,47.427650451660156,-61.07863235473633
1.07,3.0233314037323,-12.787243843078613,2.66560435295105,0.7463245987892151,-0.49754971265792847,0.30344730615615845,-4.340836048126221,46.667640686035156,-61.50248718261719
1.089,3.0077779293060303,-13.324432373046875,2.827119827270508,0.7890851497650146,-0.37568211555480957,0.25534167885780334,-4.1216020584106445,46.375328063964844,-63.154048919677734
1.093,2.9958138465881348,-14.015957832336426,2.644068956375122,0.8755226135253906,-0.036193765699863434,0.15790866315364838,-4.1654486656188965,46.1414794921875,-62.92020034790039
1.1,2.880958318710327,-14.288740158081055,2.266003131866455,0.9897544384002686,0.26114487648010254,0.12278390675783157,-4.092370510101318,46.1414794921875,-62.320960998535156
1.11,2.4023938179016113,-14.513665199279785,1.1030912399291992,1.4237741231918335,0.9440922141075134,0.01542434748262167,-4.1800642013549805,45.922245025634766,-63.54867172241211
1.12,1.9680966138839722,-13.964512825012207,0.14476576447486877,1.9622517824172974,1.722792625427246,-0.005497787147760391,-3.756211757659912,46.1414794921875,-63.82636260986328
1.13,2.8103702068328857,-13.556535720825195,0.8853443264961243,2.2757785320281982,2.337322950363159,0.11972958594560623,-3.566208839416504,45.498390197753906,-64.27944946289062
1.15,3.3296124935150146,-13.226325988769531,0.7956134676933289,2.1679606437683105,2.559372663497925,0.39125916361808777,-1.9146448373794556,44.621456146240234,-65.79947662353516
1.153,3.919443368911743,-13.378271102905273,-0.6915256977081299,1.4469870328903198,2.3212878704071045,0.8591819405555725,-1.943876028060913,44.15375518798828,-64.86407470703125
1.16,4.754538536071777,-13.612767219543457,-1.3495519161224365,1.06657075881958,1.8744399547576904,1.0835222005844116,-1.5638701915740967,44.022212982177734,-66.13563537597656
1.17,6.059823036193848,-12.581460952758789,-2.142772674560547,0.1417207270860672,0.9428704977035522,1.2846496105194092,-0.7307804822921753,43.6422119140625,-65.15638732910156
1.18,6.088537216186523,-10.833503723144531,-2.660818576812744,-0.17547103762626648,-0.15821409225463867,1.3657419681549072,0.33615902066230774,43.262203216552734,-65.20023345947266
1.19,5.483152389526367,-9.46480941772461,-2.26959228515625,-0.15103644132614136,-0.9089674949645996,1.3752102851867676,1.3007892370224,42.078338623046875,-65.02484893798828
1.209,3.3415768146514893,-7.233502388000488,-0.9236294627189636,-0.020463986322283745,-0.6562219858169556,1.1946996450424194,1.9292603731155396,41.40602111816406,-65.74100494384766
1.213,2.932404041290283,-6.666403770446777,-0.882951557636261,-0.07757988572120667,-0.38117989897727966,1.0702358484268188,2.1192634105682373,41.508331298828125,-65.56562042236328
1.22,2.6691935062408447,-6.099304676055908,-0.9200402498245239,-0.23121249675750732,0.06902776658535004,0.8313875794410706,2.1046478748321533,41.142940521240234,-66.54487609863281
1.23,2.829512596130371,-4.719842433929443,-1.7156537771224976,-0.5169447064399719,0.4879285991191864,0.4466952085494995,2.5138847827911377,41.27448272705078,-65.6094741821289
1.24,3.111865520477295,-3.5736804008483887,-2.1032910346984863,-0.8379544019699097,0.6221662163734436,0.09239336103200912,3.2885122299194336,41.77141189575195,-65.06869506835938
1.25,2.963510751724243,-2.390429735183716,-2.283949136734009,-1.1485792398452759,0.564592182636261,-0.2070833146572113,3.0400466918945312,41.36217498779297,-64.90792083740234
1.269,2.3437697887420654,-1.557727575302124,-2.531606435775757,-1.5667166709899902,0.3767511248588562,-0.6101016402244568,2.820812463760376,41.946800231933594,-64.2502212524414
1.273,1.794616937637329,-1.155733346939087,-2.324627161026001,-1.6751452684402466,0.3234531283378601,-0.6667593717575073,2.5285003185272217,41.80064392089844,-63.18327713012695
1.28,1.483549952507019,-1.184447169303894,-2.0781664848327637,-1.8539760112762451,0.22846360504627228,-0.7458664774894714,2.674656629562378,42.619117736816406,-63.270973205566406
1.29,1.4500504732131958,-1.6354942321777344,-1.3316056728363037,-2.0758728981018066,0.07742717117071152,-0.8628471493721008,2.981584310531616,42.54603958129883,-61.955570220947266
1.3,1.867598056793213,-2.0099709033966064,-0.5395814776420593,-2.225534677505493,-0.1339322030544281,-0.9677632451057434,2.0608010292053223,43.61297607421875,-61.70710372924805
1.31,2.3784656524658203,-2.675175428390503,0.35054853558540344,-2.302656412124634,-0.4407392740249634,-1.0152579545974731,1.7100263833999634,43.3206672668457,-61.35633087158203
1.329,2.6249263286590576,-4.713860511779785,0.8614161610603333,-2.0804543495178223,-1.4017831087112427,-1.129184365272522,1.4177141189575195,44.066062927246094,-59.35398864746094
1.333,2.724228620529175,-5.848058223724365,0.8865407705307007,-1.9677497148513794,-1.512960433959961,-1.1743884086608887,0.950014591217041,44.22683334350586,-59.470916748046875
1.34,3.0664021968841553,-7.871189594268799,0.8662018179893494,-1.7996089458465576,-1.5984816551208496,-1.228297233581543,0.7892428636550903,44.19760513305664,-60.33323287963867
1.35,3.400200843811035,-10.855039596557617,0.5264209508895874,-1.5587753057479858,-1.5824464559555054,-1.3060299158096313,0.39462143182754517,44.70914840698242,-59.865535736083984
1.36,3.792623519897461,-14.102100372314453,-0.20817556977272034,-1.3107640743255615,-1.441947340965271,-1.4056010246276855,-0.6723180413246155,45.30839157104492,-60.01169204711914
1.37,3.7363924980163574,-17.916259765625,-1.6342978477478027,-1.0265589952468872,-0.5540547966957092,-1.5587753057479858,-1.1546331644058228,45.556854248046875,-59.894771575927734
1.389,4.18863582611084,-22.669601440429688,-2.3808584213256836,-1.4691309928894043,-0.18936823308467865,-2.043344259262085,-2.0754165649414062,46.170711517333984,-57.921661376953125
1.393,4.49132776260376,-23.152952194213867,-2.0757734775543213,-1.7977763414382935,-0.7893905639648438,-2.1114556789398193,-2.1484947204589844,46.126861572265625,-58.345516204833984
1.4,3.3858439922332764,-20.604595184326172,-1.4009976387023926,-2.2284364700317383,-1.8718438148498535,-2.129628896713257,-2.5138847827911377,46.63841247558594,-57.43934631347656
1.41,2.224128484725952,-16.66840171813965,2.0542380809783936,-2.534327268600464,-3.0503556728363037,-1.993406057357788,-3.2154340744018555,46.44840621948242,-58.0970458984375
1.42,0.9690931439399719,-15.260225296020508,4.956732273101807,-2.81960129737854,-3.358536958694458,-1.5821409225463867,-4.1508331298828125,46.95995330810547,-58.50628662109375
1.43,-0.6544370055198669,-16.226926803588867,5.4795637130737305,-2.917339563369751,-2.5421156883239746,-1.2081387042999268,-4.603917121887207,47.20841979980469,-57.67319107055664
1.45,-3.0137598514556885,-20.252851486206055,2.3437697887420654,-1.8387043476104736,0.5196936130523682,-1.2406672239303589,-5.48085355758667,47.58842468261719,-56.82548904418945
1.453,-2.792423963546753,-21.04726791381836,2.664407968521118,-1.7214181423187256,1.012050986289978,-1.3370312452316284,-5.276235103607178,47.79304122924805,-56.84010314941406
1.46,-0.9487541317939758,-22.73899269104004,3.4815566539764404,-1.6070337295532227,2.48988676071167,-1.6505578756332397,-5.568547248840332,47.98304748535156,-56.5770263671875
1.47,1.5314065217971802,-23.31446647644043,3.148954391479492,-1.8351918458938599,4.692208766937256,-2.068695068359375,-5.568547248840332,47.909969329833984,-56.34317398071289
1.48,5.07517671585083,-20.702701568603516,-1.1736794710159302,-1.7889188528060913,5.003597259521484,-2.344653367996216,-6.284712314605713,48.845367431640625,-54.10698699951172
1.49,8.855835914611816,-17.28694725036621,-4.037888050079346,-1.3726141452789307,5.003597259521484,-2.4746150970458984,-6.518562316894531,48.83074951171875,-52.937740325927734
1.503,11.590832710266113,-13.735998153686523,-5.335994243621826,-1.0633636713027954,3.734830141067505,-2.3580925464630127,-7.307804584503174,49.780765533447266,-51.44694519042969
1.51,10.895716667175293,-11.406585693359375,-5.190032482147217,-0.8055785298347473,1.7001906633377075,-2.194227933883667,-7.950891494750977,49.51768493652344,-52.39695739746094
1.52,10.194620132446289,-9.929017066955566,-3.717249870300293,-0.28557947278022766,-0.7047857642173767,-1.8164077997207642,-8.930137634277344,50.3800048828125,-52.44080352783203
1.53,7.3399834632873535,-10.053443908691406,-1.3603196144104004,0.027030786499381065,-2.548987865447998,-1.1352930068969727,-9.003214836120605,50.21923065185547,-53.5369758605957
1.54,3.3164520263671875,-9.513862609863281,0.9224331378936768,0.09346237778663635,-3.003624439239502,-0.720820963382721,-9.50014591217041,51.213096618652344,-54.60391616821289
1.55,1.0827522277832031,-8.870193481445312,2.135594129562378,0.22617284953594208,-2.8930575847625732,-0.4537201523780823,-9.690149307250977,50.19000244140625,-55.61239242553711
1.568,-0.234496608376503,-7.82572603225708,3.2267210483551025,0.47998735308647156,-2.6054930686950684,-0.23090705275535583,-10.260157585144043,50.774627685546875,-57.87781524658203
1.571,-0.39960137009620667,-7.508677005767822,2.895315170288086,0.5071708559989929,-2.643213987350464,-0.1618792861700058,-10.567085266113281,50.19000244140625,-58.18474197387695
1.58,-1.1330015659332275,-6.831508159637451,2.297109603881836,0.5600107312202454,-2.649322509765625,0.04413501173257828,-11.107863426208496,50.67231750488281,-59.310142517089844
1.59,-2.2851455211639404,-5.8265228271484375,1.2263215780258179,0.6382014751434326,-2.4494168758392334,0.3271183371543884,-11.297865867614746,50.20461654663086,-59.93861389160156
1.6,-3.184846878051758,-4.944767951965332,0.34576284885406494,0.7646505236625671,-2.057088613510132,0.6496551632881165,-11.020169258117676,50.5992431640625,-61.940948486328125
1.618,-3.6741790771484375,-4.005584716796875,-0.05383851006627083,0.8961393237113953,-1.5790866613388062,0.9479101300239563,-11.47325325012207,50.02922821044922,-61.98480224609375
1.622,-3.6430721282958984,-2.785245418548584,0.332602322101593,0.9747881889343262,-0.8610145449638367,1.2333369255065918,-11.663256645202637,50.263084411621094,-64.23560333251953
1.63,-3.322434186935425,-2.0685951709747314,0.5467599630355835,0.9578366875648499,-0.30436357855796814,1.4210251569747925,-11.341712951660156,50.11692810058594,-65.0102310180664
1.64,-1.810170292854309,-1.0839486122131348,1.0205388069152832,1.0071640014648438,0.17669276893138885,1.5224288702011108,-10.625548362731934,49.473838806152344,-65.52177429199219
1.65,-0.9990034103393555,0.12921242415905,0.8099704384803772,1.1927144527435303,0.32589662075042725,1.5737415552139282,-10.040924072265625,48.88921356201172,-66.42794799804688
1.66,0.5826523303985596,1.4488540887832642,1.0001999139785767,1.5421292781829834,0.05497787147760391,1.5117387771606445,-9.967845916748047,48.5822868347168,-67.67027282714844
1.67,1.53858482837677,3.1274189949035645,1.179661512374878,1.989129900932312,-0.7571674585342407,1.417970895767212,-8.696288108825684,47.456886291503906,-68.62028503417969
1.683,0.9499505758285522,3.359522819519043,2.5220348834991455,2.493399143218994,-2.0819814205169678,1.158811330795288,-8.857059478759766,47.500728607177734,-69.59953308105469
1.69,0.5946164131164551,2.9970104694366455,3.1369903087615967,2.520582675933838,-2.4599545001983643,0.9395107626914978,-8.696288108825684,46.872257232666016,-71.79187774658203
1.7,0.349352091550827,2.0650060176849365,3.3643083572387695,2.34480619430542,-2.5450174808502197,0.6722572445869446,-9.047061920166016,45.556854248046875,-72.53726959228516
1.71,-0.9439685344696045,0.8195416927337646,2.550748825073242,2.0231857299804688,-2.0749566555023193,0.4807509481906891,-9.193218231201172,45.162235260009766,-73.73574829101562
1.72,-10.977072715759277,-4.280759334564209,-0.647258460521698,0.19226983189582825,3.7342193126678467,-0.0682641938328743,-9.163987159729004,45.191463470458984,-73.94036865234375
1.739,-1.9800606966018677,-3.5365920066833496,-0.5431707501411438,-1.6058119535446167,5.003597259521484,-1.5529721975326538,-7.322420120239258,45.132999420166016,-72.171875
1.743,7.696513652801514,-1.5948163270950317,1.8388842344284058,-1.310916781425476,5.003597259521484,-1.8918495178222656,-5.027769565582275,46.15609359741211,-68.9564437866211
1.75,9.05444049835205,-2.2911276817321777,2.6225335597991943,-0.9514226317405701,5.003597259521484,-1.5821409225463867,-4.311604976654053,46.63841247558594,-67.17334747314453
1.76,7.028916358947754,-4.60857629776001,2.2671992778778076,-0.5578727126121521,4.672966003417969,-1.0600038766860962,-2.806197166442871,47.13534164428711,-65.22946166992188
1.77,5.367100715637207,-8.492127418518066,2.6081764698028564,-0.25503623485565186,1.544114589691162,-0.7487680315971375,-2.674656629562378,47.06226348876953,-64.44022369384766
1.78,3.7734811305999756,-13.387842178344727,3.875175952911377,-0.06994406878948212,-1.6899586915969849,-0.59803706407547,-3.0692780017852783,48.085357666015625,-64.87869262695312
1.798,0.9750751852989197,-20.823537826538086,0.9320043921470642,-0.09498954564332962,-3.039970874786377,-0.4715879559516907,-3.2154340744018555,47.98304748535156,-65.50716400146484
1.804,0.9188438653945923,-24.875783920288086,0.04666003957390785,1.3370312452316284,-0.9815077185630798,-0.13041973114013672,-3.683133363723755,48.684593200683594,-65.88716125488281
1.81,1.7288143634796143,-20.453845977783203,4.101297855377197,1.6708691120147705,0.6215553879737854,0.38408151268959045,-2.9961998462677,48.041507720947266,-66.69102478027344
1.82,0.39003005623817444,-16.246068954467773,5.018945217132568,1.3103058338165283,1.6103935241699219,0.5994114875793457,-2.2508037090301514,48.655364990234375,-66.96871948242188
1.83,-0.07896314561367035,-15.454044342041016,3.25663161277771,0.8222246170043945,2.0334177017211914,0.5632177591323853,-1.943876028060913,47.96842956542969,-66.51564025878906
1.84,0.6759723424911499,-15.899109840393066,0.9535397887229919,0.39354991912841797,1.8880317211151123,0.8101600408554077,-1.5931013822555542,48.9622917175293,-66.5302505493164
1.859,3.3822548389434814,-15.354743003845215,3.042473793029785,-0.0455094613134861,0.7411321997642517,1.3242030143737793,-0.9207833409309387,48.18766403198242,-66.01870727539062
1.863,3.1932218074798584,-14.1918306350708,2.891726016998291,-0.4444044530391693,-0.9243918061256409,1.916284203529358,0.46769949793815613,48.23151397705078,-66.25255584716797
1.87,2.678764820098877,-13.561321258544922,2.190629005432129,-0.44486260414123535,-1.7499761581420898,2.068847894668579,0.7892428636550903,47.82227325439453,-66.51564025878906
1.88,2.135594129562378,-12.955938339233398,1.3938192129135132,-0.1693623811006546,-2.612517833709717,2.068847894668579,1.5346390008926392,47.99766159057617,-67.86027526855469
1.89,1.7324036359786987,-12.87817096710205,1.1868400573730469,0.4856378734111786,-3.34677791595459,1.940566062927246,1.9584916830062866,47.07687759399414,-69.23414611816406
1.9,1.0217353105545044,-12.91047477722168,1.6175479888916016,1.005178689956665,-3.5098791122436523,1.8471038341522217,2.1484947204589844,46.98918533325195,-69.95030975341797
1.92,1.4967105388641357,-13.116256713867188,2.3784656524658203,1.3381003141403198,-3.3516650199890137,1.7945693731307983,1.9877228736877441,46.15609359741211,-71.19263458251953
1.923,2.950350046157837,-13.7228364944458,3.506681442260742,1.4343116283416748,-3.5214853286743164,1.8755089044570923,2.016954183578491,46.185325622558594,-74.04267883300781
1.93,3.531806230545044,-14.056636810302734,3.6191442012786865,1.4309518337249756,-3.6815319061279297,1.9254472255706787,2.4992692470550537,45.39608383178711,-74.58345031738281
1.94,3.286541700363159,-14.767305374145508,3.3583264350891113,1.571908950805664,-4.0019307136535645,1.99447500705719,2.1484947204589844,44.65068435668945,-76.05963134765625
1.95,1.7132608890533447,-16.2568359375,3.649054527282715,1.8530596494674683,-3.8544068336486816,1.892765998840332,2.002338409423828,44.066062927246094,-78.0327377319336
1.96,0.8135596513748169,-17.78226089477539,4.831109046936035,2.0977113246917725,-3.1844406127929688,1.4175127744674683,1.4615609645843506,43.83221435546875,-79.88892364501953
1.979,1.483549952507019,-18.5838565826416,6.4510498046875,1.9514089822769165,-1.7557793855667114,0.794277548789978,0.9353989958763123,42.85296630859375,-80.8681640625
1.983,5.150550842285156,-15.949357986450195,3.2745776176452637,1.777006983757019,0.47189339995384216,0.5933029055595398,0.3507746458053589,41.91756820678711,-82.32972717285156
1.99,5.600401401519775,-15.04726505279541,2.830709218978882,1.8892533779144287,1.344056248664856,0.66584312915802,0.8623209595680237,40.85062789916992,-83.35282135009766
2.0,5.700900077819824,-13.306486129760742,3.1034910678863525,2.004859685897827,2.4413230419158936,0.7020369172096252,1.1838643550872803,41.01139831542969,-83.74744415283203
2.01,6.357729434967041,-11.9521484375,2.6500511169433594,1.9874500036239624,3.193908929824829,0.6600399017333984,2.5285003185272217,39.85676574707031,-84.25899505615234
2.02,6.74656343460083,-10.30469036102295,1.286142110824585,2.0364720821380615,3.4439053535461426,0.683863639831543,3.624671220779419,39.345218658447266,-83.08973693847656
2.04,-2.1164515018463135,-2.214557409286499,-12.719048500061035,2.7626380920410156,4.436866760253906,0.7299839854240417,4.706226348876953,38.819061279296875,-83.77667236328125
2.044,-4.267599105834961,-9.754341125488281,-5.201996326446533,4.651891708374023,5.003597259521484,1.035722017288208,7.117801666259766,36.59748840332031,-83.86436462402344
2.05,6.15553617477417,-16.077375411987305,1.5565310716629028,0.3367394804954529,5.003597259521484,1.5459471940994263,9.470914840698242,35.99824523925781,-81.68663787841797
2.06,11.795418739318848,-4.521238327026367,-10.819147109985352,-3.257438898086548,3.6801576614379883,0.8885034918785095,11.926337242126465,35.720550537109375,-78.90967559814453
2.07,9.90269660949707,-0.7250252366065979,-10.191031455993652,-2.0276143550872803,-1.0002918243408203,0.7693847417831421,13.387897491455078,36.50979232788086,-78.51505279541016
2.08,7.3567328453063965,-2.565105676651001,-2.3234305381774902,-0.8142833113670349,-2.668717384338379,1.0068585872650146,12.744811058044434,36.59748840332031,-79.47968292236328
2.1,4.941178798675537,-3.1034910678863525,0.2679961323738098,-0.2561052441596985,-2.391842842102051,1.0416779518127441,11.911721229553223,35.939781188964844,-81.2043228149414
2.104,3.6358938217163086,-1.7611173391342163,1.1521440744400024,-0.33505958318710327,-1.6052011251449585,0.7044803500175476,11.79479694366455,36.7436408996582,-82.59281158447266
2.11,3.3678977489471436,-0.6496513485908508,0.8219345808029175,-0.48945578932762146,-1.1537716388702393,0.6142250299453735,11.429407119750977,36.88979721069336,-82.35896301269531
2.12,2.647658109664917,0.6939185857772827,0.39840495586395264,-0.707534670829773,-0.4538728594779968,0.3880521357059479,10.654779434204102,37.635196685791016,-83.08973693847656
2.13,2.5746772289276123,1.3339985609054565,0.30628129839897156,-0.9224064946174622,0.20723602175712585,-0.006261368282139301,11.020169258117676,37.679039001464844,-82.9435806274414
2.14,2.3222343921661377,1.6929219961166382,0.15074782073497772,-1.1771372556686401,1.079246163368225,-0.6088799238204956,10.800935745239258,38.804443359375,-82.70973205566406
2.159,2.775674343109131,1.2023932933807373,0.5264209508895874,-1.558011770248413,1.5809192657470703,-1.0380127429962158,10.874013900756836,40.98217010498047,-81.64279174804688
2.163,3.3200414180755615,0.19262221455574036,0.5515456199645996,-1.9341520071029663,1.6881260871887207,-1.4341588020324707,10.742472648620605,41.82987594604492,-80.31277465820312
2.17,3.4779675006866455,-0.4989035129547119,0.22133608162403107,-2.099849224090576,1.6038267612457275,-1.6496416330337524,10.49400806427002,42.92604446411133,-79.53814697265625
2.18,2.940778970718384,-3.0352954864501953,-1.1210373640060425,-2.271960496902466,1.452026605606079,-1.9726365804672241,9.967845916748047,45.717628479003906,-78.588134765625
2.19,1.6295121908187866,-6.612565040588379,-3.865604877471924,-2.3857343196868896,0.9401216506958008,-2.3527474403381348,9.558608055114746,46.8430290222168,-77.19964599609375
2.2,1.550549030303955,-10.711469650268555,-7.713263511657715,-2.135584831237793,-0.1160643994808197,-2.9216158390045166,8.140894889831543,49.70768737792969,-77.33119201660156
2.219,4.453042984008789,-13.447663307189941,-6.02393102645874,-1.4677565097808838,-2.8935160636901855,-3.185662031173706,3.653902292251587,54.22391128540039,-77.25811004638672
2.222,6.382853984832764,-16.31665802001953,-4.225724697113037,-1.322981357574463,-3.7029123306274414,-3.114954710006714,2.703887701034546,54.472373962402344,-77.59426879882812
2.23,6.332605361938477,-17.590835571289062,-2.526820659637451,-1.1326968669891357,-4.754058837890625,-2.970332145690918,0.891552209854126,54.867000579833984,-77.90119934082031
2.24,5.666203498840332,-19.048065185546875,-0.28953152894973755,-0.8686503767967224,-5.003597259521484,-2.836858034133911,-3.2885122299194336,57.132415771484375,-79.21660614013672
2.25,5.2414774894714355,-21.196819305419922,1.714457392692566,-0.6667593717575073,-5.003597259521484,-2.8736627101898193,-7.293189525604248,58.3747444152832,-80.48816680908203
2.26,4.392025947570801,-24.654447555541992,4.12642240524292,-0.7533495426177979,-5.003597259521484,-2.9458975791931152,-11.370944023132324,59.57322692871094,-79.59661102294922
2.281,4.2616167068481445,-26.55076026916504,6.3146586418151855,-0.9671523571014404,-4.9814534187316895,-2.651765823364258,-18.854137420654297,61.648643493652344,-78.588134765625
2.285,2.172683000564575,-29.721250534057617,8.608179092407227,-1.7452419996261597,-2.7427847385406494,-2.0025689601898193,-20.330312728881836,62.130958557128906,-78.74890899658203
2.29,1.1928220987319946,-29.9162654876709,7.5673017501831055,-1.890017032623291,-2.0056233406066895,-1.8823812007904053,-21.38263702392578,61.7947998046875,-77.6527328491211
2.3,-0.40319061279296875,-31.519454956054688,5.608776569366455,-1.760055422782898,-0.23105978965759277,-1.9113973379135132,-23.151124954223633,62.37942123413086,-75.85501098632812
2.31,-0.41515469551086426,-32.611778259277344,3.1764719486236572,-1.6229162216186523,0.9969320297241211,-2.063655376434326,-24.87576675415039,62.30634307861328,-74.39344787597656
2.32,1.1078768968582153,-29.091936111450195,0.9212366938591003,-1.5329662561416626,1.552361249923706,-1.9207130670547485,-26.191171646118164,62.525577545166016,-73.4142074584961
2.339,2.3330020904541016,-21.9266300201416,1.2335000038146973,-1.7896825075149536,1.8904752731323242,-1.2107349634170532,-28.120431900024414,62.45249938964844,-70.40338897705078
2.343,4.078566074371338,-15.661023139953613,-0.23688943684101105,-1.789376974105835,1.8216001987457275,-1.1355985403060913,-27.71119499206543,62.92020034790039,-70.18415832519531
2.35,4.287938117980957,-13.307682037353516,-0.9966105818748474,-1.619251012802124,1.3515393733978271,-0.9547823667526245,-28.17889404296875,62.27711486816406,-69.5556869506836
2.36,2.7050859928131104,-11.365906715393066,-0.6544370055198669,-1.3956743478775024,1.0856602191925049,-0.8739954233169556,-28.61736488342285,62.62788772583008,-68.37181854248047
2.37,1.8005989789962769,-10.249655723571777,-0.4941178560256958,-1.2652546167373657,1.247692346572876,-0.7392996549606323,-29.085063934326172,62.364803314208984,-67.26103210449219
2.38,2.076970100402832,-8.341379165649414,-0.6544370055198669,-1.0381654500961304,1.1296424865722656,-0.7512114644050598,-29.479684829711914,61.75094985961914,-66.58871459960938
2.399,3.724428415298462,-5.779862880706787,-0.8817551136016846,-0.4836525619029999,-0.11056660860776901,-0.8991936445236206,-30.99970817565918,61.50248718261719,-65.62408447265625
2.404,1.2143574953079224,-5.785844802856445,0.7896314859390259,0.2898555397987366,-1.505019187927246,-0.6881397366523743,-31.175094604492188,60.90324401855469,-65.90177917480469
2.41,0.02751745842397213,-5.642275333404541,1.1593225002288818,0.36453381180763245,-1.5474743843078613,-0.4453207552433014,-32.09587860107422,61.020172119140625,-66.06256103515625
2.42,-1.270588755607605,-5.271388053894043,1.5672988891601562,0.3758348524570465,-1.4072808027267456,-0.10720684379339218,-32.56357955932617,60.844783782958984,-66.13563537597656
2.43,-2.748156785964966,-5.065605640411377,2.079362630844116,0.3543018102645874,-0.9801332950592041,0.23228150606155396,-32.5489616394043,60.31861877441406,-66.50102233886719
2.44,-3.669393539428711,-4.762913227081299,2.352144718170166,0.29596421122550964,-0.21762074530124664,0.5653557777404785,-32.66588592529297,60.50862121582031,-66.29640197753906
2.46,-3.7471601963043213,-2.991028070449829,1.2430713176727295,0.12522737681865692,0.8594873547554016,1.2151635885238647,-32.183570861816406,60.201690673828125,-66.7494888305664
2.463,-4.872982978820801,-2.2983059883117676,0.8015955090522766,0.12919799983501434,1.0739010572433472,1.288467526435852,-31.920490264892578,60.53785705566406,-66.47179412841797
2.47,-4.295116424560547,-1.5637094974517822,0.7836494445800781,0.14248430728912354,1.3956743478775024,1.2994630336761475,-31.306636810302734,59.880149841308594,-66.50102233886719
2.48,-3.6957144737243652,-0.2392822504043579,0.18783655762672424,0.21609358489513397,1.7241671085357666,1.2860239744186401,-30.868165969848633,60.406314849853516,-67.7287368774414
2.49,-2.6536402702331543,1.0815558433532715,-0.01196411345154047,0.3799581825733185,1.7174475193023682,1.2081387042999268,-29.37737464904785,59.82168960571289,-67.392578125
2.5,-1.3651052713394165,2.0997018814086914,0.005982056725770235,0.6343835592269897,1.2867876291275024,1.1094839572906494,-28.982751846313477,60.01169204711914,-67.49488830566406
2.519,1.439282774925232,3.6801609992980957,0.8051848411560059,1.0474811792373657,-0.6722572445869446,1.2675453424453735,-28.07658576965332,59.266300201416016,-69.05875396728516
2.523,1.5074782371520996,4.2723846435546875,0.94037926197052,1.0943650007247925,-1.0030407905578613,1.3026700019836426,-27.681964874267578,59.485530853271484,-68.56182098388672
2.53,0.97148597240448,4.043870449066162,1.451246976852417,1.1701123714447021,-1.827250599861145,1.362076759338379,-27.535808563232422,58.49167251586914,-68.70797729492188
2.54,-0.39481574296951294,4.060619831085205,1.262213945388794,1.1803444623947144,-2.4107797145843506,1.4156802892684937,-27.038877487182617,58.50628662109375,-70.14030456542969
2.55,-1.172482967376709,4.727020740509033,0.9080761671066284,1.1184942722320557,-2.3576345443725586,1.2977831363677979,-27.4481143951416,57.717044830322266,-70.25723266601562
2.56,-2.4287149906158447,3.6610186100006104,-0.3074776828289032,0.9775370955467224,-1.4691309928894043,1.1594221591949463,-27.389652252197266,57.87781524658203,-70.79801177978516
2.579,2.7349960803985596,-0.6029912829399109,-3.504288673400879,1.120937705039978,5.003597259521484,0.24648413062095642,-24.97807502746582,56.8985710144043,-71.2072525024414
2.583,3.0520453453063965,0.5874379277229309,0.9439685344696045,1.1355985403060913,5.003597259521484,0.23945917189121246,-25.080385208129883,57.04472732543945,-71.631103515625
2.59,1.4656038284301758,-0.6831508874893188,3.662214994430542,1.0963504314422607,5.003597259521484,0.051312681287527084,-23.38497543334961,56.54779052734375,-71.60187530517578
2.6,0.8422735333442688,-3.4097721576690674,4.231706619262695,0.6977607607841492,3.570049285888672,-0.42210787534713745,-22.82958221435547,56.47471618652344,-72.71266174316406
2.61,0.6017948985099792,-6.2775702476501465,5.07397985458374,0.2249511182308197,0.4092797338962555,-1.3477214574813843,-22.94650650024414,55.597774505615234,-72.33264923095703
2.62,-0.98703932762146,-16.510475158691406,8.898907661437988,-0.24877485632896423,-2.169487953186035,-2.241417407989502,-24.188833236694336,55.87547302246094,-72.31803894042969
2.639,0.5934200286865234,-29.82892608642578,11.685348510742188,-2.7012460231781006,-3.1809279918670654,-2.2508857250213623,-28.383514404296875,56.25548553466797,-70.05261993408203
2.642,2.400001049041748,-30.569503784179688,9.982855796813965,-2.911383628845215,-2.933985710144043,-1.9674441814422607,-28.73428726196289,56.34317398071289,-70.06723022460938
2.65,4.968696117401123,-27.993633270263672,4.789234161376953,-3.018132448196411,-2.026850700378418,-0.7156286239624023,-29.71353530883789,56.51856231689453,-68.89797973632812
2.66,3.266202688217163,-24.38525390625,-0.07058826088905334,-1.40437912940979,-0.009773843921720982,1.5039501190185547,-30.07892417907715,57.103187561035156,-68.22566223144531
2.67,-0.4043869972229004,-20.520845413208008,-0.5335994362831116,0.29367345571517944,1.519832730293274,2.376112937927246,-29.71353530883789,57.14703369140625,-67.96258544921875
2.68,0.035892337560653687,-17.150554656982422,0.6640082597732544,1.4103351831436157,1.8252654075622559,2.3939807415008545,-28.515052795410156,56.927799224853516,-67.24642181396484
2.699,2.9288148880004883,-11.145767211914062,3.1334011554718018,2.39214825630188,0.3709478974342346,2.227672815322876,-25.88424301147461,56.03624725341797,-69.68722534179688
2.704,3.3332018852233887,-10.817951202392578,3.8464622497558594,2.408794403076172,-0.24190261960029602,2.230727195739746,-25.12423324584961,55.4954719543457,-69.14644622802734
2.71,3.676571846008301,-10.604989051818848,4.386044025421143,2.274862051010132,-1.269988775253296,2.205223560333252,-24.714996337890625,54.92546081542969,-70.0087661743164
2.72,3.9804604053497314,-9.741181373596191,4.011567115783691,2.0951151847839355,-2.6902503967285156,2.160935878753662,-25.007307052612305,54.57468795776367,-71.86495208740234
2.73,3.620340585708618,-10.750951766967773,3.3990042209625244,2.074040174484253,-3.696192741394043,2.1345157623291016,-25.13884925842285,53.4200553894043,-72.63957977294922
2.74,2.7972095012664795,-12.092127799987793,2.526820659637451,2.232712507247925,-4.0159807205200195,2.1762073040008545,-24.539608001708984,53.5369758605957,-74.45191955566406
2.753,1.7180465459823608,-14.13440227508545,2.5016961097717285,2.5778512954711914,-3.5943310260772705,2.1500930786132812,-24.992692947387695,53.025428771972656,-75.19731140136719
2.76,1.0253244638442993,-14.873785018920898,2.8426733016967773,2.8411343097686768,-2.7843236923217773,2.0117318630218506,-25.197309494018555,52.16311264038086,-76.68810272216797
2.77,-1.7958134412765503,-16.494922637939453,5.120640754699707,3.087465524673462,-1.1414016485214233,1.7453947067260742,-25.285005569458008,51.12540054321289,-77.68196105957031
2.78,1.4823535680770874,-18.865013122558594,5.636293411254883,3.090672731399536,0.6684393286705017,1.254717230796814,-24.788074493408203,50.02922821044922,-78.41275024414062
2.79,3.7328033447265625,-20.123638153076172,5.414957523345947,2.9323058128356934,1.7479908466339111,0.7567093372344971,-23.911136627197266,48.845367431640625,-79.56737518310547
2.809,5.015356063842773,-19.618751525878906,5.330012321472168,2.7140743732452393,2.507296323776245,0.3581197261810303,-23.487285614013672,48.596900939941406,-80.69277954101562
2.813,6.838686943054199,-17.24148178100586,4.7796630859375,2.338850259780884,3.5918877124786377,0.18219056725502014,-22.493423461914062,47.354576110839844,-81.64279174804688
2.82,6.708278179168701,-16.12164306640625,3.623929738998413,2.294715166091919,4.330576419830322,0.29184088110923767,-21.864952087402344,46.59456253051758,-82.19818115234375
2.83,5.970092296600342,-14.658431053161621,1.4333007335662842,2.415361166000366,5.003597259521484,0.469449907541275,-20.388774871826172,45.83454895019531,-83.14820098876953
2.84,-9.824929237365723,-5.704488754272461,-20.51007843017578,3.515376567840576,5.003597259521484,0.48456883430480957,-18.25489616394043,44.95761489868164,-83.23589324951172
2.85,-9.05444049835205,-18.416358947753906,-6.477370738983154,3.970165967941284,5.003597259521484,1.034194827079773,-14.937153816223145,43.08681869506836,-83.2066650390625
2.868,12.848259925842285,-20.024335861206055,0.39122650027275085,-2.6195428371429443,5.003597259521484,1.2829697132110596,-9.529377937316895,42.85296630859375,-80.47354888916016
2.872,22.661226272583008,-4.991427898406982,-17.86481285095215,-3.2258265018463135,2.7265970706939697,0.6308711171150208,-6.460099697113037,43.379127502441406,-76.80502319335938
2.88,16.540386199951172,-5.464010238647461,-2.1236300468444824,-2.0361664295196533,-1.0451903343200684,1.0076221227645874,-6.606255531311035,43.55451583862305,-76.22040557861328
2.89,12.110074996948242,-3.7842490673065186,-0.9092725515365601,-1.0910053253173828,-3.590513229370117,1.518610954284668,-6.971645355224609,43.627593994140625,-75.81116485595703
2.9,6.51326322555542,-2.589033842086792,-0.9978070259094238,-0.11133018881082535,-3.596163511276245,1.7452419996261597,-7.234726905822754,44.19760513305664,-76.93656921386719
2.91,3.733999490737915,-1.3507484197616577,0.7525426745414734,0.1915062516927719,-2.5809056758880615,1.4711161851882935,-8.374743461608887,43.51066970825195,-76.5857925415039
2.93,3.1573293209075928,-0.6281159520149231,2.3126630783081055,-0.30436357855796814,-1.5082262754440308,0.8872817754745483,-7.8485822677612305,43.75913619995117,-77.14118957519531
2.933,3.0209386348724365,1.7850456237792969,2.754138708114624,-1.0600038766860962,-0.9511171579360962,0.3234531283378601,-8.272435188293457,43.65682601928711,-76.32270812988281
2.94,2.7349960803985596,2.8701906204223633,2.2995026111602783,-1.404226541519165,-0.8219191431999207,-0.08017606288194656,-8.915521621704102,44.13914108276367,-76.5127182006836
2.95,2.1846470832824707,3.286541700363159,1.4799607992172241,-1.688736915588379,-0.622624397277832,-0.6188065409660339,-8.959368705749512,44.19760513305664,-75.37269592285156
2.96,2.2193429470062256,3.410968542098999,0.3613162338733673,-1.8209892511367798,-0.21044306457042694,-1.013578176498413,-9.047061920166016,45.57147216796875,-75.4457778930664
2.97,2.3018951416015625,3.2829525470733643,-0.468993216753006,-1.831526756286621,0.5667302012443542,-1.2385293245315552,-10.040924072265625,45.52762222290039,-74.26190948486328
2.988,2.2636101245880127,3.1824538707733154,-1.054038405418396,-1.7684547901153564,1.0881036520004272,-1.366810917854309,-9.923998832702637,46.726104736328125,-73.82344818115234
2.993,2.671586275100708,2.014756679534912,-1.5086746215820312,-1.6160439252853394,1.3211487531661987,-1.5665638446807861,-10.420929908752441,47.13534164428711,-72.68342590332031
3.0,2.043470621109009,0.23330020904541016,-2.368894338607788,-1.4844025373458862,1.2735012769699097,-1.7811301946640015,-10.903244018554688,48.099971771240234,-71.19263458251953
3.01,0.5168496966362,-3.0616164207458496,-3.4707889556884766,-1.2563971281051636,0.8910996913909912,-2.2368359565734863,-11.897106170654297,48.14381790161133,-70.85647583007812
3.02,-0.8135596513748169,-7.852047443389893,-3.8668015003204346,-1.2250901460647583,0.2869539260864258,-2.848159074783325,-12.847121238708496,48.74305725097656,-70.16954040527344
3.03,1.605583906173706,-12.067005157470703,-2.420340061187744,-1.5209016799926758,-0.45952337980270386,-3.3067660331726074,-15.097925186157227,49.06460189819336,-70.59339141845703
3.049,2.455035924911499,-15.799806594848633,-3.383450984954834,-1.86497163772583,-1.7256942987442017,-3.7920987606048584,-16.793336868286133,49.663841247558594,-69.00028991699219
3.053,3.923032522201538,-19.1126708984375,-6.110072612762451,-1.46592378616333,-3.0445523262023926,-4.69801139831543,-20.505699157714844,50.964630126953125,-68.02104949951172
3.06,6.780062675476074,-21.49951171875,-6.289534091949463,-0.8825475573539734,-3.7537667751312256,-5.003597259521484,-23.194971084594727,50.87693786621094,-67.78719329833984
3.07,10.05583667755127,-23.659032821655273,-3.4648072719573975,-0.09300423413515091,-4.808272838592529,-5.003597259521484,-25.942707061767578,51.213096618652344,-67.392578125
3.08,10.283154487609863,-26.924039840698242,3.542573928833008,-0.2635883390903473,-5.003597259521484,-4.640590667724609,-29.97661590576172,51.95848846435547,-65.72639465332031
3.09,10.935198783874512,-28.825136184692383,6.250052452087402,-0.914923369884491,-5.003597259521484,-3.916256904602051,-33.07512283325195,51.43233108520508,-65.0540771484375
3.109,10.344171524047852,-29.930620193481445,7.661818027496338,-1.4556918144226074,-5.003597259521484,-3.0085113048553467,-35.910552978515625,52.25080108642578,-60.90324401855469
3.113,6.265605926513672,-31.82573699951172,10.390832901000977,-2.0615174770355225,-4.05049467086792,-1.5366315841674805,-36.67056655883789,52.41157531738281,-59.20783233642578
3.12,4.244867324829102,-30.937999725341797,9.914660453796387,-2.1841487884521484,-2.2912027835845947,-1.0257954597473145,-36.6851806640625,53.449283599853516,-57.760887145996094
3.13,0.6891329288482666,-30.227331161499023,4.534398555755615,-1.9559904336929321,-0.266184538602829,-0.863457977771759,-37.079803466796875,52.893890380859375,-55.758548736572266
3.14,-2.7122642993927,-27.134607315063477,1.4847464561462402,-0.9647089242935181,1.1493428945541382,-0.9908233880996704,-37.22595977783203,53.59543991088867,-54.73545837402344
3.15,-4.692325115203857,-24.1328125,1.9525432586669922,-0.34987306594848633,2.3180809020996094,-0.977078914642334,-37.50365447998047,53.55158996582031,-54.004676818847656
3.169,-3.5772697925567627,-18.266807556152344,0.436690092086792,-0.4004221558570862,2.7699685096740723,-0.9998337030410767,-37.53288269042969,54.10698699951172,-53.741600036621094
3.173,1.590030550956726,-11.726027488708496,-0.9511469602584839,-0.7373143434524536,2.026698112487793,-1.0178542137145996,-37.8251953125,54.20929718017578,-52.80619812011719
3.18,2.3330020904541016,-10.218547821044922,-1.184447169303894,-0.679740309715271,1.3698652982711792,-0.9738719463348389,-37.79596710205078,54.72084426879883,-51.62232971191406
3.19,3.6370902061462402,-8.00518798828125,-1.137787103652954,-0.3585779070854187,0.15577064454555511,-0.8874344229698181,-37.43057632446289,53.8585205078125,-50.61385726928711
3.2,2.691925287246704,-7.4907307624816895,-0.5216353535652161,-0.01863138936460018,-0.8872817754745483,-0.6910412907600403,-38.205204010009766,54.85238265991211,-49.98538589477539
3.21,1.4404791593551636,-7.027719497680664,-0.08614161610603333,0.12202033400535583,-1.2571606636047363,-0.37461310625076294,-37.7667350769043,54.98392105102539,-48.9184455871582
3.229,0.05383851006627083,-6.330212116241455,-0.07058826088905334,0.17043140530586243,-1.2724322080612183,-0.05803219974040985,-36.524410247802734,55.53931427001953,-48.14381790161133
3.233,-1.624726414680481,-5.5034918785095215,0.004785645287483931,0.3326161205768585,-1.1542298793792725,0.20051652193069458,-36.64133071899414,55.45161819458008,-47.32534408569336
3.24,-2.0446667671203613,-5.280959129333496,0.39840495586395264,0.4161519408226013,-1.083064079284668,0.2600758671760559,-36.26132583618164,56.16778564453125,-47.471500396728516
3.25,-2.5088744163513184,-4.984249591827393,1.0839486122131348,0.47021350264549255,-0.9040805101394653,0.36331209540367126,-35.325927734375,57.04472732543945,-46.185325622558594
3.26,-1.0648061037063599,-5.126622676849365,1.939382791519165,0.44119739532470703,-0.599564254283905,0.5777257680892944,-34.361297607421875,56.84010314941406,-46.57994842529297
3.27,-1.9836498498916626,-3.8392839431762695,1.392622709274292,0.3865249752998352,-0.3003929853439331,0.9842565655708313,-33.162818908691406,57.26395797729492,-45.995323181152344
3.289,-1.94297194480896,-2.8833510875701904,1.3208380937576294,0.42867469787597656,0.4421136975288391,1.3944525718688965,-31.803565979003906,57.307804107666016,-44.89915466308594
3.293,-2.748156785964966,-0.5240281224250793,0.5527420043945312,0.5377141237258911,1.0099129676818848,1.6499470472335815,-29.932767868041992,57.77550506591797,-45.206077575683594
3.3,-2.605783700942993,0.4582255482673645,0.27756741642951965,0.6528621912002563,1.2933545112609863,1.6913331747055054,-28.383514404296875,58.27243423461914,-45.3814697265625
3.31,-1.6450655460357666,1.8197414875030518,0.23808583617210388,0.8309293985366821,1.448819637298584,1.7047721147537231,-27.024263381958008,58.19935607910156,-45.1037712097168
3.32,-0.3158525824546814,2.7840490341186523,0.5982056260108948,0.9906706809997559,1.0881036520004272,1.6682729721069336,-25.738086700439453,58.857059478759766,-45.65916442871094
3.33,0.7238287925720215,3.6981072425842285,1.0803593397140503,1.196379542350769,-0.01038470957428217,1.6215417385101318,-23.911136627197266,59.09090805053711,-46.170711517333984
3.35,0.5144568085670471,4.658825397491455,1.794616937637329,1.3915510177612305,-1.146288514137268,1.6461291313171387,-21.748027801513672,58.81321334838867,-47.36919021606445
3.353,-2.249253273010254,4.579862117767334,2.115255117416382,1.4005612134933472,-1.5089898109436035,1.5169310569763184,-20.98801612854004,59.237064361572266,-47.98304748535156
3.36,-2.636890411376953,4.022334575653076,1.9800606966018677,1.2290607690811157,-1.2021827697753906,1.1998920440673828,-20.125694274902344,59.32476043701172,-48.30459213256836
3.37,-2.691925287246704,2.3808584213256836,-0.007178467698395252,0.9586002826690674,-0.7228062748908997,0.9089674949645996,-19.424144744873047,58.90090560913086,-49.41537857055664
3.38,-10.600204467773438,-4.118047714233398,-29.83490753173828,0.1394299864768982,4.984049320220947,-0.19333885610103607,-18.97106170654297,59.58784103393555,-50.30692672729492
3.39,5.3347978591918945,0.8386843204498291,-2.9204399585723877,1.129337191581726,5.003597259521484,-0.4415028393268585,-18.108739852905273,59.85091781616211,-50.19000244140625
3.409,3.847658634185791,0.10767702013254166,4.17427921295166,1.0038042068481445,3.6836700439453125,-0.6388123035430908,-18.18181800842285,60.391700744628906,-50.10231018066406
3.412,3.548555612564087,-3.1716861724853516,5.3587260246276855,0.7631233930587769,2.9162704944610596,-0.7576255798339844,-18.09412384033203,61.005558013916016,-50.11692810058594
3.42,4.0486555099487305,-5.014159679412842,6.340980052947998,0.4236350357532501,0.31413745880126953,-1.1322386264801025,-18.196434020996094,60.830162048339844,-50.365386962890625
3.43,2.6356940269470215,-8.725427627563477,8.208578109741211,-0.2837468981742859,-4.2252020835876465,-1.996002197265625,-18.81028938293457,60.50862121582031,-51.0815544128418
3.44,2.609373092651367,-16.42194175720215,11.216355323791504,-1.2043209075927734,-5.003597259521484,-2.540283203125,-20.08184814453125,61.736331939697266,-51.344635009765625
3.45,2.7003002166748047,-27.340391159057617,10.593025207519531,-2.395966053009033,-5.003597259521484,-2.305558204650879,-20.885705947875977,61.54633331298828,-50.43846893310547
3.47,5.601597309112549,-29.6279296875,6.611368656158447,-3.0786080360412598,-5.003597259521484,-1.014952540397644,-21.8503360748291,62.101722717285156,-48.01227569580078
3.474,2.468196392059326,-25.073192596435547,-1.7192429304122925,-1.539533019065857,-2.0454821586608887,1.3739886283874512,-21.791873931884766,62.598655700683594,-47.89535140991211
3.48,1.1078768968582153,-24.045475006103516,-2.9479572772979736,-0.5778785347938538,-0.4155410826206207,1.8547396659851074,-20.65185546875,62.46711730957031,-47.39842224121094
3.49,-1.0109676122665405,-21.687349319458008,-1.184447169303894,1.2825114727020264,2.4911084175109863,2.2438607215881348,-18.88336753845215,61.970184326171875,-48.494590759277344
3.5,-0.9140582084655762,-17.20439338684082,1.6857434511184692,1.9228510856628418,3.2510249614715576,2.0558669567108154,-17.582576751708984,63.168663024902344,-49.049983978271484
3.51,0.3684946596622467,-13.970494270324707,2.4119651317596436,2.140624523162842,2.9970574378967285,1.7440203428268433,-16.267173767089844,61.66325759887695,-50.02922821044922
3.529,1.92741858959198,-12.166306495666504,2.957528829574585,1.9853119850158691,0.9144652485847473,1.0952813625335693,-14.060215950012207,61.7947998046875,-52.104644775390625
3.533,3.6047871112823486,-10.819147109985352,2.6632113456726074,1.9281960725784302,0.3029891550540924,1.032667636871338,-13.460975646972656,61.721717834472656,-52.718502044677734
3.54,4.467399597167969,-10.090532302856445,2.420340061187744,1.8898643255233765,-0.6348416805267334,1.091616153717041,-13.183279037475586,61.648643493652344,-53.55158996582031
3.55,4.859822750091553,-9.58923625946045,2.0781664848327637,1.943315029144287,-1.7730363607406616,1.505935549736023,-12.087108612060547,61.10786056518555,-55.261619567871094
3.56,2.764906644821167,-10.511669158935547,2.7768707275390625,2.0499110221862793,-2.4390320777893066,2.0470094680786133,-10.713241577148438,61.12247848510742,-57.117801666259766
3.57,-0.0203389935195446,-12.321840286254883,3.823730707168579,2.0390682220458984,-2.4640774726867676,2.250274658203125,-9.35399055480957,59.865535736083984,-58.88629150390625
3.589,-1.2059825658798218,-14.879766464233398,4.522434711456299,1.9546160697937012,-1.7777705192565918,2.024254560470581,-7.7316575050354,59.13475799560547,-63.154048919677734
3.593,2.1678972244262695,-18.2225399017334,3.785445213317871,1.7878497838974,-1.107040524482727,1.105818748474121,-7.585501670837402,58.6962890625,-63.54867172241211
3.6,3.1956145763397217,-18.81476402282715,3.479163885116577,1.8232799768447876,-0.9162978529930115,0.6908885836601257,-6.942414283752441,58.50628662109375,-65.17100524902344
3.61,3.5808589458465576,-18.229719161987305,3.566502094268799,1.9923368692398071,-0.20234911143779755,0.3539963960647583,-6.942414283752441,57.27857208251953,-66.92487335205078
3.62,3.710071325302124,-16.68036651611328,3.61435866355896,2.196824073791504,1.394299864768982,0.3220787048339844,-7.395498275756836,57.08857345581055,-67.69950103759766
3.63,5.056034088134766,-14.941980361938477,2.9790639877319336,2.3738222122192383,2.738814353942871,0.4816672205924988,-6.299327373504639,56.51856231689453,-69.95030975341797
3.649,4.723431587219238,-11.528619766235352,0.698704183101654,2.7954719066619873,3.72688889503479,0.7542658448219299,-4.983922958374023,54.79391860961914,-71.54341125488281
3.652,1.9501503705978394,-8.37966537475586,-4.713860511779785,3.0274481773376465,4.00788688659668,0.8384125232696533,-4.618532657623291,54.16544723510742,-71.44110107421875
3.66,-14.274383544921875,3.5545380115509033,-29.45086097717285,4.838663101196289,5.003597259521484,0.7429648041725159,-3.507746458053589,53.478515625,-72.80035400390625
3.67,2.589033842086792,-18.180665969848633,-8.232505798339844,3.386942148208618,5.003597259521484,1.5204435586929321,-1.5784857273101807,51.213096618652344,-72.68342590332031
3.68,9.44207763671875,-9.743573188781738,-5.666203498840332,-2.713463306427002,4.644866466522217,1.5360206365585327,0.6869336366653442,51.403099060058594,-70.6957015991211
3.69,9.58923625946045,-1.7874385118484497,-9.401399612426758,-2.4892759323120117,-0.1898263692855835,1.387580394744873,1.388482928276062,51.49079132080078,-69.77491760253906
3.709,5.700900077819824,-4.420739650726318,0.727418065071106,-0.2854267954826355,-1.7062993049621582,1.7209601402282715,2.0900321006774902,51.169246673583984,-70.11107635498047
3.712,4.65523624420166,-4.470988750457764,1.6307085752487183,-0.03940080478787422,-1.4660766124725342,1.6788103580474854,1.7246419191360474,51.154632568359375,-70.71031951904297
3.72,3.521038293838501,-3.2949166297912598,1.810170292854309,0.08704829961061478,-0.9053022861480713,1.50211763381958,2.1046478748321533,51.4615592956543,-70.4910888671875
3.73,3.4648072719573975,-1.7611173391342163,1.9286149740219116,0.0138971833512187,-0.16172656416893005,1.1435396671295166,1.388482928276062,50.29231262207031,-71.52879333496094
3.74,4.149154186248779,-0.5168496966362,2.2779672145843506,-0.4447098672389984,0.4651738703250885,0.6588181853294373,1.8707979917526245,50.950016021728516,-70.6080093383789
3.75,3.269791841506958,0.7166503667831421,1.813759446144104,-0.9101892113685608,0.85368412733078,0.13316862285137177,1.6954107284545898,50.92078399658203,-70.25723266601562
3.769,3.260220766067505,1.3950154781341553,1.1425727605819702,-1.5658003091812134,1.4902057647705078,-0.9216429591178894,0.8330897688865662,51.81233215332031,-69.64337921142578
3.773,3.211167812347412,1.1222338676452637,1.1832507848739624,-1.6500996351242065,1.593900203704834,-1.0138835906982422,0.8769366145133972,52.075416564941406,-68.92721557617188
3.78,3.3966116905212402,0.7680960297584534,0.9475577473640442,-1.8952094316482544,1.8732181787490845,-1.2278391122817993,0.5846244096755981,53.18620300292969,-68.13796997070312
3.79,3.735196113586426,0.8171489238739014,0.12921242415905,-2.119244337081909,2.0619757175445557,-1.4013248682022095,0.45308390259742737,53.434669494628906,-66.77871704101562
3.8,3.8524441719055176,0.7262216210365295,-0.5276173949241638,-2.2238550186157227,2.0396790504455566,-1.4369077682495117,-0.9792458415031433,55.363929748535156,-64.49868774414062
3.81,3.0556344985961914,-0.9176474213600159,-2.7038893699645996,-2.3023509979248047,2.2430973052978516,-1.6725490093231201,-2.0608010292053223,55.46623992919922,-63.95790481567383
3.828,2.142772674560547,-8.065009117126465,-9.604789733886719,-1.6563609838485718,0.9271407127380371,-2.565481424331665,-4.311604976654053,57.64396286010742,-60.69862747192383
3.831,2.496910333633423,-10.73180866241455,-8.063812255859375,-1.4126259088516235,0.1768454760313034,-2.8099801540374756,-5.495469093322754,58.19935607910156,-60.31861877441406
3.84,2.9288148880004883,-13.412967681884766,-5.538187503814697,-1.2617422342300415,-1.4262175559997559,-3.2372803688049316,-6.401637077331543,59.16398620605469,-60.391700744628906
3.85,5.992824077606201,-14.493326187133789,-2.9455647468566895,-1.368032693862915,-3.224604845046997,-3.3119585514068604,-8.813212394714355,59.96784591674805,-59.36860275268555
3.86,6.096912384033203,-16.124034881591797,-2.6668004989624023,-1.209971308708191,-4.595691680908203,-3.386178731918335,-11.56094741821289,61.48787307739258,-58.9739875793457
3.87,6.246463775634766,-17.749958038330078,-1.9896320104599,-0.8205447196960449,-5.003597259521484,-3.5825719833374023,-14.980999946594238,62.20403289794922,-59.71937942504883
3.889,7.025327205657959,-24.211774826049805,3.125026226043701,-0.08765916526317596,-5.003597259521484,-4.035833835601807,-20.35954475402832,63.694828033447266,-58.78398513793945
3.893,7.424928665161133,-25.445276260375977,4.11924409866333,-0.11453723162412643,-5.003597259521484,-4.061490058898926,-21.54340934753418,63.94329071044922,-58.60859298706055
3.9,9.153742790222168,-28.284360885620117,6.064609050750732,-0.31352660059928894,-5.003597259521484,-3.838524341583252,-23.443437576293945,64.35253143310547,-58.345516204833984
3.91,7.808976650238037,-32.19542694091797,9.497113227844238,-0.8428412675857544,-4.859738349914551,-3.0634889602661133,-26.98041534423828,64.84945678710938,-56.65010070800781
3.92,5.209174633026123,-34.19941711425781,12.33141040802002,-1.7209601402282715,-2.8597655296325684,-2.0054705142974854,-28.70505714416504,65.6094741821289,-54.35545349121094
3.93,2.251646041870117,-32.20738983154297,11.422138214111328,-2.599231719970703,-0.18387043476104736,-1.1690433025360107,-29.31891441345215,65.9164047241211,-52.908504486083984
3.946,-2.228914260864258,-28.475784301757812,-1.124626636505127,-1.8978055715560913,2.3014347553253174,-1.318858027458191,-29.742765426635742,65.8579330444336,-50.61385726928711
3.95,-2.4909281730651855,-26.770898818969727,-2.1990039348602295,-1.2035571336746216,2.4552202224731445,-1.545030951499939,-29.508914947509766,66.06256103515625,-48.655364990234375
3.96,-0.4749752879142761,-19.873586654663086,-2.283949136734009,-0.10186177492141724,2.166128158569336,-1.5328136682510376,-29.87430763244629,66.26717376708984,-48.56766891479492
3.97,1.712064504623413,-15.276975631713867,-1.2119646072387695,0.03726277872920036,1.7348573207855225,-0.9865473508834839,-30.312772750854492,66.76410675048828,-47.82227325439453
3.98,2.4873390197753906,-12.005987167358398,-0.9499505758285522,-0.21960605680942535,1.4677565097808838,-0.5560400485992432,-30.07892417907715,67.18795776367188,-47.38380432128906
3.99,3.276970386505127,-9.421738624572754,-0.4498506486415863,-0.30833423137664795,0.8359690308570862,-0.4178318381309509,-30.415081024169922,67.04180145263672,-46.346099853515625
4.003,3.2685956954956055,-7.83410120010376,0.3397807776927948,-0.053908854722976685,-0.49235737323760986,-0.32788190245628357,-28.778135299682617,67.23180389404297,-45.62993240356445
4.01,2.575873613357544,-7.629514694213867,0.5168496966362,-0.0354301817715168,-0.9132435321807861,-0.2050980031490326,-28.588130950927734,67.45103454589844,-46.15609359741211
4.02,1.306481122970581,-7.038487434387207,0.11485548317432404,-0.03695734962821007,-1.1578950881958008,0.010079275816679,-27.945045471191406,68.07950592041016,-44.51914596557617
4.03,-0.08255238085985184,-6.754938125610352,-0.19980068504810333,0.035582900047302246,-1.3185526132583618,0.14355333149433136,-26.23501968383789,68.02104949951172,-44.94300079345703
4.04,-1.5421741008758545,-6.849454879760742,-0.4618147313594818,0.1589776873588562,-1.435227870941162,0.1866193264722824,-25.13884925842285,68.43028259277344,-45.30839157104492
4.058,-2.8378875255584717,-6.9714884757995605,-0.06340979784727097,0.30863967537879944,-1.2570078372955322,0.24419337511062622,-24.028060913085938,68.59104919433594,-46.43379211425781
4.063,-2.7589244842529297,-6.479763507843018,1.1042876243591309,0.314442902803421,-0.7489207983016968,0.48670685291290283,-22.025724411010742,68.56182098388672,-47.20841979980469
4.07,-1.5122638940811157,-5.898307800292969,1.470389485359192,0.2817615866661072,-0.4531092941761017,0.7383833527565002,-21.718795776367188,68.5764389038086,-47.58842468261719
4.08,-1.9992032051086426,-4.052245140075684,1.026520848274231,0.2898555397987366,-0.20295996963977814,1.145830512046814,-20.242618560791016,69.10260009765625,-48.684593200683594
4.09,-2.2612173557281494,-2.200200319290161,0.9846464395523071,0.42241328954696655,0.20265454053878784,1.4367550611495972,-18.766441345214844,68.62028503417969,-49.42999267578125
4.1,-1.9824535846710205,-0.2823530435562134,0.5730810165405273,0.693637490272522,0.3565925657749176,1.5468635559082031,-17.641040802001953,68.21105194091797,-50.89155578613281
4.119,-0.9846464395523071,1.5326027870178223,0.5659025311470032,0.9743300676345825,0.11820242553949356,1.5001323223114014,-16.091785430908203,67.68489074707031,-51.154632568359375
4.123,0.09212366491556168,4.053441524505615,1.270588755607605,1.3037391901016235,-0.6444628238677979,1.4208725690841675,-15.14177131652832,67.78719329833984,-53.7562141418457
4.13,0.12442676723003387,4.754538536071777,1.987239122390747,1.4787520170211792,-1.2260066270828247,1.4275920391082764,-14.177140235900879,67.04180145263672,-55.2762336730957
4.14,-0.9702895283699036,5.359922409057617,2.950350046157837,1.5851951837539673,-1.7664695978164673,1.4149165153503418,-13.972522735595703,67.31949615478516,-56.708560943603516
4.15,-4.047459602355957,1.9022939205169678,2.939582586288452,1.4535537958145142,-1.617723822593689,1.280220866203308,-13.387897491455078,65.58023834228516,-59.295528411865234
4.16,-3.2518458366394043,4.086941242218018,2.5806589126586914,1.0563386678695679,-0.8068002462387085,0.8662069439888,-12.65711784362793,65.50716400146484,-59.74861526489258
4.178,-3.4540393352508545,2.994617462158203,0.5611169338226318,0.8040513396263123,0.012828170321881771,0.5053382515907288,-12.569424629211426,64.63021850585938,-60.596317291259766
4.183,-17.505889892578125,-6.859025955200195,-18.741783142089844,-0.7710646390914917,4.610963344573975,-0.3332270085811615,-12.803274154663086,64.14791107177734,-61.12247848510742
4.19,-0.7896314859390259,-2.053041696548462,-7.792226791381836,-0.6705772876739502,5.003597259521484,-1.3112223148345947,-12.70096492767334,64.10406494140625,-60.33323287963867
4.2,6.157928943634033,2.3126630783081055,0.6687938570976257,-0.06108652427792549,5.003597259521484,-1.3591750860214233,-12.832504272460938,64.55714416503906,-58.345516204833984
4.21,5.02731990814209,0.3852444291114807,1.9022939205169678,0.4528038501739502,5.003597259521484,-0.9593638181686401,-13.227126121520996,63.665592193603516,-58.053199768066406
4.22,3.5844480991363525,-2.6668004989624023,2.520838737487793,0.64217209815979,3.927557945251465,-1.0109819173812866,-13.636363983154297,64.16252899169922,-57.950889587402344
4.239,3.3032915592193604,-6.546762466430664,5.213960647583008,0.43447789549827576,0.9019425511360168,-1.361160397529602,-15.346389770507812,63.168663024902344,-59.09090805053711
4.243,0.47258248925209045,-16.04985809326172,9.007781028747559,-0.8811730742454529,-3.4011447429656982,-2.101376533508301,-16.88102912902832,64.16252899169922,-58.3747444152832
4.25,1.1545369625091553,-18.265609741210938,10.333403587341309,-1.5218180418014526,-4.260785102844238,-2.1639902591705322,-18.021047592163086,63.709442138671875,-58.79859924316406
4.26,1.7491532564163208,-28.335803985595703,10.29631519317627,-3.0274481773376465,-4.932889461517334,-1.8087719678878784,-20.169540405273438,64.57176208496094,-57.760887145996094
4.27,5.136193752288818,-29.583662033081055,6.4905314445495605,-3.455512046813965,-3.955657958984375,-0.5160284042358398,-21.236480712890625,64.48406982421875,-56.59164047241211
4.28,3.992424488067627,-26.50050926208496,0.5910272002220154,-2.4132230281829834,-1.7276794910430908,1.0769554376602173,-21.48494529724121,64.87869262695312,-55.53931427001953
4.299,3.269791841506958,-23.728424072265625,-2.286341905593872,-0.42592576146125793,0.11468994617462158,2.09694766998291,-20.564163208007812,63.577903747558594,-53.78544235229492
4.304,2.031506299972534,-16.61456298828125,-0.44745784997940063,1.6859880685806274,0.8810203671455383,2.615724802017212,-19.234142303466797,63.680206298828125,-54.063140869140625
4.31,2.3605194091796875,-14.888141632080078,0.22013966739177704,2.2548563480377197,0.6090326309204102,2.590221405029297,-17.553346633911133,63.080970764160156,-56.942413330078125
4.32,2.895315170288086,-12.167502403259277,2.0925233364105225,2.6429085731506348,-0.2721404433250427,2.3939807415008545,-17.027183532714844,62.774044036865234,-56.8985710144043
4.33,3.548555612564087,-10.490134239196777,3.018545627593994,2.674215316772461,-1.3555099964141846,2.2200369834899902,-14.834843635559082,61.648643493652344,-58.56474685668945
4.34,3.235095977783203,-9.602396965026855,3.4755747318267822,2.5535693168640137,-2.2681427001953125,2.19163179397583,-13.607131958007812,61.59017562866211,-59.70476150512695
4.36,1.7419748306274414,-10.060623168945312,3.603590726852417,2.4002420902252197,-2.674215316772461,2.2153027057647705,-12.876352310180664,60.610931396484375,-61.4732551574707
4.363,-1.466800332069397,-11.552547454833984,4.815555572509766,2.0529654026031494,-1.8898643255233765,2.094351291656494,-12.452499389648438,59.456298828125,-63.76790237426758
4.37,-1.4273186922073364,-12.217752456665039,4.766502380371094,1.858099341392517,-1.010523796081543,1.9735528230667114,-11.590178489685059,58.93013381958008,-64.23560333251953
4.38,1.2646067142486572,-14.35573959350586,4.792823314666748,1.7339410781860352,-0.09758572280406952,1.784031867980957,-11.268634796142578,58.60859298706055,-65.49254608154297
4.39,2.2564315795898438,-16.919647216796875,5.173282623291016,1.7088954448699951,0.2704605758190155,1.447292447090149,-10.187079429626465,56.95703125,-65.4779281616211
4.4,2.7828526496887207,-18.65803337097168,5.635097026824951,1.7079792022705078,0.9074403047561646,1.027169942855835,-9.54399299621582,57.08857345581055,-66.69102478027344
4.42,3.7782669067382812,-19.214365005493164,5.513063430786133,1.8157968521118164,1.959808349609375,0.5765040516853333,-7.965507507324219,55.64162826538086,-68.06489562988281
4.423,5.966503143310547,-18.126827239990234,4.295116424560547,2.09389328956604,3.0576860904693604,0.4833471179008484,-7.322420120239258,55.173927307128906,-67.68489074707031
4.43,6.697510242462158,-16.80957794189453,3.5940194129943848,2.26737904548645,3.4684927463531494,0.6475171446800232,-7.05933952331543,54.647762298583984,-68.5764389038086
4.44,6.64486837387085,-14.694323539733887,2.5399811267852783,2.475836753845215,3.7426185607910156,0.9314167499542236,-6.387021541595459,54.633148193359375,-69.70184326171875
4.45,6.345765590667725,-12.692727088928223,1.4309078454971313,2.7238481044769287,3.874870777130127,1.201724648475647,-4.998538494110107,52.937740325927734,-68.72259521484375
4.46,-3.733999490737915,-1.5086746215820312,-22.75334930419922,3.570965528488159,4.690223217010498,1.4848606586456299,-3.683133363723755,52.25080108642578,-69.90646362304688
4.48,2.444268226623535,-17.740386962890625,-18.747764587402344,2.0337231159210205,5.003597259521484,2.2579104900360107,-1.6369482278823853,50.73078155517578,-70.35954284667969
4.483,14.79841136932373,-4.694717884063721,-8.894121170043945,-3.9327504634857178,2.4691174030303955,1.1669052839279175,1.783104419708252,49.86845779418945,-67.07102966308594
4.49,14.609378814697266,-1.9142580032348633,-6.337390422821045,-3.2285754680633545,-0.7070765495300293,1.186300277709961,2.0608010292053223,49.766151428222656,-65.66793060302734
4.5,10.004390716552734,-4.019941806793213,-1.3208380937576294,-1.6030629873275757,-2.931542158126831,1.4698944091796875,2.586962938308716,49.70768737792969,-64.46945190429688
4.51,5.389832496643066,-3.8632121086120605,0.9906285405158997,-0.48777589201927185,-3.1593949794769287,1.458593487739563,2.616194009780884,49.210758209228516,-65.33177185058594
4.52,3.610769271850586,-2.68953275680542,1.1042876243591309,0.07467827200889587,-1.951256275177002,1.0332785844802856,2.835428237915039,49.049983978271484,-65.79947662353516
4.541,3.5162527561187744,-0.6484549045562744,1.4620145559310913,0.052228979766368866,-0.8416195511817932,0.6519458889961243,3.5223617553710938,48.83074951171875,-66.0771713256836
4.544,3.8979079723358154,1.6342978477478027,2.4251255989074707,-0.6177374720573425,-0.0029016099870204926,0.1996002048254013,3.683133363723755,48.24612808227539,-66.12101745605469
4.55,3.8775689601898193,2.0853447914123535,2.3700907230377197,-0.8546004891395569,-0.06001751124858856,0.02382374368607998,3.2592811584472656,47.95381546020508,-65.8140869140625
4.56,3.080759048461914,1.9645073413848877,2.1882362365722656,-1.2424999475479126,-0.29764407873153687,-0.39477166533470154,3.624671220779419,48.406898498535156,-65.20023345947266
4.57,2.3389840126037598,1.3962119817733765,1.9405790567398071,-1.6771304607391357,-0.3306308090686798,-0.8849909901618958,2.2946505546569824,48.669979095458984,-64.5133056640625
4.58,2.231307029724121,1.4404791593551636,0.9523433446884155,-1.835344672203064,-0.2900082468986511,-1.2011137008666992,2.3677287101745605,48.90382766723633,-63.694828033447266
4.6,2.647658109664917,1.6450655460357666,0.20458632707595825,-1.8342756032943726,-0.23090705275535583,-1.4089607000350952,0.6430867910385132,49.26921844482422,-63.0371208190918
4.604,3.0616164207458496,1.4333007335662842,-0.7680960297584534,-1.5891659259796143,0.09285151958465576,-1.553430199623108,0.11692487448453903,50.160770416259766,-61.12247848510742
4.61,2.8187451362609863,0.5503491759300232,-1.5481561422348022,-1.5047138929367065,0.43020185828208923,-1.6128369569778442,-0.8769366145133972,50.13154220581055,-60.87401580810547
4.62,1.0336993932724,-2.882154941558838,-3.7842490673065186,-1.2716686725616455,1.3967432975769043,-2.0862574577331543,-1.5346390008926392,51.06694030761719,-60.0555419921875
4.63,0.1902294009923935,-7.7144598960876465,-5.582455158233643,-1.0708467960357666,1.5836681127548218,-2.707507610321045,-2.5723471641540527,50.789241790771484,-58.59397506713867
4.64,2.4670000076293945,-9.773483276367188,-4.535595417022705,-1.017701506614685,0.8970555663108826,-3.1093039512634277,-4.223911285400391,51.6807975769043,-57.921661376953125
4.659,3.8285160064697266,-12.494123458862305,-3.4205398559570312,-1.0948232412338257,-0.4306599795818329,-3.2960762977600098,-7.483191967010498,52.42618942260742,-56.693946838378906
4.663,4.311866283416748,-14.041082382202148,-2.874976396560669,-1.0138835906982422,-2.4080307483673096,-3.7704129219055176,-8.287050247192383,52.23618698120117,-55.93394088745117
4.67,4.931607246398926,-15.554543495178223,-2.8773691654205322,-0.7305948138237,-3.0758590698242188,-4.099669456481934,-9.953229904174805,51.914642333984375,-55.91931915283203
4.68,7.93459939956665,-19.062421798706055,-1.8903299570083618,-0.18188512325286865,-3.9458839893341064,-4.5240678787231445,-12.043262481689453,52.64542770385742,-55.89009094238281
4.69,9.328418731689453,-24.40200424194336,0.28594231605529785,0.33948835730552673,-4.7923903465271,-4.758028984069824,-14.440221786499023,52.47003936767578,-56.913185119628906
4.7,11.59442138671875,-31.570899963378906,4.393222332000732,0.4514293968677521,-5.003597259521484,-4.54483699798584,-17.567962646484375,53.127742767333984,-57.512420654296875
4.72,9.328418731689453,-39.19921875,9.919445991516113,-0.7623597979545593,-3.6474764347076416,-2.1007654666900635,-20.754165649414062,52.265419006347656,-57.84858322143555
4.723,5.547759056091309,-38.82115173339844,10.78564739227295,-1.2765556573867798,-2.4950790405273438,-1.5105170011520386,-21.119556427001953,52.002342224121094,-57.497806549072266
4.73,2.8654050827026367,-36.47499084472656,8.468198776245117,-1.8397732973098755,-0.6111707091331482,-1.0111346244812012,-21.777257919311523,50.92078399658203,-57.000877380371094
4.74,-1.5074782371520996,-31.737201690673828,3.462414264678955,-1.9164369106292725,0.8423831462860107,-1.0723739862442017,-21.791873931884766,51.62232971191406,-55.70008850097656
4.75,-2.3509480953216553,-26.772096633911133,-0.8458627462387085,-1.3246612548828125,1.295186996459961,-1.2278391122817993,-22.566499710083008,50.584625244140625,-56.6354866027832
4.76,-1.550549030303955,-20.001604080200195,-1.698904037475586,-0.8753698468208313,0.5392412543296814,-1.1968377828598022,-23.472667694091797,51.30078887939453,-57.07395553588867
4.779,0.11844471842050552,-15.401402473449707,-0.26560330390930176,-0.9758571982383728,-0.161268413066864,-0.5280929803848267,-24.75884246826172,50.964630126953125,-56.56240463256836
4.782,0.2799602448940277,-10.510473251342773,-0.017946168780326843,-0.8881980180740356,-0.22937989234924316,-0.42119157314300537,-25.197309494018555,50.555397033691406,-57.936275482177734
4.79,0.4654039740562439,-9.098708152770996,0.5072783827781677,-0.7156286239624023,-0.47021350264549255,-0.32559117674827576,-25.358083724975586,49.89768981933594,-57.717044830322266
4.8,0.784845769405365,-8.178667068481445,0.5850450992584229,-0.5149593949317932,-0.8683449029922485,-0.15012012422084808,-26.746564865112305,50.789241790771484,-58.433204650878906
4.81,0.28953152894973755,-7.350750923156738,0.4307080805301666,-0.3199406564235687,-1.052215337753296,0.1635591685771942,-27.06810760498047,50.3800048828125,-58.550132751464844
4.82,-0.4486542344093323,-6.58265495300293,0.3361915946006775,-0.08811730891466141,-1.1539243459701538,0.4332561492919922,-27.15580177307129,50.336158752441406,-58.25782012939453
4.839,-0.7345964908599854,-5.319244384765625,0.2763710021972656,0.3245221674442291,-1.2357803583145142,0.8617781400680542,-28.251972198486328,50.64308547973633,-59.19321823120117
4.842,-1.4009976387023926,-4.900500774383545,0.22971096634864807,0.41141775250434875,-1.1731666326522827,0.9917396903038025,-28.558900833129883,50.160770416259766,-59.251678466796875
4.85,-1.9657037258148193,-4.419543266296387,0.6149553656578064,0.5351179242134094,-0.9172141551971436,1.1326968669891357,-28.06197166442871,50.24846649169922,-59.909385681152344
4.86,-2.169093608856201,-3.676571846008301,0.9451649785041809,0.6354525089263916,-0.5180137157440186,1.28128981590271,-28.515052795410156,50.87693786621094,-60.50862121582031
4.87,-1.676172137260437,-3.0305097103118896,1.0564311742782593,0.6989825963973999,-0.14309518039226532,1.4445436000823975,-27.798887252807617,50.51154327392578,-60.990936279296875
4.88,-1.2693923711776733,-1.9465612173080444,1.0348957777023315,0.7819074988365173,0.18616119027137756,1.652390480041504,-27.63811683654785,50.89155578613281,-60.46477508544922
4.899,-1.6462620496749878,-0.314656138420105,0.638883650302887,1.0812314748764038,0.3481931984424591,1.7328718900680542,-26.512714385986328,50.86231994628906,-61.8532600402832
4.903,0.10408778488636017,1.3148560523986816,0.5754737854003906,1.1998920440673828,0.13698652386665344,1.7163785696029663,-26.512714385986328,51.11078643798828,-62.554805755615234
4.91,1.361515998840332,2.4981067180633545,0.6771687865257263,1.4401147365570068,-0.4245513379573822,1.7156150341033936,-26.571178436279297,50.5992431640625,-62.160186767578125
4.92,3.1621150970458984,4.216153621673584,1.368694543838501,1.8365663290023804,-1.7162258625030518,1.6951509714126587,-25.825780868530273,50.570011138916016,-63.3148193359375
4.93,4.2616167068481445,6.551548480987549,2.537588357925415,2.579073190689087,-4.196644306182861,1.6137531995773315,-26.191171646118164,49.48845672607422,-64.65946197509766
4.94,1.3423734903335571,6.247659683227539,5.227120876312256,2.989421844482422,-5.003597259521484,1.3703234195709229,-26.4104061126709,49.31306457519531,-64.99561309814453
4.959,-1.798206090927124,2.823530673980713,6.350551128387451,2.350762128829956,-4.997794151306152,-0.04306599870324135,-27.915815353393555,48.88921356201172,-66.47179412841797
4.962,-2.0889341831207275,1.3411771059036255,5.499902248382568,2.180941581726074,-4.931514739990234,-0.19028452038764954,-28.588130950927734,47.95381546020508,-66.92487335205078
4.97,-1.5469597578048706,0.3565305471420288,3.235095977783203,1.7398968935012817,-4.069431781768799,-0.5222897529602051,-28.70505714416504,47.70534896850586,-67.33411407470703
4.98,-39.134613037109375,-21.117856979370117,-10.65404224395752,-2.1739165782928467,5.003597259521484,-2.1140518188476562,-29.479684829711914,48.14381790161133,-66.8371810913086
4.99,-5.005784511566162,-4.5583271980285645,-2.187039852142334,-2.833193063735962,5.003597259521484,-3.9959750175476074,-28.763521194458008,47.89535140991211,-65.90177917480469
5.0,11.739187240600586,2.510071039199829,4.482953071594238,-2.091297149658203,5.003597259521484,-4.225965976715088,-26.936567306518555,48.085357666015625,-64.54253387451172
5.019,14.392827987670898,-0.3170489966869354,5.808576583862305,-0.6721044778823853,5.003597259521484,-2.4909558296203613,-26.39579200744629,48.099971771240234,-63.43174743652344
5.023,13.944173812866211,-1.3651052713394165,5.347958564758301,-0.5703954100608826,5.003597259521484,-2.3017401695251465,-26.49810028076172,47.734580993652344,-63.51943588256836
5.03,10.712667465209961,-3.7256245613098145,4.394418716430664,-0.3087923526763916,1.6033685207366943,-1.8037323951721191,-26.761180877685547,46.930721282958984,-62.87635040283203
5.04,5.526223659515381,-9.102296829223633,5.138586521148682,-0.3885102868080139,-2.1174116134643555,-1.6209309101104736,-27.360422134399414,47.237648010253906,-62.45249938964844
5.05,4.637290000915527,-13.708479881286621,5.958127975463867,-0.8524624109268188,-4.172514915466309,-1.5183055400848389,-28.851213455200195,47.06226348876953,-61.10786056518555
5.06,4.023531436920166,-18.62932014465332,6.4079790115356445,-1.5132659673690796,-4.978551864624023,-0.9932668805122375,-29.698917388916016,47.529964447021484,-60.420928955078125
5.079,3.071187734603882,-23.491535186767578,-0.08015955239534378,-1.332755208015442,-3.143512487411499,1.4263702630996704,-29.845073699951172,47.5591926574707,-58.360130310058594
5.083,0.09810572117567062,-24.03590202331543,-2.7972095012664795,-0.7383833527565002,-2.0642664432525635,2.1004600524902344,-29.947385787963867,47.296112060546875,-57.80473327636719
5.09,-1.3160523176193237,-24.05624008178711,-1.998006820678711,0.34376442432403564,-0.23151792585849762,2.7096455097198486,-28.880443572998047,46.98918533325195,-57.98012161254883
5.1,-3.555734395980835,-24.972694396972656,2.880958318710327,1.1565206050872803,1.4647021293640137,2.825098991394043,-27.652734756469727,47.32534408569336,-57.62934875488281
5.11,-3.785445213317871,-20.907285690307617,4.082155227661133,1.1669052839279175,2.059837579727173,2.361452341079712,-26.381174087524414,47.03303146362305,-58.74013137817383
5.12,-2.857030153274536,-15.829717636108398,3.0245277881622314,1.1116219758987427,1.9570595026016235,1.7765488624572754,-25.460391998291016,47.01841354370117,-58.477054595947266
5.135,0.9092725515365601,-13.685748100280762,3.1692936420440674,0.8842273950576782,1.2255483865737915,1.2362385988235474,-24.87576675415039,46.4191780090332,-59.20783233642578
5.14,2.396411657333374,-13.88674545288086,3.0077779293060303,0.7437283992767334,0.9285151958465576,1.3492486476898193,-24.378835678100586,47.39842224121094,-59.880149841308594
5.15,3.4959137439727783,-13.98963737487793,2.4837498664855957,0.5132794976234436,0.299018532037735,1.8235853910446167,-23.341127395629883,47.1207275390625,-59.076290130615234
5.16,3.445664644241333,-13.465608596801758,1.798206090927124,0.4237877428531647,-0.4833471179008484,2.342820882797241,-22.698041915893555,46.682254791259766,-59.16398620605469
5.17,3.080759048461914,-12.847064018249512,1.5074782371520996,0.4944954216480255,-1.3480268716812134,2.6934573650360107,-22.011106491088867,46.62379455566406,-59.01782989501953
5.18,2.66560435295105,-12.470193862915039,1.5038889646530151,0.65958172082901,-2.2550089359283447,2.8499915599823,-20.695703506469727,46.82841491699219,-58.40397644042969
5.199,2.0003998279571533,-13.517054557800293,1.412961721420288,1.3115276098251343,-3.663206100463867,2.6314547061920166,-19.891843795776367,46.27302169799805,-60.216312408447266
5.203,1.6474583148956299,-14.11167049407959,1.408176064491272,1.532508134841919,-3.833331823348999,2.5172231197357178,-19.146448135375977,46.22917175292969,-60.289390563964844
5.21,1.153340458869934,-15.215959548950195,1.6749757528305054,1.9017761945724487,-3.9090793132781982,2.278221845626831,-18.70798110961914,45.87839889526367,-60.55247116088867
5.22,-0.4259223937988281,-16.9722900390625,3.4085757732391357,2.393064498901367,-3.664733409881592,1.7641788721084595,-18.91259765625,46.126861572265625,-61.28324890136719
5.23,0.7417749762535095,-17.40778350830078,4.999802589416504,2.6374106407165527,-2.749504566192627,1.0296133756637573,-18.225666046142578,44.82607650756836,-62.759429931640625
5.248,3.915853977203369,-17.522640228271484,5.608776569366455,2.7168233394622803,-1.134682059288025,0.607810914516449,-18.5325927734375,44.91376876831055,-64.04560089111328
5.252,5.787041664123535,-15.337992668151855,4.153940200805664,2.565176010131836,0.6388123035430908,0.8660541772842407,-18.459514617919922,44.431453704833984,-65.56562042236328
5.26,5.917449951171875,-13.715659141540527,2.9168508052825928,2.5447118282318115,1.6059646606445312,1.1427761316299438,-17.772581100463867,44.19760513305664,-65.96024322509766
5.27,5.060819625854492,-11.584851264953613,1.7228323221206665,2.665816068649292,2.6119070053100586,1.3662000894546509,-16.70564079284668,43.7445182800293,-65.96024322509766
5.28,-2.7768707275390625,-5.260620594024658,-10.360921859741211,3.22674298286438,3.9295434951782227,1.3535245656967163,-15.653318405151367,44.256065368652344,-67.10026550292969
5.29,-13.625927925109863,-6.254837989807129,-14.35573959350586,3.9176313877105713,5.003597259521484,1.5445727109909058,-14.147910118103027,43.08681869506836,-67.74334716796875
5.309,7.295715808868408,-13.101899147033691,-0.3230310380458832,-1.711033582687378,5.003597259521484,1.7595973014831543,-11.75094985961914,42.98450469970703,-66.36947631835938
5.313,11.900703430175781,-1.9381862878799438,-10.098907470703125,-3.478113889694214,3.168863296508789,0.855516791343689,-9.836304664611816,43.58374786376953,-62.84711837768555
5.32,10.52841854095459,-1.1736794710159302,-5.809772968292236,-2.3096816539764404,0.9570730924606323,0.8391761183738708,-9.850920677185059,43.93452072143555,-61.8971061706543
5.33,8.6033935546875,-3.482753276824951,0.1746760457754135,-1.1102474927902222,-0.3459024429321289,1.179580807685852,-9.149372100830078,43.6422119140625,-61.66325759887695
5.34,7.22034215927124,-3.1621150970458984,1.5948163270950317,-0.4118758738040924,-0.9862419366836548,1.4329371452331543,-8.47705364227295,44.372989654541016,-61.66325759887695
5.35,5.050052165985107,-1.3435698747634888,1.2143574953079224,-0.16096298396587372,-1.1537716388702393,1.2429579496383667,-8.1262788772583,43.58374786376953,-61.8971061706543
5.368,4.576272964477539,0.24287149310112,0.9523433446884155,-0.09605855494737625,-1.0264062881469727,0.9240863919258118,-7.190880298614502,44.31452941894531,-60.93247604370117
5.372,4.156332969665527,0.8039883971214294,1.137787103652954,-0.16600261628627777,-0.6247624158859253,0.5413792729377747,-7.205495357513428,44.03683090209961,-61.531715393066406
5.38,4.204189300537109,1.3471590280532837,1.1521440744400024,-0.24159719049930573,-0.317497193813324,0.3152064383029938,-6.810873985290527,44.22683334350586,-61.312477111816406
5.39,3.919443368911743,1.176072359085083,0.9535397887229919,-0.3998112976551056,0.23136521875858307,0.07406741380691528,-6.489330291748047,44.28529739379883,-61.195556640625
5.4,2.68953275680542,-0.15912269055843353,0.7525426745414734,-0.6690501570701599,0.7008151412010193,-0.1592831164598465,-6.226249694824219,44.91376876831055,-60.216312408447266
5.41,2.5160529613494873,-0.1495514065027237,0.3684946596622467,-0.9566149711608887,0.9871582388877869,-0.536797821521759,-6.0800933837890625,44.79684066772461,-59.64630126953125
5.429,2.4323041439056396,-0.4163511395454407,0.15314064919948578,-1.365283727645874,1.262047529220581,-1.0441213846206665,-5.817012310028076,45.62993240356445,-58.155513763427734
5.433,6.295516014099121,-1.1066803932189941,-5.7164530754089355,-2.50103497505188,0.7600690722465515,-1.9889771938323975,-6.547792911529541,45.46916198730469,-57.35165023803711
5.44,5.61834716796875,-3.1034910678863525,-7.597211837768555,-2.3524420261383057,-0.33246341347694397,-2.074651002883911,-6.942414283752441,45.95147705078125,-55.67085647583008
5.45,1.9010975360870361,-5.831308364868164,-4.358526229858398,-1.966680645942688,-2.353358268737793,-2.1873557567596436,-8.009353637695312,46.25840377807617,-55.14469909667969
5.46,-2.1475582122802734,-9.488738059997559,-3.9038898944854736,-1.845271110534668,-2.7426321506500244,-2.517681121826172,-9.22244930267334,47.38380432128906,-54.8377685546875
5.47,-3.5365920066833496,-12.555140495300293,-4.983053207397461,-1.599703311920166,-2.356412649154663,-3.1257975101470947,-10.49400806427002,46.63841247558594,-54.42852783203125
5.489,-1.6259229183197021,-14.212169647216797,-3.3415768146514893,-1.256244421005249,-2.071749448776245,-3.886630058288574,-11.56094741821289,47.20841979980469,-53.87313461303711
5.493,3.042473793029785,-15.243475914001465,0.03349951654672623,-1.0346529483795166,-2.336101531982422,-4.753753185272217,-13.753289222717285,47.9391975402832,-52.99620056152344
5.5,4.332205295562744,-16.03310775756836,0.7262216210365295,-1.0919215679168701,-2.735759973526001,-4.9956560134887695,-15.039462089538574,48.69921112060547,-53.5369758605957
5.51,6.22492790222168,-19.569700241088867,1.9130616188049316,-1.2344058752059937,-3.2201762199401855,-5.003597259521484,-16.997953414916992,48.026893615722656,-52.703887939453125
5.52,7.186842441558838,-24.72264289855957,3.3858439922332764,-1.3437508344650269,-3.442072868347168,-5.003597259521484,-18.795673370361328,48.976905822753906,-51.11078643798828
5.53,9.6466646194458,-29.592037200927734,4.552344799041748,-1.3602441549301147,-3.486513376235962,-4.93747091293335,-20.534931182861328,48.72844314575195,-50.993858337402344
5.549,11.124231338500977,-33.50788879394531,4.374079704284668,-1.1843149662017822,-3.151453733444214,-4.090811729431152,-22.464191436767578,48.976905822753906,-49.6784553527832
5.553,5.745166778564453,-36.85425567626953,7.039684295654297,-1.112385630607605,-1.4596624374389648,-2.2844831943511963,-23.66267204284668,48.87459945678711,-48.9184455871582
5.56,3.242274522781372,-34.33460998535156,6.098108291625977,-1.2753338813781738,-0.12278390675783157,-1.508684515953064,-23.954984664916992,48.55305480957031,-49.239986419677734
5.57,-0.787238597869873,-30.952356338500977,2.937189817428589,-1.173624873161316,0.30726519227027893,-1.0949759483337402,-23.618824005126953,48.611515045166016,-47.1791877746582
5.58,-3.7914273738861084,-27.32723045349121,0.6305087208747864,-0.8489499688148499,0.375071257352829,-1.2218831777572632,-23.925752639770508,48.93306350708008,-47.09149169921875
5.59,-3.37268328666687,-22.297517776489258,-0.24885353446006775,-0.6644686460494995,0.06841690838336945,-1.2959506511688232,-23.9695987701416,48.93306350708008,-46.521484375
5.61,-1.117448091506958,-17.405391693115234,0.7680960297584534,-0.940732479095459,0.032681290060281754,-1.126588225364685,-24.013446807861328,48.421512603759766,-45.790706634521484
5.614,1.1988041400909424,-11.277373313903809,-0.6149553656578064,-1.0332785844802856,0.058948494493961334,-0.8028296232223511,-24.174217224121094,48.83074951171875,-45.4837760925293
5.62,1.3914263248443604,-9.17886734008789,-1.1772687435150146,-0.835358202457428,-0.14049901068210602,-0.6748533248901367,-24.21806526184082,48.81613540649414,-45.132999420166016
5.63,0.8434699773788452,-7.746763229370117,-0.9966105818748474,-0.5314527750015259,-0.3995058536529541,-0.5207626223564148,-24.247295379638672,48.5384407043457,-44.69453430175781
5.64,0.0813559740781784,-6.81595516204834,-0.7884350419044495,-0.33979377150535583,-0.4108068645000458,-0.318566232919693,-23.808828353881836,49.07921600341797,-44.50453186035156
5.65,-0.5670989155769348,-6.088537216186523,-0.8482555747032166,-0.14553864300251007,-0.3546072542667389,-0.0027488935738801956,-23.2095890045166,48.45074462890625,-44.75299835205078
5.669,-0.9415756464004517,-5.870790004730225,-0.7585247159004211,0.029626963660120964,-0.48640143871307373,0.222965806722641,-22.975738525390625,48.74305725097656,-44.09529113769531
5.673,-2.482553482055664,-5.018945217132568,-0.9128617644309998,0.26404649019241333,-0.48258352279663086,0.5390886068344116,-22.522653579711914,48.43613052368164,-44.76761245727539
5.68,-2.449054002761841,-5.148157596588135,-0.3840480148792267,0.36682456731796265,-0.3862195312976837,0.7302893400192261,-21.894182205200195,48.421512603759766,-45.732242584228516
5.69,-3.22552490234375,-5.124229431152344,0.27397817373275757,0.3758348524570465,-0.3439171314239502,0.9773843884468079,-21.324174880981445,47.9391975402832,-45.95147705078125
5.7,-3.8727831840515137,-4.883750915527344,0.33858439326286316,0.2808452844619751,-0.1569923609495163,1.1720976829528809,-20.73954963684082,48.01227569580078,-46.15609359741211
5.71,-4.00199556350708,-4.326223373413086,0.234496608376503,0.215482696890831,0.039095375686883926,1.2185235023498535,-19.701841354370117,47.76381301879883,-46.477638244628906
5.729,-3.2482566833496094,-3.676571846008301,0.5335994362831116,0.15821409225463867,0.26801711320877075,1.2496775388717651,-18.70798110961914,46.46302032470703,-46.550716400146484
5.733,-2.124826431274414,-2.6428725719451904,0.5730810165405273,0.12889257073402405,0.6044511198997498,1.4033100605010986,-18.196434020996094,46.71148681640625,-47.19380569458008
5.74,-1.5158531665802002,-1.9298113584518433,0.5024927258491516,0.16462817788124084,0.7651087045669556,1.525635838508606,-17.553346633911133,46.71148681640625,-46.916107177734375
5.75,-0.7992027401924133,-0.7429714202880859,0.15912269055843353,0.2991712689399719,0.7996225953102112,1.63162100315094,-17.071033477783203,46.4191780090332,-47.41303634643555
5.76,0.11964112520217896,0.5838487148284912,-0.1746760457754135,0.6766859889030457,0.3972151279449463,1.6345226764678955,-16.369482040405273,46.15609359741211,-47.57380676269531
5.77,0.7405785322189331,1.939382791519165,-0.38285163044929504,1.112691044807434,-0.21380282938480377,1.582751750946045,-15.317158699035645,45.4399299621582,-47.03303146362305
5.789,0.6879364848136902,2.3234305381774902,-0.09810572117567062,1.5190690755844116,-0.8234463334083557,1.4695889949798584,-14.11867904663086,45.14761734008789,-48.421512603759766
5.793,-0.5240281224250793,3.2757742404937744,-1.2011969089508057,1.8138116598129272,-0.38438695669174194,1.2270755767822266,-13.329436302185059,43.817596435546875,-49.166908264160156
5.8,-1.712064504623413,1.3902299404144287,-0.9272187352180481,1.606728196144104,0.8993463516235352,1.0775662660598755,-12.847121238708496,44.051448822021484,-49.94153594970703
5.81,0.882951557636261,-1.4416755437850952,0.7357929348945618,-0.06902776658535004,4.813617706298828,-0.21945331990718842,-12.627885818481445,43.379127502441406,-49.10844802856445
5.82,8.255237579345703,-1.5314065217971802,0.29790639877319336,-0.7512114644050598,4.905247688293457,-1.1459832191467285,-12.101724624633789,43.072200775146484,-48.34843444824219
5.83,8.885746002197266,-1.7335999011993408,2.5112671852111816,-0.6157521605491638,2.851060628890991,-1.3119858503341675,-11.809412002563477,43.247589111328125,-47.2230339050293
5.85,5.38624382019043,-1.8317056894302368,3.9828531742095947,-0.5632177591323853,0.21273382008075714,-1.1009318828582764,-11.429407119750977,43.02835464477539,-45.68839645385742
5.853,2.8342983722686768,-2.8247268199920654,3.8141591548919678,-0.5196936130523682,-2.370004177093506,-0.806036651134491,-11.23940372467041,42.79450607299805,-46.02455520629883
5.86,1.8987046480178833,-3.8452658653259277,4.3046875,-0.5099197626113892,-3.0253100395202637,-0.7597636580467224,-10.990938186645508,43.02835464477539,-47.25226593017578
5.87,-0.234496608376503,-7.202395915985107,5.090729713439941,-0.5768095254898071,-3.2007811069488525,-0.8500189781188965,-9.675533294677734,43.189125061035156,-46.71148681640625
5.88,-0.9272187352180481,-12.156734466552734,6.569494247436523,-0.7641924023628235,-2.9458975791931152,-1.0551170110702515,-9.31014347076416,43.84682846069336,-47.851505279541016
5.89,-0.09810572117567062,-18.452251434326172,7.940581321716309,-1.0655016899108887,-2.2649357318878174,-1.0603092908859253,-8.827827453613281,44.38760757446289,-47.44226837158203
5.909,-0.22971096634864807,-24.890140533447266,7.1748785972595215,-1.2005029916763306,1.3929253816604614,0.06230825185775757,-8.053200721740723,45.39608383178711,-47.836891174316406
5.912,-0.3565305471420288,-25.196422576904297,4.089333534240723,-0.9863946437835693,2.5523476600646973,0.40256020426750183,-7.863198280334473,45.922245025634766,-47.96842956542969
5.92,-0.7920242547988892,-21.992431640625,2.4646072387695312,-0.5852088928222656,3.8922805786132812,0.7568620443344116,-8.03858470916748,46.375328063964844,-47.471500396728516
5.93,-0.9906285405158997,-19.673786163330078,1.5098711252212524,0.03726277872920036,4.979620456695557,1.0380127429962158,-7.45396089553833,45.922245025634766,-47.13534164428711
5.94,-0.15553347766399384,-17.07518196105957,1.0277173519134521,0.6557638049125671,5.003597259521484,1.2273809909820557,-7.073955059051514,46.46302032470703,-46.38994216918945
5.95,0.7130610942840576,-14.71825122833252,1.113858938217163,1.1380419731140137,4.936249256134033,1.398881435394287,-6.387021541595459,46.65302658081055,-46.097633361816406
5.97,1.9812570810317993,-13.073185920715332,1.408176064491272,1.500590443611145,3.7875170707702637,1.5263996124267578,-4.750072956085205,46.27302169799805,-47.14995574951172
5.974,3.1764719486236572,-11.825328826904297,2.310270071029663,1.5308282375335693,2.0844249725341797,1.5777121782302856,-4.1654486656188965,46.71148681640625,-47.57380676269531
5.98,3.232703447341919,-11.59442138671875,2.275574207305908,1.454470157623291,1.0488556623458862,1.6079500913619995,-4.106986045837402,47.00379943847656,-47.89535140991211
5.99,2.871387243270874,-12.248858451843262,2.014756679534912,1.3689489364624023,-0.09300423413515091,1.6942347288131714,-3.712364673614502,46.974571228027344,-48.36305236816406
6.0,2.6799612045288086,-13.39741325378418,1.9968103170394897,1.353830099105835,-0.9767735004425049,1.8099937438964844,-3.0400466918945312,46.755332946777344,-50.043846130371094
6.01,2.906083106994629,-14.298311233520508,2.4705893993377686,1.3752102851867676,-1.756237506866455,1.989129900932312,-1.9584916830062866,46.76995086669922,-51.30078887939453
6.029,3.102294445037842,-15.634702682495117,2.685943365097046,1.458593487739563,-2.4051291942596436,2.140777349472046,-1.1254018545150757,45.14761734008789,-53.23004913330078
6.033,3.2446675300598145,-17.426925659179688,2.616551399230957,1.5320500135421753,-2.55952525138855,2.0804543495178223,-0.36539024114608765,45.4837760925293,-53.96083068847656
6.04,3.5700912475585938,-18.172290802001953,2.3473589420318604,1.7200437784194946,-2.7730228900909424,1.9146044254302979,-0.08769366145133972,45.615318298339844,-56.416255950927734
6.05,3.830909013748169,-18.157934188842773,2.0578272342681885,2.118633270263672,-2.8186848163604736,1.643227458000183,0.39462143182754517,45.3814697265625,-58.360130310058594
6.06,2.8007986545562744,-16.518850326538086,2.348555326461792,2.5864033699035645,-1.952478051185608,1.364978313446045,0.17538732290267944,44.59222412109375,-60.1140022277832
6.07,3.1680970191955566,-15.207584381103516,2.8462624549865723,2.922531843185425,-0.39187002182006836,1.2370021343231201,0.9061678051948547,44.446067810058594,-61.400177001953125
6.089,6.026323318481445,-14.141581535339355,2.7349960803985596,3.0413453578948975,1.005178689956665,1.4010194540023804,0.8038585186004639,43.23297119140625,-63.50482177734375
6.093,7.335197448730469,-13.319647789001465,3.016152858734131,2.923448324203491,1.8348864316940308,1.7217236757278442,1.5346390008926392,43.71529006958008,-63.694828033447266
6.1,3.5437703132629395,-11.343174934387207,-1.0325030088424683,2.8805348873138428,2.236377477645874,1.7702873945236206,2.0608010292053223,42.76527404785156,-64.1186752319336
6.11,-16.36810302734375,-8.244470596313477,-17.5011043548584,3.8876991271972656,5.002680778503418,1.5338826179504395,3.1569714546203613,41.873722076416016,-64.39637756347656
6.12,0.8578268885612488,-18.396020889282227,2.68953275680542,-0.7513642311096191,5.003597259521484,1.8645133972167969,4.472376346588135,40.90909194946289,-61.940948486328125
6.13,11.74158000946045,-6.245266914367676,-11.051251411437988,-2.904205799102783,5.003597259521484,1.0719157457351685,5.641624927520752,41.142940521240234,-58.02397155761719
6.15,11.337193489074707,-4.71027135848999,-2.581855535507202,-0.5697845816612244,-1.2104294300079346,1.3985759019851685,6.313942909240723,40.83601379394531,-57.67319107055664
6.153,9.034101486206055,-4.768895149230957,-1.0875378847122192,-0.4366159439086914,-1.7719674110412598,1.5867223739624023,6.8985676765441895,40.514469146728516,-58.0970458984375
6.16,5.923432350158691,-4.265206336975098,-0.31106695532798767,-0.37919458746910095,-1.8270978927612305,1.669189214706421,6.737796306610107,40.514469146728516,-58.27243423461914
6.17,4.467399597167969,-2.7146570682525635,0.5886343717575073,-0.42668935656547546,-1.1737775802612305,1.5263996124267578,7.293189525604248,40.28062057495117,-59.105525970458984
6.18,2.9802606105804443,-0.9930213689804077,1.7515461444854736,-0.6635523438453674,-0.6056728959083557,1.179580807685852,7.0301079750061035,40.09061813354492,-59.7339973449707
6.19,2.3461625576019287,0.064606212079525,2.2707886695861816,-1.0141890048980713,0.08277223259210587,0.7257079482078552,6.810873985290527,39.91522979736328,-60.02630615234375
6.209,3.4301111698150635,1.820937991142273,0.8709874153137207,-1.6588046550750732,1.2186760902404785,-0.18081609904766083,6.284712314605713,39.98830795288086,-58.74013137817383
6.212,3.4923245906829834,1.920240044593811,0.5850450992584229,-1.6829338073730469,1.3193161487579346,-0.2837468981742859,6.270096302032471,40.17831039428711,-58.50628662109375
6.22,3.840480089187622,1.867598056793213,-0.04546362906694412,-1.71683669090271,1.7901405096054077,-0.6316346526145935,5.831628322601318,41.02601623535156,-57.16164779663086
6.23,3.8333017826080322,1.416550874710083,-0.7633103728294373,-1.722181797027588,2.289828300476074,-0.8894197344779968,5.1300787925720215,40.79216766357422,-56.606258392333984
6.24,4.573880195617676,1.3710873126983643,-1.5170494318008423,-1.6885842084884644,2.224923849105835,-1.2177598476409912,4.720841884613037,41.55217742919922,-54.77930450439453
6.25,6.236892223358154,2.26959228515625,-4.157529354095459,-1.394605278968811,1.5656476020812988,-1.4853187799453735,3.858520746231079,41.99064636230469,-53.66851806640625
6.269,6.254837989807129,-2.3784656524658203,-2.286341905593872,-1.3745994567871094,-0.9856310486793518,-1.8504635095596313,1.783104419708252,42.999122619628906,-51.02309036254883
6.273,4.473381996154785,-3.812962770462036,-1.6486546993255615,-1.5560264587402344,-1.624748706817627,-1.9746217727661133,1.5784857273101807,43.452205657958984,-50.93539810180664
6.28,2.3258235454559326,-5.685346603393555,-1.1294121742248535,-1.7826573848724365,-2.2377519607543945,-2.2069034576416016,0.9353989958763123,43.65682601928711,-50.48231506347656
6.29,0.6771687865257263,-8.335397720336914,-1.9692928791046143,-2.0005836486816406,-2.6116015911102295,-2.629774808883667,-0.42385268211364746,44.85530471801758,-49.97077178955078
6.3,0.672383189201355,-10.97348403930664,-3.5844480991363525,-1.8887953758239746,-2.730414867401123,-3.1923818588256836,-0.745396077632904,45.732242584228516,-49.035369873046875
6.31,3.7160534858703613,-12.988241195678711,-2.4921247959136963,-1.5593862533569336,-3.047912120819092,-3.54225492477417,-1.490792155265808,47.07687759399414,-46.4191780090332
6.326,6.457031726837158,-16.35733413696289,-0.7034898400306702,-1.2246321439743042,-4.283998012542725,-3.4544429779052734,-2.2361881732940674,49.10844802856445,-46.60917663574219
6.33,6.424728870391846,-17.402999877929688,-0.3732803165912628,-1.1737775802612305,-4.687321662902832,-3.4605515003204346,-3.4492838382720947,49.210758209228516,-46.287635803222656
6.34,7.103094100952148,-19.518253326416016,1.1162517070770264,-1.0906999111175537,-5.003597259521484,-3.6103663444519043,-3.726980447769165,50.350772857666016,-46.930721282958984
6.35,7.732406139373779,-23.01775550842285,2.8701906204223633,-0.9888380765914917,-5.003597259521484,-3.8238635063171387,-4.238526821136475,51.52002716064453,-48.026893615722656
6.36,8.937192916870117,-27.31885528564453,5.452045917510986,-0.9312640428543091,-5.003597259521484,-3.867082357406616,-5.2031569480896,53.317745208740234,-49.75153350830078
6.37,9.09152889251709,-30.30629539489746,8.111668586730957,-1.0529789924621582,-5.003597259521484,-3.2421672344207764,-6.445483684539795,54.3408317565918,-51.09617233276367
6.389,2.657229423522949,-32.001609802246094,10.229315757751465,-1.5690072774887085,-1.8034268617630005,-1.6716326475143433,-9.003214836120605,55.34931564331055,-53.05466079711914
6.393,-0.7680960297584534,-31.028926849365234,9.940980911254883,-1.7062993049621582,-0.7997753024101257,-1.5557210445404053,-9.938613891601562,56.12394332885742,-53.50774383544922
6.4,-2.544766664505005,-30.003602981567383,7.477570533752441,-1.8536704778671265,0.4576907753944397,-1.7603609561920166,-10.874013900756836,56.182403564453125,-53.37620544433594
6.41,-3.7986059188842773,-27.0185546875,0.9547362327575684,-1.5796974897384644,1.461800456047058,-2.191478967666626,-12.598654747009277,56.72317886352539,-52.86465835571289
6.42,-2.691925287246704,-25.231117248535156,-3.183650493621826,-0.6724098920822144,1.1525499820709229,-2.2453877925872803,-13.943290710449219,56.76702880859375,-52.79158401489258
6.43,-3.6681969165802,-22.368106842041016,-1.9848462343215942,-0.56810462474823,0.20402897894382477,-1.6381878852844238,-15.609471321105957,56.47471618652344,-52.20695877075195
6.442,-0.1459621787071228,-14.252847671508789,-3.645465135574341,-0.8715519309043884,0.6015495657920837,-1.2058478593826294,-17.80181312561035,56.84010314941406,-52.63081359863281
6.45,1.31365966796875,-11.703295707702637,-3.1130621433258057,-0.7206682562828064,0.5393940210342407,-0.9856310486793518,-17.88950538635254,56.27009963989258,-53.17158508300781
6.46,1.0181459188461304,-10.077371597290039,-1.5242280960083008,-0.4366159439086914,0.5765040516853333,-0.6893614530563354,-18.415668487548828,56.54779052734375,-53.08388900756836
6.47,0.7561319470405579,-9.29491901397705,-0.1423729509115219,-0.3104722499847412,0.8539896011352539,-0.4486805200576782,-19.321834564208984,56.54779052734375,-52.484657287597656
6.48,1.2299107313156128,-8.33898639678955,0.4295116364955902,-0.22892174124717712,0.8471173644065857,-0.26053401827812195,-20.242618560791016,56.737796783447266,-53.025428771972656
6.49,3.0448665618896484,-6.527620315551758,0.28953152894973755,-0.01114829070866108,0.13530665636062622,-0.1641700267791748,-20.666471481323242,56.313941955566406,-52.22157287597656
6.503,2.5076780319213867,-5.724828243255615,0.6951149702072144,0.33979377150535583,-1.0960450172424316,0.13790282607078552,-21.01724624633789,56.810874938964844,-53.0985107421875
6.51,1.6558332443237305,-5.161317825317383,0.9343971610069275,0.4346306025981903,-1.3982704877853394,0.3630066514015198,-20.578777313232422,56.708560943603516,-53.317745208740234
6.52,0.7046862840652466,-4.425525665283203,0.787238597869873,0.5083925724029541,-1.6633859872817993,0.546571671962738,-21.411867141723633,56.708560943603516,-53.653900146484375
6.53,-0.7908278107643127,-3.7639100551605225,0.4462614059448242,0.5896376371383667,-1.7201964855194092,0.6516404747962952,-21.148786544799805,56.84010314941406,-53.72698211669922
6.54,-1.8975082635879517,-3.6981072425842285,1.0217353105545044,0.5812382698059082,-1.5712980031967163,0.7134906053543091,-21.353404998779297,56.6793327331543,-53.97544479370117
6.558,-2.7804598808288574,-3.1716861724853516,1.1473584175109863,0.4836525619029999,-1.171486735343933,0.8390233516693115,-20.798011779785156,56.606258392333984,-54.077754974365234
6.562,-3.1334011554718018,-2.770888566970825,1.6187443733215332,0.3000875413417816,-0.32971450686454773,1.0546588897705078,-20.491085052490234,56.913185119628906,-54.3408317565918
6.57,-3.456432342529297,-2.1343977451324463,1.4715858697891235,0.20631973445415497,0.26374107599258423,1.1800389289855957,-20.2718505859375,56.430870056152344,-55.23238754272461
6.58,-2.414357900619507,-1.322034478187561,1.0683952569961548,0.1518000215291977,1.0761919021606445,1.3506230115890503,-19.99415397644043,56.708560943603516,-55.758548736572266
6.59,-1.8628122806549072,0.17587246000766754,-0.14835500717163086,0.2018909603357315,1.410029649734497,1.4998267889022827,-18.927213668823242,56.24086380004883,-55.773162841796875
6.6,-1.0444670915603638,1.0719845294952393,-0.6412764191627502,0.32589662075042725,1.5960381031036377,1.6168075799942017,-18.664133071899414,56.53317642211914,-54.5600700378418
6.619,-0.26081767678260803,2.0003998279571533,-0.7716853022575378,0.5314527750015259,1.4726433753967285,1.6659822463989258,-17.88950538635254,59.71937942504883,-54.954689025878906
6.623,1.0755738019943237,2.8139593601226807,-0.397208571434021,0.888350784778595,0.5077817440032959,1.6357444524765015,-16.60333251953125,55.817012786865234,-55.20315933227539
6.63,1.7647066116333008,3.418147087097168,-0.33020952343940735,1.0974193811416626,-0.304210901260376,1.5778648853302002,-15.85793685913086,55.64162826538086,-55.45161819458008
6.64,2.0482561588287354,3.796213150024414,-0.882951557636261,1.4094188213348389,-1.4903584718704224,1.439351201057434,-15.28792667388916,55.45161819458008,-57.132415771484375
6.65,1.714457392692566,1.5936198234558105,-21.842880249023438,1.6820173263549805,-0.5618432760238647,1.2938125133514404,-14.308682441711426,54.85238265991211,-57.24934387207031
6.66,5.790630340576172,-5.401796817779541,-15.062817573547363,0.7028005123138428,4.7813944816589355,-0.18387043476104736,-14.11867904663086,54.443145751953125,-57.65857696533203
6.678,6.196214199066162,-4.890929222106934,-1.4859428405761719,1.250746488571167,4.643797397613525,-1.1766791343688965,-14.07483196258545,54.647762298583984,-56.75241470336914
6.682,2.2336997985839844,-8.225327491760254,10.577472686767578,0.35323283076286316,0.3926336169242859,-2.0050125122070312,-14.469453811645508,54.5600700378418,-58.4185905456543
6.69,0.5180460810661316,-10.878968238830566,10.364510536193848,-0.6603453159332275,-1.176831841468811,-2.2007946968078613,-15.770242691040039,54.85238265991211,-58.46243667602539
6.7,0.4378865361213684,-13.442876815795898,9.824929237365723,-1.910786509513855,-2.132225275039673,-2.1681134700775146,-17.567962646484375,55.173927307128906,-58.38935852050781
6.71,1.5074782371520996,-15.860824584960938,8.416753768920898,-2.7867672443389893,-2.356260061264038,-1.7806721925735474,-18.196434020996094,55.597774505615234,-56.5770263671875
6.72,3.4372897148132324,-18.33978843688965,6.2907304763793945,-3.1228959560394287,-2.6934573650360107,-1.2541064023971558,-19.17568016052246,55.68547058105469,-54.77930450439453
6.74,4.2484564781188965,-17.81934928894043,2.6392831802368164,-2.624124526977539,-3.2959232330322266,-0.3423899710178375,-19.27798843383789,55.787784576416016,-53.522361755371094
6.743,2.0099709033966064,-12.728619575500488,-0.7716853022575378,-0.6783658266067505,-3.063030958175659,0.6241515278816223,-19.482608795166016,55.94855499267578,-54.38468551635742
6.75,0.27038896083831787,-10.553544044494629,0.3038884699344635,0.07437284290790558,-2.5781567096710205,0.8381071090698242,-19.90645980834961,55.83163070678711,-53.7562141418457
