time,accel_x,accel_y,accel_z,gyro_x,gyro_y,gyro_z,mag_x,mag_y,mag_z
0.0,-0.9451649785041809,-9.696913719177246,1.5601202249526978,0.010079275816679,-0.00427605677396059,-0.018936822190880775,-49.590763092041016,58.88629150390625,-65.02484893798828
0.01,-0.9391828775405884,-9.696913719177246,1.4955140352249146,0.01114829070866108,0.0004581489192787558,-0.02168571576476097,-49.73691940307617,58.6962890625,-65.0102310180664
0.02,-0.9547362327575684,-9.69212818145752,1.5074782371520996,0.014508049935102463,-0.001679879380390048,-0.02122756652534008,-49.239986419677734,58.53551483154297,-65.56562042236328
0.03,-0.8482555747032166,-9.68375301361084,1.5230315923690796,0.01160643994808197,-0.0032070425804704428,-0.022602012380957603,-49.10844802856445,58.667057037353516,-65.0102310180664
0.05,-0.8243273496627808,-9.714859962463379,1.5948163270950317,0.010842857882380486,-0.008399397134780884,-0.016951510682702065,-49.92692184448242,58.88629150390625,-65.52177429199219
0.053,-0.8087739944458008,-9.719645500183105,1.6307085752487183,0.008399397134780884,-0.012217304669320583,-0.010537425056099892,-49.780765533447266,58.30166244506836,-65.55101013183594
0.061,-0.8003991842269897,-9.728019714355469,1.6845470666885376,0.0050396379083395,-0.009010262787342072,-0.006719517521560192,-49.44460678100586,58.38935852050781,-66.0333251953125
0.071,-0.8099704384803772,-9.734002113342285,1.6067804098129272,0.004886921960860491,-0.003359758760780096,-0.004886921960860491,-48.87459945678711,59.39783477783203,-65.75563049316406
0.08,-0.9559326767921448,-9.693324089050293,1.6067804098129272,0.003054326167330146,0.0022907445672899485,-0.002138028386980295,-49.73691940307617,58.82782745361328,-65.43408966064453
0.09,-1.0516455173492432,-9.638289451599121,1.5230315923690796,-0.0003054326225537807,0.012828170321881771,0.0004581489192787558,-49.4007568359375,58.4185905456543,-66.09178924560547
0.11,-0.9320043921470642,-9.667003631591797,1.4739786386489868,0.00015271631127689034,0.0138971833512187,0.004123340360820293,-49.7223014831543,57.9947395324707,-65.68254852294922
0.113,-0.7728817462921143,-9.711270332336426,1.5481561422348022,-0.0024434609804302454,0.018478674814105034,0.010690141469240189,-49.7223014831543,58.33089828491211,-65.33177185058594
0.12,-0.3684946596622467,-9.68973445892334,1.5002998113632202,0.007024950347840786,0.01924225501716137,0.014813481830060482,-49.54691696166992,58.857059478759766,-65.15638732910156
0.13,-0.4091726541519165,-9.768697738647461,1.7575281858444214,0.008704829961061478,-0.0032070425804704428,0.02886338159441948,-49.94153594970703,58.88629150390625,-65.37561798095703
0.14,-0.92482590675354,-9.761519432067871,1.5445669889450073,0.0074830991216003895,-0.03955352306365967,0.02977968007326126,-49.75153350830078,58.6378288269043,-66.00408935546875
0.15,-1.2681959867477417,-9.622735977172852,1.5254243612289429,0.009773843921720982,-0.008246680721640587,0.019547687843441963,-49.663841247558594,58.52090072631836,-65.58023834228516
0.17,-1.0588239431381226,-9.670592308044434,1.537388563156128,0.012064589187502861,0.019853120669722557,0.009621127508580685,-50.160770416259766,58.56474685668945,-65.30254364013672
0.174,-0.8243273496627808,-9.714859962463379,1.483549952507019,0.014049900695681572,-0.0036651913542300463,-0.003359758760780096,-49.239986419677734,58.155513763427734,-65.11254119873047
0.18,-0.8171489238739014,-9.639486312866211,1.4596216678619385,0.01664607785642147,-0.018325956538319588,-0.003359758760780096,-49.576148986816406,58.4185905456543,-65.33177185058594
0.19,-0.9140582084655762,-9.595218658447266,1.4823535680770874,0.01664607785642147,-0.03084869496524334,0.001527163083665073,-49.590763092041016,58.681671142578125,-65.25869750976562
0.2,-0.9667003750801086,-9.731609344482422,1.5086746215820312,0.016493361443281174,-0.025045473128557205,0.0073303827084600925,-49.4007568359375,58.57936096191406,-65.22946166992188
0.21,-0.8925228118896484,-9.738787651062012,1.5326027870178223,0.016340645030140877,-0.010690141469240189,0.0088575454428792,-49.51768493652344,58.76936340332031,-64.84945678710938
0.229,-0.8255237936973572,-9.670592308044434,1.5517455339431763,0.01664607785642147,-0.007635815534740686,0.024892758578062057,-49.45922088623047,58.667057037353516,-65.44869995117188
0.233,-0.8243273496627808,-9.693324089050293,1.561316728591919,0.016035212203860283,-0.005650503095239401,0.027641652151942253,-50.263084411621094,58.550132751464844,-65.17100524902344
0.24,-0.8147560954093933,-9.723234176635742,1.696511149406433,0.012980885803699493,-0.0029016099870204926,0.03191770985722542,-49.95615005493164,59.19321823120117,-65.55101013183594
0.25,-0.8386843204498291,-9.729216575622559,1.6857434511184692,0.011759155429899693,0.006872233934700489,0.032681290060281754,-50.19000244140625,58.667057037353516,-64.76176452636719
0.26,-0.9882357120513916,-9.754341125488281,1.5792629718780518,0.012217304669320583,0.012675453908741474,0.03420845419168472,-49.38614273071289,58.6378288269043,-65.0102310180664
0.27,-0.8721838593482971,-10.06899642944336,1.7575281858444214,0.009468411095440388,-0.05054909735918045,-0.010231993161141872,-49.82461166381836,58.88629150390625,-64.52791595458984
0.291,-0.27756741642951965,-10.028319358825684,1.7479568719863892,-0.005955935921519995,-0.1644754558801651,-0.05772676318883896,-49.4007568359375,58.477054595947266,-64.42560577392578
0.295,-0.5647060871124268,-9.736394882202148,1.8436697721481323,-0.03375030308961868,-0.2912300229072571,-0.02168571576476097,-49.75153350830078,58.433204650878906,-64.84945678710938
0.3,-0.7752745151519775,-9.864411354064941,1.676172137260437,-0.06459899991750717,-0.3428480923175812,-0.02474004216492176,-49.69307327270508,58.6378288269043,-65.50716400146484
0.31,-1.0241280794143677,-9.468399047851562,1.451246976852417,-0.05207626149058342,-0.266642689704895,0.04642575979232788,-49.239986419677734,58.477054595947266,-64.60099029541016
0.32,-1.1186444759368896,-9.397810935974121,1.5589239597320557,-0.05619960278272629,-0.17104226350784302,0.09605855494737625,-49.54691696166992,58.447818756103516,-64.87869262695312
0.33,-0.698704183101654,-9.687341690063477,1.7324036359786987,-0.051923543214797974,-0.09682214260101318,0.1316414624452591,-49.19614028930664,58.52090072631836,-64.96638488769531
0.349,-0.23330020904541016,-9.90987491607666,1.8305093050003052,-0.06017022579908371,-0.12751811742782593,0.1725694239139557,-49.31306457519531,58.71090316772461,-64.95176696777344
0.353,-0.12442676723003387,-10.012765884399414,2.0171494483947754,-0.07941248267889023,-0.19425514340400696,0.18341228365898132,-49.13768005371094,58.78398513793945,-64.1186752319336
0.36,-0.5647060871124268,-9.851250648498535,1.643869161605835,-0.10186177492141724,-0.2678644061088562,0.20891591906547546,-48.90382766723633,58.98860168457031,-64.20637512207031
0.37,-1.155733346939087,-9.605986595153809,1.53858482837677,-0.0962112694978714,-0.26801711320877075,0.2577851414680481,-49.166908264160156,58.243202209472656,-64.7909927368164
0.38,-1.4464612007141113,-9.480362892150879,1.5649060010910034,-0.08246680349111557,-0.18616119027137756,0.27641651034355164,-48.88921356201172,58.56474685668945,-64.68869018554688
0.393,-1.1772687435150146,-9.620343208312988,1.537388563156128,-0.05604688450694084,-0.03084869496524334,0.2617557644844055,-48.9622917175293,58.6962890625,-64.55714416503906
0.4,-1.0145567655563354,-9.656235694885254,1.3148560523986816,-0.04703662171959877,-0.003817907767370343,0.2554943859577179,-48.596900939941406,58.871673583984375,-64.2940673828125
0.41,-1.1748758554458618,-9.66102123260498,1.1341978311538696,-0.033597588539123535,-0.021991148591041565,0.26511549949645996,-48.39228439331055,59.061676025390625,-63.899444580078125
0.42,-1.275374412536621,-9.651450157165527,1.0755738019943237,-0.020005837082862854,-0.04841107130050659,0.26603180170059204,-48.289974212646484,59.22244644165039,-64.32330322265625
0.43,-1.2406784296035767,-9.559326171875,1.1413763761520386,-0.005650503095239401,-0.06505714356899261,0.2632829248905182,-48.23151397705078,59.42707061767578,-64.2940673828125
0.449,-0.9978070259094238,-9.501898765563965,1.1665010452270508,0.012217304669320583,-0.07437284290790558,0.26190847158432007,-48.07073974609375,59.35398864746094,-64.57176208496094
0.453,-0.7968099117279053,-9.468399047851562,0.9559326767921448,0.04505131021142006,-0.08827002346515656,0.2522873282432556,-48.33382034301758,58.871673583984375,-64.7909927368164
0.46,-0.9260223507881165,-9.410971641540527,0.873380184173584,0.06383541971445084,-0.11362093687057495,0.2603813111782074,-48.36305236816406,58.94475555419922,-64.26483154296875
0.47,-0.9487541317939758,-9.592824935913086,0.6711867451667786,0.09056076407432556,-0.12018773704767227,0.25564709305763245,-47.79304122924805,59.20783233642578,-64.32330322265625
0.48,-0.10408778488636017,-9.390631675720215,1.325623631477356,0.1342376321554184,-0.09758572280406952,0.24297165870666504,-47.9391975402832,59.12014389038086,-64.16252899169922
0.49,-0.6819544434547424,-9.541379928588867,1.975274920463562,0.14034628868103027,-0.17272214591503143,0.2428189367055893,-48.056121826171875,59.01782989501953,-64.76176452636719
0.51,-1.6199408769607544,-9.68255615234375,1.4572290182113647,0.14813482761383057,-0.1820378452539444,0.22403483092784882,-47.851505279541016,59.17860412597656,-64.84945678710938
0.514,-1.975274920463562,-9.43489933013916,1.7479568719863892,0.15851953625679016,-0.08750644326210022,0.19089537858963013,-47.95381546020508,59.280914306640625,-64.36714172363281
0.521,-2.169093608856201,-9.510272979736328,1.4488540887832642,0.16019940376281738,-0.0685696229338646,0.17821994423866272,-47.82227325439453,59.7339973449707,-64.49868774414062
0.53,-2.444268226623535,-9.667003631591797,1.1114661693572998,0.161268413066864,-0.05803219974040985,0.1768454760313034,-47.427650451660156,58.842445373535156,-65.15638732910156
0.54,-2.242074728012085,-9.968499183654785,1.0169496536254883,0.13011428713798523,-0.18020524084568024,0.11820242553949356,-47.16456985473633,59.17860412597656,-64.90792083740234
0.55,-1.660618782043457,-9.409774780273438,0.4414757788181305,0.14294245839118958,-0.1973094791173935,0.11285734921693802,-47.39842224121094,59.061676025390625,-65.77024841308594
0.569,-1.6079767942428589,-9.287740707397461,0.8757730722427368,0.16462817788124084,-0.18417586386203766,0.1333213448524475,-47.427650451660156,59.310142517089844,-64.82022857666016
0.573,-1.4452649354934692,-9.757929801940918,1.2227323055267334,0.18081609904766083,-0.17073683440685272,0.14004085958003998,-47.14995574951172,58.71090316772461,-65.40485382080078
0.58,-1.1892328262329102,-9.694520950317383,1.447657585144043,0.1966986060142517,-0.1667662113904953,0.1492038369178772,-47.25226593017578,58.49167251586914,-65.63870239257812
0.59,-1.0588239431381226,-9.444470405578613,1.5397813320159912,0.20906862616539001,-0.18280142545700073,0.17638733983039856,-47.44226837158203,58.78398513793945,-65.2733154296875
0.6,-1.2047861814498901,-9.495916366577148,1.9728822708129883,0.21212296187877655,-0.21365012228488922,0.1898263692855835,-46.98918533325195,59.280914306640625,-65.28793334960938
0.61,-1.4919248819351196,-9.455238342285156,2.23848557472229,0.2145664095878601,-0.20463986694812775,0.1895209401845932,-47.13534164428711,58.857059478759766,-65.53639221191406
0.63,-1.798206090927124,-9.461220741271973,2.3533408641815186,0.21594086289405823,-0.1690569519996643,0.18860463798046112,-46.726104736328125,59.00321578979492,-65.4779281616211
0.633,-2.066202163696289,-9.477970123291016,1.9573287963867188,0.2041817009449005,-0.09254607558250427,0.182648703455925,-46.82841491699219,58.871673583984375,-66.09178924560547
0.64,-2.091326951980591,-9.479166984558105,1.758724570274353,0.20402897894382477,-0.05207626149058342,0.18417586386203766,-46.82841491699219,59.32476043701172,-64.83484649658203
0.65,-1.8245272636413574,-9.632307052612305,1.624726414680481,0.19654588401317596,0.0010690141934901476,0.18646661937236786,-47.16456985473633,59.14937210083008,-66.17948150634766
0.66,-1.2287143468856812,-9.633503913879395,1.5469597578048706,0.2073887437582016,0.012980885803699493,0.1924225389957428,-46.71148681640625,59.076290130615234,-65.8579330444336
0.67,-0.9128617644309998,-9.664609909057617,1.832902193069458,0.2232712358236313,0.0025961773935705423,0.20906862616539001,-46.316864013671875,59.35398864746094,-65.37561798095703
0.69,-1.3351950645446777,-9.750751495361328,1.7407783269882202,0.21563541889190674,-0.0354301817715168,0.1966986060142517,-46.40456008911133,59.41244888305664,-66.26717376708984
0.693,-2.0757734775543213,-9.600004196166992,1.8556338548660278,0.22831088304519653,-0.017562376335263252,0.17623461782932281,-46.40456008911133,58.94475555419922,-65.72639465332031
0.7,-2.203789472579956,-9.511469841003418,2.1583259105682373,0.22678370773792267,0.027641652151942253,0.15470163524150848,-45.87839889526367,58.842445373535156,-66.50102233886719
0.71,-1.95852530002594,-9.497113227844238,2.2540388107299805,0.2197587788105011,0.05864306166768074,0.13179416954517365,-46.375328063964844,59.13475799560547,-65.87255096435547
0.72,-1.6654045581817627,-9.620343208312988,2.1367905139923096,0.2102903574705124,0.052839841693639755,0.11652254313230515,-45.86378479003906,59.42707061767578,-66.69102478027344
0.73,-1.3411771059036255,-9.650253295898438,2.0889341831207275,0.2021963894367218,0.01542434748262167,0.11575896292924881,-46.33148193359375,59.266300201416016,-66.91026306152344
0.75,-1.1054840087890625,-9.623931884765625,2.080559253692627,0.19593501091003418,-0.02519819140434265,0.12690724432468414,-46.170711517333984,59.51476287841797,-67.11487579345703
0.753,-0.6604190468788147,-9.619146347045898,2.5471596717834473,0.1950187236070633,-0.07284567505121231,0.14569135010242462,-46.15609359741211,59.54399108886719,-67.08564758300781
0.76,-0.7836494445800781,-9.605986595153809,2.5531415939331055,0.18738290667533875,-0.118660569190979,0.1495092660188675,-45.93686294555664,59.5586051940918,-67.7287368774414
0.77,-1.4919248819351196,-9.597611427307129,2.310270071029663,0.17989981174468994,-0.1563815027475357,0.15195272862911224,-45.98070526123047,58.95936965942383,-67.49488830566406
0.78,-2.053041696548462,-9.57368278503418,2.383251190185547,0.1765400469303131,-0.13347405195236206,0.14798210561275482,-46.170711517333984,58.79859924316406,-66.66179656982422
0.79,-2.275574207305908,-9.780662536621094,2.4251255989074707,0.1511891484260559,-0.07987063378095627,0.13087788224220276,-45.46916198730469,59.105525970458984,-67.97720336914062
0.811,-2.0925233364105225,-9.711270332336426,2.400001049041748,0.1339322030544281,-0.016951510682702065,0.11010845750570297,-45.57147216796875,59.237064361572266,-67.0125732421875
0.815,-1.6869399547576904,-9.56650447845459,2.358126640319824,0.118660569190979,0.014966198243200779,0.09254607558250427,-45.45454788208008,59.266300201416016,-66.96871948242188
0.82,-1.856830358505249,-9.468399047851562,2.2683956623077393,0.11575896292924881,0.004123340360820293,0.08750644326210022,-45.65916442871094,59.13475799560547,-66.61795043945312
0.83,-2.1068801879882812,-9.437292098999023,2.159522294998169,0.11239920556545258,0.014813481830060482,0.08277223259210587,-45.67377853393555,59.105525970458984,-67.1294937133789
0.84,-1.9956140518188477,-9.462416648864746,2.0865414142608643,0.10980302840471268,0.04642575979232788,0.07651086896657944,-45.77608871459961,58.94475555419922,-67.91873931884766
0.85,-1.727617859840393,-9.588040351867676,2.1774685382843018,0.10308350622653961,0.034666601568460464,0.07757988572120667,-45.29377365112305,58.56474685668945,-67.04180145263672
0.87,-1.7264214754104614,-9.58205795288086,2.2121644020080566,0.08536841720342636,0.027641652151942253,0.0910189226269722,-45.67377853393555,59.14937210083008,-67.68489074707031
0.873,-1.4500504732131958,-9.337989807128906,2.204986095428467,0.08949175477027893,0.032681290060281754,0.10567968338727951,-45.27915573120117,59.01782989501953,-67.5971908569336
0.88,-1.4464612007141113,-9.410971641540527,2.3509480953216553,0.08536841720342636,0.0019853119738399982,0.11804971098899841,-45.0599250793457,59.20783233642578,-67.80181884765625
0.89,-1.6163517236709595,-9.561718940734863,2.6045873165130615,0.06963863968849182,-0.018478674814105034,0.13118331134319305,-45.0599250793457,58.871673583984375,-67.46565246582031
0.9,-1.7455641031265259,-9.547362327575684,2.5184457302093506,0.05253440886735916,-0.0064140851609408855,0.1411098688840866,-45.132999420166016,59.00321578979492,-68.45951843261719
0.91,-1.758724570274353,-9.533004760742188,2.400001049041748,0.03390302136540413,0.020311269909143448,0.16523903608322144,-45.01607894897461,58.79859924316406,-68.02104949951172
0.93,-1.5649060010910034,-9.452845573425293,2.3162522315979004,0.028557950630784035,0.03222314268350601,0.17898350954055786,-44.7822265625,58.98860168457031,-67.7725830078125
0.933,-1.7850456237792969,-9.519845008850098,2.361715793609619,0.02229658141732216,0.02580905519425869,0.20128010213375092,-44.51914596557617,59.061676025390625,-67.933349609375
0.94,-1.7252249717712402,-9.451648712158203,2.3018951416015625,0.02275473065674305,0.034666601568460464,0.21624629199504852,-44.51914596557617,59.19321823120117,-67.933349609375
0.95,-1.3663017749786377,-9.42054271697998,2.255235195159912,0.023060161620378494,0.04046982154250145,0.24755313992500305,-44.46068572998047,59.310142517089844,-68.05027770996094
0.96,-1.1330015659332275,-9.568897247314453,2.2396819591522217,0.01237002108246088,0.0006108652451075613,0.3016147017478943,-43.94913864135742,59.500144958496094,-68.1964340209961
0.97,-1.6941183805465698,-9.714859962463379,2.146361827850342,-0.0088575454428792,-0.018020525574684143,0.33796119689941406,-43.992984771728516,59.44168472290039,-67.45103454589844
0.99,-1.8580267429351807,-9.629914283752441,2.2301106452941895,-0.012217304669320583,0.006719517521560192,0.3718641996383667,-43.78836441040039,59.22244644165039,-68.16720581054688
0.994,-1.7156537771224976,-9.491130828857422,2.4466609954833984,-0.030543262138962746,0.03634648025035858,0.40882155299186707,-43.77375030517578,59.00321578979492,-67.8164291381836
1.0,-1.550549030303955,-9.475577354431152,2.533998966217041,-0.03298672288656235,0.03940080478787422,0.42149701714515686,-43.55451583862305,59.54399108886719,-68.09412384033203
1.01,-1.7407783269882202,-9.440881729125977,2.5232315063476562,-0.04917465150356293,0.00427605677396059,0.4534147381782532,-43.56913375854492,59.41244888305664,-67.3487319946289
1.02,-1.8783657550811768,-9.34157943725586,2.407179594039917,-0.059864792972803116,0.007788531482219696,0.4810563623905182,-43.072200775146484,59.54399108886719,-68.00643157958984
1.03,-1.561316728591919,-9.58325481414795,3.1417760848999023,-0.10445795953273773,0.002138028386980295,0.5094616413116455,-42.95527648925781,59.660919189453125,-68.31336212158203
1.049,-0.727418065071106,-9.300901412963867,3.0616164207458496,-0.18157969415187836,-0.0835358202457428,0.5372559428215027,-42.429115295410156,59.909385681152344,-67.71411895751953
1.053,-1.3746765851974487,-9.09990406036377,2.833101749420166,-0.16142113506793976,-0.20525072515010834,0.5958990454673767,-42.35603332519531,59.14937210083008,-67.933349609375
1.06,-2.6871397495269775,-9.089136123657227,2.1846470832824707,-0.16081027686595917,-0.24358251690864563,0.6091853976249695,-42.01987838745117,59.8363037109375,-66.86641693115234
1.07,-4.168296813964844,-9.495916366577148,1.8352948427200317,-0.1791362315416336,-0.10277807712554932,0.6072000861167908,-41.888336181640625,59.80707550048828,-67.86027526855469
1.08,-3.5270204544067383,-9.524630546569824,1.7156537771224976,-0.1647808998823166,0.07299839705228806,0.5922338366508484,-41.21601867675781,60.14323425292969,-67.26103210449219
1.09,-2.2959132194519043,-9.556933403015137,1.6941183805465698,-0.14905111491680145,0.15775594115257263,0.5942191481590271,-40.9237060546875,59.93861389160156,-66.5302505493164
1.11,-2.4574286937713623,-9.763912200927734,1.7563318014144897,-0.1621847152709961,0.03329215571284294,0.640034019947052,-40.71908950805664,60.099388122558594,-66.44255828857422
1.113,-2.723031997680664,-9.66221809387207,1.7886348962783813,-0.16264288127422333,0.02886338159441948,0.6527094841003418,-40.10523223876953,60.34785079956055,-66.13563537597656
1.12,-2.977867603302002,-9.696913719177246,2.0195422172546387,-0.1644754558801651,0.06505714356899261,0.6638578176498413,-40.29523468017578,60.27477264404297,-67.02719116210938
1.13,-3.2338995933532715,-9.767501831054688,2.137986898422241,-0.1771509051322937,0.13469578325748444,0.6661485433578491,-39.75445556640625,60.201690673828125,-66.42794799804688
1.14,-2.8103702068328857,-9.674181938171387,2.533998966217041,-0.21700987219810486,0.19837848842144012,0.6670648455619812,-39.16983413696289,60.75708770751953,-65.77024841308594
1.15,-2.043470621109009,-9.147760391235352,2.3090739250183105,-0.21945331990718842,0.19639316201210022,0.6898195743560791,-39.16983413696289,60.4940071105957,-66.38410186767578
1.169,-2.080559253692627,-9.3248291015625,2.1020946502685547,-0.25625795125961304,0.053297992795705795,0.7564038634300232,-38.07366180419922,60.66939163208008,-65.49254608154297
1.173,-3.555734395980835,-9.937392234802246,1.676172137260437,-0.27259859442710876,0.05711590126156807,0.7695375084877014,-38.30751037597656,61.210174560546875,-66.01870727539062
1.18,-3.7363924980163574,-10.132407188415527,1.6079767942428589,-0.30573806166648865,0.10751228034496307,0.7825183272361755,-36.90441131591797,61.239402770996094,-65.36100769042969
1.19,-3.339184045791626,-10.237690925598145,2.0243277549743652,-0.3326161205768585,0.2054034322500229,0.8011497855186462,-37.1236457824707,61.13709259033203,-65.87255096435547
1.3,-3.6299118995666504,-12.848259925842285,2.3401803970336914,-0.8127562403678894,0.6352998614311218,1.0523680448532104,-30.6489315032959,61.414791107177734,-62.554805755615234
1.31,-3.324826955795288,-12.875778198242188,2.368894338607788,-0.8597928285598755,0.7281513810157776,1.0936014652252197,-30.34200668334961,61.531715393066406,-62.81789016723633
1.32,-3.0508487224578857,-12.454641342163086,2.117647886276245,-0.903164267539978,0.8935431241989136,1.1548408269882202,-29.143524169921875,60.96170425415039,-62.29172897338867
1.33,-2.4909281730651855,-12.610175132751465,1.6342978477478027,-0.9509645104408264,0.9967793822288513,1.2234103679656982,-28.70505714416504,61.32709884643555,-61.18094253540039
1.349,-2.2169501781463623,-12.137593269348145,1.710868239402771,-1.0273226499557495,1.1226176023483276,1.3646730184555054,-26.42502212524414,61.210174560546875,-59.60245895385742
1.353,-2.321038007736206,-12.239288330078125,1.4057832956314087,-1.0500773191452026,1.1439979076385498,1.3855950832366943,-26.556564331054688,60.75708770751953,-59.51476287841797
1.36,-2.2803597450256348,-11.986844062805176,1.6498512029647827,-1.0746647119522095,1.2041680812835693,1.415069341659546,-25.723472595214844,61.049400329589844,-59.09090805053711
1.37,-2.4335005283355713,-12.026326179504395,1.1306086778640747,-1.1400271654129028,1.3046554327011108,1.4579825401306152,-24.992692947387695,61.005558013916016,-59.032447814941406
1.38,-1.932204246520996,-12.537193298339844,0.9200402498245239,-1.1959214210510254,1.3883439302444458,1.4914274215698242,-23.954984664916992,60.289390563964844,-57.936275482177734
1.39,-0.6903292536735535,-12.638888359069824,1.0301101207733154,-1.202946424484253,1.4669928550720215,1.5120441913604736,-22.771120071411133,60.33323287963867,-57.79011917114258
1.406,0.7525426745414734,-12.969098091125488,0.9547362327575684,-1.2683088779449463,1.5380058288574219,1.621694564819336,-21.221864700317383,60.07015609741211,-56.34317398071289
1.41,1.0995019674301147,-13.604392051696777,0.5754737854003906,-1.3045027256011963,1.5210545063018799,1.6678147315979004,-20.841859817504883,59.82168960571289,-55.08623123168945
1.42,2.6081764698028564,-13.585250854492188,1.2634103298187256,-1.338711142539978,1.5135713815689087,1.7730363607406616,-19.950305938720703,59.7339973449707,-54.764686584472656
1.43,3.9086756706237793,-13.292129516601562,1.4500504732131958,-1.3457361459732056,1.4071279764175415,1.8868099451065063,-18.63490104675293,58.98860168457031,-53.5369758605957
1.44,5.213960647583008,-12.958330154418945,1.3387842178344727,-1.3437508344650269,1.1514809131622314,2.001347064971924,-17.056415557861328,59.00321578979492,-53.5369758605957
1.45,4.078566074371338,-12.868599891662598,0.906879723072052,-1.3629930019378662,0.6717990040779114,2.1626157760620117,-16.13563346862793,58.360130310058594,-51.94387435913086
1.469,-2.633301258087158,-14.013565063476562,0.259621262550354,-1.6435329914093018,-0.48976120352745056,2.3964242935180664,-14.513299942016602,57.24934387207031,-50.62847137451172
1.473,-2.57228422164917,-14.009976387023926,0.3409772217273712,-1.6516268253326416,-0.8390233516693115,2.489581346511841,-14.557147026062012,56.59164047241211,-50.233848571777344
1.48,-1.3052847385406494,-14.099706649780273,3.0352954864501953,-1.599703311920166,-1.5606080293655396,2.56868839263916,-13.022507667541504,56.27009963989258,-50.233848571777344
1.49,2.486142635345459,-12.032307624816895,3.8572299480438232,-1.4886785745620728,-2.4297163486480713,2.510197877883911,-12.116340637207031,55.65624237060547,-48.8599853515625
1.5,2.724228620529175,-8.021937370300293,5.519045352935791,-1.1746938228607178,-3.244610548019409,2.7003297805786133,-10.040924072265625,55.01315689086914,-49.56153106689453
1.51,-1.6103696823120117,-6.165107250213623,6.762116432189941,-0.8988881707191467,-3.4851388931274414,2.7010931968688965,-9.368605613708496,53.46390151977539,-49.166908264160156
1.522,-6.591030120849609,-3.9936206340789795,4.063012599945068,-0.6782131195068359,-2.7728700637817383,1.9964603185653687,-8.067816734313965,53.05466079711914,-50.08769607543945
1.53,-7.466803073883057,-3.6981072425842285,4.037888050079346,-0.43905937671661377,-2.177581787109375,1.3571898937225342,-7.249342441558838,52.19234085083008,-50.350772857666016
1.54,-3.858426570892334,-6.339783668518066,3.8763725757598877,-0.3205515146255493,-1.514182209968567,0.7524333000183105,-6.927798748016357,51.84156799316406,-50.774627685546875
1.55,-0.29312074184417725,-5.9306111335754395,3.4851462841033936,-0.12812897562980652,-0.9937250018119812,0.09422595798969269,-6.957030296325684,51.24232864379883,-50.40924072265625
1.56,1.592423439025879,-4.450649738311768,3.4671998023986816,0.08796459436416626,-0.7101308107376099,-0.33108893036842346,-6.971645355224609,50.964630126953125,-50.11692810058594
1.57,2.1918253898620605,-3.562912940979004,3.3032915592193604,0.24908030033111572,-0.6204863786697388,-0.7635815143585205,-7.234726905822754,50.950016021728516,-50.42385482788086
1.587,0.7501499056816101,-3.317648410797119,2.9754748344421387,0.43737950921058655,-0.711963415145874,-1.5557210445404053,-7.8047356605529785,50.08769607543945,-51.72464370727539
1.591,-0.15194423496723175,-3.324826955795288,2.7972095012664795,0.4856378734111786,-0.7032586336135864,-1.783726453781128,-8.097047805786133,50.40924072265625,-51.973106384277344
1.6,-2.018345832824707,-3.321237564086914,2.54117751121521,0.5748242139816284,-0.5462662577629089,-2.25317645072937,-9.163987159729004,50.86231994628906,-51.75387191772461
1.61,-2.937189817428589,-3.3966116905212402,2.2600209712982178,0.655458390712738,-0.22281308472156525,-2.719724655151367,-9.470914840698242,50.789241790771484,-52.22157287597656
1.62,-2.128415822982788,-3.748356580734253,2.056631088256836,0.7283040285110474,0.13515393435955048,-3.1453449726104736,-10.932476043701172,50.39461898803711,-53.06927490234375
1.639,-1.007378339767456,-4.275973796844482,1.8604196310043335,0.8260425329208374,0.35124751925468445,-3.522859811782837,-12.043262481689453,50.83308792114258,-53.814674377441406
1.643,-1.0289136171340942,-5.411368370056152,1.836491346359253,0.9074403047561646,0.3845396637916565,-3.7679693698883057,-14.440221786499023,50.993858337402344,-55.10084533691406
1.65,-1.1234301328659058,-5.804987907409668,1.6498512029647827,0.9660834074020386,0.36560285091400146,-3.9261837005615234,-15.551008224487305,50.67231750488281,-54.91084289550781
1.66,-1.4871392250061035,-6.486941814422607,1.6510475873947144,1.0706939697265625,0.27000242471694946,-4.132350444793701,-17.43642234802246,50.42385482788086,-54.267757415771484
1.67,-1.9178473949432373,-7.350750923156738,1.7084753513336182,1.1562150716781616,0.16584990918636322,-4.335005283355713,-18.868751525878906,50.73078155517578,-54.73545837402344
1.68,-2.1655044555664062,-8.25284481048584,1.6307085752487183,1.2675453424453735,-0.0003054326225537807,-4.549724102020264,-21.163402557373047,50.51154327392578,-55.83163070678711
1.69,-2.7661027908325195,-10.114461898803711,1.6259229183197021,1.3532192707061768,-0.1508837193250656,-4.666705131530762,-22.39111328125,50.45308303833008,-55.992401123046875
1.703,-3.493520736694336,-12.003594398498535,1.574477195739746,1.4094188213348389,-0.29107728600502014,-4.7386345863342285,-24.68576431274414,49.91230773925781,-57.03010559082031
1.71,-3.8691940307617188,-12.787243843078613,1.3962119817733765,1.4094188213348389,-0.3338378667831421,-4.755738735198975,-26.118093490600586,49.06460189819336,-57.87781524658203
1.72,-4.350151538848877,-13.373485565185547,1.1653046607971191,1.3800973892211914,-0.3390301764011383,-4.75390625,-28.07658576965332,49.32768249511719,-58.11166000366211
1.73,-4.622933387756348,-13.758729934692383,0.9966105818748474,1.3362677097320557,-0.31184670329093933,-4.715879917144775,-29.932767868041992,49.035369873046875,-59.61707305908203
1.74,-4.60020112991333,-14.031511306762695,0.995414137840271,1.2895365953445435,-0.29657506942749023,-4.656931400299072,-31.365097045898438,48.77228546142578,-59.13475799560547
1.759,-4.549952030181885,-14.085350036621094,1.0923235416412354,1.2750284671783447,-0.27779096364974976,-4.572479248046875,-32.53434753417969,48.2607421875,-60.01169204711914
1.763,-4.8358941078186035,-13.915459632873535,1.2669994831085205,1.268614411354065,-0.21930061280727386,-4.456720352172852,-34.142066955566406,48.216896057128906,-60.34785079956055
1.77,-5.002195358276367,-13.691730499267578,1.2789636850357056,1.2735012769699097,-0.13377948105335236,-4.394411563873291,-35.79362487792969,47.51534652709961,-61.15170669555664
1.78,-5.166103839874268,-13.191630363464355,1.1820544004440308,1.3006848096847534,0.028405234217643738,-4.325231552124023,-36.99210739135742,47.456886291503906,-62.37942123413086
1.79,-5.124229431152344,-12.642478942871094,1.0229315757751465,1.362687587738037,0.2814561426639557,-4.248109340667725,-38.395206451416016,47.58842468261719,-62.774044036865234
1.8,-4.694717884063721,-12.189038276672363,0.7561319470405579,1.4216361045837402,0.4648684561252594,-4.210235595703125,-39.85676574707031,47.456886291503906,-63.43174743652344
1.82,-4.482953071594238,-12.179466247558594,0.48454657196998596,1.4969252347946167,0.5206099152565002,-4.164268493652344,-40.85062789916992,46.38994216918945,-64.54253387451172
1.823,-4.5607194900512695,-12.996615409851074,0.32662028074264526,1.5877914428710938,0.6317873597145081,-4.053396224975586,-42.56065368652344,46.097633361816406,-66.72026062011719
1.83,-4.384847164154053,-13.540983200073242,0.06819543987512589,1.5795447826385498,0.7023422718048096,-4.01262092590332,-44.09529113769531,45.235313415527344,-67.48026275634766
1.84,-3.647857904434204,-14.021940231323242,-0.7094718813896179,1.4850133657455444,0.8382598161697388,-3.8678460121154785,-45.132999420166016,45.235313415527344,-68.60567474365234
1.85,-2.376072883605957,-14.541182518005371,-1.6666009426116943,1.3655892610549927,0.788627028465271,-3.669161796569824,-45.64455032348633,43.91990661621094,-69.4679946899414
1.86,-1.6534403562545776,-14.717055320739746,-2.1738791465759277,1.2220358848571777,0.5726861357688904,-3.3987014293670654,-46.81379699707031,43.30604934692383,-71.47032928466797
1.88,-1.605583906173706,-14.507683753967285,-2.3808584213256836,1.0740537643432617,0.22571469843387604,-3.067917823791504,-48.216896057128906,42.18064880371094,-71.23648071289062
1.883,-2.6464619636535645,-13.393824577331543,-2.3365912437438965,0.9024006724357605,-0.322536826133728,-2.451096773147583,-49.576148986816406,41.65448760986328,-72.18649291992188
1.89,-3.755535125732422,-12.709476470947266,-2.1655044555664062,0.8364272713661194,-0.5126686692237854,-2.088701009750366,-50.29231262207031,41.40602111816406,-72.88804626464844
1.9,-5.617150783538818,-12.632906913757324,-2.297109603881836,0.7200573682785034,-0.6233879327774048,-1.5661057233810425,-51.373870849609375,40.99678421020508,-73.16574096679688
1.91,-6.4941205978393555,-12.678370475769043,-2.6464619636535645,0.5664247870445251,-0.6779077053070068,-1.0204503536224365,-51.198482513427734,40.397544860839844,-73.73574829101562
1.92,-6.370890140533447,-12.581460952758789,-2.9312076568603516,0.3605632185935974,-0.7261660695075989,-0.48838675022125244,-51.98772430419922,40.80678176879883,-74.10113525390625
1.94,-5.465207099914551,-12.482159614562988,-2.9838497638702393,0.1408044397830963,-0.8434521555900574,0.012828170321881771,-52.0169563293457,40.28062057495117,-72.82958221435547
1.944,-4.634897232055664,-11.868399620056152,-2.2576282024383545,-0.1492038369178772,-1.0801624059677124,0.6812674403190613,-52.20695877075195,40.64601135253906,-72.7711181640625
1.95,-4.790431022644043,-11.592028617858887,-1.7778671979904175,-0.266184538602829,-1.1711814403533936,0.9645562171936035,-52.60157775878906,40.66062545776367,-73.1072769165039
1.96,-5.285745143890381,-11.357532501220703,-1.2610174417495728,-0.38469237089157104,-1.2139419317245483,1.2918273210525513,-52.338497161865234,41.128326416015625,-72.78573608398438
1.97,-5.146961212158203,-11.392228126525879,-0.6496513485908508,-0.4827362596988678,-1.1934778690338135,1.5604552030563354,-51.87080001831055,41.74217987060547,-72.53726959228516
1.98,-4.4027934074401855,-11.46401309967041,-0.4378865361213684,-0.5862779021263123,-1.1791225671768188,1.7892242670059204,-52.104644775390625,41.712947845458984,-72.18649291992188
2.0,-3.860819101333618,-10.977072715759277,-0.1782652735710144,-0.6745479106903076,-1.2649492025375366,2.0700695514678955,-51.60771560668945,42.96989059448242,-70.85647583007812
2.005,-3.8847475051879883,-10.377671241760254,0.24526430666446686,-0.741284966468811,-1.320690631866455,2.3412938117980957,-50.93539810180664,43.71529006958008,-71.13417053222656
2.01,-4.042673587799072,-9.408578872680664,1.262213945388794,-0.7063129544258118,-1.2974777221679688,2.4049763679504395,-50.20461654663086,44.621456146240234,-70.59339141845703
2.02,-4.308277130126953,-5.1565327644348145,8.462217330932617,-0.2451096773147583,-1.1282680034637451,2.339919328689575,-49.82461166381836,45.176849365234375,-70.59339141845703
2.03,-3.431307554244995,-9.31884765625,22.957937240600586,0.39797869324684143,0.2405281811952591,1.5380058288574219,-49.25460433959961,45.07453918457031,-69.57030487060547
2.04,9.050850868225098,-22.825136184692383,7.311269283294678,-0.8604037165641785,4.185190200805664,0.19624045491218567,-48.6407470703125,46.00994110107422,-70.63723754882812
2.06,16.346567153930664,-17.656639099121094,-9.33440113067627,-0.6023131012916565,2.8767170906066895,1.3689489364624023,-47.69073486328125,46.00994110107422,-70.79801177978516
2.064,8.025527000427246,-7.054040908813477,-0.9104689955711365,-0.11774427443742752,0.23411409556865692,1.9573649168014526,-46.360713958740234,46.126861572265625,-72.171875
2.07,-1.6701900959014893,-7.9860453605651855,0.5443671345710754,-0.20082195103168488,-1.1354458332061768,2.2875375747680664,-46.1414794921875,46.8430290222168,-71.22186279296875
2.08,-14.391631126403809,-10.49252700805664,2.7912275791168213,-0.2955060601234436,-1.398423194885254,2.236682891845703,-45.176849365234375,47.486114501953125,-71.22186279296875
2.091,-14.23729419708252,-10.482954978942871,3.3308091163635254,-0.3147483170032501,0.22892174124717712,1.337489366531372,-44.84069061279297,47.69073486328125,-72.23033905029297
2.1,-3.7663025856018066,-9.18604564666748,1.2538390159606934,-0.3614795207977295,1.0955867767333984,1.0468703508377075,-44.53376388549805,47.74919891357422,-71.92341613769531
2.12,2.7601208686828613,-8.358129501342773,0.9332008361816406,-0.20341812074184418,0.7220426797866821,1.133613109588623,-42.67757797241211,48.684593200683594,-71.28032684326172
2.123,-0.8853443264961243,-11.578868865966797,2.389233350753784,-0.12049316614866257,-0.17516560852527618,1.1804970502853394,-41.888336181640625,48.83074951171875,-71.35340881347656
2.13,-3.359522819519043,-11.090733528137207,1.2335000038146973,-0.11957687139511108,-0.22311851382255554,1.144914150238037,-41.82987594604492,48.684593200683594,-71.68956756591797
2.14,-3.891925811767578,-9.10110092163086,1.2227323055267334,0.01313360221683979,-0.08918632566928864,1.0297660827636719,-42.15141677856445,49.049983978271484,-71.06109619140625
2.15,-1.6558332443237305,-9.41934585571289,1.6091731786727905,0.06062837690114975,-0.05054909735918045,0.8578075170516968,-41.683719635009766,48.845367431640625,-71.38263702392578
2.16,-0.044267214834690094,-9.640682220458984,0.3361915946006775,0.12980885803699493,-0.10873401165008545,0.8113817572593689,-41.2014045715332,49.07921600341797,-72.04033660888672
2.18,0.7956134676933289,-9.214759826660156,1.1808578968048096,0.29168814420700073,-0.026572639122605324,0.8035932183265686,-40.80678176879883,48.80152130126953,-71.48494720458984
2.184,-2.2791635990142822,-9.958927154541016,2.847459077835083,0.17379117012023926,0.18784105777740479,0.8295549750328064,-40.41215896606445,49.283836364746094,-72.2741928100586
2.19,-3.0340988636016846,-10.039087295532227,2.2193429470062256,0.15714508295059204,0.3107776939868927,0.7663304805755615,-40.2660026550293,49.56153106689453,-72.53726959228516
2.2,-3.2279176712036133,-9.796216011047363,3.5736804008483887,0.15592335164546967,0.7031058669090271,0.597426176071167,-39.418296813964844,49.38614273071289,-72.04033660888672
2.21,-2.9001009464263916,-9.718448638916016,3.0113673210144043,0.03375030308961868,0.81581050157547,0.45326200127601624,-39.31599044799805,49.44460678100586,-72.31803894042969
2.22,-1.0492527484893799,-9.555736541748047,1.408176064491272,0.0507018156349659,0.9167559742927551,0.3675881624221802,-38.8629035949707,49.50307083129883,-72.25957489013672
2.239,1.1318050622940063,-9.65384292602539,1.4141581058502197,0.15286903083324432,0.4554000496864319,0.35781431198120117,-38.62905502319336,49.75153350830078,-71.55802154541016
2.243,1.7527425289154053,-9.531808853149414,0.9032905101776123,0.15821409225463867,0.3718641996383667,0.37629297375679016,-38.29289627075195,49.663841247558594,-72.2741928100586
2.25,0.8267201781272888,-9.619146347045898,1.0348957777023315,0.20693059265613556,0.14187344908714294,0.4004221558570862,-38.08827590942383,49.839229583740234,-71.49956512451172
2.26,-0.7298108339309692,-9.69810962677002,1.5122638940811157,0.251676470041275,0.06902776658535004,0.3836233615875244,-38.029815673828125,49.86845779418945,-72.15726470947266
2.27,-1.1832507848739624,-9.702895164489746,1.9776678085327148,0.25961771607398987,0.042760565876960754,0.3393356204032898,-38.24905014038086,49.92692184448242,-72.11341857910156
2.28,-1.310070276260376,-9.693324089050293,2.6811578273773193,0.24785856902599335,0.05497787147760391,0.29474249482154846,-37.211341857910156,49.75153350830078,-73.44343566894531
2.3,-1.6319050788879395,-9.6526460647583,3.1381869316101074,0.21884246170520782,0.09254607558250427,0.22800545394420624,-37.43057632446289,49.035369873046875,-73.57498168945312
2.304,-2.746960163116455,-9.638289451599121,2.9036900997161865,0.16768251359462738,0.3228422701358795,0.14156801998615265,-37.050567626953125,49.54691696166992,-73.4872817993164
2.31,-2.2396819591522217,-9.665806770324707,2.4562323093414307,0.15806137025356293,0.5143485069274902,0.09376781433820724,-36.77287292480469,49.48845672607422,-73.54574584960938
2.32,0.08614161610603333,-9.622735977172852,2.4191436767578125,0.17959438264369965,0.654542088508606,0.06704245507717133,-36.94826126098633,49.53229904174805,-73.83805847167969
2.33,1.3028918504714966,-9.633503913879395,2.520838737487793,0.1774563491344452,0.5633704662322998,0.10919215530157089,-36.62671661376953,49.19614028930664,-74.4665298461914
2.34,0.8291130065917969,-9.564111709594727,2.68953275680542,0.1745547503232956,0.38408151268959045,0.15836679935455322,-36.290557861328125,49.45922088623047,-74.48114776611328
2.359,-0.19501502811908722,-9.54496955871582,2.9419755935668945,0.1394299864768982,0.30482175946235657,0.2041817009449005,-36.87518310546875,49.12306213378906,-74.81730651855469
2.363,-1.5649060010910034,-9.499505043029785,2.8115665912628174,0.12828169763088226,0.35674530267715454,0.19547687470912933,-36.88979721069336,49.44460678100586,-74.62730407714844
2.37,-1.168893814086914,-9.498309135437012,2.977867603302002,0.11499537527561188,0.42119157314300537,0.18555031716823578,-35.910552978515625,49.225372314453125,-74.94884490966797
2.38,-0.11006983369588852,-9.422935485839844,3.1106693744659424,0.09941831976175308,0.4363104999065399,0.19394971430301666,-36.21747970581055,49.41537857055664,-74.04267883300781
2.39,0.62931227684021,-9.384650230407715,3.1202404499053955,0.08674286305904388,0.36224305629730225,0.22052235901355743,-36.0274772644043,49.590763092041016,-74.64192199707031
2.4,0.5240281224250793,-9.487541198730469,3.042473793029785,0.06200282275676727,0.19593501091003418,0.27870726585388184,-35.23823165893555,49.795379638671875,-75.27039337158203
2.419,-1.0767701864242554,-9.754341125488281,2.451446771621704,0.009468411095440388,0.1895209401845932,0.3400992155075073,-35.311309814453125,49.35691452026367,-74.65653228759766
2.423,-1.0432707071304321,-9.82971477508545,2.4945175647735596,0.009468411095440388,0.23121249675750732,0.35246923565864563,-34.63899612426758,49.53229904174805,-74.71499633789062
2.43,-0.6699903011322021,-9.79142951965332,2.6464619636535645,0.0032070425804704428,0.28817567229270935,0.36911532282829285,-35.369773864746094,49.239986419677734,-74.0865249633789
2.44,-0.12203395366668701,-9.748359680175781,2.6763720512390137,-0.00855211354792118,0.30085110664367676,0.41172316670417786,-34.785152435302734,49.34230041503906,-74.59806823730469
2.45,0.4749752879142761,-9.763912200927734,2.8247268199920654,-0.017867807298898697,0.2603813111782074,0.46502113342285156,-34.551300048828125,49.035369873046875,-74.94884490966797
2.46,-0.016749758273363113,-9.847661018371582,2.9204399585723877,-0.05955936014652252,0.20372354984283447,0.550084114074707,-34.08360290527344,49.590763092041016,-74.61268615722656
2.479,-0.7525426745414734,-9.7938232421875,2.8654050827026367,-0.09346237778663635,0.2776382565498352,0.6426302194595337,-33.68898010253906,49.92692184448242,-75.05115509033203
2.483,-0.037088751792907715,-9.722038269042969,3.232703447341919,-0.10674870014190674,0.27870726585388184,0.6753115057945251,-33.49897384643555,49.80999755859375,-74.97808074951172
2.49,0.4259223937988281,-9.65503978729248,3.3822548389434814,-0.12919799983501434,0.2551889419555664,0.7321219444274902,-32.82666015625,49.283836364746094,-74.2472915649414
2.5,0.751346230506897,-9.416953086853027,3.586841106414795,-0.15424346923828125,0.17547103762626648,0.8200865387916565,-32.812042236328125,49.80999755859375,-74.68576049804688
2.51,0.0849451944231987,-9.494720458984375,3.537788152694702,-0.22143864631652832,0.09896016865968704,0.930347740650177,-32.19818878173828,49.82461166381836,-74.86115264892578
2.52,-1.137787103652954,-9.458827018737793,3.2338995933532715,-0.23090705275535583,0.14874568581581116,0.9995282292366028,-32.08126449584961,49.70768737792969,-74.75884246826172
2.539,-0.31824538111686707,-9.4121675491333,3.1884360313415527,-0.2503020465373993,0.2641991972923279,1.1097893714904785,-31.525867462158203,50.043846130371094,-74.80268859863281
2.543,0.1627119481563568,-9.394221305847168,3.166900634765625,-0.2528982162475586,0.2480112910270691,1.126588225364685,-30.89739990234375,50.02922821044922,-74.43729400634766
2.55,0.6484549045562744,-9.188438415527344,3.2757742404937744,-0.25335633754730225,0.16569718718528748,1.19607412815094,-30.605087280273438,50.2776985168457,-73.64805603027344
2.56,0.4821537435054779,-8.849854469299316,3.018545627593994,-0.2632829248905182,-0.03237585723400116,1.3116803169250488,-30.34200668334961,50.540775299072266,-73.66267395019531
2.57,-0.24406790733337402,-9.165706634521484,3.022134780883789,-0.2919935882091522,-0.1537853181362152,1.4083497524261475,-29.128910064697266,50.19000244140625,-73.29727935791016
2.58,-0.9511469602584839,-9.332008361816406,3.0233314037323,-0.31291571259498596,-0.2275473028421402,1.490511178970337,-28.26658821105957,50.43846893310547,-73.99883270263672
2.599,-1.0827522277832031,-9.437292098999023,3.13220477104187,-0.3553708493709564,-0.2249511182308197,1.6001615524291992,-27.41888427734375,50.65769958496094,-73.38497924804688
2.604,-2.304288148880005,-10.108478546142578,3.129812002182007,-0.38499781489372253,-0.20815233886241913,1.623068928718567,-26.468870162963867,50.49692916870117,-74.0865249633789
2.61,-3.3607192039489746,-10.308279037475586,2.898904800415039,-0.422871470451355,-0.11591167747974396,1.6268868446350098,-26.834259033203125,50.49692916870117,-73.0342025756836
2.62,-5.099104881286621,-10.814361572265625,2.5495524406433105,-0.4433354437351227,0.15622878074645996,1.5833626985549927,-26.088863372802734,51.169246673583984,-73.13650512695312
2.63,-5.732006549835205,-11.022536277770996,1.9884356260299683,-0.46731188893318176,0.49953505396842957,1.521359920501709,-25.591930389404297,50.86231994628906,-72.5080337524414
2.64,-4.8562331199646,-11.36949634552002,2.287538528442383,-0.530536413192749,0.8019133806228638,1.4442380666732788,-24.96346092224121,51.65156173706055,-72.87342834472656
2.66,-1.3423734903335571,-11.148159980773926,0.8889335989952087,-0.6236934065818787,0.7403686046600342,1.4746286869049072,-22.975738525390625,51.4615592956543,-72.49342346191406
2.663,-1.9992032051086426,-11.595619201660156,0.8482555747032166,-0.6420193314552307,0.6629414558410645,1.518916368484497,-22.5518856048584,51.43233108520508,-72.97573852539062
2.67,-2.9754748344421387,-11.477173805236816,0.09212366491556168,-0.7023422718048096,0.6308711171150208,1.5735888481140137,-22.186494827270508,51.593101501464844,-72.68342590332031
2.68,-2.825923442840576,-11.72004508972168,0.8255237936973572,-0.7699956297874451,0.6742424964904785,1.648267149925232,-21.061092376708984,51.6807975769043,-72.7711181640625
2.69,-2.660818576812744,-12.118450164794922,1.0013961791992188,-0.8513934016227722,0.6721044778823853,1.6966781616210938,-20.344928741455078,51.7977180480957,-71.631103515625
2.7,-3.1692936420440674,-12.28834056854248,1.215553879737854,-0.912327229976654,0.6798930168151855,1.7215709686279297,-19.599531173706055,51.885414123535156,-71.86495208740234
2.715,-3.190828800201416,-12.452248573303223,1.2059825658798218,-1.0056369304656982,0.6809620261192322,1.7747161388397217,-18.152587890625,51.87080001831055,-71.25109100341797
2.721,-3.2817561626434326,-13.15573787689209,1.5625131130218506,-1.0864238739013672,0.6841690540313721,1.7768542766571045,-18.021047592163086,51.885414123535156,-70.68109130859375
2.73,-3.3272199630737305,-13.627123832702637,2.2504496574401855,-1.1702649593353271,0.698066234588623,1.7907514572143555,-16.676410675048828,52.03157043457031,-70.46185302734375
2.74,-3.678964614868164,-13.276576042175293,1.9441683292388916,-1.1574369668960571,0.7802276015281677,1.786780834197998,-15.770242691040039,52.25080108642578,-70.41800689697266
2.75,-3.8775689601898193,-12.973883628845215,1.5445669889450073,-1.161712884902954,0.9900597929954529,1.7501288652420044,-15.054078102111816,52.03157043457031,-69.39491271972656
2.76,-3.390629768371582,-13.665410041809082,1.9094724655151367,-1.2501357793807983,1.1843149662017822,1.75471031665802,-13.928675651550293,52.338497161865234,-69.21952056884766
2.779,-0.7860422134399414,-14.263615608215332,0.8697909712791443,-1.3565789461135864,1.4072808027267456,1.7895296812057495,-11.999415397644043,52.20695877075195,-67.30487823486328
2.782,-0.5850450992584229,-14.682358741760254,1.3088740110397339,-1.3967432975769043,1.4448490142822266,1.8283195495605469,-11.56094741821289,51.914642333984375,-67.20257568359375
2.79,0.5862414836883545,-15.726826667785645,1.1820544004440308,-1.4804319143295288,1.4744758605957031,1.8875735998153687,-10.96170711517334,52.03157043457031,-66.89564514160156
2.8,2.2707886695861816,-16.43390464782715,1.7335999011993408,-1.5517504215240479,1.5421292781829834,1.961030125617981,-9.938613891601562,51.973106384277344,-65.93101501464844
2.81,4.179064750671387,-16.7198486328125,1.978864312171936,-1.5859588384628296,1.5253304243087769,2.052201747894287,-9.295527458190918,51.84156799316406,-64.73253631591797
2.829,5.456831932067871,-16.947166442871094,2.396411657333374,-1.6276503801345825,1.524566888809204,2.214081048965454,-7.907044887542725,51.09617233276367,-64.61560821533203
2.833,6.257230758666992,-15.364313125610352,2.671586275100708,-1.5795447826385498,1.6096298694610596,2.3011293411254883,-6.0654778480529785,50.86231994628906,-62.61327362060547
2.84,6.447460651397705,-14.445470809936523,3.1058835983276367,-1.543503761291504,1.6226108074188232,2.2650883197784424,-5.261619567871094,50.51154327392578,-62.27711486816406
2.85,5.830111980438232,-12.893725395202637,1.5254243612289429,-1.552361249923706,1.1433870792388916,2.2270619869232178,-4.048523902893066,50.64308547973633,-61.10786056518555
2.86,3.6801609992980957,-11.257034301757812,1.6677974462509155,-1.6252069473266602,-0.09468411654233932,2.34816575050354,-2.747734546661377,50.2776985168457,-60.800933837890625
2.87,1.5361920595169067,-11.47238826751709,3.249452829360962,-1.642616629600525,-2.2713496685028076,2.942996025085449,-1.6807950735092163,49.473838806152344,-61.970184326171875
2.88,-0.9619146585464478,-10.5152587890625,4.770091533660889,-1.3993394374847412,-3.291036367416382,2.9915597438812256,-0.49693071842193604,49.54691696166992,-61.619407653808594
2.895,-4.967499732971191,-7.149754047393799,6.468995571136475,-0.9063712954521179,-3.4461963176727295,2.855336904525757,0.42385268211364746,48.34843444824219,-63.2563591003418
2.9,-6.362515449523926,-6.632904052734375,5.5788655281066895,-0.7867944240570068,-3.0688343048095703,2.7090344429016113,1.2569423913955688,47.9391975402832,-63.50482177734375
2.91,-6.7692952156066895,-4.490131378173828,4.183850288391113,-0.5441282391548157,-2.0804543495178223,2.023491144180298,1.6223325729370117,47.09149169921875,-63.9140625
2.92,-4.652843475341797,-4.603790283203125,4.2592244148254395,-0.45204025506973267,-1.4066699743270874,1.1985175609588623,1.9146448373794556,46.63841247558594,-63.9140625
2.93,-0.10887342691421509,-5.662614822387695,3.7674992084503174,-0.4237877428531647,-1.126588225364685,0.5642867684364319,1.4615609645843506,46.901493072509766,-64.55714416503906
2.949,2.6153552532196045,-5.581258773803711,3.62153697013855,-0.28420504927635193,-1.1201741695404053,-0.04337143152952194,1.446945309638977,46.33148193359375,-65.94563293457031
2.953,2.47896409034729,-4.429114818572998,3.363112211227417,-0.1495092660188675,-1.2496775388717651,-0.479834645986557,0.745396077632904,46.22917175292969,-67.23180389404297
2.96,0.9966105818748474,-3.6502509117126465,2.830709218978882,-0.06918048858642578,-1.3209960460662842,-0.7939720749855042,0.6869336366653442,46.46302032470703,-67.75796508789062
2.97,-1.0995019674301147,-3.046063184738159,2.54117751121521,0.054825153201818466,-1.3165671825408936,-1.4662293195724487,-0.7015492916107178,46.126861572265625,-69.32183837890625
2.98,-3.029313325881958,-2.9204399585723877,2.3545374870300293,0.08368853479623795,-1.0960450172424316,-1.980577826499939,-1.5054078102111816,46.740718841552734,-69.58491516113281
2.99,-3.510270595550537,-2.383251190185547,1.6701900959014893,0.14049901068210602,-0.7770205736160278,-2.4272727966308594,-3.3762056827545166,46.65302658081055,-70.71031951904297
3.01,-2.829512596130371,-2.163111686706543,1.7862420082092285,0.25702154636383057,-0.5135849714279175,-2.883283853530884,-4.9400763511657715,47.60304260253906,-71.66033172607422
3.013,-0.5611169338226318,-2.7864418029785156,2.583051919937134,0.42470404505729675,-0.27229318022727966,-3.5048391819000244,-6.942414283752441,47.1791877746582,-72.8149642944336
3.02,0.0323031060397625,-3.7746775150299072,3.3714869022369385,0.4274529218673706,-0.16019940376281738,-3.663206100463867,-8.111662864685059,47.544578552246094,-73.82344818115234
3.03,0.1052841916680336,-4.457828521728516,2.575873613357544,0.48029276728630066,-0.12049316614866257,-3.852574348449707,-10.377082824707031,47.77842712402344,-74.45191955566406
3.04,-1.1916255950927734,-5.3383870124816895,2.6213371753692627,0.6250678896903992,-0.24297165870666504,-4.013689994812012,-11.809412002563477,47.25226593017578,-75.9134750366211
3.05,-3.6299118995666504,-5.946164131164551,3.008974552154541,0.7553348541259766,-0.27779096364974976,-4.194964408874512,-13.709442138671875,46.98918533325195,-76.42501831054688
3.069,-5.181657314300537,-6.319444179534912,3.276970386505127,0.8471173644065857,-0.15714508295059204,-4.467868328094482,-15.609471321105957,47.03303146362305,-77.81350708007812
3.073,-4.082155227661133,-7.184449672698975,3.150151014328003,1.0077749490737915,0.06612616032361984,-4.859891414642334,-18.035661697387695,45.995323181152344,-79.31890869140625
3.08,-3.37268328666687,-7.752745151519775,2.968296527862549,1.1056660413742065,0.08933904021978378,-4.965417861938477,-19.64337921142578,45.556854248046875,-79.40660858154297
3.09,-2.66560435295105,-9.565308570861816,2.6847469806671143,1.2344058752059937,0.0013744467869400978,-4.996266841888428,-21.806488037109375,44.28529739379883,-81.2627944946289
3.101,-3.2506494522094727,-10.73300552368164,2.496910333633423,1.33168625831604,-0.1342376321554184,-5.002680778503418,-23.12189483642578,43.29143524169922,-82.69512176513672
3.11,-4.202992916107178,-11.36231803894043,2.2707886695861816,1.3871222734451294,-0.20051652193069458,-5.002985954284668,-24.802688598632812,41.47909927368164,-84.3905258178711
3.13,-4.936392784118652,-11.740384101867676,2.0338993072509766,1.4430164098739624,-0.16844607889652252,-5.003597259521484,-26.074249267578125,40.29523468017578,-85.93978118896484
3.134,-5.023731231689453,-12.309876441955566,2.1655044555664062,1.5743523836135864,-0.04108068719506264,-5.00206995010376,-27.272727966308594,38.54136276245117,-87.2259521484375
3.14,-4.870590686798096,-12.738190650939941,2.2157537937164307,1.626275897026062,0.07528913766145706,-4.997641086578369,-27.901199340820312,37.43057632446289,-88.24905395507812
3.15,-4.693521499633789,-13.424931526184082,2.1415762901306152,1.6757559776306152,0.2522873282432556,-4.981911659240723,-28.412744522094727,35.9836311340332,-89.38906860351562
3.16,-4.2592244148254395,-14.153545379638672,2.001595973968506,1.6965254545211792,0.45585817098617554,-4.936096668243408,-29.011985778808594,34.551300048828125,-90.51446533203125
3.17,-3.4432716369628906,-14.476576805114746,1.4883357286453247,1.6911803483963013,0.6299547553062439,-4.87730073928833,-29.011985778808594,32.66588592529297,-91.46448516845703
3.19,-2.2779672145843506,-14.35573959350586,0.576670229434967,1.6633859872817993,0.6298020482063293,-4.829958438873291,-29.15814208984375,31.10201644897461,-92.64835357666016
3.193,-1.8508483171463013,-15.059228897094727,0.061016976833343506,1.666898488998413,0.4242459237575531,-4.713130950927734,-29.275066375732422,29.932767868041992,-93.62759399414062
3.2,-2.575873613357544,-15.538990020751953,-0.09092725813388824,1.6754505634307861,0.33337968587875366,-4.65952730178833,-29.114294052124023,28.99736976623535,-93.96375274658203
3.21,-3.1716861724853516,-16.23410415649414,-0.332602322101593,1.5975652933120728,0.3052798807621002,-4.546517372131348,-29.304296493530273,28.778135299682617,-93.96375274658203
3.22,-2.4287149906158447,-15.90030574798584,-0.7310072779655457,1.482569932937622,0.30543261766433716,-4.3702826499938965,-29.275066375732422,28.558900833129883,-94.59222412109375
3.23,-1.6271193027496338,-15.131012916564941,-1.416550874710083,1.3533719778060913,0.04535674676299095,-4.0130791664123535,-29.479684829711914,28.26658821105957,-95.30838775634766
3.25,-3.2171499729156494,-14.658431053161621,-1.6905291080474854,1.3016010522842407,-0.2831360399723053,-3.6219725608825684,-30.225080490112305,28.04735565185547,-95.41069793701172
3.254,-6.345765590667725,-14.884552955627441,-1.8005989789962769,1.192256212234497,-0.4075998365879059,-3.118925094604492,-31.55510139465332,28.003507614135742,-95.96609497070312
3.26,-7.570890426635742,-14.640485763549805,-2.0673987865448,1.1082621812820435,-0.33429598808288574,-2.7707319259643555,-32.09587860107422,28.032737731933594,-95.64454650878906
3.27,-8.71226692199707,-14.080564498901367,-2.465803623199463,0.9419541954994202,-0.1748601794242859,-2.210415840148926,-32.13972473144531,27.769657135009766,-95.9222412109375
3.28,-9.232706069946289,-13.544571876525879,-2.8187451362609863,0.6565274000167847,0.040622539818286896,-1.3891074657440186,-32.9289665222168,28.310436248779297,-96.3168716430664
3.29,-8.627321243286133,-12.869795799255371,-3.286541700363159,0.3738495111465454,0.11102475225925446,-0.6893614530563354,-33.352821350097656,28.441978454589844,-96.55071258544922
3.309,-6.942774772644043,-12.734601974487305,-3.040081262588501,0.08521570265293121,0.033139437437057495,-0.01313360221683979,-33.5282096862793,29.1873722076416,-97.0768814086914
3.313,-5.010570526123047,-12.55274772644043,-2.2947168350219727,-0.2145664095878601,-0.25564709305763245,0.7455610036849976,-33.22127914428711,29.172758102416992,-97.13533782958984
3.32,-4.6157546043396,-12.077771186828613,-1.9956140518188477,-0.35033121705055237,-0.43279802799224854,1.1433870792388916,-33.27974319458008,30.137386322021484,-97.74919891357422
3.33,-4.627718925476074,-11.746366500854492,-1.753938913345337,-0.5128213763237,-0.5955936312675476,1.6617060899734497,-33.791290283203125,30.663549423217773,-96.79917907714844
3.34,-4.133601188659668,-11.929417610168457,-1.5804593563079834,-0.6168211698532104,-0.6585127115249634,1.9617936611175537,-33.352821350097656,31.306636810302734,-98.05612182617188
3.35,-3.311666488647461,-11.913863182067871,-1.6857434511184692,-0.7110471725463867,-0.7406740784645081,2.1960604190826416,-33.572052001953125,32.1689567565918,-96.521484375
3.37,-2.4574286937713623,-11.44965648651123,-1.832902193069458,-0.7793112993240356,-0.9133962988853455,2.3806943893432617,-33.30897521972656,34.185909271240234,-95.99532318115234
3.374,-2.1236300468444824,-9.198010444641113,1.6749757528305054,-0.6171265840530396,-1.2386820316314697,2.5254695415496826,-33.14820098876953,34.33206558227539,-96.49225616455078
3.38,-2.115255117416382,-5.697310447692871,7.362715244293213,-0.07437284290790558,-1.2965614795684814,2.369851589202881,-33.791290283203125,35.15053939819336,-96.74071502685547
3.39,-2.4849462509155273,-11.407781600952148,24.632911682128906,0.1316414624452591,0.41340306401252747,1.362687587738037,-33.11897277832031,35.39900588989258,-97.31072998046875
3.4,14.255240440368652,-26.88336181640625,-5.137389659881592,-1.4213306903839111,3.303101062774658,0.7596108913421631,-32.402809143066406,35.6474723815918,-96.4776382446289
3.41,11.533404350280762,-13.013365745544434,-10.280762672424316,-0.6974554061889648,1.3811663389205933,2.286774158477783,-30.9266300201416,36.729026794433594,-96.65302276611328
3.429,3.862015724182129,-6.3661041259765625,0.6544370055198669,-0.3142901659011841,-1.0624473094940186,2.631760358810425,-29.15814208984375,37.73750305175781,-96.03916931152344
3.433,-6.748956203460693,-6.788437843322754,2.9252257347106934,-0.40851613879203796,-1.0005972385406494,2.471255302429199,-29.34814453125,37.679039001464844,-96.40455627441406
3.44,-9.756733894348145,-6.976274490356445,3.5222346782684326,-0.40256020426750183,-0.4951062798500061,2.1126773357391357,-29.216602325439453,38.1028938293457,-96.17071533203125
3.45,-6.356533527374268,-8.849854469299316,5.021337985992432,-0.38209620118141174,0.2018909603357315,1.6942347288131714,-29.026599884033203,38.38058853149414,-97.14995574951172
3.46,-2.5160529613494873,-10.237690925598145,3.8560335636138916,-0.39248090982437134,0.1814269870519638,1.5925257205963135,-28.69044303894043,38.570594787597656,-96.49225616455078
3.47,-2.764906644821167,-11.035697937011719,3.308077335357666,-0.3459024429321289,-0.2765692174434662,1.641394853591919,-28.018123626708984,39.418296813964844,-95.73223876953125
3.49,-4.752145767211914,-10.216156005859375,2.1092729568481445,-0.3723223805427551,-0.3449861407279968,1.447445273399353,-27.228879928588867,39.75445556640625,-95.43992614746094
3.494,-4.29033088684082,-8.790033340454102,0.9260223507881165,-0.34834590554237366,0.10766499489545822,1.1829404830932617,-27.287343978881836,40.207542419433594,-95.35224151611328
3.5,-3.2829525470733643,-10.028319358825684,0.7046862840652466,-0.3439171314239502,0.19196438789367676,1.098793864250183,-27.15580177307129,40.23677444458008,-95.3376235961914
3.51,-2.1236300468444824,-10.596613883972168,0.2105683833360672,-0.2912300229072571,0.15332716703414917,0.9845620393753052,-26.761180877685547,40.25138854980469,-95.3814697265625
3.521,-1.3627125024795532,-9.89432144165039,-0.0263210479170084,-0.17531833052635193,0.17516560852527618,0.8828530311584473,-26.118093490600586,40.499855041503906,-95.35224151611328
3.53,-0.9272187352180481,-9.053244590759277,-0.397208571434021,-0.058948494493961334,0.2837468981742859,0.8231408596038818,-26.118093490600586,40.149078369140625,-95.9222412109375
3.55,-0.2512463629245758,-8.876174926757812,0.1579262912273407,0.13576479256153107,0.2854267954826355,0.8326093554496765,-25.12423324584961,40.19292449951172,-95.05992889404297
3.553,-0.3960121273994446,-9.90987491607666,1.696511149406433,0.14523321390151978,0.2704605758190155,0.8232936263084412,-25.05115509033203,39.973690032958984,-95.5860824584961
3.56,-0.7417749762535095,-9.949356079101562,2.342573404312134,0.13897183537483215,0.25335633754730225,0.7765624523162842,-24.67115020751953,40.38292694091797,-95.03069305419922
3.57,-1.0636096000671387,-9.595218658447266,3.232703447341919,0.118660569190979,0.22708913683891296,0.6846271753311157,-24.524991989135742,39.85676574707031,-95.9222412109375
3.58,-0.6843472719192505,-9.213563919067383,3.3786656856536865,0.08231408894062042,0.21105393767356873,0.5951354503631592,-23.9695987701416,40.149078369140625,-96.03916931152344
3.59,-0.0023928226437419653,-9.249455451965332,3.5294132232666016,0.04886921867728233,0.18081609904766083,0.5523748993873596,-23.750364303588867,39.47676086425781,-95.13300323486328
3.61,0.13040883839130402,-9.590433120727539,2.073380708694458,0.06811147183179855,-0.04046982154250145,0.5230533480644226,-23.39959144592285,39.69599533081055,-95.46916198730469
3.613,-0.1411765217781067,-9.604789733886719,2.0398812294006348,0.06963863968849182,-0.06994406878948212,0.5209153294563293,-23.531131744384766,39.944461822509766,-95.3814697265625
3.62,-0.453439861536026,-9.627521514892578,1.7599210739135742,0.07437284290790558,-0.12492194026708603,0.5053382515907288,-23.341127395629883,39.929847717285156,-95.79070281982422
3.63,-0.8590232729911804,-9.644271850585938,2.1643080711364746,0.08155050873756409,-0.10461067408323288,0.4917464852333069,-23.12189483642578,39.75445556640625,-96.02455139160156
3.64,-1.2849457263946533,-9.529415130615234,2.234896183013916,0.07757988572120667,-0.08292495459318161,0.44944408535957336,-23.238819122314453,39.85676574707031,-95.48377227783203
3.65,-1.765903115272522,-9.751948356628418,1.8017953634262085,0.05115996673703194,-0.11652254313230515,0.40454548597335815,-22.434959411621094,39.73984146118164,-95.90763092041016
3.669,-2.510071039199829,-9.69212818145752,1.34476637840271,0.08048149198293686,-0.036651913076639175,0.29657506942749023,-22.990352630615234,39.374454498291016,-95.46916198730469
3.673,-2.2779672145843506,-9.592824935913086,1.451246976852417,0.08979719132184982,-0.007941247895359993,0.2816088795661926,-22.347267150878906,39.447532653808594,-95.73223876953125
3.68,-1.5936198234558105,-9.436095237731934,1.4931212663650513,0.11759155988693237,0.06505714356899261,0.2448042333126068,-22.508039474487305,40.309852600097656,-95.93685913085938
3.69,-1.0061818361282349,-9.486345291137695,1.5804593563079834,0.15851953625679016,0.10094548016786575,0.22067506611347198,-22.39111328125,39.87138366699219,-95.43992614746094
3.7,-0.7058826684951782,-9.663414001464844,2.029113531112671,0.1713476926088333,0.10919215530157089,0.21532998979091644,-22.610347747802734,40.45600509643555,-96.22917175292969
3.71,-0.3002992272377014,-9.649056434631348,2.310270071029663,0.18249599635601044,0.09605855494737625,0.2295326143503189,-22.464191436767578,40.45600509643555,-95.70301055908203
3.729,-0.5347958207130432,-9.537790298461914,2.5986053943634033,0.15241087973117828,-0.0138971833512187,0.2843577563762665,-22.37649917602539,39.81291961669922,-95.8053207397461
3.733,-0.5623133182525635,-9.489934921264648,2.5603203773498535,0.14844025671482086,-0.016951510682702065,0.2906191349029541,-22.522653579711914,39.79830551147461,-96.33148193359375
3.74,-0.32183465361595154,-9.300901412963867,2.6668004989624023,0.15653420984745026,-0.032070424407720566,0.31031954288482666,-22.1718807220459,39.579071044921875,-95.8783950805664
3.75,0.06340979784727097,-9.379863739013672,3.1070802211761475,0.1434006243944168,-0.058337628841400146,0.35842517018318176,-21.952646255493164,39.579071044921875,-96.00994110107422
3.76,-0.3720839321613312,-9.678967475891113,3.087937355041504,0.11789698898792267,-0.11209376901388168,0.39645153284072876,-22.011106491088867,39.579071044921875,-96.1414794921875
3.77,-1.750349760055542,-10.053443908691406,2.3234305381774902,0.05360342189669609,-0.12446378916501999,0.44135013222694397,-21.791873931884766,39.24291229248047,-96.38994598388672
3.789,-1.3483555316925049,-9.664609909057617,2.1882362365722656,0.07238753139972687,0.20234911143779755,0.4686863422393799,-21.704179763793945,39.389068603515625,-96.05378723144531
3.793,-0.9906285405158997,-9.65503978729248,2.214557409286499,0.07727444916963577,0.260992169380188,0.49128836393356323,-21.499561309814453,39.60830307006836,-95.51300811767578
3.8,0.07417750358581543,-9.68255615234375,2.526820659637451,0.07101307809352875,0.2431243658065796,0.5525276064872742,-21.353404998779297,39.53522491455078,-95.74685668945312
3.81,0.9846464395523071,-9.741181373596191,2.557927370071411,0.03955352306365967,0.11759155988693237,0.6682865619659424,-20.783395767211914,39.66676330566406,-96.1853256225586
3.82,1.1234301328659058,-9.651450157165527,2.884547472000122,0.0018325956771150231,0.0012217304902151227,0.8141306638717651,-20.418006896972656,40.002925872802734,-96.1414794921875
3.83,0.22133608162403107,-9.69810962677002,3.352344274520874,-0.06475171446800232,-0.05406157299876213,0.9613491296768188,-19.92107582092285,39.72522735595703,-96.33148193359375
3.847,-0.7070790529251099,-9.762716293334961,3.891925811767578,-0.1385136991739273,0.080634206533432,1.1281154155731201,-19.33645248413086,39.65214920043945,-95.8783950805664
3.85,-0.574277400970459,-9.754341125488281,3.9003007411956787,-0.156686931848526,0.13301590085029602,1.1627819538116455,-19.54106903076172,39.69599533081055,-96.11224365234375
3.86,-0.4929214417934418,-9.737591743469238,3.9314074516296387,-0.19333885610103607,0.20265454053878784,1.23226797580719,-19.24875831604004,39.65214920043945,-95.95147705078125
3.87,-1.1318050622940063,-9.564111709594727,3.328416109085083,-0.2223549336194992,0.21273382008075714,1.2838859558105469,-18.88336753845215,39.54983901977539,-95.43992614746094
3.88,-2.0267207622528076,-9.54496955871582,2.583051919937134,-0.24648413062095642,0.2773328125476837,1.3410018682479858,-17.62642478942871,40.134464263916016,-95.57147216796875
3.89,-2.685943365097046,-9.986444473266602,2.2325034141540527,-0.3000875413417816,0.3718641996383667,1.4004086256027222,-17.451038360595703,39.66676330566406,-95.7176284790039
3.903,-2.853440999984741,-10.344171524047852,2.4741785526275635,-0.33399054408073425,0.5859724879264832,1.4764612913131714,-16.559486389160156,40.2221565246582,-95.46916198730469
3.91,-2.423929214477539,-10.533205032348633,2.77447772026062,-0.3683517277240753,0.6701191663742065,1.4978415966033936,-16.208711624145508,40.002925872802734,-94.95761108398438
3.92,-1.5242280960083008,-10.60977554321289,2.968296527862549,-0.43157631158828735,0.7137960195541382,1.5254831314086914,-15.52177619934082,40.03215408325195,-94.95761108398438
3.93,-1.4213366508483887,-10.723433494567871,2.6811578273773193,-0.46731188893318176,0.6443100571632385,1.5641204118728638,-14.73253345489502,39.8859977722168,-94.3583755493164
3.94,-2.317448616027832,-11.285747528076172,1.7180465459823608,-0.5383250117301941,0.5722280144691467,1.598176121711731,-14.162525177001953,40.879859924316406,-94.88453674316406
3.95,-3.644268751144409,-11.831311225891113,1.1988041400909424,-0.6090326309204102,0.5934555530548096,1.6765196323394775,-13.139432907104492,39.900611877441406,-94.7822265625
3.969,-2.2540388107299805,-12.601799964904785,2.585444688796997,-0.7339546084403992,0.96883225440979,1.7498234510421753,-11.458637237548828,40.207542419433594,-93.34989929199219
3.973,-0.9367900490760803,-12.945170402526855,1.9800606966018677,-0.8064948320388794,0.9616546034812927,1.7768542766571045,-11.531715393066406,40.74831771850586,-93.45220947265625
3.98,0.397208571434021,-12.911670684814453,2.0817556381225586,-0.8758280277252197,0.8321511745452881,1.8614590167999268,-10.91786003112793,40.61677932739258,-93.10143280029297
3.99,-0.08015955239534378,-12.943973541259766,2.612962245941162,-0.9411906003952026,0.5965099334716797,1.996002197265625,-10.21631145477295,40.74831771850586,-91.55217742919922
4.0,-2.187039852142334,-13.188041687011719,2.0853447914123535,-1.0042624473571777,0.4697553813457489,2.1030561923980713,-9.368605613708496,41.5814094543457,-91.72756958007812
4.019,-4.524827480316162,-13.653446197509766,1.7682960033416748,-1.0571023225784302,0.6601925492286682,2.1508564949035645,-8.52090072631836,41.683719635009766,-91.46448516845703
4.023,-4.140779495239258,-14.34138298034668,1.3399806022644043,-1.1542298793792725,1.0160216093063354,2.1653645038604736,-7.322420120239258,42.20988082885742,-90.47062683105469
4.03,-2.9802606105804443,-15.309279441833496,2.008774518966675,-1.2377656698226929,1.1388055086135864,2.169487953186035,-7.0885701179504395,42.15141677856445,-89.50599670410156
4.04,-1.6354942321777344,-15.620346069335938,2.3676979541778564,-1.3199270963668823,1.1481212377548218,2.1839959621429443,-6.299327373504639,42.10757064819336,-88.71675109863281
4.05,-1.4787644147872925,-15.41217041015625,1.7228323221206665,-1.3011430501937866,1.14873206615448,2.2241601943969727,-5.232388019561768,42.48757553100586,-87.76673889160156
4.06,-1.4225330352783203,-16.15275001525879,1.750349760055542,-1.3851369619369507,1.3730722665786743,2.2762365341186523,-4.311604976654053,43.072200775146484,-87.0213394165039
4.07,0.3696911036968231,-17.138591766357422,1.062413215637207,-1.4538593292236328,1.5900822877883911,2.339003086090088,-2.864659309387207,43.52528381347656,-85.2090072631836
4.083,3.964907169342041,-17.94736671447754,1.1473584175109863,-1.5578590631484985,1.7498234510421753,2.456289052963257,-1.5492546558380127,44.372989654541016,-84.21514129638672
4.09,6.2943196296691895,-18.356538772583008,2.262413740158081,-1.6322318315505981,1.8154914379119873,2.5337162017822266,-0.6284711956977844,43.61297607421875,-83.42589569091797
4.1,8.070990562438965,-18.78365707397461,2.6524438858032227,-1.7078264951705933,1.6855299472808838,2.683225631713867,1.1984800100326538,44.372989654541016,-81.33586883544922
4.11,8.26121997833252,-17.92822265625,2.895315170288086,-1.6438382863998413,1.7324138879776,2.7844765186309814,2.0754165649414062,44.24144744873047,-80.56124114990234
4.12,7.454838752746582,-16.582260131835938,3.428914785385132,-1.5708400011062622,1.8664987087249756,2.719113826751709,3.551593065261841,44.31452941894531,-78.77813720703125
4.14,6.409175395965576,-14.027922630310059,1.7419748306274414,-1.552361249923706,1.4799737930297852,2.4503331184387207,3.9900612831115723,44.72376251220703,-77.44811248779297
4.143,4.176671981811523,-10.999804496765137,4.265206336975098,-1.6731598377227783,-0.6604980230331421,2.596788167953491,4.779304027557373,44.562992095947266,-76.5127182006836
4.15,4.0211381912231445,-10.265209197998047,4.78803825378418,-1.6146694421768188,-1.6174184083938599,2.7953193187713623,4.735457420349121,43.96375274658203,-76.64425659179688
4.16,2.069791555404663,-10.144371032714844,5.819344520568848,-1.3536772727966309,-3.5938730239868164,3.1062498092651367,5.261619567871094,43.89067459106445,-76.9657974243164
4.17,-6.15553617477417,-8.553144454956055,6.501298904418945,-1.1074986457824707,-3.662595272064209,2.9604055881500244,4.735457420349121,43.422977447509766,-76.19117736816406
4.18,-7.361518859863281,-3.706482172012329,5.077569484710693,-0.7254024744033813,-2.74415922164917,1.993406057357788,5.027769565582275,43.55451583862305,-77.97428131103516
4.199,-3.8536407947540283,-3.2961132526397705,5.453242301940918,-0.39324450492858887,-1.8180875778198242,1.1204795837402344,4.1654486656188965,43.34989929199219,-76.46886444091797
4.203,1.8747763633728027,-5.278566360473633,4.504488468170166,-0.3039054572582245,-1.047175645828247,0.3585779070854187,3.683133363723755,43.876060485839844,-76.99503326416016
4.21,3.3607192039489746,-5.047659397125244,4.4542388916015625,-0.14813482761383057,-1.0937541723251343,-0.056352317333221436,2.5285003185272217,43.189125061035156,-77.37503814697266
4.22,4.439882278442383,-4.201796531677246,4.998606204986572,0.025656340643763542,-1.286940336227417,-0.4815145432949066,2.1923413276672363,43.59836196899414,-77.25811004638672
4.23,2.7912275791168213,-3.3308091163635254,4.217350006103516,0.1411098688840866,-1.4899002313613892,-0.9117163419723511,1.0815550088882446,42.85296630859375,-78.01811981201172
4.24,0.5132604241371155,-2.827119827270508,3.696910858154297,0.26511549949645996,-1.5693128108978271,-1.4272865056991577,0.24846535921096802,43.59836196899414,-77.84273529052734
4.26,-1.5086746215820312,-2.9491539001464844,3.586841106414795,0.35292738676071167,-1.4653130769729614,-1.9482018947601318,-1.4615609645843506,43.262203216552734,-77.828125
4.263,-2.754138708114624,-2.8151557445526123,2.6763720512390137,0.5164865851402283,-1.0801624059677124,-2.7230846881866455,-3.829289674758911,43.11604690551758,-78.64659118652344
4.27,-2.84386944770813,-2.8067808151245117,2.4717857837677,0.6172793507575989,-0.8478809595108032,-3.0918943881988525,-4.9400763511657715,43.21835708618164,-78.22274017333984
4.28,-2.2995026111602783,-3.0795626640319824,2.6177480220794678,0.7133378982543945,-0.5062545537948608,-3.551417589187622,-6.767026901245117,43.262203216552734,-78.6319808959961
4.29,-1.8412768840789795,-3.792623519897461,2.685943365097046,0.7663304805755615,-0.12476921826601028,-3.9092321395874023,-7.9801225662231445,42.85296630859375,-79.04122161865234
4.3,-0.9044869542121887,-4.185046672821045,2.2911276817321777,0.8405505418777466,0.21303924918174744,-4.2004618644714355,-9.982461929321289,43.33528137207031,-80.02046203613281
4.32,-0.5491527915000916,-4.651647090911865,1.8317056894302368,1.0143417119979858,0.3126102685928345,-4.472908020019531,-11.370944023132324,41.9614143371582,-80.28353881835938
4.323,-2.796013355255127,-5.763113021850586,1.624726414680481,1.1823296546936035,0.23487769067287445,-4.729318618774414,-13.987138748168945,42.443729400634766,-80.95586395263672
4.33,-4.23649263381958,-6.592226505279541,2.0063817501068115,1.2473868131637573,0.2200642079114914,-4.901888370513916,-14.688687324523926,41.77141189575195,-80.6635513305664
4.34,-4.754538536071777,-7.856832981109619,2.3509480953216553,1.2861766815185547,0.3075706362724304,-5.003597259521484,-16.70564079284668,40.879859924316406,-81.2481689453125
4.35,-3.0891339778900146,-9.036494255065918,1.875972867012024,1.3133602142333984,0.43875396251678467,-5.003597259521484,-17.81642723083496,40.324466705322266,-81.67202758789062
4.36,-1.3782658576965332,-10.341778755187988,1.32921302318573,1.3724615573883057,0.34636056423187256,-5.003597259521484,-20.140310287475586,40.17831039428711,-83.07512664794922
4.38,-1.275374412536621,-11.548957824707031,1.0671988725662231,1.4456125497817993,0.08796459436416626,-5.003597259521484,-21.36802101135254,39.05290985107422,-82.30049896240234
4.383,-3.37268328666687,-12.79083251953125,1.038485050201416,1.4625641107559204,-0.14233160018920898,-5.003597259521484,-23.823442459106445,38.40982437133789,-83.14820098876953
4.39,-4.118047714233398,-13.28136157989502,0.8781659007072449,1.4396566152572632,-0.17791450023651123,-5.003597259521484,-24.627302169799805,38.13212585449219,-83.2505111694336
4.4,-4.0725836753845215,-13.925030708312988,0.4666004180908203,1.422399640083313,-0.18860463798046112,-5.003597259521484,-25.855012893676758,37.1236457824707,-83.42589569091797
4.41,-3.6502509117126465,-14.592628479003906,0.4821537435054779,1.4211779832839966,-0.24037547409534454,-5.003597259521484,-27.52119255065918,36.90441131591797,-83.64513397216797
4.42,-3.2793633937835693,-15.121441841125488,0.5934200286865234,1.403157353401184,-0.3341432809829712,-5.003597259521484,-28.748903274536133,36.07132339477539,-83.49897766113281
4.44,-3.5473594665527344,-15.55693531036377,0.5132604241371155,1.3730722665786743,-0.39706239104270935,-5.003597259521484,-30.53200912475586,34.69745635986328,-83.9228286743164
4.444,-4.183850288391113,-15.342779159545898,0.02512463741004467,1.3338242769241333,-0.388357549905777,-5.002833366394043,-32.47588348388672,34.59514617919922,-83.2066650390625
4.45,-5.167300701141357,-15.028121948242188,-0.07657032459974289,1.3559681177139282,-0.3709478974342346,-5.003292083740234,-33.11897277832031,34.142066955566406,-83.19204711914062
4.46,-6.893721580505371,-15.704094886779785,0.8171489238739014,1.3205379247665405,-0.22739459574222565,-4.952589988708496,-34.536685943603516,33.11897277832031,-83.57205200195312
4.47,-7.131807804107666,-15.907485008239746,0.8566304445266724,1.2426526546478271,0.11133018881082535,-4.742910385131836,-34.785152435302734,32.373573303222656,-83.2505111694336
4.48,-5.9090752601623535,-15.272191047668457,0.4821537435054779,1.1908817291259766,0.30802878737449646,-4.477183818817139,-35.559776306152344,31.876644134521484,-83.61589813232422
4.5,-5.088337421417236,-14.81516170501709,-0.10767702013254166,1.1705704927444458,0.3036000430583954,-4.13128137588501,-36.831336975097656,30.73662757873535,-83.44051361083984
4.505,-7.568498134613037,-14.688342094421387,0.21655045449733734,1.1679743528366089,0.11835514008998871,-3.425121307373047,-37.591346740722656,29.90353775024414,-83.68898010253906
4.51,-9.113064765930176,-14.663217544555664,0.019142581149935722,1.135140299797058,0.11285734921693802,-3.1485519409179688,-37.24057388305664,29.742765426635742,-84.33206939697266
4.52,-11.694920539855957,-14.47179126739502,-0.9655039310455322,0.9556986689567566,0.36972618103027344,-2.420400857925415,-37.89827346801758,29.508914947509766,-83.2505111694336
4.53,-12.107682228088379,-14.385648727416992,-2.4741785526275635,0.7170030474662781,0.6597344279289246,-1.7383697032928467,-37.474422454833984,29.085063934326172,-83.60128784179688
4.54,-9.79860782623291,-14.194222450256348,-3.3583264350891113,0.4306599795818329,0.7170030474662781,-0.9541714787483215,-37.839813232421875,28.865829467773438,-83.10435485839844
4.56,-7.013362884521484,-14.110474586486816,-3.414557933807373,0.11652254313230515,0.43905937671661377,-0.11270463466644287,-36.845951080322266,29.31891441345215,-83.63052368164062
4.563,-5.773880958557129,-13.588839530944824,-2.9694929122924805,-0.2802344262599945,-0.22739459574222565,1.0684032440185547,-37.211341857910156,29.28968048095703,-83.83513641357422
4.57,-6.03110933303833,-13.25025463104248,-2.5363919734954834,-0.41523563861846924,-0.4729623794555664,1.5363260507583618,-36.43671417236328,29.859689712524414,-83.38204956054688
4.58,-5.6961140632629395,-12.64487075805664,-1.8388842344284058,-0.5470298528671265,-0.6508768796920776,2.004248857498169,-36.33440399169922,30.26892852783203,-83.8497543334961
4.59,-4.147957801818848,-12.693923950195312,-1.4141581058502197,-0.6476698517799377,-0.8184067010879517,2.370004177093506,-35.63285446166992,30.6489315032959,-83.03128051757812
4.6,-2.568694829940796,-12.802796363830566,-0.259621262550354,-0.683863639831543,-1.0780243873596191,2.6430611610412598,-34.726688385009766,31.920490264892578,-81.90587615966797
4.619,-1.0001999139785767,-10.939984321594238,4.150351047515869,-0.3966042399406433,-0.8323038816452026,2.208277940750122,-33.46974563598633,32.95820236206055,-82.24203491210938
4.623,2.6189444065093994,-20.813966751098633,13.957334518432617,-0.9091201424598694,0.40164390206336975,1.5288430452346802,-33.74744415283203,32.95820236206055,-81.83279418945312
4.63,17.674583435058594,-24.9021053314209,-6.051447868347168,-1.4230105876922607,1.5096007585525513,1.6954565048217773,-33.557437896728516,33.45513153076172,-82.28588104248047
4.64,7.384250640869141,-10.357333183288574,-9.645467758178711,-0.5798638463020325,-0.7017314434051514,3.5278992652893066,-33.045894622802734,34.88745880126953,-80.85355377197266
4.65,-1.975274920463562,-5.54895544052124,0.4462614059448242,0.04612032324075699,-1.6617060899734497,3.4275646209716797,-31.394329071044922,35.06284713745117,-80.38584899902344
4.66,-7.410571575164795,-5.4951171875,3.056830644607544,-0.12721268832683563,-1.3625348806381226,2.9335274696350098,-31.160480499267578,35.57439422607422,-81.0435562133789
4.68,-8.63210678100586,-4.214956760406494,2.662015199661255,-0.25564709305763245,-0.25274547934532166,2.233017921447754,-29.90353775024414,35.79362487792969,-80.7073974609375
4.684,-5.131407737731934,-6.963113307952881,5.062016010284424,-0.13240504264831543,-0.05345070734620094,1.9330830574035645,-29.494300842285156,36.115169525146484,-80.40046691894531
4.69,-6.597012042999268,-10.346565246582031,6.766901969909668,-0.056352317333221436,-0.48716503381729126,2.0425806045532227,-29.24583625793457,36.0274772644043,-80.51739501953125
4.7,-8.97547721862793,-15.845271110534668,6.419942855834961,-0.3378084599971771,-0.6650795340538025,1.8961256742477417,-28.485822677612305,36.919029235839844,-81.30663299560547
4.71,-5.916253566741943,-11.085947036743164,3.0975089073181152,-0.44577890634536743,-0.32039880752563477,1.4106405973434448,-28.1496639251709,37.22595977783203,-80.9120101928711
4.72,-2.468196392059326,-7.884350299835205,2.7385854721069336,-0.36713001132011414,0.09315694868564606,1.3730722665786743,-27.62350082397461,37.1236457824707,-80.26892852783203
4.739,-1.1653046607971191,-9.577272415161133,0.7178468108177185,-0.38347065448760986,0.2509129047393799,1.2852604389190674,-26.746564865112305,37.73750305175781,-79.88892364501953
4.743,-0.9200402498245239,-10.1276216506958,-0.30149564146995544,-0.29306259751319885,0.2379319965839386,1.29243803024292,-26.98041534423828,37.86904525756836,-79.85969543457031
4.75,-1.852044701576233,-10.331010818481445,-0.06819543987512589,-0.2076941728591919,0.25106561183929443,1.2725850343704224,-26.43963623046875,38.015201568603516,-79.3919906616211
4.76,-1.4177473783493042,-9.116654396057129,-0.50129634141922,-0.07620543986558914,0.33505958318710327,1.1459832191467285,-25.84039878845215,37.25518798828125,-80.31277465820312
4.77,0.08374878764152527,-8.47896671295166,0.7645068168640137,0.062460970133543015,0.3917173445224762,1.0812314748764038,-25.007307052612305,37.34288024902344,-79.83045959472656
4.78,0.14476576447486877,-9.44207763671875,1.9453648328781128,0.04352414980530739,0.26801711320877075,1.0419833660125732,-24.364221572875977,37.78135299682617,-80.02046203613281
4.8,-0.9930213689804077,-9.93260669708252,1.7168502807617188,0.0455094613134861,0.08307767659425735,0.9556986689567566,-23.764982223510742,38.08827590942383,-79.9912338256836
4.804,-1.3351950645446777,-9.433703422546387,2.441875457763672,0.02687807008624077,0.0073303827084600925,0.849255383014679,-23.735750198364258,38.07366180419922,-80.63432312011719
4.81,-1.0408778190612793,-9.266205787658691,2.242074728012085,0.01618792861700058,-0.005192354787141085,0.8144360780715942,-23.165740966796875,37.43057632446289,-79.6843032836914
4.82,-0.35533416271209717,-9.293722152709961,1.891526222229004,0.01924225501716137,-0.06398813426494598,0.7447974681854248,-23.472667694091797,37.8251953125,-79.94738006591797
4.83,0.03469592705368996,-9.605986595153809,1.506281852722168,0.039248090237379074,-0.24449880421161652,0.7012733221054077,-23.00497055053711,37.16749572753906,-79.62583923339844
4.84,-0.49531427025794983,-9.854839324951172,2.554337978363037,0.02626720443367958,-0.403781920671463,0.6895141005516052,-23.063430786132812,37.43057632446289,-80.31277465820312
4.86,-1.4572290182113647,-9.656235694885254,2.400001049041748,-0.039248090237379074,-0.21090121567249298,0.6255260109901428,-22.230342864990234,37.971351623535156,-80.13738250732422
4.863,-3.2410783767700195,-9.487541198730469,1.8963117599487305,-0.009010262787342072,-0.12110403180122375,0.5636758804321289,-22.537269592285156,37.839813232421875,-79.91815185546875
4.87,-3.4815566539764404,-9.616753578186035,1.7551352977752686,-0.011759155429899693,-0.018020525574684143,0.5328271985054016,-22.74188804626465,37.41596221923828,-80.00585174560547
4.88,-2.1272192001342773,-9.206384658813477,1.1401798725128174,0.04932736977934837,0.23182335495948792,0.43860122561454773,-23.12189483642578,37.94212341308594,-80.04969024658203
4.89,-0.7070790529251099,-9.554540634155273,1.6139588356018066,0.06627887487411499,0.2275473028421402,0.4502076804637909,-22.230342864990234,37.78135299682617,-79.78661346435547
4.9,-0.26560330390930176,-9.320043563842773,1.23589289188385,0.12079859524965286,0.09056076407432556,0.403781920671463,-21.631101608276367,37.94212341308594,-80.61970520019531
4.92,-0.6364907622337341,-9.460023880004883,1.153340458869934,0.17241671681404114,-0.18768833577632904,0.4199698567390442,-21.777257919311523,37.94212341308594,-80.327392578125
4.924,-0.8338987231254578,-9.737591743469238,1.3698909282684326,0.16691893339157104,-0.22189679741859436,0.4528038501739502,-21.908798217773438,37.41596221923828,-80.57585144042969
4.93,-1.2765707969665527,-9.926624298095703,1.3890334367752075,0.14706581830978394,-0.2402227520942688,0.48059821128845215,-21.92341423034668,37.679039001464844,-80.07892608642578
4.94,-1.9477574825286865,-9.774680137634277,2.0542380809783936,0.18066339194774628,-0.18585574626922607,0.469449907541275,-21.733409881591797,37.78135299682617,-80.60508728027344
4.95,-1.9214365482330322,-9.66819953918457,2.407179594039917,0.18448129296302795,-0.03145955875515938,0.46990808844566345,-21.397253036499023,37.3867301940918,-80.8243179321289
4.96,-1.4464612007141113,-9.537790298461914,2.647658109664917,0.18845191597938538,0.08124507963657379,0.47937649488449097,-21.66033363342285,38.00058364868164,-80.51739501953125
4.979,-0.647258460521698,-9.651450157165527,2.7254250049591064,0.1310305893421173,0.0936150997877121,0.5561928153038025,-21.587255477905273,37.78135299682617,-80.3712387084961
4.983,-0.6305087208747864,-9.65982437133789,2.7086751461029053,0.1114829033613205,0.07819075137376785,0.5879577994346619,-21.148786544799805,37.854427337646484,-80.41508483886719
4.99,-0.8554341197013855,-9.65982437133789,2.6763720512390137,0.08827002346515656,0.06169738993048668,0.6385068893432617,-20.958784103393555,37.48904037475586,-80.108154296875
5.0,-1.294516921043396,-9.834501266479492,2.9958138465881348,0.06948591768741608,0.09498954564332962,0.693026602268219,-20.18415641784668,37.605960845947266,-80.42969512939453
5.01,-1.2406784296035767,-9.759126663208008,3.095116138458252,0.052839841693639755,0.18387043476104736,0.7525859475135803,-20.169540405273438,37.284420013427734,-80.76585388183594
5.021,-0.6400800943374634,-9.387042999267578,2.8067808151245117,0.04749477282166481,0.26251932978630066,0.8292495608329773,-19.482608795166016,37.839813232421875,-80.69277954101562
5.039,-0.31824538111686707,-9.6526460647583,3.3619158267974854,-0.013744467869400978,0.14523321390151978,0.9955576062202454,-19.05875587463379,37.56211853027344,-81.87664031982422
5.043,-0.38285163044929504,-9.542576789855957,3.3403801918029785,-0.02367102913558483,0.11835514008998871,1.0348057746887207,-19.27798843383789,37.79596710205078,-81.37971496582031
5.05,-0.5084748268127441,-9.236295700073242,3.346362352371216,-0.03145955875515938,0.13057243824005127,1.1073459386825562,-18.50336265563965,37.32826614379883,-80.83893585205078
5.06,-0.36251261830329895,-9.11426067352295,3.2482566833496094,-0.060933806002140045,0.16783522069454193,1.2162326574325562,-18.225666046142578,37.22595977783203,-80.40046691894531
5.07,-0.11365906894207001,-9.034101486206055,3.2159535884857178,-0.09911288321018219,0.14126259088516235,1.2944234609603882,-17.831043243408203,37.25518798828125,-80.59046936035156
5.08,-1.172482967376709,-9.250652313232422,2.1954145431518555,-0.13637566566467285,-0.015577062964439392,1.410029649734497,-17.23180389404297,37.31365203857422,-80.8681640625
5.1,-5.992824077606201,-10.334601402282715,1.7455641031265259,-0.2177734524011612,0.3422372341156006,1.4025466442108154,-15.974861145019531,37.24057388305664,-79.94738006591797
5.104,-5.955735206604004,-10.427921295166016,1.8388842344284058,-0.1996002048254013,0.5659666657447815,1.3840678930282593,-16.15024757385254,37.16749572753906,-80.56124114990234
5.11,-4.989035129547119,-10.284351348876953,2.6979076862335205,-0.16752979159355164,0.7629706859588623,1.3675744533538818,-15.375621795654297,37.065185546875,-80.79508972167969
5.12,-2.520838737487793,-11.248659133911133,3.322434186935425,-0.2422080636024475,1.0690141916275024,1.3489431142807007,-14.220989227294922,36.77287292480469,-80.19584655761719
5.13,-0.8087739944458008,-11.33838939666748,3.22552490234375,-0.32818731665611267,0.9983065128326416,1.3965907096862793,-14.030985832214355,36.451332092285156,-80.26892852783203
5.14,-0.9511469602584839,-11.334800720214844,2.4335005283355713,-0.41401392221450806,0.7165449261665344,1.4653130769729614,-12.744811058044434,36.97748947143555,-80.0643081665039
5.157,-3.5341989994049072,-11.769097328186035,1.0875378847122192,-0.5542075037956238,0.6829473376274109,1.5931365489959717,-11.838644027709961,36.919029235839844,-79.55276489257812
5.16,-3.8835508823394775,-12.014362335205078,0.9547362327575684,-0.5734497308731079,0.7192938327789307,1.609171748161316,-12.072493553161621,37.035953521728516,-79.42121887207031
5.17,-3.4576287269592285,-12.564711570739746,1.3866406679153442,-0.668744683265686,0.8703302145004272,1.662164330482483,-11.297865867614746,37.079803466796875,-78.60275268554688
5.18,-2.337787628173828,-12.902099609375,1.8771692514419556,-0.7625125646591187,0.9527970552444458,1.729664921760559,-10.581701278686523,37.065185546875,-78.90967559814453
5.19,-1.9489539861679077,-13.122239112854004,2.093719720840454,-0.829707682132721,0.9085093140602112,1.8206838369369507,-9.792458534240723,37.284420013427734,-78.57351684570312
5.209,-2.6943180561065674,-13.13300609588623,2.1296122074127197,-0.864679753780365,0.8831583857536316,1.895362138748169,-9.003214836120605,37.43057632446289,-78.3250503540039
5.213,-3.486342430114746,-13.262218475341797,1.7874385118484497,-0.9242391586303711,0.9659306406974792,1.9633208513259888,-7.7316575050354,38.1467399597168,-77.59426879882812
5.22,-3.4719855785369873,-13.186844825744629,1.7395819425582886,-0.9529497623443604,1.063821792602539,1.9975292682647705,-7.424729347229004,38.40982437133789,-76.73194885253906
5.23,-3.093919515609741,-13.406984329223633,1.588834285736084,-1.004873275756836,1.1956160068511963,2.0450241565704346,-6.299327373504639,38.07366180419922,-75.70885467529297
5.24,-2.5902304649353027,-14.270793914794922,1.4344971179962158,-1.1186469793319702,1.322981357574463,2.101376533508301,-4.910844802856445,38.5267448425293,-74.42268371582031
5.25,-1.4261221885681152,-15.501900672912598,2.4179470539093018,-1.2446379661560059,1.313665747642517,2.1114556789398193,-3.9023678302764893,38.45366668701172,-74.1742172241211
5.269,-1.1210373640060425,-14.855838775634766,1.8664016723632812,-1.2362385988235474,1.2750284671783447,2.155132532119751,-2.3823444843292236,38.87752151489258,-73.63343811035156
5.273,-1.8975082635879517,-14.379667282104492,0.9619146585464478,-1.2009609937667847,1.4767667055130005,2.191478967666626,-1.6954107284545898,38.205204010009766,-71.71879577636719
5.28,-1.2669994831085205,-14.900106430053711,1.0348957777023315,-1.2212722301483154,1.700343370437622,2.1933116912841797,-0.45308390259742737,38.8629035949707,-71.68956756591797
5.29,1.1198409795761108,-15.67418384552002,0.7573283314704895,-1.310916781425476,1.939038872718811,2.210874080657959,1.2569423913955688,38.804443359375,-70.41800689697266
5.3,4.851447582244873,-16.607385635375977,0.9762716293334961,-1.3622294664382935,1.8964310884475708,2.2563834190368652,2.5431160926818848,39.345218658447266,-69.01490783691406
5.31,6.634100437164307,-16.79522132873535,2.0446667671203613,-1.393078088760376,1.9100228548049927,2.390010118484497,3.3908214569091797,38.73136520385742,-68.54721069335938
5.33,7.793423175811768,-16.9005069732666,2.420340061187744,-1.3629930019378662,1.8252654075622559,2.448500633239746,5.057000637054443,39.11137008666992,-66.09178924560547
5.333,7.8556365966796875,-15.872788429260254,1.5278172492980957,-1.280068039894104,1.3037391901016235,2.581821918487549,6.357789993286133,39.66676330566406,-64.74714660644531
5.34,5.365904331207275,-14.384452819824219,0.8901299834251404,-1.2037099599838257,0.622624397277832,2.666121482849121,7.76088809967041,39.47676086425781,-64.13329315185547
5.35,0.12921242415905,-14.233704566955566,2.9551358222961426,-1.2513574361801147,-0.508087158203125,2.665968656539917,8.813212394714355,39.16983413696289,-62.788658142089844
5.36,-0.3242274522781372,-14.472987174987793,5.861218452453613,-1.447445273399353,-1.4135421514511108,2.613128900527954,10.01169204711914,39.52061080932617,-63.40251541137695
5.37,1.3208380937576294,-10.991430282592773,5.225924491882324,-1.2651019096374512,-2.3330471515655518,2.699871778488159,10.713241577148438,39.28675842285156,-63.32943344116211
5.39,-1.8903299570083618,-6.884150981903076,8.496912956237793,-0.8785768747329712,-3.0549371242523193,3.000417470932007,12.189417839050293,38.819061279296875,-63.24174499511719
5.394,-7.783851623535156,-4.509274005889893,5.388636112213135,-0.5878050327301025,-1.8350391387939453,2.118480682373047,13.358667373657227,38.11751174926758,-63.73867416381836
5.4,-7.770691394805908,-3.6095728874206543,4.2137603759765625,-0.28955012559890747,-1.327562928199768,1.4595097303390503,14.030985832214355,38.51213073730469,-63.3148193359375
5.41,-3.998406410217285,-5.953342914581299,4.734199523925781,-0.14416420459747314,-0.6574437022209167,0.9334020614624023,14.878690719604492,38.64366912841797,-62.964046478271484
5.42,0.7046862840652466,-6.612565040588379,4.201796531677246,-0.05772676318883896,-0.2658790946006775,0.21609358489513397,15.404851913452148,38.833675384521484,-62.759429931640625
5.43,4.541577339172363,-5.605186939239502,4.05703067779541,0.08765916526317596,-0.24190261960029602,-0.29825496673583984,15.331774711608887,39.28675842285156,-62.028648376464844
5.45,5.109872817993164,-4.387239933013916,3.449253797531128,0.21884246170520782,-0.4254676401615143,-0.6579018235206604,16.223325729370117,40.6021614074707,-62.2332649230957
5.453,2.3461625576019287,-2.7804598808288574,2.5292134284973145,0.38117989897727966,-0.8823947906494141,-1.2690725326538086,15.697164535522461,41.49371337890625,-61.838645935058594
5.46,0.22851455211639404,-2.5674986839294434,2.592623233795166,0.460286945104599,-0.9718866348266602,-1.5937473773956299,16.164865493774414,42.063724517822266,-62.774044036865234
5.47,-2.0853447914123535,-2.633301258087158,2.678764820098877,0.5416847467422485,-0.8700248003005981,-2.0977113246917725,15.594855308532715,43.072200775146484,-62.39403533935547
5.48,-2.5232315063476562,-2.636890411376953,2.5674986839294434,0.6177374720573425,-0.5934555530548096,-2.6345088481903076,15.81408977508545,45.03069305419922,-63.19789123535156
5.49,-1.5876377820968628,-2.465803623199463,2.108076810836792,0.7246388792991638,-0.34055736660957336,-3.096323251724243,15.18561840057373,46.726104736328125,-62.92020034790039
5.51,-0.23569302260875702,-2.557927370071411,2.172683000564575,0.8907942175865173,-0.23105978965759277,-3.556304693222046,13.563285827636719,50.979244232177734,-63.81174850463867
5.514,0.6329016089439392,-3.3786656856536865,2.286341905593872,1.0458012819290161,-0.3764457106590271,-3.9466476440429688,12.920199394226074,51.63694763183594,-63.168663024902344
5.52,-0.40319061279296875,-4.202992916107178,2.579462766647339,1.1273517608642578,-0.4847215414047241,-4.126241683959961,12.1455717086792,53.4200553894043,-63.358665466308594
5.53,-2.5184457302093506,-5.1804609298706055,2.78165602684021,1.2110402584075928,-0.4492913782596588,-4.374711513519287,10.49400806427002,55.34931564331055,-63.56328582763672
5.54,-4.340579986572266,-5.972485065460205,2.9168508052825928,1.3025174140930176,-0.24816399812698364,-4.649753570556641,8.111662864685059,59.17860412597656,-64.1771469116211
5.55,-4.805984020233154,-6.6520466804504395,2.9144580364227295,1.4161382913589478,0.1485929638147354,-4.983285903930664,5.729318618774414,61.8532600402832,-64.68869018554688
5.57,-3.9074792861938477,-7.635496616363525,2.54117751121521,1.515709400177002,0.4050036370754242,-5.003597259521484,1.4761765003204346,66.25255584716797,-66.12101745605469
5.574,-3.148954391479492,-9.21595573425293,1.9836498498916626,1.6823228597640991,0.5487096905708313,-5.003597259521484,-1.2277112007141113,67.99181365966797,-66.7494888305664
5.58,-3.2482566833496094,-10.299904823303223,1.8352948427200317,1.7406604290008545,0.5444336533546448,-5.003597259521484,-3.2008185386657715,70.25723266601562,-67.23180389404297
5.59,-3.915853977203369,-11.49512004852295,1.7670994997024536,1.817171335220337,0.5426010489463806,-5.003597259521484,-7.17626428604126,73.09266662597656,-68.64952087402344
5.6,-4.631308078765869,-12.153145790100098,1.5433706045150757,1.8573358058929443,0.6769914031028748,-5.003597259521484,-11.370944023132324,75.46039581298828,-69.891845703125
5.61,-4.371686935424805,-12.346964836120605,1.1258230209350586,1.8906278610229492,0.8431467413902283,-5.003597259521484,-15.85793685913086,77.71119689941406,-71.28032684326172
5.629,-3.212364435195923,-12.870993614196777,0.8374878764152527,2.0056233406066895,0.8576547503471375,-5.003597259521484,-24.305757522583008,80.63432312011719,-73.4872817993164
5.633,-2.2325034141540527,-14.042279243469238,0.7190431356430054,2.0193676948547363,0.8219191431999207,-5.003597259521484,-27.930429458618164,81.30663299560547,-74.83192443847656
5.64,-2.093719720840454,-14.578271865844727,0.5874379277229309,2.046092987060547,0.6960809230804443,-5.003597259521484,-31.75971794128418,81.7304916381836,-76.38117980957031
5.65,-2.287538528442383,-15.058032989501953,0.22612173855304718,2.0587685108184814,0.513737678527832,-5.003597259521484,-37.109031677246094,81.49663543701172,-78.10581970214844
5.66,-2.117647886276245,-15.779468536376953,-0.5156532526016235,2.034944772720337,0.39507707953453064,-5.003597259521484,-42.75065612792969,81.33586883544922,-81.2481689453125
5.67,-1.1425727605819702,-16.307085037231445,-1.239482045173645,1.9564486742019653,0.22250765562057495,-4.97809362411499,-48.2607421875,79.87430572509766,-83.4697494506836
5.69,-0.4307080805301666,-16.88614845275879,-1.8843477964401245,1.8408424854278564,-0.1385136991739273,-4.814992427825928,-58.19935607910156,75.63578033447266,-86.33440399169922
5.694,-2.657229423522949,-17.225929260253906,-2.2504496574401855,1.6954565048217773,-0.7779368162155151,-4.513377666473389,-59.982460021972656,75.47500610351562,-87.16749572753906
5.7,-3.8117663860321045,-17.674583435058594,-1.891526222229004,1.565036654472351,-0.9621127247810364,-4.335463047027588,-63.13943099975586,73.94036865234375,-87.26980590820312
5.71,-4.333401679992676,-17.766708374023438,-1.6642080545425415,1.3697125911712646,-1.0583239793777466,-4.089895725250244,-67.86027526855469,70.38877868652344,-87.60596466064453
5.72,-4.073780536651611,-16.371692657470703,-1.9657037258148193,1.220050573348999,-1.2134836912155151,-3.7290267944335938,-71.49956512451172,67.49488830566406,-88.92137145996094
5.73,-6.594618797302246,-14.941980361938477,-1.4883357286453247,1.1766791343688965,-1.4001030921936035,-3.2420146465301514,-74.99269104003906,63.92867660522461,-88.92137145996094
5.749,-11.198410034179688,-14.642877578735352,-0.8111668825149536,0.9561567902565002,-0.7724390625953674,-2.018756866455078,-79.28968048095703,58.3162841796875,-88.32212829589844
5.753,-15.540185928344727,-15.431312561035156,-2.0518453121185303,0.8034404516220093,-0.3978259861469269,-1.6774359941482544,-79.33352661132812,57.8193473815918,-88.54136657714844
5.76,-15.230316162109375,-15.352349281311035,-3.019742250442505,0.5175555348396301,0.12919799983501434,-1.1465940475463867,-80.34201049804688,56.28471374511719,-87.8690414428711
5.77,-9.881160736083984,-14.019548416137695,-3.5736804008483887,0.11682797223329544,0.4538728594779968,-0.38866299390792847,-80.92662811279297,54.004676818847656,-87.95674133300781
5.78,-6.309872627258301,-13.255041122436523,-3.352344274520874,-0.20463986694812775,0.21578815579414368,0.39248090982437134,-81.75971984863281,53.55158996582031,-87.6644287109375
5.79,-5.666203498840332,-12.750155448913574,-2.4406790733337402,-0.4424191415309906,-0.2025018185377121,1.106735110282898,-81.89126586914062,53.317745208740234,-88.24905395507812
5.809,-7.462017059326172,-11.997611999511719,-1.9190436601638794,-0.7093672156333923,-0.5719225406646729,2.0841193199157715,-80.51739501953125,54.691612243652344,-86.99211120605469
5.813,-7.107879161834717,-11.934203147888184,-2.0039889812469482,-0.7547240257263184,-0.5369505286216736,2.2380573749542236,-80.48816680908203,54.53084182739258,-86.84595489501953
5.82,-5.6339006423950195,-11.793025016784668,-1.8999011516571045,-0.8107708692550659,-0.49098294973373413,2.4132230281829834,-80.28353881835938,55.53931427001953,-86.3490219116211
5.83,-2.3736801147460938,-9.869196891784668,0.787238597869873,-0.7342600226402283,-0.5510004162788391,2.5413520336151123,-79.5089111328125,56.25548553466797,-84.17129516601562
5.84,0.1746760457754135,-6.275177478790283,18.90090560913086,0.08765916526317596,-0.741284966468811,2.408794403076172,-79.43583679199219,58.11166000366211,-83.9666748046875
5.85,3.148954391479492,-30.971500396728516,14.559128761291504,-1.1210904121398926,2.2198843955993652,1.1549934148788452,-77.4919662475586,58.360130310058594,-84.24436950683594
5.87,16.892131805419922,-25.73839569091797,-16.195819854736328,-0.4184426963329315,-0.3663664162158966,3.2756121158599854,-74.56884002685547,59.71937942504883,-84.02513885498047
5.873,3.9828531742095947,-4.810770034790039,1.8221343755722046,-0.0780380368232727,-1.250899314880371,3.2377383708953857,-74.0134506225586,60.27477264404297,-83.86436462402344
5.88,-2.3748762607574463,-5.816951751708984,6.014359474182129,-0.28038716316223145,-1.8139643669128418,3.2168161869049072,-73.39958953857422,61.26863479614258,-83.06050872802734
5.89,-8.998208999633789,-4.517648696899414,4.590630054473877,-0.494189977645874,-1.6823228597640991,2.894584894180298,-72.28880310058594,62.26249313354492,-81.99356842041016
5.9,-7.061219215393066,-4.480560302734375,7.131807804107666,-0.18997909128665924,-1.026253581047058,2.2592849731445312,-70.90032196044922,63.00789260864258,-80.78047943115234
5.91,-6.558726787567139,-10.311869621276855,8.318647384643555,-0.2741257846355438,-0.9078984260559082,2.334115982055664,-70.35954284667969,63.32943344116211,-79.91815185546875
5.93,-10.236495018005371,-10.096514701843262,2.8139593601226807,-0.5703954100608826,-0.21105393767356873,1.5125024318695068,-67.8164291381836,64.7909927368164,-79.12890625
5.933,-6.612565040588379,-8.760123252868652,2.5591237545013428,-0.5595525503158569,-0.04566217586398125,1.4202616214752197,-67.96258544921875,65.25869750976562,-77.93043518066406
5.94,-1.9465612173080444,-8.330612182617188,1.1234301328659058,-0.5487096905708313,0.3162754774093628,1.3539828062057495,-67.78719329833984,65.9164047241211,-78.80736541748047
5.95,0.11365906894207001,-9.611968040466309,-0.8327022790908813,-0.5206099152565002,0.37400221824645996,1.4289665222167969,-66.73487091064453,65.74100494384766,-78.71967315673828
5.96,-0.8518447875976562,-10.673185348510742,-1.5972089767456055,-0.4147774875164032,0.2845104932785034,1.3504703044891357,-65.43408966064453,66.96871948242188,-78.71967315673828
5.97,-2.713460922241211,-9.42772102355957,-1.330409288406372,-0.24846942722797394,0.2929098606109619,1.2131783962249756,-64.73253631591797,66.95410919189453,-77.24349212646484
5.989,-0.3768695592880249,-8.921639442443848,0.6221339106559753,0.06368270516395569,0.19685132801532745,1.0038042068481445,-63.28559112548828,67.52411651611328,-77.57965087890625
5.993,0.18783655762672424,-9.577272415161133,1.592423439025879,0.06169738993048668,0.20601430535316467,1.006400465965271,-63.051734924316406,67.8895034790039,-78.39812469482422
6.0,0.3613162338733673,-10.091730117797852,2.1020946502685547,0.04108068719506264,0.19715675711631775,1.0047205686569214,-63.02250671386719,68.03565979003906,-78.77813720703125
6.01,-0.07417750358581543,-9.875179290771484,1.9178473949432373,0.06108652427792549,0.07971791177988052,0.9544769525527954,-62.08710479736328,68.22566223144531,-78.67582702636719
6.02,-1.062413215637207,-9.245866775512695,2.8211376667022705,0.06872233748435974,-0.020922133699059486,0.9040805101394653,-61.400177001953125,68.5325927734375,-78.85121154785156
6.03,-2.4335005283355713,-9.251848220825195,2.7457637786865234,-0.0009162978385575116,-0.030237827450037003,0.7994698882102966,-61.210174560546875,68.38643646240234,-77.6527328491211
6.049,-1.168893814086914,-10.034300804138184,1.8592231273651123,0.03649919852614403,0.047800205647945404,0.6568328738212585,-60.1578483581543,68.8687515258789,-78.13504791259766
6.053,-1.1258230209350586,-10.051051139831543,1.672582983970642,0.03252857178449631,0.030085112899541855,0.6397286653518677,-59.64630126953125,68.89797973632812,-78.14966583251953
6.06,-1.1306086778640747,-10.090532302856445,1.4500504732131958,0.042302414774894714,-0.035735614597797394,0.5850561857223511,-59.76322937011719,69.0879898071289,-77.60888671875
6.07,-1.7730815410614014,-9.763912200927734,2.3294126987457275,0.07925976812839508,0.006108652334660292,0.575893223285675,-59.58784103393555,68.67874908447266,-77.41888427734375
6.08,-2.1475582122802734,-9.760323524475098,1.8460626602172852,0.08139779418706894,0.12660181522369385,0.5146539211273193,-59.00321578979492,68.72259521484375,-77.91580963134766
6.09,-1.0301101207733154,-9.31166934967041,2.122433662414551,0.12018773704767227,0.19715675711631775,0.4917464852333069,-58.79859924316406,68.81028747558594,-77.37503814697266
6.103,-0.11246266216039658,-9.19442081451416,1.8065810203552246,0.08491026610136032,0.11331550031900406,0.4964807331562042,-58.433204650878906,69.26337432861328,-77.59426879882812
6.11,-0.08374878764152527,-9.67537784576416,2.8630123138427734,0.10934487730264664,0.0277943667024374,0.5007568001747131,-58.60859298706055,69.2926025390625,-78.45658874511719
6.12,-0.8949156999588013,-9.623931884765625,2.4526431560516357,0.09514226019382477,-0.05696318298578262,0.5229006409645081,-58.0970458984375,69.45337677001953,-77.87196350097656
6.13,-2.65842604637146,-9.804591178894043,2.3473589420318604,0.04077525436878204,0.010690141469240189,0.5343543291091919,-57.41011428833008,69.3364486694336,-78.51505279541016
6.14,-2.884547472000122,-9.364311218261719,2.0003998279571533,0.06139195337891579,0.17333300411701202,0.4714352488517761,-57.43934631347656,69.65798950195312,-78.38351440429688
6.15,-2.4406790733337402,-9.510272979736328,2.5052852630615234,0.07696902006864548,0.3764457106590271,0.43417245149612427,-56.82548904418945,69.39491271972656,-78.73429107666016
6.169,-0.8889335989952087,-9.81416130065918,2.4909281730651855,0.1039998009800911,0.5505422949790955,0.3998112976551056,-56.737796783447266,69.74568939208984,-78.52967071533203
6.173,-0.5132604241371155,-9.903892517089844,2.2480568885803223,0.1010981947183609,0.5308418869972229,0.40485095977783203,-56.211631774902344,69.87722778320312,-78.00350952148438
6.18,-0.15553347766399384,-9.850053787231445,1.9848462343215942,0.10552696883678436,0.43890663981437683,0.4248567819595337,-56.021629333496094,70.05261993408203,-78.66120910644531
6.19,-0.380458801984787,-9.714859962463379,1.994417667388916,0.08994990587234497,0.26572638750076294,0.4665483236312866,-55.42238998413086,69.78953552246094,-79.15814208984375
6.2,-0.7501499056816101,-9.339186668395996,2.249253273010254,0.0884227380156517,0.14034628868103027,0.4993823170661926,-55.30546951293945,70.0087661743164,-79.28968048095703
6.218,-1.054038405418396,-9.30927562713623,2.4885356426239014,0.08231408894062042,0.12034045159816742,0.5328271985054016,-55.24700164794922,70.0087661743164,-79.37738037109375
6.222,-1.1114661693572998,-9.658628463745117,2.78165602684021,0.0507018156349659,0.07712173461914062,0.5606215596199036,-53.93159866333008,70.21338653564453,-79.15814208984375
6.23,-0.7776673436164856,-9.781858444213867,2.816352128982544,0.027183502912521362,0.030543262138962746,0.6015495657920837,-54.16544723510742,70.3156967163086,-78.9681396484375
6.24,-0.7764708995819092,-9.762716293334961,3.014956474304199,-0.0138971833512187,-0.009162978269159794,0.6522513628005981,-53.28851318359375,70.11107635498047,-79.4650650024414
6.25,-0.8638089299201965,-9.724431037902832,3.0041887760162354,-0.03649919852614403,-0.04612032324075699,0.7168503403663635,-52.66004180908203,69.90646362304688,-79.55276489257812
6.26,-0.43549370765686035,-9.571290016174316,2.78165602684021,-0.046273037791252136,-0.01542434748262167,0.7660250067710876,-51.914642333984375,70.8272476196289,-79.33352661132812
6.27,-0.6269195079803467,-9.524630546569824,3.3092734813690186,-0.07223481684923172,0.05467243865132332,0.9224064946174622,-51.82695388793945,70.24262237548828,-79.08506774902344
6.286,-1.8664016723632812,-9.68973445892334,3.627518892288208,-0.0633772686123848,0.20784689486026764,1.0056369304656982,-50.70154571533203,70.4910888671875,-79.47968292236328
6.29,-2.087737560272217,-9.875179290771484,3.40378999710083,-0.10293079167604446,0.3113885521888733,1.0355693101882935,-50.950016021728516,70.3156967163086,-78.7927474975586
6.3,-2.7732813358306885,-9.92303466796875,2.4813568592071533,-0.14996741712093353,0.42500948905944824,1.1105530261993408,-50.07307434082031,70.8272476196289,-79.02659606933594
6.31,-2.5770697593688965,-9.968499183654785,2.1918253898620605,-0.16172656416893005,0.6160575747489929,1.175610065460205,-48.976905822753906,70.81262969970703,-78.90967559814453
6.32,-2.1032910346984863,-10.181459426879883,2.379662036895752,-0.20754145085811615,0.7525859475135803,1.2693780660629272,-48.24612808227539,71.39724731445312,-79.36276245117188
6.339,-1.2921241521835327,-10.411170959472656,2.2779672145843506,-0.2874121069908142,0.763428807258606,1.351386547088623,-47.39842224121094,71.01725006103516,-78.71967315673828
6.343,-1.0695916414260864,-10.376474380493164,1.557727575302124,-0.3660609722137451,0.6334671974182129,1.4593570232391357,-45.4399299621582,71.3680191040039,-78.44197845458984
6.35,-1.734796404838562,-10.546365737915039,1.4309078454971313,-0.41294488310813904,0.5299255847930908,1.521512508392334,-44.75299835205078,71.57263946533203,-78.44197845458984
6.36,-2.717050075531006,-10.861021041870117,1.5050853490829468,-0.498313307762146,0.4818199574947357,1.5697710514068604,-44.03683090209961,72.08419036865234,-77.50657653808594
6.37,-2.9970104694366455,-11.274980545043945,1.5337992906570435,-0.5720753073692322,0.52702397108078,1.595579981803894,-43.17451095581055,71.631103515625,-77.88658142089844
6.38,-3.0508487224578857,-12.026326179504395,2.15234375,-0.7339546084403992,0.5343543291091919,1.6171129941940308,-41.639869689941406,72.30342102050781,-77.1850357055664
6.399,-1.8699908256530762,-12.001201629638672,2.084148406982422,-0.8187121152877808,0.512210488319397,1.6464344263076782,-40.17831039428711,72.30342102050781,-76.90733337402344
6.404,-1.3830513954162598,-12.111270904541016,2.1882362365722656,-0.9346237778663635,0.337044894695282,1.7788394689559937,-38.029815673828125,72.47880554199219,-75.27039337158203
6.41,-1.8592231273651123,-12.221341133117676,1.8711872100830078,-0.9686795473098755,0.2857322096824646,1.8332066535949707,-38.00058364868164,72.33264923095703,-74.93423461914062
6.42,-2.7732813358306885,-12.576675415039062,1.6713865995407104,-1.052215337753296,0.26740625500679016,1.943315029144287,-36.0859375,72.66880798339844,-74.53960418701172
6.43,-3.665804386138916,-12.641281127929688,1.8065810203552246,-1.1024589538574219,0.4764748811721802,2.043802261352539,-34.902076721191406,73.01958465576172,-73.4142074584961
6.44,-3.2542386054992676,-12.789636611938477,2.079362630844116,-1.1395691633224487,0.6812674403190613,2.0925188064575195,-32.46126937866211,73.39958953857422,-71.90879821777344
6.46,-2.5399811267852783,-12.899706840515137,2.355733871459961,-1.1403326988220215,0.7932084798812866,2.147038698196411,-31.365097045898438,72.9465103149414,-71.73340606689453
6.463,-3.304487705230713,-12.821939468383789,1.817348837852478,-1.1253665685653687,0.8804094791412354,2.18048357963562,-28.60274887084961,73.18035125732422,-69.14644622802734
6.47,-4.147957801818848,-12.842278480529785,1.7288143634796143,-1.1279627084732056,0.9578366875648499,2.1713204383850098,-27.740427017211914,73.16574096679688,-69.43875885009766
6.48,-4.222135543823242,-13.215559959411621,1.3698909282684326,-1.157131552696228,1.2111929655075073,2.113593578338623,-26.293479919433594,72.9465103149414,-67.99181365966797
6.49,-2.7672994136810303,-14.053046226501465,1.6462620496749878,-1.1986702680587769,1.3773484230041504,2.0587685108184814,-24.583454132080078,72.5080337524414,-67.11487579345703
6.5,-1.868794322013855,-14.313864707946777,1.6103696823120117,-1.2089022397994995,1.4718797206878662,2.0259344577789307,-22.74188804626465,72.18649291992188,-65.74100494384766
6.521,-1.5864413976669312,-14.45743465423584,1.1856435537338257,-1.1879801750183105,1.6013832092285156,2.0027215480804443,-21.397253036499023,71.30956268310547,-64.46945190429688
6.524,-0.02392822690308094,-15.371492385864258,0.8063812255859375,-1.2030991315841675,1.9599610567092896,1.976759910583496,-19.614147186279297,70.91493225097656,-62.525577545166016
6.53,0.9367900490760803,-15.805789947509766,0.6819544434547424,-1.241125464439392,2.2127065658569336,1.9747745990753174,-18.927213668823242,70.44723510742188,-62.26249313354492
6.54,4.278366565704346,-16.60020637512207,1.3651052713394165,-1.2849550247192383,2.3779456615448,2.012648344039917,-17.363344192504883,69.76030731201172,-60.596317291259766
6.55,7.829315185546875,-16.241283416748047,1.6929219961166382,-1.2777773141860962,2.3075432777404785,2.048841953277588,-15.79947280883789,68.9564437866211,-59.76322937011719
6.56,9.864411354064941,-15.53779411315918,1.8352948427200317,-1.2819007635116577,1.8544341325759888,2.1500930786132812,-14.513299942016602,68.2695083618164,-57.86320114135742
6.58,7.683353424072266,-14.604592323303223,0.15314064919948578,-1.3132075071334839,0.7556402683258057,2.437505006790161,-13.256357192993164,67.45103454589844,-56.53317642211914
6.584,-2.197807550430298,-14.857034683227539,2.249253273010254,-1.4731014966964722,-1.073290228843689,2.8935160636901855,-11.151710510253906,66.26717376708984,-54.6185302734375
6.59,-2.5160529613494873,-14.799607276916504,4.168296813964844,-1.4672982692718506,-1.3886494636535645,2.660928964614868,-10.464776039123535,65.18561553955078,-54.51622772216797
6.6,2.0853447914123535,-12.44746208190918,6.279962539672852,-1.321606993675232,-1.9634735584259033,2.4324653148651123,-8.564746856689453,64.96638488769531,-52.36772918701172
6.61,2.864208459854126,-8.529216766357422,6.512066841125488,-1.150259256362915,-2.7626380920410156,2.5158486366271973,-8.170125961303711,62.730194091796875,-52.0608024597168
6.62,0.4977070689201355,-4.694717884063721,7.29691219329834,-0.8622362613677979,-3.1256444454193115,2.6670374870300293,-6.752411365509033,62.39403533935547,-52.1192626953125
6.64,-5.8133625984191895,-4.29750919342041,6.880561351776123,-0.6710354089736938,-2.627484083175659,2.235461473464966,-4.647763729095459,60.02630615234375,-51.05232620239258
6.643,-7.3675007820129395,-5.446063995361328,5.339583873748779,-0.39675697684288025,-1.906968593597412,1.1472049951553345,-4.735457420349121,59.60245895385742,-51.183860778808594
6.65,-4.467399597167969,-6.930810928344727,5.234299182891846,-0.3228422701358795,-1.3194688558578491,0.5815436840057373,-4.574686050415039,58.842445373535156,-50.84770202636719
6.66,-0.6149553656578064,-6.447460651397705,4.018745422363281,-0.2408336102962494,-0.722348153591156,-0.055283304303884506,-4.092370510101318,58.49167251586914,-50.64308547973633
6.67,1.3507484197616577,-4.528416633605957,3.6263227462768555,-0.08338310569524765,-0.5271766781806946,-0.4576907753944397,-4.764688968658447,57.62934875488281,-49.00613784790039
6.68,1.3040882349014282,-3.7782669067382812,3.280559778213501,0.04046982154250145,-0.5238169431686401,-0.9885326027870178,-4.516223430633545,57.322418212890625,-48.88921356201172
6.7,0.7489534616470337,-3.4408788681030273,2.733799695968628,0.13500121235847473,-0.5390886068344116,-1.405906319618225,-5.290850639343262,56.25548553466797,-48.72844314575195
6.704,-0.3026920557022095,-3.3343982696533203,2.586641311645508,0.2353358417749405,-0.44348815083503723,-2.0205893516540527,-6.650102138519287,56.54779052734375,-48.494590759277344
6.71,-0.9439685344696045,-3.22552490234375,2.3808584213256836,0.2733621895313263,-0.38469237089157104,-2.236377477645874,-6.577024459838867,55.992401123046875,-48.74305725097656
6.72,-1.3232309818267822,-3.1310083866119385,2.187039852142334,0.3581197261810303,-0.27091872692108154,-2.640770196914673,-7.468576908111572,55.87547302246094,-48.494590759277344
6.73,-1.412961721420288,-3.1202404499053955,2.1296122074127197,0.4980078935623169,-0.17379117012023926,-3.0410399436950684,-9.163987159729004,56.021629333496094,-46.8430290222168
6.74,-1.3471590280532837,-3.3379874229431152,2.4323041439056396,0.623235285282135,-0.11988230049610138,-3.3096678256988525,-9.953229904174805,56.6354866027832,-47.03303146362305
6.76,-0.9918249249458313,-4.006781578063965,2.6285154819488525,0.7385360598564148,-0.08933904021978378,-3.5799756050109863,-11.926337242126465,56.197017669677734,-46.755332946777344
6.764,-1.2370892763137817,-4.7988057136535645,2.427518606185913,0.8874344229698181,-0.13041973114013672,-3.8704419136047363,-13.110200881958008,56.09471130371094,-45.96609115600586
6.77,-1.7563318014144897,-5.132604598999023,2.379662036895752,0.9867000579833984,-0.1569923609495163,-4.025601863861084,-14.060215950012207,56.13855743408203,-46.346099853515625
6.78,-2.5902304649353027,-5.688935279846191,2.5124638080596924,1.1129964590072632,-0.20066924393177032,-4.2583417892456055,-15.244080543518066,56.430870056152344,-46.65302658081055
6.79,-2.9419755935668945,-6.387639999389648,2.4981067180633545,1.2305879592895508,-0.22388210892677307,-4.555222034454346,-16.837182998657227,56.620872497558594,-46.53609848022461
6.8,-3.0412774085998535,-7.722835063934326,2.1403796672821045,1.3211487531661987,-0.2594650089740753,-4.744743347167969,-18.34259033203125,57.132415771484375,-47.13534164428711
6.82,-3.276970386505127,-8.986245155334473,1.8975082635879517,1.464396595954895,-0.3019201457500458,-4.958698272705078,-20.82724380493164,57.87781524658203,-48.20227813720703
6.824,-3.7328033447265625,-10.572686195373535,1.7838492393493652,1.4750868082046509,-0.29535335302352905,-4.983438491821289,-21.54340934753418,57.86320114135742,-47.76381301879883
