time,accel_x,accel_y,accel_z,gyro_x,gyro_y,gyro_z,mag_x,mag_y,mag_z
0.0,80.90486145019531,-23.290794372558594,16.395492553710938,-3.9969370365142822,5.595712184906006,-6.128636837005615,-41.70000076293945,10.950000762939453,21.450000762939453
0.01,77.1890640258789,-9.117119789123535,11.377246856689453,0.39969372749328613,-0.9326186776161194,-7.594180583953857,-42.45000076293945,9.75,22.200000762939453
0.02,77.84028625488281,-8.810662269592285,9.385271072387695,-0.1332312375307083,0.0,-1.8652373552322388,-43.05000305175781,10.350000381469727,20.55000114440918
0.03,77.99351501464844,-8.848969459533691,11.645397186279297,-5.595712184906006,3.0643184185028076,-2.9310872554779053,-43.05000305175781,10.350000381469727,20.55000114440918
0.05,76.46122741699219,-8.427590370178223,11.1474027633667,-0.9326186776161194,8.793261528015137,-9.992342948913574,-43.05000305175781,10.350000381469727,20.55000114440918
0.053,77.68705749511719,-9.002198219299316,11.185709953308105,2.2649309635162354,0.7993874549865723,1.9984685182571411,-40.80000305175781,8.40000057220459,22.05000114440918
0.061,77.34229278564453,-8.35097599029541,11.836933135986328,-7.460949420928955,-0.2664624750614166,-0.9326186776161194,-40.80000305175781,8.40000057220459,22.05000114440918
0.071,78.07012939453125,-7.508216381072998,12.411541938781738,-1.7320060729980469,-8.660030364990234,-2.131699800491333,-41.55000305175781,10.050000190734863,20.850000381469727
0.08,76.88260650634766,-8.65743350982666,11.224017143249512,1.0658499002456665,1.7320060729980469,-5.8621745109558105,-41.55000305175781,10.050000190734863,20.850000381469727
0.09,77.03583526611328,-10.342951774597168,11.568782806396484,-1.9984685182571411,-7.594180583953857,5.062787055969238,-41.55000305175781,10.050000190734863,20.850000381469727
0.11,76.69107055664062,-9.730035781860352,10.879252433776855,-7.06125545501709,5.995405673980713,-8.127105712890625,-42.30000305175781,11.100000381469727,21.30000114440918
0.113,76.11646270751953,-8.044517517089844,9.53849983215332,0.6661561727523804,-2.797856092453003,0.9326186776161194,-42.45000076293945,9.450000762939453,21.75
0.12,77.38059997558594,-7.201758861541748,11.070788383483887,4.929555892944336,0.0,1.8652373552322388,-42.150001525878906,9.75,21.75
0.13,78.18505096435547,-3.7158010005950928,12.48815631866455,-1.4655436277389526,-1.4655436277389526,0.0,-42.150001525878906,9.75,21.75
0.14,77.41890716552734,-6.856993675231934,11.453861236572266,-2.131699800491333,6.5283308029174805,-3.86370587348938,-41.70000076293945,8.25,21.75
0.15,77.763671875,-10.113107681274414,10.955866813659668,3.197549819946289,-3.197549819946289,4.396630764007568,-43.95000076293945,9.75,21.150001525878906
0.17,76.30799865722656,-10.572794914245605,10.764330863952637,-3.597243309020996,-3.7304747104644775,1.8652373552322388,-41.55000305175781,9.600000381469727,22.80000114440918
0.174,78.49150848388672,-9.576807022094727,10.228029251098633,1.3323123455047607,-3.197549819946289,10.92496109008789,-42.150001525878906,10.200000762939453,21.75
0.18,77.03583526611328,-7.814674377441406,10.496180534362793,-1.9984685182571411,5.329249382019043,-2.9310872554779053,-42.150001525878906,10.200000762939453,21.75
0.19,76.72937774658203,-8.389283180236816,9.730035781860352,6.395099639892578,-1.3323123455047607,4.396630764007568,-42.0,10.050000190734863,21.30000114440918
0.2,76.65276336669922,-8.810662269592285,9.346963882446289,1.0658499002456665,0.0,-1.1990811824798584,-42.0,11.100000381469727,23.55000114440918
0.21,77.91690063476562,-8.580819129943848,10.113107681274414,-2.2649309635162354,7.327718257904053,-6.128636837005615,-41.70000076293945,10.200000762939453,22.5
0.229,77.57213592529297,-8.159439086914062,10.994174003601074,-2.398162364959717,4.929555892944336,-3.597243309020996,-42.30000305175781,10.050000190734863,22.05000114440918
0.233,75.73339080810547,-8.542511940002441,10.687716484069824,-4.396630764007568,9.326186180114746,2.531393527984619,-42.30000305175781,10.050000190734863,22.05000114440918
0.24,77.68705749511719,-8.006210327148438,12.105083465576172,-2.9310872554779053,7.72741174697876,-1.5987749099731445,-42.30000305175781,10.050000190734863,22.05000114440918
0.25,77.49552154541016,-8.65743350982666,11.60708999633789,-4.529861927032471,2.797856092453003,-1.0658499002456665,-41.70000076293945,10.200000762939453,20.700000762939453
0.26,78.26166534423828,-9.155426979064941,12.871228218078613,2.9310872554779053,-2.797856092453003,4.263399600982666,-42.75,10.350000381469727,21.600000381469727
0.27,77.99351501464844,-9.27034854888916,11.338939666748047,6.661561965942383,9.459418296813965,-6.661561965942383,-43.95000076293945,10.200000762939453,21.150001525878906
0.291,80.8665542602539,-9.232041358947754,13.522451400756836,17.186830520629883,5.595712184906006,-11.857580184936523,-42.30000305175781,10.050000190734863,20.55000114440918
0.295,78.3765869140625,-3.869029998779297,11.990161895751953,44.23276901245117,-9.72588062286377,0.2664624750614166,-42.30000305175781,10.050000190734863,20.55000114440918
0.3,78.14674377441406,-8.427590370178223,14.863204002380371,41.30168533325195,-9.859111785888672,-0.2664624750614166,-42.0,8.850000381469727,21.600000381469727
0.31,79.44918823242188,-7.508216381072998,11.72201156616211,24.914241790771484,-6.794793128967285,4.263399600982666,-42.30000305175781,10.350000381469727,19.80000114440918
0.32,75.31201171875,-8.848969459533691,10.572794914245605,19.31852912902832,-10.125574111938477,12.656967163085938,-43.20000076293945,11.40000057220459,21.450000762939453
0.33,75.15878295898438,-9.155426979064941,10.72602367401123,3.3307809829711914,-3.9969370365142822,10.92496109008789,-43.80000305175781,9.600000381469727,20.55000114440918
0.349,77.8019790649414,-4.711789131164551,12.066776275634766,3.9969370365142822,-3.597243309020996,10.392036437988281,-43.80000305175781,9.600000381469727,20.55000114440918
0.353,78.75965881347656,-4.481945514678955,13.21599292755127,23.715160369873047,-5.329249382019043,24.248085021972656,-42.30000305175781,9.600000381469727,23.100000381469727
0.36,79.71733856201172,-5.477933406829834,13.560758590698242,36.905052185058594,-16.65390396118164,26.513015747070312,-40.95000076293945,8.700000762939453,20.400001525878906
0.37,79.25765228271484,-6.435614109039307,11.30063247680664,27.84532928466797,-10.258805274963379,32.64165496826172,-42.75,10.050000190734863,19.5
0.38,76.26969146728516,-10.572794914245605,10.266336441040039,10.125574111938477,-7.460949420928955,24.64777946472168,-42.45000076293945,9.75,21.450000762939453
0.393,75.58016204833984,-11.377246856689453,11.338939666748047,2.531393527984619,-13.58958625793457,31.309341430664062,-42.45000076293945,9.75,21.450000762939453
0.4,76.95922088623047,-10.228029251098633,11.109095573425293,1.9984685182571411,-13.189892768859863,29.577335357666016,-44.25,10.800000190734863,19.80000114440918
0.41,77.45721435546875,-10.5344877243042,8.312667846679688,1.3323123455047607,-4.929555892944336,31.975496292114258,-42.900001525878906,10.200000762939453,20.700000762939453
0.42,77.22737121582031,-12.066776275634766,6.933608055114746,5.062787055969238,4.663093090057373,27.978559494018555,-43.20000076293945,9.75,18.450000762939453
0.43,76.34630584716797,-12.258312225341797,7.546523571014404,11.191424369812012,-4.529861927032471,30.37672233581543,-42.900001525878906,8.700000762939453,19.650001525878906
0.449,76.42292022705078,-10.496180534362793,7.354987621307373,14.255742073059082,-4.663093090057373,31.176109313964844,-42.900001525878906,8.700000762939453,19.650001525878906
0.453,76.00154113769531,-8.925583839416504,8.044517517089844,11.724349021911621,5.329249382019043,34.10719680786133,-42.900001525878906,8.700000762939453,19.650001525878906
0.46,75.46524047851562,-8.044517517089844,5.51624059677124,9.059723854064941,13.58958625793457,24.914241790771484,-44.25,10.050000190734863,19.5
0.47,75.8866195678711,-10.228029251098633,5.1331682205200195,14.12251091003418,10.392036437988281,34.24042892456055,-42.900001525878906,8.700000762939453,18.450000762939453
0.48,76.537841796875,-7.5848307609558105,3.7158010005950928,8.127105712890625,22.782541275024414,34.50688934326172,-42.30000305175781,8.100000381469727,19.5
0.49,75.73339080810547,-3.2178070545196533,11.530475616455078,29.177640914916992,16.65390396118164,33.4410400390625,-44.25,7.650000095367432,19.80000114440918
0.51,77.41890716552734,-11.109095573425293,12.871228218078613,22.649311065673828,14.655436515808105,30.776416778564453,-44.25,7.650000095367432,19.80000114440918
0.514,76.69107055664062,-14.09705924987793,10.72602367401123,7.860642910003662,24.11485481262207,12.523736000061035,-43.05000305175781,8.40000057220459,21.30000114440918
0.521,76.11646270751953,-17.62132453918457,11.41555404663086,4.396630764007568,21.716691970825195,24.381317138671875,-43.80000305175781,7.650000095367432,20.850000381469727
0.53,76.23138427734375,-18.23423957824707,9.576807022094727,12.390504837036133,16.78713607788086,36.238895416259766,-44.25,7.650000095367432,21.30000114440918
0.54,77.22737121582031,-21.98834800720215,7.929595947265625,28.911178588867188,8.660030364990234,13.189892768859863,-43.20000076293945,7.800000190734863,20.400001525878906
0.55,78.91288757324219,-17.583017349243164,4.941632270812988,28.24502182006836,14.655436515808105,15.721285820007324,-43.20000076293945,7.800000190734863,20.400001525878906
0.569,74.12448120117188,-15.591041564941406,2.6431987285614014,20.517610549926758,23.04900360107422,19.85145378112793,-42.150001525878906,7.800000190734863,19.950000762939453
0.573,74.35432434082031,-13.867216110229492,5.70777702331543,17.719755172729492,25.7136287689209,10.392036437988281,-43.20000076293945,8.700000762939453,20.400001525878906
0.58,79.29595947265625,-11.990161895751953,8.312667846679688,23.581928253173828,21.84992218017578,18.119447708129883,-44.25,8.100000381469727,20.100000381469727
0.59,77.03583526611328,-10.955866813659668,10.074800491333008,16.65390396118164,27.84532928466797,18.78560447692871,-44.25,7.200000286102295,20.55000114440918
0.6,74.6990966796875,-11.03248119354248,11.645397186279297,29.577335357666016,26.246553421020508,31.575803756713867,-44.25,7.200000286102295,20.55000114440918
0.61,76.80599212646484,-12.411541938781738,14.250288963317871,17.453292846679688,30.509952545166016,21.84992218017578,-43.80000305175781,6.900000095367432,19.5
0.63,75.73339080810547,-14.058752059936523,16.70195198059082,13.856048583984375,33.4410400390625,21.183767318725586,-43.80000305175781,8.850000381469727,21.600000381469727
0.633,75.12047576904297,-15.782577514648438,16.395492553710938,5.062787055969238,29.444103240966797,16.25421142578125,-43.20000076293945,9.0,20.700000762939453
0.64,76.19307708740234,-17.1999454498291,13.292608261108398,4.263399600982666,22.782541275024414,25.980091094970703,-44.70000076293945,7.050000190734863,19.650001525878906
0.65,76.5761489868164,-17.73624610900879,12.7946138381958,-0.2664624750614166,22.116384506225586,23.182235717773438,-43.95000076293945,8.700000762939453,19.650001525878906
0.66,77.07414245605469,-14.173673629760742,11.41555404663086,0.39969372749328613,20.91730499267578,18.652372360229492,-43.95000076293945,8.700000762939453,19.650001525878906
0.67,76.80599212646484,-10.228029251098633,10.879252433776855,2.6646246910095215,23.98162269592285,24.64777946472168,-46.5,7.200000286102295,20.100000381469727
0.69,77.64875030517578,-9.730035781860352,13.177685737609863,3.597243309020996,30.776416778564453,25.7136287689209,-43.650001525878906,6.750000476837158,21.450000762939453
0.693,77.30398559570312,-13.254301071166992,11.377246856689453,-1.9984685182571411,29.177640914916992,19.31852912902832,-43.20000076293945,7.050000190734863,19.200000762939453
0.7,76.23138427734375,-18.579004287719727,14.863204002380371,-6.9280242919921875,33.84073257446289,4.529861927032471,-43.20000076293945,7.050000190734863,19.200000762939453
0.71,75.77169799804688,-17.92778205871582,16.510414123535156,-11.724349021911621,23.581928253173828,14.388973236083984,-43.20000076293945,7.050000190734863,19.200000762939453
0.72,75.23539733886719,-17.046716690063477,16.548721313476562,-15.321592330932617,32.5084228515625,11.857580184936523,-43.95000076293945,6.750000476837158,22.5
0.73,76.84429931640625,-14.556746482849121,15.514427185058594,-0.1332312375307083,22.116384506225586,15.588054656982422,-43.05000305175781,6.150000095367432,20.55000114440918
0.75,75.9249267578125,-11.798625946044922,15.897499084472656,6.661561965942383,23.848390579223633,16.78713607788086,-43.95000076293945,6.300000190734863,21.150001525878906
0.753,77.22737121582031,-9.998186111450195,15.744270324707031,4.263399600982666,27.045940399169922,9.059723854064941,-43.5,6.450000286102295,22.05000114440918
0.76,76.99752807617188,-8.08282470703125,20.072986602783203,13.056661605834961,25.846860885620117,19.98468589782715,-43.5,6.450000286102295,22.05000114440918
0.77,76.69107055664062,-9.653421401977539,18.272546768188477,16.25421142578125,25.7136287689209,8.660030364990234,-43.650001525878906,6.300000190734863,21.75
0.78,77.34229278564453,-13.407529830932617,16.548721313476562,16.25421142578125,20.117916107177734,21.316997528076172,-43.650001525878906,7.800000190734863,22.200000762939453
0.79,77.53382873535156,-16.855180740356445,18.195932388305664,1.9984685182571411,24.51454734802246,11.724349021911621,-44.70000076293945,7.050000190734863,22.200000762939453
0.811,78.29997253417969,-18.962078094482422,18.04270362854004,-5.329249382019043,23.848390579223633,5.995405673980713,-45.150001525878906,5.850000381469727,22.950000762939453
0.815,76.69107055664062,-16.510414123535156,17.42978858947754,-8.39356803894043,17.719755172729492,5.995405673980713,-43.650001525878906,6.750000476837158,22.5
0.82,75.9249267578125,-15.974113464355469,16.318878173828125,-5.462480545043945,16.520673751831055,4.796324729919434,-43.650001525878906,6.750000476837158,22.5
0.83,75.58016204833984,-17.00840950012207,17.659631729125977,-3.4640121459960938,20.650842666625977,7.460949420928955,-44.400001525878906,5.550000190734863,23.25
0.84,76.15476989746094,-18.34916114807129,16.28057098388672,-12.923430442810059,15.854516983032227,6.661561965942383,-43.650001525878906,7.050000190734863,21.450000762939453
0.85,74.85232543945312,-16.089035034179688,15.591041564941406,-12.656967163085938,17.32006072998047,11.191424369812012,-44.25,5.400000095367432,22.80000114440918
0.87,76.03984832763672,-15.093047142028809,16.35718536376953,-10.92496109008789,16.65390396118164,3.3307809829711914,-43.05000305175781,7.200000286102295,22.05000114440918
0.873,76.99752807617188,-15.667655944824219,15.054739952087402,-2.131699800491333,1.8652373552322388,18.91883659362793,-43.650001525878906,5.550000190734863,22.200000762939453
0.88,75.65677642822266,-12.986149787902832,16.089035034179688,1.7320060729980469,1.8652373552322388,17.986217498779297,-43.650001525878906,5.550000190734863,22.200000762939453
0.89,76.00154113769531,-14.058752059936523,17.50640296936035,4.263399600982666,-0.39969372749328613,-0.6661561727523804,-43.95000076293945,5.550000190734863,23.25
0.9,76.34630584716797,-15.093047142028809,18.732234954833984,6.5283308029174805,8.660030364990234,18.78560447692871,-45.0,5.400000095367432,20.850000381469727
0.91,76.65276336669922,-15.24627685546875,18.34916114807129,-9.326186180114746,2.531393527984619,14.92189884185791,-45.45000076293945,5.850000381469727,22.950000762939453
0.93,75.8866195678711,-14.556746482849121,17.468095779418945,-0.2664624750614166,1.3323123455047607,24.51454734802246,-45.45000076293945,5.850000381469727,22.950000762939453
0.933,75.73339080810547,-13.867216110229492,16.66364288330078,-13.989279747009277,3.9969370365142822,23.715160369873047,-44.25,3.750000238418579,23.55000114440918
0.94,75.61846923828125,-16.203956604003906,17.966089248657227,-7.194486618041992,6.128636837005615,25.846860885620117,-44.25,3.750000238418579,23.55000114440918
0.95,75.84831237792969,-15.399505615234375,17.31486701965332,-3.4640121459960938,-0.6661561727523804,36.63859176635742,-43.80000305175781,6.150000095367432,23.100000381469727
0.96,75.77169799804688,-11.60708999633789,16.510414123535156,3.86370587348938,-3.3307809829711914,45.298622131347656,-43.80000305175781,6.150000095367432,23.100000381469727
0.97,76.38461303710938,-11.530475616455078,16.510414123535156,1.5987749099731445,-2.6646246910095215,49.16232681274414,-43.80000305175781,6.150000095367432,23.100000381469727
0.99,77.22737121582031,-14.824896812438965,15.782577514648438,-10.258805274963379,2.6646246910095215,43.03369140625,-45.75,4.950000286102295,23.100000381469727
0.994,76.07815551757812,-15.974113464355469,16.433799743652344,-12.523736000061035,-1.1990811824798584,49.16232681274414,-44.70000076293945,4.350000381469727,23.25
1.0,74.77571105957031,-14.67166805267334,18.502389907836914,-9.059723854064941,0.5329249501228333,48.8958625793457,-45.150001525878906,4.050000190734863,22.950000762939453
1.01,75.8866195678711,-14.824896812438965,20.41775131225586,-10.258805274963379,-6.395099639892578,59.287899017333984,-45.150001525878906,4.050000190734863,22.950000762939453
1.02,75.15878295898438,-15.24627685546875,18.77054214477539,-3.86370587348938,-12.790199279785156,61.15313720703125,-43.20000076293945,3.6000001430511475,22.200000762939453
1.03,74.89063262939453,-16.58702850341797,18.962078094482422,-6.128636837005615,-12.656967163085938,55.4241943359375,-43.650001525878906,2.4000000953674316,21.75
1.049,75.54185485839844,-13.369222640991211,24.861391067504883,4.929555892944336,-17.453292846679688,66.48238372802734,-44.70000076293945,3.1500000953674316,22.950000762939453
1.053,72.28573608398438,-6.818686485290527,20.724210739135742,24.914241790771484,-18.519142150878906,77.14088439941406,-44.25,4.200000286102295,23.100000381469727
1.06,72.24742889404297,-17.085023880004883,17.42978858947754,30.37672233581543,-25.846860885620117,78.07350158691406,-44.70000076293945,3.6000001430511475,22.5
1.07,73.0518798828125,-26.31706428527832,14.518439292907715,7.72741174697876,-22.249616622924805,75.00918579101562,-44.70000076293945,3.6000001430511475,22.5
1.08,76.99752807617188,-33.365596771240234,12.717999458312988,-14.388973236083984,-23.848390579223633,73.41041564941406,-44.55000305175781,3.450000047683716,21.30000114440918
1.09,75.8866195678711,-27.504589080810547,12.373234748840332,-12.124042510986328,-25.313934326171875,101.9218978881836,-44.70000076293945,2.4000000953674316,22.5
1.11,76.84429931640625,-18.157625198364258,11.377246856689453,-16.387441635131836,-9.72588062286377,76.34149932861328,-45.0,1.5,21.600000381469727
1.113,77.61044311523438,-20.264522552490234,12.48815631866455,-12.656967163085938,-12.523736000061035,76.60796356201172,-46.05000305175781,-0.30000001192092896,23.100000381469727
1.12,77.8019790649414,-23.903709411621094,13.675680160522461,-12.790199279785156,-17.053598403930664,76.74119567871094,-46.05000305175781,-0.30000001192092896,23.100000381469727
1.13,77.38059997558594,-26.048913955688477,15.667655944824219,-32.108726501464844,-15.721285820007324,63.551300048828125,-45.0,0.30000001192092896,21.600000381469727
1.14,77.64875030517578,-25.972299575805664,16.127342224121094,-33.04134750366211,-26.779478073120117,80.20520782470703,-43.80000305175781,0.75,20.850000381469727
1.15,77.64875030517578,-22.37141990661621,18.464082717895508,-21.716691970825195,-32.108726501464844,86.20060729980469,-46.05000305175781,-1.0500000715255737,21.30000114440918
1.169,73.0901870727539,-18.34916114807129,15.437812805175781,-13.189892768859863,-33.84073257446289,91.79632568359375,-45.150001525878906,0.45000001788139343,19.950000762939453
1.173,74.6990966796875,-22.409727096557617,15.361198425292969,-14.388973236083984,-27.31240463256836,87.26646423339844,-45.150001525878906,0.45000001788139343,19.950000762939453
1.18,79.14273071289062,-30.109479904174805,11.875240325927734,-21.84992218017578,-29.177640914916992,96.05972290039062,-46.5,0.0,20.850000381469727
1.19,81.01978302001953,-29.381643295288086,11.72201156616211,-22.51607894897461,-43.03369140625,97.12557220458984,-46.650001525878906,-2.1000001430511475,19.950000762939453
1.3,98.98587799072266,-30.186094284057617,15.093047142028809,-87.13323211669922,-107.3843765258789,133.23123168945312,-46.650001525878906,-8.700000762939453,17.400001525878906
1.31,103.65935516357422,-28.38565444946289,17.238252639770508,-94.0612564086914,-112.71363067626953,140.82542419433594,-47.400001525878906,-7.800000190734863,17.700000762939453
1.32,100.67139434814453,-26.278757095336914,15.169661521911621,-113.51301574707031,-104.5865249633789,141.6248016357422,-45.150001525878906,-9.450000762939453,17.400001525878906
1.33,98.25804138183594,-24.44001007080078,12.60307788848877,-125.23736572265625,-116.17764282226562,160.01071166992188,-45.150001525878906,-9.450000762939453,17.400001525878906
1.349,99.59879302978516,-20.609289169311523,9.768342971801758,-128.83460998535156,-124.30474090576172,168.9372100830078,-45.900001525878906,-12.450000762939453,17.400001525878906
1.353,95.42330169677734,-18.34916114807129,11.03248119354248,-151.48391723632812,-124.70443725585938,171.06890869140625,-45.75,-10.050000190734863,17.55000114440918
1.36,95.76806640625,-19.268535614013672,9.27034854888916,-155.88055419921875,-130.03369140625,172.6676788330078,-46.5,-12.750000953674316,15.750000953674316
1.37,95.04022979736328,-17.12333106994629,9.768342971801758,-171.86830139160156,-136.69525146484375,172.40121459960938,-45.900001525878906,-13.65000057220459,13.65000057220459
1.38,95.7297592163086,-18.34916114807129,7.661445617675781,-174.53292846679688,-152.54977416992188,178.92955017089844,-45.900001525878906,-13.65000057220459,13.65000057220459
1.39,97.91326904296875,-15.629348754882812,4.9799394607543945,-185.0581817626953,-145.6217498779297,184.39202880859375,-45.900001525878906,-15.90000057220459,12.600000381469727
1.406,100.59477996826172,-5.669469833374023,5.171475887298584,-199.04747009277344,-151.35069274902344,194.51760864257812,-46.5,-17.700000762939453,12.750000953674316
1.41,105.53640747070312,6.89530086517334,3.5625722408294678,-183.85910034179688,-162.6753387451172,248.47625732421875,-46.5,-17.700000762939453,12.750000953674316
1.42,106.53240203857422,9.84495735168457,2.719813108444214,-181.19448852539062,-162.80857849121094,249.27565002441406,-44.55000305175781,-18.450000762939453,12.450000762939453
1.43,108.2179183959961,21.298818588256836,5.592854976654053,-179.72894287109375,-156.41346740722656,229.69065856933594,-44.55000305175781,-19.650001525878906,9.90000057220459
1.44,105.26825714111328,30.79901123046875,9.576807022094727,-140.82542419433594,-156.5467071533203,244.4793243408203,-44.55000305175781,-19.650001525878906,9.90000057220459
1.45,103.92750549316406,34.85957717895508,7.201758861541748,-69.67993927001953,-169.33689880371094,279.11944580078125,-43.05000305175781,-21.600000381469727,8.40000057220459
1.469,100.86293029785156,19.115306854248047,4.022258758544922,68.88054656982422,-209.70596313476562,302.3016662597656,-42.900001525878906,-23.25,6.300000190734863
1.473,111.85710144042969,-30.37763023376465,0.38307225704193115,112.04747009277344,-200.11331176757812,312.56048583984375,-42.900001525878906,-23.25,6.300000190734863
1.48,113.1212387084961,-32.63775634765625,9.500192642211914,207.4410400390625,-204.7764129638672,321.0872802734375,-43.20000076293945,-24.150001525878906,6.750000476837158
1.49,114.11723327636719,-15.093047142028809,30.79901123046875,310.42877197265625,-181.46095275878906,321.0872802734375,-43.20000076293945,-24.150001525878906,6.750000476837158
1.5,95.07853698730469,13.713987350463867,27.313053131103516,404.3568115234375,-133.23123168945312,346.5344543457031,-40.650001525878906,-27.900001525878906,4.950000286102295
1.51,61.559715270996094,8.848969459533691,45.777137756347656,411.151611328125,-107.51760864257812,315.4915771484375,-40.95000076293945,-29.55000114440918,4.5
1.522,49.56955337524414,-19.766529083251953,47.309425354003906,320.6875915527344,-69.28024291992188,230.75650024414062,-40.5,-28.950000762939453,5.400000095367432
1.53,32.599449157714844,-55.928550720214844,28.38565444946289,251.80703735351562,-48.62940216064453,152.68299865722656,-40.20000076293945,-30.30000114440918,5.700000286102295
1.54,37.88584899902344,-45.700523376464844,32.331298828125,171.46859741210938,-41.83460998535156,71.94486999511719,-40.20000076293945,-30.30000114440918,5.700000286102295
1.55,54.74102783203125,-22.946029663085938,28.577192306518555,106.98468017578125,-7.9938740730285645,-8.660030364990234,-37.650001525878906,-31.05000114440918,5.700000286102295
1.56,47.99895477294922,2.5665841102600098,24.631547927856445,78.3399658203125,15.055130004882812,-59.287899017333984,-37.95000076293945,-34.20000076293945,6.0
1.57,35.66402816772461,13.10107135772705,25.014619827270508,71.94486999511719,36.63859176635742,-114.3124008178711,-36.900001525878906,-31.500001907348633,6.0
1.587,29.917943954467773,13.905523300170898,24.05693817138672,89.5313949584961,49.96171569824219,-210.2388916015625,-36.900001525878906,-31.500001907348633,7.050000190734863
1.591,27.657817840576172,-1.2258312702178955,21.605276107788086,79.67227935791016,62.75191116333008,-231.95558166503906,-36.900001525878906,-31.500001907348633,7.050000190734863
1.6,27.27474594116211,-6.01423454284668,19.881450653076172,55.95711898803711,72.47779083251953,-308.56353759765625,-36.900001525878906,-31.05000114440918,6.0
1.61,27.198131561279297,-17.697938919067383,17.774553298950195,19.584991455078125,75.5421142578125,-355.59417724609375,-37.650001525878906,-30.30000114440918,8.550000190734863
1.62,27.696125030517578,-21.75850486755371,15.935806274414062,-24.11485481262207,85.53445434570312,-404.3568115234375,-37.20000076293945,-27.150001525878906,7.500000476837158
1.639,31.7183837890625,-14.633360862731934,14.709975242614746,-49.16232681274414,99.3905029296875,-450.05511474609375,-36.150001525878906,-27.600000381469727,8.550000190734863
1.643,37.15800857543945,-7.738059997558594,12.564770698547363,-48.362937927246094,116.17764282226562,-478.5666198730469,-35.25,-25.80000114440918,8.700000762939453
1.65,45.04929733276367,-11.338939666748047,12.679692268371582,-40.36906433105469,115.2450180053711,-491.3568115234375,-35.25,-25.80000114440918,8.700000762939453
1.66,47.922340393066406,-14.250288963317871,10.879252433776855,-32.37519073486328,132.16539001464844,-524.264892578125,-36.150001525878906,-22.950000762939453,8.25
1.67,53.89826965332031,-17.391481399536133,12.181697845458984,-23.581928253173828,141.6248016357422,-548.9127197265625,-36.0,-20.850000381469727,10.200000762939453
1.68,62.13432312011719,-20.992361068725586,12.373234748840332,0.5329249501228333,145.48851013183594,-567.6983032226562,-36.30000305175781,-18.450000762939453,7.950000286102295
1.69,69.45100402832031,-21.835119247436523,11.30063247680664,25.313934326171875,163.6079559326172,-577.8238525390625,-36.150001525878906,-17.850000381469727,10.800000190734863
1.703,82.13069152832031,-27.236438751220703,11.875240325927734,39.03675079345703,165.3399658203125,-592.4793090820312,-36.0,-13.050000190734863,12.0
1.71,97.79834747314453,-31.871612548828125,10.5344877243042,41.434913635253906,173.46707153320312,-598.6079711914062,-36.0,-13.050000190734863,12.0
1.72,102.2802963256836,-35.35757064819336,9.346963882446289,44.63246536254883,158.14547729492188,-597.4088745117188,-34.5,-12.300000190734863,10.65000057220459
1.73,106.07271575927734,-37.57939147949219,8.389283180236816,30.776416778564453,163.0750274658203,-587.949462890625,-35.70000076293945,-11.40000057220459,13.65000057220459
1.74,109.32882690429688,-39.226600646972656,5.861005783081055,44.49923324584961,152.016845703125,-575.9586181640625,-35.400001525878906,-8.700000762939453,13.350000381469727
1.759,110.40142822265625,-39.37982940673828,6.3973069190979,37.70444107055664,150.6845245361328,-569.8300170898438,-35.400001525878906,-8.700000762939453,13.350000381469727
1.763,112.16355895996094,-39.30321502685547,7.1251444816589355,18.2526798248291,158.545166015625,-556.3736572265625,-34.05000305175781,-4.200000286102295,14.250000953674316
1.77,109.55867004394531,-40.260894775390625,8.580819129943848,8.127105712890625,156.41346740722656,-549.1791381835938,-34.05000305175781,-4.200000286102295,14.250000953674316
1.78,107.71992492675781,-40.79719543457031,8.887276649475098,-13.58958625793457,164.67381286621094,-536.7886352539062,-33.45000076293945,-4.800000190734863,15.90000057220459
1.79,103.27628326416016,-41.21857833862305,8.389283180236816,-37.97090148925781,163.20826721191406,-524.7978515625,-33.45000076293945,-0.15000000596046448,17.100000381469727
1.8,99.2540283203125,-39.72459411621094,5.669469833374023,-63.551300048828125,182.39356994628906,-526.3966064453125,-33.45000076293945,-0.15000000596046448,17.100000381469727
1.82,96.87897491455078,-39.149986267089844,4.367023944854736,-69.28024291992188,183.45941162109375,-523.865234375,-33.45000076293945,-0.15000000596046448,17.100000381469727
1.823,99.10079956054688,-37.96246337890625,1.2641384601593018,-81.93721008300781,199.31393432617188,-511.7411804199219,-32.25,3.0,20.55000114440918
1.83,105.22994995117188,-37.54108428955078,1.0342950820922852,-88.865234375,190.38743591308594,-495.7534484863281,-30.30000114440918,5.700000286102295,22.05000114440918
1.84,107.6050033569336,-33.7869758605957,-2.9879636764526367,-108.983154296875,185.85757446289062,-485.2281799316406,-30.150001525878906,7.050000190734863,22.5
1.85,111.2824935913086,-27.734432220458984,-9.959878921508789,-94.46094512939453,160.14395141601562,-454.71820068359375,-30.150001525878906,7.050000190734863,22.5
1.86,114.95999145507812,-21.14558982849121,-15.85919189453125,-59.287899017333984,141.35833740234375,-414.4823913574219,-28.05000114440918,8.100000381469727,23.850000381469727
1.88,114.92168426513672,-18.157625198364258,-19.99637222290039,-19.052066802978516,129.76722717285156,-378.50994873046875,-27.30000114440918,11.550000190734863,22.80000114440918
1.883,111.78048706054688,-20.609289169311523,-20.992361068725586,42.23430252075195,103.7871322631836,-301.23583984375,-26.250001907348633,9.600000381469727,24.600000381469727
1.89,103.19966888427734,-29.381643295288086,-19.536685943603516,69.01377868652344,93.92802429199219,-249.40887451171875,-25.650001525878906,12.15000057220459,26.55000114440918
1.9,98.6028060913086,-37.88584899902344,-18.34916114807129,73.67687225341797,87.53292083740234,-185.4578857421875,-25.650001525878906,12.15000057220459,26.55000114440918
1.91,98.94757080078125,-47.50096130371094,-20.41775131225586,83.00305938720703,70.21286010742188,-112.58039855957031,-25.500001907348633,13.500000953674316,28.650001525878906
1.92,97.33866119384766,-52.67243576049805,-22.562957763671875,100.18988800048828,30.37672233581543,-26.513015747070312,-24.0,15.000000953674316,26.850000381469727
1.94,96.64913177490234,-50.25908279418945,-24.401702880859375,115.11178588867188,3.3307809829711914,-1.9984685182571411,-24.30000114440918,15.000000953674316,27.900001525878906
1.944,95.30838012695312,-43.74685287475586,-24.05693817138672,134.16384887695312,-17.586523056030273,85.26799011230469,-24.900001525878906,14.850000381469727,28.500001907348633
1.95,91.74581146240234,-38.728607177734375,-17.697938919067383,141.6248016357422,-35.57273864746094,144.95558166503906,-24.900001525878906,14.850000381469727,28.500001907348633
1.96,90.44336700439453,-39.839515686035156,-14.173673629760742,156.81317138671875,-51.4272575378418,162.27565002441406,-24.450000762939453,16.350000381469727,28.05000114440918
1.97,89.37075805664062,-43.13393783569336,-10.649409294128418,145.6217498779297,-63.551300048828125,201.17916870117188,-26.400001525878906,15.90000057220459,28.05000114440918
1.98,89.2558364868164,-41.67826461791992,-4.481945514678955,146.82083129882812,-82.6033706665039,233.1546630859375,-25.950000762939453,15.90000057220459,27.30000114440918
2.0,89.14091491699219,-35.395877838134766,-5.899312973022461,159.74424743652344,-86.0673828125,264.59722900390625,-27.450000762939453,14.850000381469727,28.05000114440918
2.005,85.65496063232422,-32.599449157714844,-1.5322890281677246,156.81317138671875,-91.3966293334961,285.3813171386719,-27.900001525878906,15.15000057220459,25.80000114440918
2.01,81.55608367919922,-33.288978576660156,3.6391866207122803,161.2097930908203,-81.40428924560547,308.2970886230469,-27.900001525878906,15.15000057220459,25.80000114440918
2.02,74.50755310058594,-32.75267791748047,12.334927558898926,121.50688934326172,7.327718257904053,280.7182312011719,-28.500001907348633,11.850000381469727,24.900001525878906
2.03,48.38202667236328,-26.929981231689453,91.97565460205078,-165.07350158691406,33.04134750366211,126.43644714355469,-30.450000762939453,9.75,25.500001907348633
2.04,91.66919708251953,20.64759635925293,180.84841918945312,-531.1929321289062,-110.71515655517578,27.31240463256836,-29.700000762939453,10.200000762939453,24.750001907348633
2.06,181.69117736816406,123.2343521118164,-24.24847412109375,-324.151611328125,-53.026031494140625,191.58651733398438,-29.55000114440918,9.600000381469727,25.350000381469727
2.064,99.36894989013672,99.94355773925781,-70.25545501708984,47.297088623046875,-14.522205352783203,258.6018371582031,-29.55000114440918,9.600000381469727,25.350000381469727
2.07,55.16240692138672,13.828908920288086,-1.455674648284912,181.8606414794922,-34.373661041259766,299.1041259765625,-30.900001525878906,7.500000476837158,25.80000114440918
2.08,67.26749420166016,-51.21676254272461,7.814674377441406,141.35833740234375,-40.23583221435547,257.9356689453125,-31.80000114440918,6.900000095367432,25.650001525878906
2.091,88.45138549804688,-117.9096450805664,25.81907081604004,-51.960182189941406,-33.84073257446289,152.28330993652344,-32.400001525878906,5.850000381469727,24.450000762939453
2.1,79.48749542236328,-76.07815551757812,22.754493713378906,-142.5574188232422,-46.897396087646484,119.24195861816406,-32.400001525878906,6.300000190734863,25.500001907348633
2.12,69.9873046875,-6.320692539215088,2.183511972427368,-76.20826721191406,-19.185298919677734,141.89126586914062,-32.400001525878906,6.300000190734863,25.500001907348633
2.123,69.9873046875,9.959878921508789,8.427590370178223,30.90964698791504,-19.052066802978516,143.09034729003906,-31.950000762939453,6.300000190734863,27.000001907348633
2.13,93.81439971923828,-19.80483627319336,14.36521053314209,27.578866958618164,-9.592649459838867,141.4915771484375,-33.150001525878906,4.800000190734863,26.250001907348633
2.14,85.73157501220703,-31.22039031982422,6.320692539215088,8.660030364990234,1.1990811824798584,115.77794647216797,-33.75,4.950000286102295,27.150001525878906
2.15,72.24742889404297,-27.542896270751953,10.687716484069824,2.6646246910095215,15.321592330932617,103.12097930908203,-34.05000305175781,3.750000238418579,26.850000381469727
2.16,76.65276336669922,-10.955866813659668,8.848969459533691,14.522205352783203,15.055130004882812,98.59111785888672,-34.05000305175781,3.750000238418579,26.850000381469727
2.18,78.64473724365234,-1.1109095811843872,-1.4939818382263184,1.8652373552322388,34.10719680786133,101.38896942138672,-33.45000076293945,3.1500000953674316,25.500001907348633
2.184,74.08617401123047,5.477933406829834,14.211980819702148,-26.246553421020508,22.116384506225586,98.72434997558594,-34.05000305175781,2.700000047683716,25.650001525878906
2.19,79.75564575195312,-20.76251792907715,20.341136932373047,-53.82542037963867,23.581928253173828,87.0,-34.95000076293945,1.6500000953674316,27.30000114440918
2.2,80.59840393066406,-23.21417999267578,16.66364288330078,-91.26339721679688,11.724349021911621,82.33690643310547,-33.0,1.0500000715255737,26.100000381469727
2.21,77.26567840576172,-25.933992385864258,31.871612548828125,-104.32006072998047,0.1332312375307083,61.81929397583008,-34.80000305175781,1.8000000715255737,26.850000381469727
2.22,76.88260650634766,-21.950040817260742,19.574993133544922,-110.71515655517578,5.329249382019043,42.23430252075195,-34.80000305175781,1.8000000715255737,26.850000381469727
2.239,77.1507568359375,-5.937620162963867,9.193734169006348,-97.5252685546875,24.51454734802246,33.97396469116211,-35.55000305175781,0.75,27.150001525878906
2.243,77.1124496459961,5.4013190269470215,8.044517517089844,-31.575803756713867,18.652372360229492,53.026031494140625,-34.05000305175781,0.30000001192092896,27.450000762939453
2.25,78.3382797241211,7.086836814880371,6.090848922729492,-8.260336875915527,23.98162269592285,55.29096221923828,-34.5,-0.30000001192092896,27.150001525878906
2.26,78.14674377441406,-0.8427590131759644,6.856993675231934,-9.326186180114746,33.30780792236328,43.96630859375,-34.5,-0.30000001192092896,26.850000381469727
2.27,77.38059997558594,-7.814674377441406,11.568782806396484,-3.0643184185028076,32.77488327026367,42.23430252075195,-34.5,-0.30000001192092896,26.850000381469727
2.28,76.88260650634766,-11.338939666748047,16.012420654296875,-4.263399600982666,27.045940399169922,40.9019889831543,-33.45000076293945,-1.350000023841858,26.55000114440918
2.3,77.03583526611328,-13.024456977844238,21.37543296813965,-15.055130004882812,24.248085021972656,23.715160369873047,-35.25,-0.75,27.450000762939453
2.304,75.9632339477539,-14.288596153259277,25.435998916625977,-47.297088623046875,18.385910034179688,14.788667678833008,-33.45000076293945,-0.15000000596046448,28.05000114440918
2.31,77.84028625488281,-20.915746688842773,20.456058502197266,-73.54364013671875,24.248085021972656,8.526799201965332,-33.45000076293945,-0.15000000596046448,28.05000114440918
2.32,77.8019790649414,-14.135366439819336,17.697938919067383,-82.33690643310547,22.649311065673828,10.92496109008789,-33.45000076293945,-0.15000000596046448,28.05000114440918
2.33,77.45721435546875,2.6431987285614014,17.50640296936035,-62.21898651123047,15.854516983032227,18.652372360229492,-35.25,-0.75,26.850000381469727
2.34,77.1124496459961,6.282385349273682,18.195932388305664,-45.69831466674805,20.784072875976562,21.84992218017578,-34.80000305175781,-1.5,28.200000762939453
2.359,76.11646270751953,0.8810662031173706,21.413740158081055,-28.911178588867188,17.986217498779297,26.513015747070312,-34.5,-2.25,29.700000762939453
2.363,75.8866195678711,-6.205770969390869,22.026655197143555,-49.29555892944336,25.18070411682129,18.91883659362793,-33.900001525878906,-1.350000023841858,28.05000114440918
2.37,75.61846923828125,-11.91354751586914,22.026655197143555,-62.21898651123047,15.721285820007324,13.989279747009277,-33.900001525878906,-1.350000023841858,28.05000114440918
2.38,75.69508361816406,-9.040505409240723,22.946029663085938,-55.4241943359375,17.586523056030273,25.447166442871094,-35.55000305175781,-1.8000000715255737,27.450000762939453
2.39,75.15878295898438,-1.3024457693099976,23.3291015625,-48.76263427734375,10.258805274963379,27.978559494018555,-34.80000305175781,-1.8000000715255737,28.950000762939453
2.4,75.2737045288086,3.754108190536499,23.175872802734375,-20.117916107177734,4.796324729919434,28.511484146118164,-34.650001525878906,-1.350000023841858,29.250001907348633
2.419,76.00154113769531,-0.727837324142456,22.639572143554688,-17.053598403930664,-1.3323123455047607,42.500762939453125,-34.20000076293945,-2.4000000953674316,28.05000114440918
2.423,77.68705749511719,-9.576807022094727,17.851167678833008,-29.31087303161621,0.9326186776161194,54.35834503173828,-33.900001525878906,-0.9000000357627869,29.250001907348633
2.43,78.68304443359375,-9.155426979064941,18.502389907836914,-42.36753463745117,5.462480545043945,35.439510345458984,-33.900001525878906,-0.9000000357627869,29.250001907348633
2.44,78.29997253417969,-6.3973069190979,19.919757843017578,-39.569679260253906,-1.8652373552322388,48.62940216064453,-34.80000305175781,-3.450000047683716,28.650001525878906
2.45,78.10843658447266,-1.4173674583435059,19.843143463134766,-29.31087303161621,-8.526799201965332,59.02143859863281,-34.80000305175781,-3.450000047683716,30.450000762939453
2.46,78.07012939453125,1.9153614044189453,22.06496238708496,-32.90811538696289,-0.6661561727523804,63.81776428222656,-35.400001525878906,-2.8500001430511475,28.80000114440918
2.479,77.91690063476562,-3.332728862762451,20.685903549194336,-38.10413360595703,-7.860642910003662,72.0781021118164,-33.30000305175781,-3.750000238418579,28.950000762939453
2.483,77.84028625488281,-6.358999729156494,22.90772247314453,-32.77488327026367,-20.91730499267578,84.33537292480469,-34.5,-5.400000095367432,28.950000762939453
2.49,77.84028625488281,-0.3064578175544739,25.052927017211914,-29.177640914916992,-19.718223571777344,102.8545150756836,-34.5,-5.400000095367432,28.950000762939453
2.5,75.61846923828125,3.5242648124694824,26.508602142333984,-14.522205352783203,-25.313934326171875,106.31852722167969,-35.25,-4.5,29.400001525878906
2.51,74.20109558105469,3.7924153804779053,28.002582550048828,-20.91730499267578,-29.444103240966797,109.38284301757812,-34.95000076293945,-5.550000190734863,29.250001907348633
2.52,74.62248229980469,-4.443638324737549,25.129541397094727,-30.643184661865234,-22.249616622924805,121.50688934326172,-36.900001525878906,-5.550000190734863,29.55000114440918
2.539,75.12047576904297,-9.078812599182129,24.36339569091797,-39.83613967895508,-25.18070411682129,127.23583221435547,-36.900001525878906,-5.550000190734863,29.55000114440918
2.543,74.50755310058594,-2.030282974243164,23.82709503173828,-34.50688934326172,-25.980091094970703,137.09494018554688,-35.55000305175781,-7.200000286102295,28.950000762939453
2.55,74.35432434082031,1.4939818382263184,23.712173461914062,-15.588054656982422,-31.709033966064453,150.6845245361328,-35.55000305175781,-7.200000286102295,28.950000762939453
2.56,72.32404327392578,2.8347349166870117,24.823083877563477,0.9326186776161194,-26.779478073120117,161.87594604492188,-36.0,-8.850000381469727,28.950000762939453
2.57,71.28974914550781,-1.2258312702178955,22.37141990661621,17.186830520629883,-31.176109313964844,175.0658416748047,-37.05000305175781,-8.40000057220459,29.700000762939453
2.58,73.0518798828125,-5.592854976654053,22.333112716674805,29.177640914916992,-37.70444107055664,184.1255645751953,-37.05000305175781,-8.40000057220459,29.700000762939453
2.599,73.6264877319336,-9.461885452270508,21.605276107788086,35.705970764160156,-40.23583221435547,195.983154296875,-37.05000305175781,-8.40000057220459,29.700000762939453
2.604,75.61846923828125,-10.304644584655762,24.9763126373291,22.51607894897461,-51.027565002441406,202.11178588867188,-37.20000076293945,-8.700000762939453,28.80000114440918
2.61,79.83226013183594,-22.256498336791992,23.21417999267578,3.4640121459960938,-48.62940216064453,196.1163787841797,-37.20000076293945,-8.700000762939453,28.80000114440918
2.62,83.0500717163086,-30.26270866394043,21.643583297729492,-35.439510345458984,-50.76110076904297,185.72434997558594,-37.20000076293945,-11.40000057220459,27.000001907348633
2.63,85.88480377197266,-39.11167907714844,19.843143463134766,-80.20520782470703,-62.35221862792969,222.22970581054688,-37.20000076293945,-12.450000762939453,28.05000114440918
2.64,88.0300064086914,-43.86177444458008,15.514427185058594,-106.85145568847656,-61.01990509033203,175.59877014160156,-37.20000076293945,-12.450000762939453,28.05000114440918
2.66,89.02599334716797,-34.09343338012695,17.31486701965332,-113.3797836303711,-64.3506851196289,175.46554565429688,-37.5,-13.500000953674316,28.650001525878906
2.663,87.83847045898438,-15.322891235351562,4.750096321105957,-86.3338394165039,-78.87289428710938,187.85604858398438,-36.900001525878906,-16.80000114440918,27.750001907348633
2.67,90.51998138427734,-20.915746688842773,2.7964274883270264,-82.7365951538086,-84.73506927490234,200.77947998046875,-37.05000305175781,-16.200000762939453,26.100000381469727
2.68,91.24781799316406,-26.048913955688477,2.2601263523101807,-84.20214080810547,-100.72281646728516,213.0367431640625,-37.05000305175781,-16.200000762939453,26.100000381469727
2.69,92.93333435058594,-24.36339569091797,5.056553840637207,-86.3338394165039,-109.64930725097656,214.50228881835938,-37.650001525878906,-16.80000114440918,26.250001907348633
2.7,96.64913177490234,-23.21417999267578,7.967903137207031,-94.72740936279297,-111.24808502197266,201.84532165527344,-36.75,-18.150001525878906,25.650001525878906
2.715,97.83665466308594,-27.083209991455078,10.304644584655762,-91.13016510009766,-119.24195861816406,217.03369140625,-39.150001525878906,-20.25,25.500001907348633
2.721,99.2923355102539,-27.58120346069336,10.074800491333008,-85.26799011230469,-136.4287872314453,225.16079711914062,-37.650001525878906,-19.80000114440918,26.55000114440918
2.73,104.31057739257812,-28.040889739990234,11.03248119354248,-90.59724426269531,-143.88973999023438,221.16384887695312,-37.650001525878906,-19.80000114440918,26.55000114440918
2.74,107.75823211669922,-28.347347259521484,16.35718536376953,-110.18223571777344,-135.36293029785156,216.6339874267578,-37.80000305175781,-23.850000381469727,24.150001525878906
2.75,104.770263671875,-29.994558334350586,13.867216110229492,-137.76109313964844,-135.62939453125,221.29708862304688,-36.150001525878906,-22.200000762939453,23.25
2.76,104.1956558227539,-29.266721725463867,10.994174003601074,-154.54823303222656,-149.48544311523438,211.70443725585938,-37.20000076293945,-23.25,23.25
2.779,108.8308334350586,-25.70414924621582,7.814674377441406,-178.79632568359375,-159.47779846191406,216.50076293945312,-37.95000076293945,-24.900001525878906,21.75
2.782,115.4579849243164,-5.631162166595459,8.504204750061035,-184.5252685546875,-171.7350616455078,227.5589599609375,-37.95000076293945,-24.900001525878906,21.75
2.79,119.02055358886719,-3.869029998779297,9.193734169006348,-188.1225128173828,-190.65390014648438,231.1562042236328,-37.95000076293945,-24.900001525878906,21.75
2.8,126.37554168701172,8.044517517089844,5.477933406829834,-189.9877471923828,-193.05206298828125,255.40428161621094,-37.650001525878906,-27.900001525878906,20.700000762939453
2.81,129.2485809326172,19.306842803955078,8.08282470703125,-196.78253173828125,-194.6508331298828,252.4731903076172,-38.55000305175781,-28.500001907348633,20.55000114440918
2.829,132.96438598632812,37.84754180908203,9.040505409240723,-194.78407287597656,-193.05206298828125,282.7166748046875,-37.20000076293945,-30.30000114440918,18.900001525878906
2.833,132.61961364746094,42.59763717651367,13.675680160522461,-203.8437957763672,-193.7182159423828,289.1117858886719,-36.75,-32.400001525878906,19.5
2.84,123.00450897216797,49.87601089477539,18.693927764892578,-203.3108673095703,-195.5834503173828,278.0535888671875,-36.75,-32.400001525878906,19.5
2.85,111.78048706054688,45.24083709716797,19.345149993896484,-117.9096450805664,-186.12403869628906,276.32159423828125,-36.75,-35.85000228881836,18.0
2.86,97.72173309326172,26.815059661865234,10.764330863952637,79.2725830078125,-205.97549438476562,306.2986145019531,-37.5,-33.900001525878906,18.30000114440918
2.87,88.18323516845703,0.6129156351089478,15.131354331970215,304.3001403808594,-208.64012145996094,375.71209716796875,-36.900001525878906,-35.70000076293945,17.400001525878906
2.88,95.95960235595703,-15.935806274414062,25.81907081604004,422.6094970703125,-169.0704345703125,370.1163635253906,-37.20000076293945,-35.70000076293945,17.100000381469727
2.895,86.65094757080078,-18.923770904541016,38.95845031738281,411.4180603027344,-108.983154296875,351.1975402832031,-37.20000076293945,-35.70000076293945,17.100000381469727
2.9,60.257266998291016,-37.924156188964844,47.424346923828125,340.8055114746094,-101.12251281738281,316.0245056152344,-34.95000076293945,-38.400001525878906,18.150001525878906
2.91,53.208740234375,-47.50096130371094,37.387855529785156,221.69677734375,-57.02296829223633,218.36599731445312,-35.55000305175781,-39.0,20.100000381469727
2.92,36.2386360168457,-47.19450378417969,31.028854370117188,161.34303283691406,-53.026031494140625,139.2266387939453,-34.650001525878906,-39.150001525878906,19.950000762939453
2.93,39.954437255859375,-25.359384536743164,34.284969329833984,138.2940216064453,-55.15773391723633,52.89280319213867,-33.45000076293945,-38.85000228881836,20.400001525878906
2.949,47.539268493652344,0.38307225704193115,26.891674041748047,136.69525146484375,-30.24349021911621,-31.842266082763672,-33.45000076293945,-38.85000228881836,20.400001525878906
2.953,45.66221618652344,19.268535614013672,27.006595611572266,152.68299865722656,-13.58958625793457,-75.94180297851562,-31.950000762939453,-38.400001525878906,21.75
2.96,34.3998908996582,12.258312225341797,23.252487182617188,160.41041564941406,-10.258805274963379,-128.56814575195312,-32.25,-39.30000305175781,22.80000114440918
2.97,28.92195701599121,-2.2601263523101807,19.038692474365234,159.74424743652344,-0.7993874549865723,-190.38743591308594,-33.150001525878906,-36.900001525878906,22.950000762939453
2.98,25.51261329650879,-14.824896812438965,18.387468338012695,130.69984436035156,2.398162364959717,-257.6692199707031,-31.05000114440918,-36.30000305175781,24.600000381469727
2.99,23.44402313232422,-24.401702880859375,16.127342224121094,84.4686050415039,10.658498764038086,-315.35833740234375,-33.0,-36.30000305175781,23.850000381469727
3.01,19.728221893310547,-27.811046600341797,10.496180534362793,56.62327575683594,28.511484146118164,-381.174560546875,-33.0,-36.30000305175781,23.850000381469727
3.013,18.387468338012695,-19.919757843017578,13.445837020874023,37.304744720458984,44.09954071044922,-446.5910949707031,-33.900001525878906,-33.45000076293945,25.80000114440918
3.02,25.28277015686035,-0.9193734526634216,23.3291015625,9.592649459838867,51.160797119140625,-469.107177734375,-33.45000076293945,-31.500001907348633,25.80000114440918
3.03,33.212364196777344,-0.3447650372982025,25.435998916625977,10.258805274963379,58.222049713134766,-496.4195861816406,-32.400001525878906,-29.100000381469727,27.30000114440918
3.04,39.341522216796875,-3.7158010005950928,17.889474868774414,34.50688934326172,74.07656860351562,-510.8085632324219,-34.20000076293945,-25.650001525878906,29.250001907348633
3.05,44.206539154052734,-16.931795120239258,19.268535614013672,29.31087303161621,97.7917251586914,-541.3185424804688,-34.20000076293945,-25.650001525878906,29.250001907348633
3.069,48.19049072265625,-33.71036148071289,23.290794372558594,9.059723854064941,106.71822357177734,-577.8238525390625,-32.55000305175781,-21.150001525878906,30.900001525878906
3.073,51.7913703918457,-43.09563064575195,25.972299575805664,-6.5283308029174805,121.50688934326172,-609.9326171875,-32.55000305175781,-20.400001525878906,31.200000762939453
3.08,59.22297286987305,-32.599449157714844,23.63555908203125,-8.39356803894043,127.63552856445312,-618.0596923828125,-31.80000114440918,-20.400001525878906,33.0
3.09,67.19087982177734,-27.313053131103516,20.992361068725586,-0.2664624750614166,152.28330993652344,-629.9172973632812,-31.650001525878906,-18.75,32.85000228881836
3.101,78.29997253417969,-26.048913955688477,20.034679412841797,21.983154296875,158.4119415283203,-623.7886352539062,-31.650001525878906,-18.75,32.85000228881836
3.11,86.57433319091797,-31.450233459472656,19.49837875366211,25.580398559570312,164.67381286621094,-633.1148681640625,-28.650001525878906,-14.850000381469727,37.20000076293945
3.13,92.62687683105469,-38.49876403808594,15.935806274414062,21.84992218017578,185.19142150878906,-633.5145263671875,-26.55000114440918,-13.050000190734863,39.0
3.134,94.42731475830078,-42.94240188598633,15.207969665527344,-3.0643184185028076,194.91729736328125,-639.9096069335938,-24.30000114440918,-11.100000381469727,38.55000305175781
3.14,99.33064270019531,-40.988731384277344,15.24627685546875,-8.793261528015137,193.98468017578125,-615.1286010742188,-24.150001525878906,-8.25,41.25
3.15,102.43352508544922,-38.8818359375,15.591041564941406,-30.509952545166016,198.51454162597656,-623.3889770507812,-24.150001525878906,-8.25,41.25
3.16,109.55867004394531,-36.928165435791016,15.054739952087402,-68.21439361572266,207.4410400390625,-621.656982421875,-20.55000114440918,-9.15000057220459,42.30000305175781
3.17,113.84908294677734,-32.599449157714844,13.637372970581055,-89.66461944580078,213.70291137695312,-607.4011840820312,-19.05000114440918,-8.100000381469727,44.85000228881836
3.19,116.10920715332031,-27.313053131103516,7.086836814880371,-78.3399658203125,204.50994873046875,-607.0015258789062,-17.25,-7.200000286102295,44.400001525878906
3.193,113.81077575683594,-19.49837875366211,2.1068975925445557,-41.83460998535156,203.3108673095703,-581.6875610351562,-16.5,-7.650000095367432,45.900001525878906
3.2,122.0085220336914,-21.490354537963867,-3.5625722408294678,-45.69831466674805,209.97242736816406,-584.3522338867188,-14.550000190734863,-7.200000286102295,46.650001525878906
3.21,125.0730972290039,-26.087221145629883,-1.6855180263519287,-35.439510345458984,183.45941162109375,-570.2296752929688,-14.550000190734863,-7.200000286102295,46.650001525878906
3.22,127.37152862548828,-26.278757095336914,-4.711789131164551,-29.977027893066406,169.33689880371094,-532.6585083007812,-14.40000057220459,-7.800000190734863,46.80000305175781
3.23,123.1577377319336,-20.341136932373047,-8.389283180236816,1.8652373552322388,155.88055419921875,-494.1546630859375,-13.65000057220459,-6.300000190734863,46.80000305175781
3.25,117.48826599121094,-19.07699966430664,-14.863204002380371,34.773353576660156,162.40887451171875,-452.0535888671875,-14.250000953674316,-7.200000286102295,48.900001525878906
3.254,116.14751434326172,-33.288978576660156,-14.020444869995117,46.897396087646484,142.4241943359375,-370.2496032714844,-15.450000762939453,-6.300000190734863,48.750003814697266
3.26,116.53058624267578,-55.813629150390625,-15.667655944824219,33.30780792236328,134.96324157714844,-333.8774719238281,-15.450000762939453,-6.300000190734863,48.750003814697266
3.27,112.85308837890625,-61.942787170410156,-18.310853958129883,10.258805274963379,111.24808502197266,-260.4670715332031,-14.40000057220459,-4.800000190734863,49.05000305175781
3.28,107.75823211669922,-69.83407592773438,-21.26051139831543,-4.130168437957764,73.14395141601562,-163.87442016601562,-12.90000057220459,-4.050000190734863,48.30000305175781
3.29,102.73998260498047,-71.97927856445312,-24.516624450683594,-21.316997528076172,47.163856506347656,-78.07350158691406,-13.65000057220459,-4.050000190734863,49.05000305175781
3.309,97.72173309326172,-67.4973373413086,-25.39769172668457,-4.263399600982666,9.192955017089844,16.65390396118164,-13.500000953674316,-2.700000047683716,49.20000076293945
3.313,97.41527557373047,-53.783348083496094,-24.05693817138672,38.10413360595703,-37.57120895385742,104.5865249633789,-15.450000762939453,-2.700000047683716,49.20000076293945
3.32,96.11283111572266,-42.061336517333984,-18.579004287719727,63.018375396728516,-50.22817611694336,162.94180297851562,-15.450000762939453,-3.1500000953674316,50.55000305175781
3.33,93.31640625,-40.22258758544922,-16.203956604003906,67.68146514892578,-58.754974365234375,209.57273864746094,-16.950000762939453,-2.4000000953674316,50.10000228881836
3.34,92.43534088134766,-37.77092742919922,-14.556746482849121,75.8085708618164,-74.07656860351562,246.21133422851562,-16.200000762939453,-3.1500000953674316,50.10000228881836
3.35,92.85671997070312,-34.3615837097168,-13.407529830932617,88.73200225830078,-86.0673828125,274.18988037109375,-15.750000953674316,-3.750000238418579,49.95000076293945
3.37,92.97164154052734,-27.811046600341797,-15.514427185058594,121.3736572265625,-100.9892807006836,307.0979919433594,-15.750000953674316,-3.750000238418579,49.95000076293945
3.374,89.94536590576172,-23.558944702148438,-16.012420654296875,159.61102294921875,-71.41194152832031,319.08880615234375,-18.450000762939453,-3.1500000953674316,50.85000228881836
3.38,66.07996368408203,-20.992361068725586,19.68991470336914,150.01837158203125,7.9938740730285645,290.57733154296875,-18.450000762939453,-3.1500000953674316,50.85000228881836
3.39,49.37801742553711,-13.445837020874023,99.8286361694336,-125.23736572265625,-4.263399600982666,137.22817993164062,-21.0,-4.200000286102295,49.650001525878906
3.4,128.55905151367188,33.71036148071289,203.56460571289062,-391.5666198730469,-172.134765625,114.57886505126953,-20.55000114440918,-4.5,51.45000076293945
3.41,202.7984619140625,112.62324523925781,-84.16098022460938,-121.90658569335938,-50.62786865234375,303.90045166015625,-20.55000114440918,-4.5,51.45000076293945
3.429,92.1288833618164,54.20472717285156,-67.99533081054688,83.26952362060547,-10.392036437988281,335.47625732421875,-20.55000114440918,-4.5,51.45000076293945
3.433,46.811431884765625,-2.2218191623687744,19.49837875366211,118.17610931396484,-53.159263610839844,305.4992370605469,-22.200000762939453,-6.750000476837158,49.80000305175781
3.44,54.05149841308594,-65.9267349243164,22.639572143554688,43.96630859375,-42.36753463745117,247.54364013671875,-22.200000762939453,-6.750000476837158,49.80000305175781
3.45,60.831878662109375,-70.6002197265625,31.90991973876953,-37.70444107055664,-42.500762939453125,201.0459442138672,-21.450000762939453,-8.700000762939453,49.05000305175781
3.46,72.17081451416016,-44.12992477416992,38.99675750732422,-11.724349021911621,-46.497703552246094,205.04287719726562,-23.400001525878906,-9.0,48.750003814697266
3.47,84.04605865478516,-24.286781311035156,27.542896270751953,49.69525146484375,-46.497703552246094,205.84225463867188,-23.400001525878906,-9.0,48.750003814697266
3.49,87.72354888916016,-31.986534118652344,24.210166931152344,25.7136287689209,-42.633995056152344,170.8024444580078,-23.55000114440918,-8.850000381469727,48.900001525878906
3.494,77.1890640258789,-38.613685607910156,11.568782806396484,-20.517610549926758,-47.9632453918457,141.4915771484375,-25.500001907348633,-10.350000381469727,49.650001525878906
3.5,73.16680145263672,-31.450233459472656,6.282385349273682,-22.51607894897461,-44.76569747924805,130.56661987304688,-24.30000114440918,-10.350000381469727,48.45000076293945
3.51,83.01176452636719,-26.585216522216797,3.1028854846954346,-22.249616622924805,-25.18070411682129,114.04593658447266,-24.30000114440918,-10.350000381469727,48.45000076293945
3.521,84.62066650390625,-17.1999454498291,-0.07661445438861847,-15.321592330932617,-21.84992218017578,101.78866577148438,-24.30000114440918,-10.350000381469727,48.45000076293945
3.53,78.989501953125,-11.070788383483887,-3.9839515686035156,-41.83460998535156,-3.3307809829711914,117.11026000976562,-26.55000114440918,-11.850000381469727,47.70000076293945
3.55,72.55388641357422,-6.588842868804932,-5.746084213256836,-42.36753463745117,18.385910034179688,97.92495727539062,-25.650001525878906,-12.450000762939453,48.750003814697266
3.553,73.74140930175781,-2.911349296569824,2.2218191623687744,-37.17151641845703,22.782541275024414,92.59571075439453,-25.500001907348633,-12.300000190734863,48.150001525878906
3.56,79.48749542236328,-5.746084213256836,13.943830490112305,-29.044410705566406,12.390504837036133,97.12557220458984,-25.500001907348633,-12.300000190734863,48.150001525878906
3.57,79.10442352294922,-8.389283180236816,19.49837875366211,-32.5084228515625,16.920366287231445,74.20980072021484,-24.750001907348633,-11.850000381469727,47.70000076293945
3.58,75.00555419921875,-10.72602367401123,25.244462966918945,-35.306278228759766,14.522205352783203,68.61408996582031,-27.000001907348633,-13.050000190734863,48.45000076293945
3.59,73.54987335205078,-4.481945514678955,27.313053131103516,-28.378253936767578,11.457886695861816,62.8851432800293,-25.80000114440918,-13.800000190734863,47.70000076293945
3.61,74.16278839111328,-2.8347349166870117,24.36339569091797,-6.395099639892578,0.2664624750614166,65.949462890625,-25.80000114440918,-12.300000190734863,48.900001525878906
3.613,76.30799865722656,-3.5242648124694824,14.058752059936523,10.92496109008789,5.462480545043945,63.950992584228516,-25.80000114440918,-12.300000190734863,48.900001525878906
3.62,77.1124496459961,-4.9799394607543945,14.556746482849121,9.992342948913574,15.055130004882812,57.15620040893555,-25.80000114440918,-12.300000190734863,48.900001525878906
3.63,77.68705749511719,-4.711789131164551,12.526463508605957,3.3307809829711914,12.25727367401123,60.08728790283203,-25.950000762939453,-12.90000057220459,49.35000228881836
3.64,76.65276336669922,-10.41956615447998,15.705963134765625,17.586523056030273,11.591117858886719,47.0306282043457,-25.950000762939453,-14.40000057220459,48.0
3.65,76.15476989746094,-13.062764167785645,16.548721313476562,11.857580184936523,10.791729927062988,42.633995056152344,-28.05000114440918,-14.550000190734863,49.95000076293945
3.669,78.03182220458984,-17.50640296936035,11.377246856689453,11.724349021911621,3.197549819946289,41.035221099853516,-25.05000114440918,-11.850000381469727,49.650001525878906
3.673,78.22335815429688,-19.038692474365234,10.189722061157227,2.131699800491333,5.595712184906006,33.30780792236328,-25.05000114440918,-11.850000381469727,49.650001525878906
3.68,76.76768493652344,-17.238252639770508,11.1474027633667,-15.588054656982422,22.782541275024414,21.45022964477539,-24.900001525878906,-15.600000381469727,48.0
3.69,76.15476989746094,-12.60307788848877,10.15141487121582,-12.124042510986328,16.78713607788086,31.842266082763672,-25.500001907348633,-13.500000953674316,49.650001525878906
3.7,75.3503189086914,-8.08282470703125,10.994174003601074,-10.125574111938477,18.385910034179688,27.84532928466797,-25.200000762939453,-15.15000057220459,49.05000305175781
3.71,77.30398559570312,-6.856993675231934,15.744270324707031,-6.661561965942383,21.316997528076172,29.977027893066406,-25.200000762939453,-14.40000057220459,49.05000305175781
3.729,76.95922088623047,-3.9839515686035156,17.62132453918457,-3.3307809829711914,25.580398559570312,23.98162269592285,-25.80000114440918,-13.800000190734863,49.650001525878906
3.733,76.19307708740234,-6.205770969390869,19.421764373779297,0.0,22.915773391723633,30.110260009765625,-25.80000114440918,-13.800000190734863,49.650001525878906
3.74,75.23539733886719,-6.358999729156494,19.000385284423828,6.128636837005615,16.65390396118164,44.89892578125,-26.400001525878906,-15.15000057220459,49.35000228881836
3.75,74.08617401123047,-2.9879636764526367,21.796812057495117,-1.0658499002456665,25.447166442871094,42.633995056152344,-25.650001525878906,-14.850000381469727,48.750003814697266
3.76,74.77571105957031,-0.9959878921508789,24.36339569091797,11.724349021911621,17.453292846679688,47.56355285644531,-24.750001907348633,-16.200000762939453,48.900001525878906
3.77,77.1507568359375,-6.282385349273682,23.52063751220703,9.459418296813965,6.261868000030518,49.69525146484375,-24.750001907348633,-16.200000762939453,48.900001525878906
3.789,80.7899398803711,-16.58702850341797,16.510414123535156,-6.661561965942383,3.197549819946289,57.822357177734375,-24.150001525878906,-15.15000057220459,47.55000305175781
3.793,77.64875030517578,-9.500192642211914,16.089035034179688,-38.10413360595703,17.32006072998047,60.88667678833008,-25.200000762939453,-14.40000057220459,48.30000305175781
3.8,77.1890640258789,-4.6734819412231445,17.697938919067383,-25.18070411682129,12.124042510986328,71.41194152832031,-25.80000114440918,-15.450000762939453,49.20000076293945
3.81,77.41890716552734,0.19153612852096558,18.923770904541016,-10.658498764038086,1.4655436277389526,92.19601440429688,-24.150001525878906,-14.40000057220459,49.35000228881836
3.82,77.34229278564453,6.512228488922119,18.77054214477539,3.197549819946289,7.72741174697876,99.25727081298828,-24.150001525878906,-14.40000057220459,49.35000228881836
3.83,75.2737045288086,6.052541732788086,22.06496238708496,-0.2664624750614166,-5.062787055969238,119.24195861816406,-24.150001525878906,-14.40000057220459,49.35000228881836
3.847,77.49552154541016,-1.4173674583435059,26.393678665161133,-12.523736000061035,-20.517610549926758,142.4241943359375,-25.500001907348633,-16.950000762939453,48.900001525878906
3.85,78.3765869140625,-4.788403511047363,29.76471519470215,-24.51454734802246,-16.78713607788086,145.35528564453125,-25.500001907348633,-16.950000762939453,48.900001525878906
3.86,77.91690063476562,-4.788403511047363,30.26270866394043,-28.911178588867188,-20.517610549926758,165.07350158691406,-26.400001525878906,-18.75,50.10000228881836
3.87,76.5761489868164,-5.937620162963867,29.76471519470215,-26.779478073120117,-29.84379768371582,161.87594604492188,-25.650001525878906,-17.55000114440918,50.55000305175781
3.88,75.31201171875,-11.377246856689453,23.558944702148438,-38.37059783935547,-33.84073257446289,175.7320098876953,-25.650001525878906,-17.55000114440918,50.55000305175781
3.89,75.65677642822266,-17.92778205871582,19.153614044189453,-60.48698043823242,-35.57273864746094,170.4027557373047,-26.400001525878906,-19.80000114440918,50.55000305175781
3.903,79.71733856201172,-22.17988395690918,15.207969665527344,-71.2787094116211,-44.89892578125,184.39202880859375,-25.650001525878906,-19.05000114440918,50.55000305175781
3.91,82.20730590820312,-22.524648666381836,18.732234954833984,-84.20214080810547,-51.560489654541016,192.11944580078125,-27.000001907348633,-18.900001525878906,48.900001525878906
3.92,83.85452270507812,-19.230228424072266,22.409727096557617,-95.52679443359375,-48.362937927246094,186.12403869628906,-25.200000762939453,-21.75,49.35000228881836
3.93,83.27991485595703,-13.024456977844238,20.877439498901367,-84.33537292480469,-56.356815338134766,187.4563446044922,-25.200000762939453,-21.75,49.35000228881836
3.94,85.34850311279297,-14.67166805267334,18.655620574951172,-67.28177642822266,-67.5482406616211,197.31546020507812,-27.000001907348633,-20.850000381469727,48.150001525878906
3.95,90.06028747558594,-23.82709503173828,10.72602367401123,-80.33843994140625,-71.54517364501953,211.83766174316406,-25.05000114440918,-23.850000381469727,46.35000228881836
3.969,94.35070037841797,-31.450233459472656,8.312667846679688,-124.70443725585938,-87.13323211669922,216.90045166015625,-25.80000114440918,-25.05000114440918,46.650001525878906
3.973,100.74800872802734,-14.97812557220459,15.667655944824219,-115.64471435546875,-107.65084075927734,228.75804138183594,-25.80000114440918,-25.05000114440918,46.650001525878906
3.98,102.08876037597656,-8.044517517089844,13.79060173034668,-92.72894287109375,-111.24808502197266,239.5497589111328,-25.80000114440918,-25.05000114440918,46.650001525878906
3.99,102.47183227539062,-0.038307227194309235,17.697938919067383,-69.14701080322266,-113.64624786376953,243.41346740722656,-26.400001525878906,-27.150001525878906,47.25
4.0,103.69766235351562,-8.810662269592285,18.23423957824707,-62.085758209228516,-120.4410400390625,255.27105712890625,-27.450000762939453,-27.600000381469727,45.75
4.019,106.57070922851562,-24.36339569091797,14.901511192321777,-85.26799011230469,-136.9617156982422,275.6554260253906,-27.30000114440918,-27.750001907348633,45.900001525878906
4.023,108.56268310546875,-35.5874137878418,12.449849128723145,-126.7029037475586,-144.68911743164062,275.2557373046875,-26.700000762939453,-29.55000114440918,44.70000076293945
4.03,114.04061889648438,-31.565155029296875,9.959878921508789,-150.2848358154297,-149.7519073486328,262.73199462890625,-28.80000114440918,-28.500001907348633,44.10000228881836
4.04,122.5831298828125,-21.6818904876709,15.399505615234375,-150.01837158203125,-155.08116149902344,267.1286315917969,-28.80000114440918,-28.500001907348633,44.10000228881836
4.05,123.92388153076172,-13.560758590698242,14.786589622497559,-143.88973999023438,-156.81317138671875,281.5176086425781,-28.650001525878906,-31.05000114440918,42.0
4.06,123.92388153076172,-11.798625946044922,11.60708999633789,-184.92495727539062,-168.40428161621094,285.91424560546875,-28.650001525878906,-32.55000305175781,40.650001525878906
4.07,131.01071166992188,-8.772355079650879,5.324704647064209,-203.71055603027344,-171.06890869140625,293.1087341308594,-30.150001525878906,-33.0,40.20000076293945
4.083,136.79510498046875,7.508216381072998,8.427590370178223,-220.23123168945312,-195.31700134277344,312.29400634765625,-29.400001525878906,-33.45000076293945,39.150001525878906
4.09,143.23072814941406,35.97048568725586,9.423578262329102,-224.49462890625,-208.24041748046875,329.0811462402344,-29.400001525878906,-33.45000076293945,39.150001525878906
4.1,147.32958984375,52.174442291259766,15.744270324707031,-211.83766174316406,-215.3016815185547,329.4808654785156,-30.750001907348633,-36.60000228881836,36.75
4.11,146.98483276367188,63.781532287597656,18.195932388305664,-217.83306884765625,-205.7090301513672,338.140869140625,-28.80000114440918,-38.25,35.25
4.12,141.85166931152344,66.00334930419922,23.02264404296875,-240.61561584472656,-191.0535888671875,332.8116455078125,-29.250001907348633,-40.95000076293945,34.5
4.14,129.8614959716797,51.982906341552734,21.835119247436523,-163.34149169921875,-183.85910034179688,294.30780029296875,-31.500001907348633,-40.20000076293945,34.5
4.143,106.11102294921875,32.331298828125,9.232041358947754,94.9938735961914,-205.84225463867188,323.4854431152344,-30.150001525878906,-43.05000305175781,31.80000114440918
4.15,85.65496063232422,11.72201156616211,32.178070068359375,275.38897705078125,-198.51454162597656,366.78558349609375,-30.150001525878906,-43.05000305175781,31.80000114440918
4.16,87.3404769897461,3.9456443786621094,41.71657180786133,455.91729736328125,-164.5405731201172,380.6416320800781,-30.450000762939453,-43.5,29.55000114440918
4.17,82.59038543701172,-10.266336441040039,46.42835998535156,433.93414306640625,-133.76416015625,348.2664489746094,-30.900001525878906,-43.80000305175781,29.850000381469727
4.18,67.30580139160156,-50.335697174072266,47.15619659423828,307.0979919433594,-74.47626495361328,208.3736572265625,-29.400001525878906,-43.5,30.600000381469727
4.199,31.986534118652344,-48.68848419189453,36.39186477661133,190.38743591308594,-47.163856506347656,122.83920288085938,-29.400001525878906,-43.5,30.600000381469727
4.203,30.99054718017578,-15.782577514648438,43.82346725463867,117.64318084716797,-32.77488327026367,30.509952545166016,-30.750001907348633,-42.150001525878906,32.25
4.21,44.704532623291016,15.591041564941406,33.288978576660156,132.9647674560547,-14.12251091003418,-17.053598403930664,-30.750001907348633,-42.150001525878906,32.25
4.22,41.448421478271484,28.423961639404297,34.591426849365234,168.27105712890625,1.4655436277389526,-68.34762573242188,-30.900001525878906,-41.55000305175781,31.350000381469727
4.23,33.94020462036133,29.075185775756836,36.88985824584961,186.25726318359375,19.98468589782715,-135.0964813232422,-28.650001525878906,-38.85000228881836,30.600000381469727
4.24,27.121517181396484,14.36521053314209,29.879636764526367,190.78712463378906,35.439510345458984,-205.44256591796875,-29.700000762939453,-38.400001525878906,31.05000114440918
4.26,23.099258422851562,-2.6815059185028076,26.815059661865234,165.2067413330078,50.22817611694336,-262.1990661621094,-29.700000762939453,-38.400001525878906,31.05000114440918
4.263,24.554933547973633,-16.548721313476562,25.665842056274414,123.10566711425781,70.87902069091797,-357.9923400878906,-29.400001525878906,-35.70000076293945,31.350000381469727
4.27,23.252487182617188,-22.218191146850586,18.11931800842285,94.9938735961914,75.94180297851562,-399.42724609375,-29.400001525878906,-35.70000076293945,31.350000381469727
4.28,23.175872802734375,-21.26051139831543,18.693927764892578,45.56508255004883,92.59571075439453,-463.7779235839844,-28.950000762939453,-33.45000076293945,32.55000305175781
4.29,24.78477668762207,-16.433799743652344,19.421764373779297,9.192955017089844,91.66309356689453,-494.5543518066406,-29.55000114440918,-30.900001525878906,33.45000076293945
4.3,32.02484130859375,-11.338939666748047,19.230228424072266,-33.70750427246094,100.45635223388672,-525.9969482421875,-29.55000114440918,-30.900001525878906,33.45000076293945
4.32,35.5874137878418,-6.665457725524902,14.901511192321777,-44.36600112915039,126.43644714355469,-567.298583984375,-28.500001907348633,-27.750001907348633,33.0
4.323,39.87782287597656,-10.228029251098633,12.143390655517578,-28.644716262817383,147.62020874023438,-600.6064453125,-27.450000762939453,-24.900001525878906,33.60000228881836
4.33,48.61186981201172,-30.186094284057617,11.453861236572266,-28.77794647216797,150.81776428222656,-616.9938354492188,-27.450000762939453,-24.900001525878906,33.60000228881836
4.34,54.81764221191406,-38.19230651855469,16.012420654296875,-47.430320739746094,154.28176879882812,-654.6983032226562,-29.250001907348633,-23.100000381469727,34.95000076293945
4.35,65.00736236572266,-37.73262023925781,17.73624610900879,-57.955589294433594,163.74119567871094,-692.5359497070312,-29.250001907348633,-23.100000381469727,34.95000076293945
4.36,74.6990966796875,-22.256498336791992,11.60708999633789,-35.439510345458984,160.14395141601562,-684.6753540039062,-25.950000762939453,-18.30000114440918,34.650001525878906
4.38,86.34449005126953,-14.901511192321777,8.542511940002441,-2.131699800491333,168.5375213623047,-690.1378173828125,-24.900001525878906,-17.100000381469727,35.85000228881836
4.383,95.49991607666016,-18.655620574951172,7.891288757324219,19.185298919677734,178.79632568359375,-695.7335205078125,-24.450000762939453,-14.850000381469727,37.20000076293945
4.39,102.12706756591797,-33.05913543701172,7.163451671600342,20.650842666625977,166.53904724121094,-681.477783203125,-24.450000762939453,-14.850000381469727,37.20000076293945
4.4,104.84687805175781,-36.58340072631836,5.2480902671813965,22.249616622924805,173.46707153320312,-682.8101196289062,-24.30000114440918,-12.750000953674316,36.30000305175781
4.41,112.20186614990234,-35.47249221801758,1.723825216293335,28.77794647216797,172.53445434570312,-680.1454467773438,-21.900001525878906,-10.950000762939453,36.900001525878906
4.42,117.2584228515625,-31.028854370117188,2.9879636764526367,38.10413360595703,166.53904724121094,-667.88818359375,-21.900001525878906,-8.700000762939453,36.150001525878906
4.44,120.59114837646484,-29.305028915405273,3.6391866207122803,54.75803756713867,164.94027709960938,-644.972412109375,-21.30000114440918,-6.900000095367432,37.05000305175781
4.444,122.5831298828125,-32.40791320800781,1.455674648284912,45.298622131347656,161.07656860351562,-634.713623046875,-19.5,-6.900000095367432,38.55000305175781
4.45,119.86331176757812,-37.77092742919922,-2.5282769203186035,39.83613967895508,165.4731903076172,-642.0413208007812,-19.5,-6.900000095367432,38.55000305175781
4.46,119.40362548828125,-47.38603973388672,0.0,18.78560447692871,151.75038146972656,-604.8698120117188,-18.75,-3.450000047683716,36.0
4.47,125.0347900390625,-56.19670104980469,5.439626216888428,-14.655436515808105,145.48851013183594,-584.8851318359375,-19.200000762939453,-2.8500001430511475,37.20000076293945
4.48,124.30695343017578,-54.166419982910156,5.669469833374023,-41.701377868652344,142.5574188232422,-555.9739379882812,-16.950000762939453,-2.4000000953674316,35.400001525878906
4.5,119.59516143798828,-46.390052795410156,2.5665841102600098,-39.9693717956543,142.69065856933594,-509.20977783203125,-16.05000114440918,-1.5,37.5
4.505,117.10519409179688,-44.12992477416992,-2.719813108444214,-10.125574111938477,138.6937255859375,-414.882080078125,-16.05000114440918,-1.5,37.5
4.51,115.57290649414062,-65.73519897460938,0.9576807022094727,-20.784072875976562,133.89739990234375,-379.9754943847656,-15.15000057220459,-0.9000000357627869,37.20000076293945
4.52,114.34707641601562,-79.75564575195312,-3.179499864578247,-54.091880798339844,119.7748794555664,-301.5022888183594,-15.000000953674316,0.0,36.75
4.53,112.31678771972656,-93.73778533935547,-11.645397186279297,-86.3338394165039,77.27411651611328,-194.38436889648438,-15.000000953674316,1.8000000715255737,36.0
4.54,110.63127136230469,-92.58856964111328,-21.490354537963867,-90.06431579589844,49.56201934814453,-105.65237426757812,-15.000000953674316,0.0,37.05000305175781
4.56,107.79653930664062,-75.54185485839844,-27.236438751220703,-44.49923324584961,8.260336875915527,8.793261528015137,-15.000000953674316,0.0,37.05000305175781
4.563,107.41346740722656,-57.57576370239258,-27.313053131103516,37.4379768371582,-42.633995056152344,150.41806030273438,-15.450000762939453,-1.350000023841858,36.900001525878906
4.57,104.04242706298828,-50.5272331237793,-23.673866271972656,65.28330993652344,-52.493106842041016,200.91270446777344,-15.750000953674316,0.30000001192092896,37.05000305175781
4.58,100.4798583984375,-52.480899810791016,-19.421764373779297,85.26799011230469,-71.81163787841797,258.8682861328125,-13.950000762939453,-0.45000001788139343,36.900001525878906
4.59,99.33064270019531,-46.0452880859375,-15.322891235351562,103.12097930908203,-74.20980072021484,289.1117858886719,-15.450000762939453,-0.45000001788139343,37.20000076293945
4.6,100.32662963867188,-35.05111312866211,-11.72201156616211,136.82847595214844,-82.7365951538086,345.06890869140625,-15.450000762939453,-0.45000001788139343,37.20000076293945
4.619,101.85891723632812,-22.103269577026367,-0.5363011956214905,165.2067413330078,-53.95865249633789,346.5344543457031,-18.0,-2.25,35.25
4.623,91.97565460205078,-4.9799394607543945,56.08177947998047,-110.848388671875,-131.89892578125,160.94332885742188,-16.5,-3.0,36.30000305175781
4.63,194.25595092773438,84.46743774414062,66.65457153320312,-159.61102294921875,-161.07656860351562,244.87901306152344,-17.400001525878906,-5.100000381469727,34.650001525878906
4.64,188.66310119628906,123.08112335205078,-76.38461303710938,116.84379577636719,-38.50382614135742,444.5926513671875,-19.80000114440918,-3.0,36.0
4.65,78.64473724365234,23.558944702148438,-69.02962493896484,214.7687530517578,5.329249382019043,414.6156005859375,-19.05000114440918,-5.700000286102295,36.0
4.66,43.70854568481445,-30.339323043823242,15.514427185058594,134.03062438964844,-28.511484146118164,350.5313720703125,-19.05000114440918,-5.700000286102295,36.0
4.68,39.035064697265625,-57.95883560180664,21.605276107788086,25.18070411682129,-36.238895416259766,268.7274169921875,-20.700000762939453,-5.100000381469727,35.400001525878906
4.684,35.74064254760742,-57.65237808227539,21.26051139831543,17.453292846679688,-3.4640121459960938,241.41500854492188,-21.30000114440918,-6.150000095367432,35.25
4.69,64.31783294677734,-52.595821380615234,43.74685287475586,68.74732208251953,0.39969372749328613,254.60488891601562,-22.200000762939453,-9.0,35.400001525878906
4.7,90.97966766357422,-64.50936889648438,58.3036003112793,73.67687225341797,-47.830013275146484,213.4364471435547,-23.25,-8.100000381469727,33.0
4.71,121.70206451416016,-71.51959228515625,44.24484634399414,29.977027893066406,-54.35834503173828,166.40582275390625,-23.25,-8.100000381469727,33.0
4.72,75.58016204833984,-34.591426849365234,21.605276107788086,-22.782541275024414,-41.967838287353516,167.2052001953125,-22.05000114440918,-10.050000190734863,36.0
4.739,65.12228393554688,-13.177685737609863,17.659631729125977,-36.372127532958984,-57.55589294433594,163.20826721191406,-22.80000114440918,-8.40000057220459,35.55000305175781
4.743,78.91288757324219,-9.883264541625977,-4.750096321105957,-30.24349021911621,-39.16998291015625,159.61102294921875,-22.650001525878906,-10.5,34.35000228881836
4.75,83.39483642578125,-12.258312225341797,-2.5282769203186035,-29.444103240966797,-24.381317138671875,160.54364013671875,-22.650001525878906,-10.5,35.10000228881836
4.76,82.89684295654297,-17.353174209594727,-3.907337188720703,-43.43338394165039,-6.794793128967285,139.09341430664062,-22.650001525878906,-10.5,35.10000228881836
4.77,72.36235046386719,-7.546523571014404,-3.9456443786621094,-51.960182189941406,12.523736000061035,129.2342987060547,-22.80000114440918,-12.300000190734863,33.45000076293945
4.78,69.45100402832031,0.5363011956214905,8.65743350982666,-24.781009674072266,15.588054656982422,123.50535583496094,-24.0,-11.550000190734863,34.5
4.8,78.3382797241211,-6.129156112670898,14.480132102966309,-4.130168437957764,6.794793128967285,114.3124008178711,-22.05000114440918,-12.300000190734863,33.0
4.804,79.41088104248047,-12.066776275634766,12.411541938781738,3.7304747104644775,5.196018218994141,106.05206298828125,-23.55000114440918,-12.300000190734863,34.20000076293945
4.81,74.35432434082031,-12.02846908569336,17.00840950012207,2.131699800491333,1.7320060729980469,102.72128295898438,-23.55000114440918,-12.300000190734863,34.20000076293945
4.82,75.08216857910156,-8.542511940002441,15.437812805175781,13.056661605834961,-5.595712184906006,86.46707153320312,-24.30000114440918,-11.550000190734863,32.70000076293945
4.83,75.08216857910156,-4.865017890930176,12.373234748840332,25.447166442871094,11.058192253112793,87.66615295410156,-22.650001525878906,-14.100000381469727,33.900001525878906
4.84,77.41890716552734,-2.5282769203186035,12.22000503540039,49.69525146484375,3.86370587348938,88.59877014160156,-23.400001525878906,-15.15000057220459,34.35000228881836
4.86,78.29997253417969,-7.8529815673828125,18.732234954833984,41.568145751953125,1.3323123455047607,79.40581512451172,-23.700000762939453,-13.65000057220459,34.35000228881836
4.863,77.03583526611328,-14.135366439819336,17.774553298950195,14.788667678833008,-3.86370587348938,72.34455871582031,-23.55000114440918,-14.550000190734863,33.45000076293945
4.87,75.81000518798828,-27.696125030517578,12.373234748840332,-12.523736000061035,8.260336875915527,54.091880798339844,-23.55000114440918,-14.550000190734863,33.45000076293945
4.88,77.1890640258789,-24.286781311035156,11.377246856689453,-35.972434997558594,11.058192253112793,60.75344467163086,-22.950000762939453,-13.65000057220459,32.55000305175781
4.89,75.08216857910156,-13.599065780639648,9.346963882446289,-27.445634841918945,6.9280242919921875,52.3598747253418,-22.5,-14.550000190734863,33.45000076293945
4.9,76.80599212646484,-8.274360656738281,10.228029251098633,-10.125574111938477,9.859111785888672,38.50382614135742,-23.700000762939453,-14.850000381469727,34.35000228881836
4.92,74.46924591064453,-6.129156112670898,8.848969459533691,7.327718257904053,25.18070411682129,53.69218826293945,-24.150001525878906,-15.90000057220459,33.60000228881836
4.924,76.537841796875,-7.546523571014404,8.925583839416504,25.580398559570312,21.583459854125977,55.82388687133789,-24.150001525878906,-15.90000057220459,33.60000228881836
4.93,78.60643005371094,-9.768342971801758,10.611102104187012,23.581928253173828,23.98162269592285,54.62480926513672,-24.0,-16.200000762939453,33.75
4.94,79.71733856201172,-13.982137680053711,8.465897560119629,22.915773391723633,21.316997528076172,64.48391723632812,-23.25,-16.200000762939453,36.0
4.95,78.22335815429688,-15.514427185058594,16.35718536376953,3.9969370365142822,26.513015747070312,64.88361358642578,-23.400001525878906,-15.15000057220459,33.900001525878906
4.96,77.1890640258789,-14.863204002380371,17.659631729125977,-14.12251091003418,20.650842666625977,66.74884796142578,-24.450000762939453,-16.80000114440918,34.650001525878906
4.979,76.46122741699219,-11.60708999633789,21.14558982849121,-21.84992218017578,22.116384506225586,61.81929397583008,-24.450000762939453,-16.80000114440918,34.650001525878906
4.983,76.61445617675781,-5.631162166595459,20.11129379272461,-9.459418296813965,11.324655532836914,73.14395141601562,-23.400001525878906,-17.100000381469727,33.900001525878906
4.99,76.95922088623047,-6.665457725524902,20.187908172607422,-3.0643184185028076,6.395099639892578,82.6033706665039,-22.650001525878906,-17.100000381469727,35.10000228881836
5.0,77.8019790649414,-8.848969459533691,19.99637222290039,-9.72588062286377,7.72741174697876,77.94027709960938,-22.80000114440918,-18.150001525878906,34.95000076293945
5.01,77.61044311523438,-11.41555404663086,23.44402313232422,-33.97396469116211,10.92496109008789,94.46094512939453,-24.450000762939453,-17.55000114440918,34.650001525878906
5.021,76.76768493652344,-10.113107681274414,23.02264404296875,-27.578866958618164,3.197549819946289,111.91423797607422,-24.450000762939453,-17.55000114440918,34.650001525878906
5.039,74.6990966796875,-4.098873138427734,20.76251792907715,-15.987748146057129,-5.462480545043945,132.43185424804688,-22.5,-18.450000762939453,34.20000076293945
5.043,76.92091369628906,-4.520252704620361,25.5892276763916,-19.31852912902832,-0.6661561727523804,126.96936798095703,-24.150001525878906,-18.75,35.10000228881836
5.05,76.03984832763672,-5.477933406829834,25.81907081604004,-24.64777946472168,0.39969372749328613,132.6983184814453,-24.150001525878906,-18.75,35.10000228881836
5.06,73.32003021240234,-4.8267107009887695,25.359384536743164,-18.385910034179688,-10.392036437988281,154.0153045654297,-22.05000114440918,-19.200000762939453,36.30000305175781
5.07,72.13250732421875,-2.911349296569824,24.861391067504883,-16.65390396118164,-10.525267601013184,160.01071166992188,-23.25,-20.100000381469727,33.75
5.08,71.36636352539062,-4.290409564971924,21.950040817260742,0.1332312375307083,-19.31852912902832,182.7932586669922,-23.25,-20.100000381469727,33.75
5.1,74.2394027709961,-18.502389907836914,17.42978858947754,-3.7304747104644775,-34.50688934326172,179.9954071044922,-22.950000762939453,-20.55000114440918,35.10000228881836
5.104,83.01176452636719,-44.43638229370117,12.679692268371582,-85.00152587890625,-18.91883659362793,165.4731903076172,-23.25,-21.600000381469727,34.20000076293945
5.11,83.1266860961914,-40.83550262451172,14.211980819702148,-114.84532928466797,-11.724349021911621,178.6630859375,-23.25,-21.600000381469727,34.20000076293945
5.12,82.70530700683594,-33.7486686706543,24.631547927856445,-130.03369140625,-28.24502182006836,170.13629150390625,-23.25,-23.100000381469727,34.20000076293945
5.13,89.75382995605469,-16.58702850341797,25.28277015686035,-113.51301574707031,-48.22970962524414,183.05972290039062,-23.25,-23.100000381469727,34.20000076293945
5.14,90.06028747558594,-9.615114212036133,23.673866271972656,-89.93108367919922,-44.49923324584961,175.9984588623047,-23.400001525878906,-23.700000762939453,32.85000228881836
5.157,90.44336700439453,-14.709975242614746,16.089035034179688,-93.66156005859375,-67.28177642822266,193.98468017578125,-23.25,-24.750001907348633,33.45000076293945
5.16,94.00593566894531,-30.760704040527344,6.627150535583496,-94.19448852539062,-77.00765228271484,210.50535583496094,-23.25,-24.750001907348633,33.45000076293945
5.17,95.38499450683594,-30.224401473999023,5.363011837005615,-112.31393432617188,-80.20520782470703,212.37059020996094,-24.0,-24.750001907348633,32.70000076293945
5.18,100.09678649902344,-25.474306106567383,10.572794914245605,-117.77641296386719,-102.32159423828125,218.0995330810547,-24.0,-24.750001907348633,32.70000076293945
5.19,103.81258392333984,-18.693927764892578,14.556746482849121,-108.58345794677734,-104.05359649658203,224.8943328857422,-22.950000762939453,-27.600000381469727,31.80000114440918
5.209,104.92349243164062,-17.774553298950195,15.169661521911621,-116.71056365966797,-101.38896942138672,241.41500854492188,-24.150001525878906,-28.80000114440918,31.350000381469727
5.213,104.38719177246094,-23.9420166015625,15.705963134765625,-123.2388916015625,-105.91883087158203,243.28024291992188,-23.55000114440918,-28.500001907348633,30.900001525878906
5.22,104.8085708618164,-28.692113876342773,12.60307788848877,-139.2266387939453,-113.51301574707031,245.27870178222656,-23.55000114440918,-28.500001907348633,30.900001525878906
5.23,104.770263671875,-26.929981231689453,11.30063247680664,-152.68299865722656,-128.56814575195312,260.7335205078125,-23.55000114440918,-28.500001907348633,30.900001525878906
5.24,107.52838897705078,-23.482330322265625,9.232041358947754,-164.4073486328125,-138.8269500732422,262.5987548828125,-23.700000762939453,-33.45000076293945,29.250001907348633
5.25,116.41566467285156,-19.306842803955078,10.228029251098633,-169.60336303710938,-152.41653442382812,260.86676025390625,-24.450000762939453,-31.80000114440918,27.750001907348633
5.269,122.88958740234375,-12.679692268371582,18.464082717895508,-154.6814727783203,-145.75497436523438,272.7243347167969,-24.150001525878906,-36.150001525878906,27.750001907348633
5.273,117.8330307006836,-10.15141487121582,12.29662036895752,-189.1883544921875,-149.08575439453125,274.8560485839844,-24.900001525878906,-36.45000076293945,27.000001907348633
5.28,115.07491302490234,-12.449849128723145,4.367023944854736,-227.02603149414062,-148.95252990722656,270.7258605957031,-24.900001525878906,-36.45000076293945,27.000001907348633
5.29,119.55685424804688,-5.746084213256836,2.3750481605529785,-247.2771759033203,-156.679931640625,270.7258605957031,-24.450000762939453,-37.650001525878906,24.750001907348633
5.3,126.9118423461914,15.284584045410156,2.3367409706115723,-243.14700317382812,-158.545166015625,281.5176086425781,-25.500001907348633,-38.55000305175781,24.600000381469727
5.31,131.93008422851562,40.452430725097656,4.788403511047363,-234.35374450683594,-169.20367431640625,298.03826904296875,-25.200000762939453,-40.35000228881836,22.950000762939453
5.33,134.07530212402344,52.480899810791016,15.284584045410156,-222.89585876464844,-172.53445434570312,308.9632263183594,-25.500001907348633,-42.45000076293945,22.05000114440918
5.333,135.3394317626953,60.90849304199219,16.58702850341797,-155.48085021972656,-149.21897888183594,327.4823913574219,-25.500001907348633,-42.45000076293945,22.05000114440918
5.34,122.08513641357422,43.63193130493164,3.7924153804779053,-63.950992584228516,-151.084228515625,332.67840576171875,-24.150001525878906,-44.55000305175781,18.900001525878906
5.35,112.16355895996094,14.135366439819336,6.627150535583496,72.74425506591797,-160.94332885742188,333.477783203125,-24.450000762939453,-47.70000076293945,17.700000762939453
5.36,115.4579849243164,-16.433799743652344,27.121517181396484,186.12403869628906,-177.33078002929688,321.7534484863281,-24.30000114440918,-48.30000305175781,18.0
5.37,114.73014831542969,-10.649409294128418,41.639957427978516,319.6217346191406,-150.6845245361328,352.9295349121094,-24.450000762939453,-48.45000076293945,17.700000762939453
5.39,85.00373840332031,-4.022258758544922,44.78114700317383,364.6539001464844,-108.983154296875,372.781005859375,-24.450000762939453,-48.45000076293945,17.700000762939453
5.394,56.34992980957031,-23.865402221679688,63.97306823730469,202.3782501220703,-61.01990509033203,237.81776428222656,-25.200000762939453,-51.150001525878906,17.700000762939453
5.4,36.736629486083984,-58.9548225402832,34.01681900024414,152.41653442382812,-30.509952545166016,177.73046875,-24.450000762939453,-51.150001525878906,17.700000762939453
5.41,34.55311965942383,-53.74504089355469,32.484527587890625,64.88361358642578,-23.581928253173828,102.45481872558594,-25.05000114440918,-52.500003814697266,17.55000114440918
5.42,50.48892593383789,-24.13355255126953,35.5874137878418,21.183767318725586,-0.39969372749328613,0.5329249501228333,-25.05000114440918,-54.000003814697266,18.75
5.43,54.166419982910156,12.679692268371582,31.143775939941406,38.77029037475586,9.192955017089844,-52.226646423339844,-25.05000114440918,-54.000003814697266,18.75
5.45,44.74283981323242,34.85957717895508,29.84132957458496,67.68146514892578,28.24502182006836,-95.9264907836914,-25.05000114440918,-54.000003814697266,18.75
5.453,32.44622039794922,32.21637725830078,24.938005447387695,106.71822357177734,50.22817611694336,-174.26646423339844,-27.000001907348633,-54.45000076293945,15.750000953674316
5.46,23.02264404296875,10.189722061157227,17.276559829711914,113.11331939697266,54.35834503173828,-218.23277282714844,-27.900001525878906,-54.60000228881836,17.100000381469727
5.47,21.56696891784668,-4.367023944854736,19.153614044189453,100.05665588378906,59.82082748413086,-276.4548034667969,-29.55000114440918,-53.70000076293945,15.750000953674316
5.48,21.56696891784668,-18.54069709777832,19.766529083251953,69.4134750366211,72.74425506591797,-349.06585693359375,-30.900001525878906,-55.35000228881836,17.100000381469727
5.49,21.26051139831543,-19.460071563720703,18.272546768188477,36.238895416259766,89.93108367919922,-406.08880615234375,-30.900001525878906,-55.35000228881836,17.100000381469727
5.51,21.87342643737793,-9.117119789123535,14.480132102966309,23.98162269592285,111.781005859375,-425.9402770996094,-35.400001525878906,-53.85000228881836,17.400001525878906
5.514,22.06496238708496,-2.1068975925445557,15.054739952087402,49.02909469604492,129.50076293945312,-508.54364013671875,-35.55000305175781,-53.250003814697266,16.5
5.52,29.917943954467773,-0.8810662031173706,17.544710159301758,53.42572784423828,145.2220458984375,-523.9984741210938,-39.45000076293945,-50.400001525878906,16.650001525878906
5.53,35.66402816772461,-8.925583839416504,18.847156524658203,47.430320739746094,148.15313720703125,-560.1041259765625,-41.70000076293945,-50.400001525878906,17.100000381469727
5.54,43.74685287475586,-25.5892276763916,21.605276107788086,22.915773391723633,159.74424743652344,-589.814697265625,-41.70000076293945,-50.400001525878906,17.100000381469727
5.55,50.25908279418945,-37.043087005615234,21.56696891784668,-19.98468589782715,168.1378173828125,-621.9234008789062,-46.5,-45.150001525878906,18.30000114440918
5.57,55.85193634033203,-37.387855529785156,20.41775131225586,-53.69218826293945,183.99234008789062,-654.4318237304688,-48.30000305175781,-44.400001525878906,20.100000381469727
5.574,62.63231658935547,-31.83330535888672,18.923770904541016,-61.15313720703125,201.84532165527344,-673.7503662109375,-53.55000305175781,-41.70000076293945,18.75
5.58,78.18505096435547,-28.768728256225586,12.066776275634766,-65.15007781982422,214.50228881835938,-678.4134521484375,-56.250003814697266,-37.80000305175781,20.55000114440918
5.59,85.38681030273438,-30.569168090820312,13.292608261108398,-73.41041564941406,225.2940216064453,-687.7396240234375,-56.250003814697266,-37.80000305175781,20.55000114440918
5.6,93.50794219970703,-34.93619155883789,11.875240325927734,-79.0061264038086,221.96324157714844,-693.2021484375,-60.750003814697266,-30.900001525878906,22.80000114440918
5.61,96.45759582519531,-39.226600646972656,9.921571731567383,-102.45481872558594,225.56048583984375,-687.073486328125,-62.70000076293945,-26.400001525878906,23.700000762939453
5.629,98.52619171142578,-35.204341888427734,6.933608055114746,-120.84072875976562,240.0826873779297,-673.8836059570312,-64.6500015258789,-22.5,24.750001907348633
5.633,104.42549896240234,-27.313053131103516,3.2178070545196533,-102.72128295898438,255.1378173828125,-669.6201782226562,-67.05000305175781,-15.450000762939453,26.850000381469727
5.64,114.07892608642578,-22.218191146850586,4.098873138427734,-83.26952362060547,252.3399658203125,-664.15771484375,-67.05000305175781,-15.450000762939453,26.850000381469727
5.65,117.48826599121094,-21.75850486755371,2.9879636764526367,-56.889739990234375,252.60643005371094,-646.7044067382812,-67.05000305175781,-15.450000762939453,26.850000381469727
5.66,121.89360046386719,-23.099258422851562,-1.37906014919281,-48.49617004394531,249.6753387451172,-637.3782348632812,-66.30000305175781,0.0,31.950000762939453
5.67,124.91986846923828,-20.609289169311523,-6.627150535583496,-17.986217498779297,231.55589294433594,-619.5252685546875,-64.6500015258789,3.6000001430511475,35.85000228881836
5.69,129.78488159179688,-15.054739952087402,-12.02846908569336,37.70444107055664,213.56967163085938,-591.9464111328125,-63.150001525878906,9.450000762939453,36.900001525878906
5.694,132.69622802734375,-11.530475616455078,-18.54069709777832,103.65390014648438,202.511474609375,-555.8406982421875,-61.80000305175781,14.250000953674316,38.55000305175781
5.7,136.68019104003906,-28.960264205932617,-18.923770904541016,115.91117858886719,193.18528747558594,-551.8438110351562,-61.80000305175781,14.250000953674316,38.55000305175781
5.71,138.2124786376953,-37.694313049316406,-14.824896812438965,127.63552856445312,165.2067413330078,-508.410400390625,-56.55000305175781,25.05000114440918,40.80000305175781
5.72,136.79510498046875,-36.430171966552734,-15.016432762145996,156.94639587402344,139.35987854003906,-454.5849914550781,-53.400001525878906,29.55000114440918,42.45000076293945
5.73,126.64369201660156,-38.307228088378906,-17.966089248657227,172.00152587890625,142.02450561523438,-395.4302978515625,-49.500003814697266,31.950000762939453,42.30000305175781
5.749,116.53058624267578,-60.257266998291016,-12.02846908569336,144.68911743164062,134.83001708984375,-316.29095458984375,-47.400001525878906,36.150001525878906,42.0
5.753,114.11723327636719,-94.04424285888672,-8.006210327148438,40.23583221435547,92.46247863769531,-195.71669006347656,-47.400001525878906,36.150001525878906,42.0
5.76,118.02456665039062,-117.02857971191406,-20.456058502197266,-23.581928253173828,55.55742645263672,-134.83001708984375,-40.20000076293945,40.650001525878906,40.650001525878906
5.77,113.54261779785156,-106.60901641845703,-26.508602142333984,-50.89433288574219,4.396630764007568,-25.980091094970703,-38.25,42.45000076293945,41.85000228881836
5.78,105.30656433105469,-73.0518798828125,-28.807035446166992,-26.113323211669922,-30.90964698791504,63.81776428222656,-35.400001525878906,41.55000305175781,41.70000076293945
5.79,100.78631591796875,-51.94459915161133,-25.052927017211914,31.575803756713867,-59.15467071533203,155.747314453125,-37.20000076293945,43.05000305175781,42.0
5.809,98.37296295166016,-51.44660568237305,-18.387468338012695,57.55589294433594,-78.47319793701172,236.88514709472656,-37.20000076293945,43.05000305175781,42.0
5.813,93.58455657958984,-59.5677375793457,-17.00840950012207,59.95405578613281,-89.66461944580078,288.3124084472656,-36.75,42.45000076293945,41.55000305175781
5.82,94.38900756835938,-54.894256591796875,-16.81687355041504,56.356815338134766,-98.72434997558594,306.2986145019531,-37.95000076293945,41.55000305175781,40.650001525878906
5.83,92.51195526123047,-43.24885940551758,-15.85919189453125,66.61561584472656,-68.34762573242188,319.4884948730469,-38.400001525878906,41.55000305175781,38.70000076293945
5.84,77.1124496459961,-17.659631729125977,20.30282974243164,59.4211311340332,46.63093185424805,260.2005920410156,-40.05000305175781,39.30000305175781,39.30000305175781
5.85,81.441162109375,17.238252639770508,204.1009063720703,-422.20977783203125,-235.0198974609375,126.16998291015625,-40.05000305175781,39.30000305175781,39.30000305175781
5.87,248.3457489013672,102.47183227539062,-4.903325080871582,-121.77335357666016,-162.27565002441406,362.2557373046875,-40.05000305175781,39.30000305175781,39.30000305175781
5.873,143.88194274902344,76.537841796875,-127.14168548583984,189.32159423828125,-1.7320060729980469,394.63092041015625,-43.5,35.10000228881836,36.75
5.88,36.04710006713867,2.911349296569824,34.32327651977539,223.56201171875,-48.362937927246094,400.6263427734375,-43.5,35.10000228881836,36.75
5.89,41.448421478271484,-34.9744987487793,46.811431884765625,180.3950958251953,-57.289432525634766,336.5421142578125,-44.400001525878906,31.80000114440918,37.650001525878906
5.9,36.2003288269043,-69.02962493896484,36.8515510559082,116.71056365966797,-18.78560447692871,271.2587890625,-45.75,33.150001525878906,36.30000305175781
5.91,45.66221618652344,-49.64616775512695,61.138336181640625,100.58958435058594,-35.972434997558594,289.9111633300781,-45.75,33.150001525878906,36.30000305175781
5.93,94.92530822753906,-67.5739517211914,60.985107421875,83.00305938720703,-72.87748718261719,248.60948181152344,-48.45000076293945,30.30000114440918,34.650001525878906
5.933,72.28573608398438,-54.97087097167969,20.41775131225586,-13.722817420959473,-69.81317138671875,168.67074584960938,-46.05000305175781,28.950000762939453,31.950000762939453
5.94,67.15257263183594,-31.565155029296875,15.667655944824219,-51.560489654541016,-64.61714935302734,164.27410888671875,-46.05000305175781,28.950000762939453,31.950000762939453
5.95,67.76548767089844,-7.7763671875,4.137180328369141,-41.434913635253906,-63.551300048828125,187.1898956298828,-46.80000305175781,28.500001907348633,33.75
5.96,84.12267303466797,-3.6391866207122803,-12.526463508605957,-36.238895416259766,-54.22511291503906,171.60183715820312,-46.80000305175781,28.500001907348633,33.75
5.97,86.88079071044922,-14.748282432556152,-13.752294540405273,-38.37059783935547,-24.914241790771484,147.0872802734375,-48.45000076293945,25.200000762939453,31.80000114440918
5.989,76.15476989746094,-26.2021427154541,-13.330915451049805,-28.911178588867188,3.597243309020996,123.50535583496094,-49.80000305175781,23.55000114440918,31.500001907348633
5.993,73.89463806152344,-0.5746083855628967,8.810662269592285,-34.373661041259766,7.327718257904053,121.3736572265625,-49.80000305175781,23.100000381469727,31.500001907348633
6.0,78.56812286376953,2.1068975925445557,14.058752059936523,-18.2526798248291,3.7304747104644775,134.69677734375,-49.80000305175781,23.100000381469727,31.500001907348633
6.01,80.36856079101562,-1.800439715385437,14.863204002380371,-17.186830520629883,9.859111785888672,115.11178588867188,-49.80000305175781,23.100000381469727,31.500001907348633
6.02,78.68304443359375,-5.363011837005615,14.633360862731934,-0.1332312375307083,17.053598403930664,110.71515655517578,-49.95000076293945,23.700000762939453,31.05000114440918
6.03,71.67282104492188,-13.445837020874023,23.367408752441406,-2.9310872554779053,5.995405673980713,87.9326171875,-52.05000305175781,21.900001525878906,31.950000762939453
6.049,73.47325897216797,-20.83913230895996,18.579004287719727,-5.8621745109558105,0.0,81.40428924560547,-52.05000305175781,21.150001525878906,33.45000076293945
6.053,80.44517517089844,-12.449849128723145,13.445837020874023,-4.263399600982666,8.926492691040039,70.74578857421875,-52.95000076293945,21.0,32.10000228881836
6.06,78.72135162353516,-13.21599292755127,11.262324333190918,-2.131699800491333,10.791729927062988,62.75191116333008,-52.95000076293945,21.0,32.10000228881836
6.07,77.03583526611328,-9.193734169006348,9.078812599182129,-7.327718257904053,13.189892768859863,68.88054656982422,-51.000003814697266,18.450000762939453,32.10000228881836
6.08,78.03182220458984,-15.399505615234375,17.889474868774414,-28.77794647216797,17.453292846679688,59.15467071533203,-53.70000076293945,19.05000114440918,30.30000114440918
6.09,78.45320129394531,-15.591041564941406,13.21599292755127,-24.248085021972656,10.658498764038086,73.27718353271484,-51.45000076293945,18.75,32.55000305175781
6.103,74.20109558105469,-8.734047889709473,16.510414123535156,-11.324655532836914,18.2526798248291,55.82388687133789,-52.95000076293945,19.5,31.350000381469727
6.11,74.39263153076172,-3.064578056335449,16.931795120239258,1.3323123455047607,6.395099639892578,58.62174606323242,-52.95000076293945,19.5,31.350000381469727
6.12,79.52580261230469,-4.903325080871582,22.448034286499023,-10.791729927062988,12.390504837036133,66.34915924072266,-52.80000305175781,16.950000762939453,31.950000762939453
6.13,76.99752807617188,-12.373234748840332,20.800825119018555,-8.526799201965332,3.197549819946289,74.07656860351562,-52.500003814697266,16.5,32.70000076293945
6.14,78.03182220458984,-23.175872802734375,15.667655944824219,-33.4410400390625,8.660030364990234,53.29249572753906,-51.900001525878906,17.55000114440918,32.55000305175781
6.15,74.43093872070312,-21.56696891784668,15.399505615234375,-54.091880798339844,17.719755172729492,51.693721771240234,-52.20000076293945,16.350000381469727,32.10000228881836
6.169,75.9632339477539,-18.387468338012695,17.276559829711914,-70.21286010742188,19.31852912902832,47.830013275146484,-52.20000076293945,16.350000381469727,32.10000228881836
6.173,79.6024169921875,-7.469909191131592,17.238252639770508,-63.018375396728516,11.324655532836914,51.82695007324219,-54.750003814697266,15.750000953674316,32.25
6.18,79.41088104248047,-6.780379295349121,14.67166805267334,-49.16232681274414,11.191424369812012,53.159263610839844,-52.20000076293945,15.600000381469727,33.30000305175781
6.19,78.29997253417969,-3.9839515686035156,15.399505615234375,-27.045940399169922,7.594180583953857,62.485450744628906,-54.45000076293945,15.600000381469727,34.35000228881836
6.2,77.22737121582031,-7.240066051483154,14.173673629760742,-14.92189884185791,8.793261528015137,54.75803756713867,-53.70000076293945,14.40000057220459,33.900001525878906
6.218,72.93695831298828,-8.887276649475098,16.778566360473633,-10.525267601013184,11.857580184936523,66.21592712402344,-53.70000076293945,14.40000057220459,33.900001525878906
6.222,75.00555419921875,-10.84094524383545,18.962078094482422,-13.323123931884766,11.990811347961426,65.54976654052734,-54.45000076293945,14.100000381469727,33.60000228881836
6.23,76.80599212646484,-9.500192642211914,21.605276107788086,-8.39356803894043,10.392036437988281,71.41194152832031,-54.30000305175781,11.550000190734863,34.20000076293945
6.24,77.99351501464844,-8.465897560119629,21.45204734802246,3.3307809829711914,-5.462480545043945,84.20214080810547,-54.750003814697266,12.750000953674316,33.45000076293945
6.25,76.61445617675781,-7.163451671600342,22.984336853027344,6.9280242919921875,-10.791729927062988,88.59877014160156,-54.750003814697266,13.800000190734863,33.0
6.26,77.61044311523438,-8.274360656738281,21.605276107788086,-3.0643184185028076,-6.5283308029174805,103.12097930908203,-53.250003814697266,13.050000190734863,33.75
6.27,75.3503189086914,-2.719813108444214,21.222204208374023,-5.329249382019043,-14.522205352783203,114.71209716796875,-53.250003814697266,13.050000190734863,33.75
6.286,75.81000518798828,-8.006210327148438,24.44001007080078,-37.4379768371582,-8.660030364990234,118.8422622680664,-54.150001525878906,11.700000762939453,33.30000305175781
6.29,75.50354766845703,-13.905523300170898,27.925968170166016,-49.56201934814453,-3.7304747104644775,125.50382232666016,-54.150001525878906,10.5,33.60000228881836
6.3,78.91288757324219,-17.62132453918457,25.167848587036133,-59.55436325073242,-21.716691970825195,147.62020874023438,-55.80000305175781,10.800000190734863,33.75
6.31,77.99351501464844,-21.030668258666992,17.42978858947754,-81.27105712890625,-22.782541275024414,151.48391723632812,-54.000003814697266,7.200000286102295,34.20000076293945
6.32,79.5641098022461,-19.115306854248047,16.58702850341797,-93.66156005859375,-23.182235717773438,157.0796356201172,-54.000003814697266,7.200000286102295,34.20000076293945
6.339,81.24962615966797,-16.012420654296875,18.04270362854004,-98.05818939208984,-27.445634841918945,172.80091857910156,-55.95000076293945,7.500000476837158,33.900001525878906
6.343,81.97746276855469,-11.683704376220703,17.085023880004883,-79.2725830078125,-44.76569747924805,184.79173278808594,-54.750003814697266,6.900000095367432,32.70000076293945
6.35,82.97345733642578,-13.139378547668457,10.496180534362793,-62.35221862792969,-56.22358322143555,196.24961853027344,-57.30000305175781,5.400000095367432,31.500001907348633
6.36,83.16499328613281,-18.081010818481445,12.02846908569336,-67.68146514892578,-52.75957107543945,190.65390014648438,-55.20000076293945,2.8500001430511475,33.60000228881836
6.37,86.30618286132812,-24.286781311035156,11.836933135986328,-74.07656860351562,-70.21286010742188,188.65542602539062,-55.20000076293945,2.8500001430511475,33.60000228881836
6.38,89.8304443359375,-26.048913955688477,12.066776275634766,-65.41653442382812,-97.25880432128906,202.9111785888672,-58.20000076293945,3.6000001430511475,32.10000228881836
6.399,94.5039291381836,-25.052927017211914,16.81687355041504,-67.41500854492188,-96.32618713378906,201.9785614013672,-54.900001525878906,1.6500000953674316,29.850000381469727
6.404,95.23176574707031,-16.433799743652344,14.97812557220459,-37.70444107055664,-118.97549438476562,224.22817993164062,-58.20000076293945,-0.45000001788139343,31.05000114440918
6.41,95.53822326660156,-16.012420654296875,14.36521053314209,-30.110260009765625,-121.3736572265625,238.88360595703125,-57.750003814697266,-2.700000047683716,28.650001525878906
6.42,97.10881805419922,-19.38345718383789,12.258312225341797,-41.168453216552734,-138.56048583984375,247.01071166992188,-57.750003814697266,-2.700000047683716,28.650001525878906
6.43,99.36894989013672,-25.435998916625977,12.29662036895752,-70.87902069091797,-130.56661987304688,244.87901306152344,-56.400001525878906,-5.100000381469727,27.750001907348633
6.44,100.74800872802734,-29.95625114440918,14.97812557220459,-96.59264373779297,-134.03062438964844,256.4701232910156,-57.30000305175781,-4.950000286102295,28.200000762939453
6.46,102.58675384521484,-24.13355255126953,14.518439292907715,-98.85757446289062,-141.89126586914062,273.1240234375,-58.05000305175781,-6.450000286102295,26.850000381469727
6.463,102.8932113647461,-21.56696891784668,16.47210693359375,-106.4517593383789,-139.09341430664062,277.1209716796875,-57.45000076293945,-8.25,27.30000114440918
6.47,101.93553161621094,-30.79901123046875,12.181697845458984,-132.9647674560547,-134.16384887695312,266.9953918457031,-57.45000076293945,-8.25,27.30000114440918
6.48,103.31459045410156,-34.70634841918945,11.262324333190918,-158.14547729492188,-144.68911743164062,266.72894287109375,-57.45000076293945,-8.25,27.30000114440918
6.49,107.6050033569336,-29.84132957458496,10.15141487121582,-168.5375213623047,-146.0214385986328,256.20367431640625,-57.150001525878906,-12.450000762939453,22.200000762939453
6.5,112.96800994873047,-22.17988395690918,11.60708999633789,-183.1929473876953,-147.0872802734375,259.4012145996094,-57.30000305175781,-15.450000762939453,21.600000381469727
6.521,113.92569732666016,-15.591041564941406,10.764330863952637,-209.70596313476562,-139.7595672607422,245.14547729492188,-56.70000076293945,-15.90000057220459,20.400001525878906
6.524,115.30475616455078,-11.875240325927734,7.048529624938965,-260.6003112792969,-139.35987854003906,239.016845703125,-55.650001525878906,-18.75,19.200000762939453
6.53,124.19203186035156,5.477933406829834,4.022258758544922,-287.646240234375,-143.4900360107422,248.7427215576172,-55.650001525878906,-18.75,19.200000762939453
6.54,127.14168548583984,16.318878173828125,2.3750481605529785,-297.7718200683594,-152.54977416992188,251.94027709960938,-55.650001525878906,-21.75,16.350000381469727
6.55,131.8534698486328,36.621707916259766,8.848969459533691,-280.7182312011719,-156.679931640625,251.80703735351562,-54.750003814697266,-22.350000381469727,15.450000762939453
6.56,129.36351013183594,61.90447998046875,12.143390655517578,-209.83920288085938,-149.3522186279297,272.19140625,-52.500003814697266,-25.80000114440918,13.500000953674316
6.58,121.20406341552734,64.77751922607422,8.848969459533691,-41.035221099853516,-157.34608459472656,310.8284912109375,-54.30000305175781,-24.30000114440918,14.250000953674316
6.584,115.30475616455078,27.389667510986328,-2.298433542251587,144.1562042236328,-191.58651733398438,351.4640197753906,-54.30000305175781,-24.30000114440918,14.250000953674316
6.59,118.10118103027344,-32.063148498535156,23.13756561279297,178.39662170410156,-189.32159423828125,321.0872802734375,-51.900001525878906,-27.900001525878906,10.350000381469727
6.6,119.44193267822266,-24.938005447387695,32.676063537597656,254.60488891601562,-160.54364013671875,294.30780029296875,-51.150001525878906,-29.100000381469727,10.350000381469727
6.61,97.0322036743164,9.998186111450195,48.765098571777344,350.93109130859375,-128.96783447265625,318.8223571777344,-49.650001525878906,-30.600000381469727,9.75
6.62,63.85814666748047,14.211980819702148,49.416324615478516,380.241943359375,-96.99234008789062,327.3491516113281,-48.150001525878906,-30.30000114440918,7.800000190734863
6.64,36.54509353637695,-8.695740699768066,54.702720642089844,317.3568115234375,-90.4640121459961,265.9295349121094,-48.150001525878906,-30.30000114440918,7.800000190734863
6.643,37.387855529785156,-56.46485137939453,47.04127502441406,211.9709014892578,-39.569679260253906,111.11485290527344,-45.45000076293945,-34.95000076293945,7.050000190734863
6.65,50.60384750366211,-47.04127502441406,42.40610122680664,145.48851013183594,-42.76722717285156,55.15773391723633,-45.150001525878906,-34.20000076293945,5.25
6.66,57.99714279174805,-24.66985511779785,38.49876403808594,79.53904724121094,-27.17917251586914,-25.846860885620117,-43.05000305175781,-33.60000228881836,5.400000095367432
6.67,50.83369064331055,0.9959878921508789,27.542896270751953,53.95865249633789,-0.1332312375307083,-79.40581512451172,-42.0,-35.10000228881836,5.100000381469727
6.68,36.430171966552734,8.848969459533691,26.585216522216797,61.68606185913086,10.525267601013184,-132.16539001464844,-42.900001525878906,-34.5,3.0
6.7,29.688100814819336,6.473921298980713,23.3291015625,62.085758209228516,18.652372360229492,-185.0581817626953,-42.900001525878906,-34.5,3.0
6.704,28.423961639404297,3.1028854846954346,19.881450653076172,45.96477508544922,31.309341430664062,-256.6033630371094,-42.30000305175781,-32.85000228881836,3.6000001430511475
6.71,27.696125030517578,-6.167463779449463,18.617311477661133,41.701377868652344,40.635528564453125,-296.5727233886719,-42.30000305175781,-32.85000228881836,3.6000001430511475
6.72,25.627534866333008,-10.304644584655762,17.12333106994629,33.97396469116211,37.83767318725586,-339.7396545410156,-42.30000305175781,-33.150001525878906,3.9000000953674316
6.73,26.12552833557129,-12.756306648254395,16.778566360473633,14.255742073059082,65.68299865722656,-391.03369140625,-40.80000305175781,-30.900001525878906,2.5500001907348633
6.74,26.508602142333984,-13.369222640991211,16.05072784423828,9.859111785888672,80.73812866210938,-428.7381286621094,-40.80000305175781,-30.900001525878906,2.5500001907348633
6.76,28.309040069580078,-12.29662036895752,17.697938919067383,14.12251091003418,88.99846649169922,-452.85296630859375,-42.0,-31.200000762939453,1.350000023841858
6.764,34.476505279541016,-10.5344877243042,18.4257755279541,21.583459854125977,109.78253936767578,-488.15924072265625,-40.80000305175781,-25.80000114440918,2.1000001430511475
6.77,41.180267333984375,-14.709975242614746,18.4257755279541,24.248085021972656,118.8422622680664,-507.0780944824219,-40.80000305175781,-25.80000114440918,2.1000001430511475
6.78,43.55531692504883,-18.732234954833984,17.659631729125977,22.249616622924805,139.6263427734375,-546.6477661132812,-40.650001525878906,-25.200000762939453,1.6500000953674316
6.79,48.19049072265625,-26.43198585510254,19.115306854248047,28.511484146118164,154.41500854492188,-579.02294921875,-40.650001525878906,-25.200000762939453,1.6500000953674316
6.8,53.89826965332031,-26.508602142333984,17.42978858947754,33.70750427246094,162.1424102783203,-603.2710571289062,-42.0,-23.55000114440918,2.1000001430511475
6.82,63.81983947753906,-28.07919692993164,15.24627685546875,28.511484146118164,173.33384704589844,-611.264892578125,-43.80000305175781,-21.900001525878906,1.8000000715255737
6.824,73.74140930175781,-30.722396850585938,13.752294540405273,39.16998291015625,172.93414306640625,-622.056640625,-43.80000305175781,-18.450000762939453,2.8500001430511475
6.83,85.5783462524414,-32.52283477783203,11.377246856689453,37.57120895385742,177.06431579589844,-625.787109375,-43.80000305175781,-18.450000762939453,2.8500001430511475
6.84,91.13289642333984,-34.01681900024414,10.074800491333008,24.781009674072266,182.2603302001953,-633.6477661132812,-43.80000305175781,-18.450000762939453,2.8500001430511475
6.85,96.9555892944336,-37.15800857543945,10.266336441040039,13.856048583984375,184.1255645751953,-643.2404174804688,-45.75,-14.550000190734863,4.350000381469727
6.86,99.48387145996094,-37.502777099609375,8.848969459533691,7.594180583953857,178.92955017089844,-627.3859252929688,-46.05000305175781,-13.800000190734863,5.100000381469727
6.88,100.63308715820312,-36.50678634643555,11.224017143249512,-16.520673751831055,195.050537109375,-636.1791381835938,-47.70000076293945,-11.700000762939453,4.200000286102295
6.883,103.73596954345703,-35.089420318603516,12.48815631866455,-59.02143859863281,200.91270446777344,-635.3797607421875,-49.05000305175781,-6.900000095367432,6.150000095367432
6.89,109.4820556640625,-32.063148498535156,12.48815631866455,-73.0107192993164,211.1715087890625,-638.0443725585938,-49.05000305175781,-6.900000095367432,6.150000095367432
6.9,111.24418640136719,-28.960264205932617,13.48414421081543,-93.66156005859375,212.23736572265625,-637.6447143554688,-49.05000305175781,-6.900000095367432,6.150000095367432
6.91,116.10920715332031,-27.427974700927734,6.703764915466309,-84.86830139160156,213.8361358642578,-628.7182006835938,-51.000003814697266,-2.25,8.700000762939453
6.92,119.86331176757812,-24.938005447387695,3.3710360527038574,-83.80245208740234,225.42726135253906,-626.0535888671875,-49.500003814697266,4.5,12.750000953674316
6.939,125.91585540771484,-26.585216522216797,0.8044517636299133,-84.33537292480469,220.6309356689453,-613.5298461914062,-49.20000076293945,7.800000190734863,14.850000381469727
6.943,140.54920959472656,-25.89568519592285,-14.211980819702148,-80.73812866210938,207.0413360595703,-576.22509765625,-49.20000076293945,7.800000190734863,14.850000381469727
6.95,135.49266052246094,-23.980323791503906,-16.127342224121094,-54.75803756713867,189.9877471923828,-543.5834350585938,-47.70000076293945,14.40000057220459,17.400001525878906
6.96,130.81918334960938,-21.298818588256836,-21.26051139831543,-11.191424369812012,163.20826721191406,-495.3537292480469,-46.80000305175781,16.5,20.850000381469727
6.97,128.7122802734375,-21.643583297729492,-23.903709411621094,43.69984436035156,143.62327575683594,-436.73199462890625,-45.75,19.650001525878906,20.850000381469727
6.98,126.56707763671875,-31.258697509765625,-23.558944702148438,82.7365951538086,145.2220458984375,-363.05511474609375,-43.650001525878906,24.150001525878906,22.950000762939453
6.999,115.57290649414062,-55.698707580566406,-15.85919189453125,82.20367431640625,132.56507873535156,-297.37213134765625,-43.650001525878906,24.150001525878906,22.950000762939453
7.004,109.71189880371094,-78.03182220458984,-17.276559829711914,36.372127532958984,85.00152587890625,-169.33689880371094,-40.20000076293945,27.150001525878906,22.950000762939453
7.01,109.13729095458984,-90.8264389038086,-29.917943954467773,24.51454734802246,55.69065856933594,-109.11638641357422,-37.650001525878906,28.350000381469727,24.450000762939453
7.02,108.75421905517578,-84.314208984375,-34.55311965942383,36.10566711425781,20.784072875976562,-17.053598403930664,-38.25,29.700000762939453,24.600000381469727
7.03,106.83885955810547,-65.62027740478516,-35.702335357666016,89.66461944580078,-17.053598403930664,74.60948944091797,-38.400001525878906,29.100000381469727,25.200000762939453
7.04,101.0544662475586,-54.894256591796875,-31.10546875,131.7657012939453,-46.364471435546875,170.4027557373047,-38.400001525878906,29.100000381469727,25.200000762939453
7.059,96.72574615478516,-57.76729965209961,-20.685903549194336,156.679931640625,-75.27565002441406,233.0214385986328,-36.0,29.250001907348633,24.600000381469727
7.063,92.43534088134766,-58.07375717163086,-10.84094524383545,143.4900360107422,-84.60183715820312,294.4410400390625,-38.70000076293945,29.55000114440918,23.700000762939453
7.07,92.32041931152344,-53.59181213378906,-8.887276649475098,149.3522186279297,-94.19448852539062,315.62481689453125,-39.75,28.200000762939453,24.150001525878906
7.08,89.52398681640625,-45.96867370605469,-0.26815059781074524,162.00918579101562,-23.04900360107422,327.6156005859375,-39.75,27.450000762939453,22.350000381469727
7.09,64.77751922607422,-35.28095626831055,71.71112823486328,-11.990811347961426,-21.050535202026367,235.0198974609375,-40.05000305175781,27.750001907348633,20.850000381469727
7.1,135.3394317626953,7.1251444816589355,195.1370086669922,-344.6692199707031,-222.76263427734375,185.0581817626953,-40.05000305175781,27.750001907348633,20.850000381469727
7.119,239.4967803955078,86.99571228027344,-87.64693450927734,83.93567657470703,-17.453292846679688,383.5727233886719,-42.150001525878906,24.900001525878906,21.75
7.122,47.96064758300781,5.899312973022461,5.631162166595459,122.43950653076172,-31.975496292114258,379.7090148925781,-42.150001525878906,24.900001525878906,21.75
7.131,47.615882873535156,-8.465897560119629,25.359384536743164,131.7657012939453,-54.22511291503906,358.2587890625,-42.900001525878906,24.150001525878906,22.5
7.141,42.82748031616211,-48.343719482421875,24.286781311035156,52.89280319213867,-42.101070404052734,236.3522186279297,-43.5,20.850000381469727,20.55000114440918
7.15,34.09343338012695,-48.152183532714844,34.20835494995117,43.30015182495117,-7.594180583953857,252.60643005371094,-43.5,20.850000381469727,20.55000114440918
7.16,59.031436920166016,-25.5892276763916,50.029239654541016,78.73966217041016,-29.7105655670166,296.7059631347656,-45.0,19.200000762939453,20.55000114440918
