time,accel_x,accel_y,accel_z,gyro_x,gyro_y,gyro_z,mag_x,mag_y,mag_z
0.0,79.33426666259766,-2.9879636764526367,-4.6734819412231445,-8.39356803894043,3.86370587348938,6.395099639892578,-33.0,-25.80000114440918,1.8000000715255737
0.004,79.44918823242188,-4.32871675491333,-11.568782806396484,-12.923430442810059,5.728943347930908,5.995405673980713,-33.0,-25.80000114440918,2.1000001430511475
0.011,77.84028625488281,-4.558559894561768,-10.72602367401123,-15.588054656982422,5.995405673980713,-3.0643184185028076,-31.950000762939453,-24.450000762939453,2.700000047683716
0.021,79.29595947265625,-3.332728862762451,-9.84495735168457,-8.660030364990234,-1.9984685182571411,10.258805274963379,-31.80000114440918,-24.750001907348633,2.1000001430511475
0.031,78.56812286376953,-3.485957622528076,-8.504204750061035,-5.462480545043945,1.9984685182571411,14.388973236083984,-31.950000762939453,-26.400001525878906,1.6500000953674316
0.041,77.26567840576172,-3.6774938106536865,-8.734047889709473,-11.591117858886719,6.9280242919921875,2.9310872554779053,-31.950000762939453,-26.400001525878906,1.6500000953674316
0.051,77.1507568359375,-2.6431987285614014,-9.346963882446289,-5.329249382019043,0.39969372749328613,15.721285820007324,-33.0,-25.500001907348633,1.8000000715255737
0.069,76.03984832763672,-1.647210717201233,-9.921571731567383,-7.9938740730285645,16.920366287231445,18.519142150878906,-32.55000305175781,-27.450000762939453,2.1000001430511475
0.073,76.34630584716797,-0.038307227194309235,-11.070788383483887,-0.39969372749328613,14.255742073059082,19.584991455078125,-32.55000305175781,-27.450000762939453,2.1000001430511475
0.081,76.15476989746094,-0.4213795065879822,-11.492168426513672,-6.661561965942383,18.385910034179688,19.98468589782715,-32.25,-25.80000114440918,1.8000000715255737
0.091,77.30398559570312,-0.1149216815829277,-11.262324333190918,-3.86370587348938,25.313934326171875,26.113323211669922,-32.55000305175781,-25.500001907348633,2.8500001430511475
0.101,77.49552154541016,-2.4133553504943848,-10.764330863952637,-1.1990811824798584,20.38437843322754,14.522205352783203,-32.55000305175781,-25.500001907348633,2.8500001430511475
0.12,77.53382873535156,-2.873042106628418,-10.687716484069824,5.062787055969238,21.84992218017578,29.444103240966797,-31.80000114440918,-25.500001907348633,3.3000001907348633
0.124,78.9511947631836,-4.8267107009887695,-11.492168426513672,14.788667678833008,13.189892768859863,30.509952545166016,-31.80000114440918,-25.80000114440918,3.3000001907348633
0.131,78.56812286376953,-5.171475887298584,-10.457873344421387,7.72741174697876,12.923430442810059,27.578866958618164,-31.200000762939453,-25.650001525878906,4.200000286102295
0.141,76.88260650634766,-4.750096321105957,-10.074800491333008,-1.7320060729980469,15.588054656982422,29.977027893066406,-31.500001907348633,-27.450000762939453,3.3000001907348633
0.151,78.4148941040039,-4.290409564971924,-10.457873344421387,-8.660030364990234,14.522205352783203,25.18070411682129,-31.500001907348633,-27.450000762939453,3.3000001907348633
0.161,76.88260650634766,-5.363011837005615,-9.998186111450195,-1.7320060729980469,12.124042510986328,37.57120895385742,-31.950000762939453,-26.850000381469727,2.25
0.18,78.10843658447266,-4.941632270812988,-10.611102104187012,-10.92496109008789,6.661561965942383,36.372127532958984,-31.80000114440918,-25.80000114440918,1.8000000715255737
0.184,78.60643005371094,-3.5625722408294678,-10.994174003601074,-6.5283308029174805,20.91730499267578,37.83767318725586,-30.900001525878906,-26.850000381469727,3.750000238418579
0.191,77.91690063476562,-1.6089035272598267,-10.342951774597168,-2.131699800491333,6.794793128967285,41.035221099853516,-33.0,-27.750001907348633,1.0500000715255737
0.201,78.52981567382812,-0.3064578175544739,-10.496180534362793,0.0,1.1990811824798584,26.513015747070312,-33.0,-27.750001907348633,1.0500000715255737
0.211,79.5641098022461,-0.5363011956214905,-8.65743350982666,-1.8652373552322388,15.987748146057129,53.95865249633789,-33.0,-27.000001907348633,3.3000001907348633
0.221,79.5641098022461,-0.9193734526634216,-10.036493301391602,-2.531393527984619,15.45482349395752,45.16539001464844,-31.05000114440918,-27.450000762939453,2.5500001907348633
0.241,79.98548889160156,-1.3407529592514038,-10.113107681274414,10.92496109008789,9.326186180114746,59.82082748413086,-32.55000305175781,-28.200000762939453,1.8000000715255737
0.244,79.94718170166016,-2.6431987285614014,-9.423578262329102,6.128636837005615,22.382848739624023,56.62327575683594,-31.500001907348633,-29.250001907348633,2.1000001430511475
0.251,79.67903137207031,-5.018246650695801,-9.078812599182129,11.457886695861816,19.98468589782715,55.02450180053711,-31.650001525878906,-27.900001525878906,4.200000286102295
0.261,81.82423400878906,-5.5545477867126465,-7.814674377441406,8.260336875915527,10.392036437988281,73.0107192993164,-31.650001525878906,-27.900001525878906,4.200000286102295
0.271,84.85050964355469,-6.435614109039307,-6.205770969390869,0.9326186776161194,15.987748146057129,77.80704498291016,-32.70000076293945,-29.100000381469727,2.700000047683716
0.281,86.38279724121094,-5.975927352905273,1.6089035272598267,-23.581928253173828,-0.9326186776161194,92.06278228759766,-31.200000762939453,-27.900001525878906,3.0
0.3,85.5400390625,-7.1251444816589355,5.324704647064209,-25.313934326171875,-35.839202880859375,102.72128295898438,-31.05000114440918,-29.700000762939453,1.8000000715255737
0.304,81.55608367919922,-9.193734169006348,-1.7621324062347412,-14.788667678833008,-35.972434997558594,88.33231353759766,-31.80000114440918,-28.500001907348633,2.1000001430511475
0.311,76.42292022705078,-14.901511192321777,-14.824896812438965,-16.12097930908203,-32.108726501464844,84.06890869140625,-31.80000114440918,-28.500001907348633,2.1000001430511475
0.321,73.20510864257812,-17.161638259887695,-17.73624610900879,-17.986217498779297,-13.856048583984375,80.60489654541016,-30.750001907348633,-31.200000762939453,1.350000023841858
0.331,73.43495178222656,-19.919757843017578,-17.50640296936035,-23.04900360107422,-17.32006072998047,78.3399658203125,-30.750001907348633,-30.450000762939453,3.6000001430511475
0.341,75.42693328857422,-18.23423957824707,-14.595053672790527,-24.51454734802246,-11.058192253112793,80.20520782470703,-31.05000114440918,-32.400001525878906,2.1000001430511475
0.36,80.44517517089844,-15.591041564941406,-12.449849128723145,-24.914241790771484,-9.992342948913574,85.66768646240234,-31.500001907348633,-32.400001525878906,2.5500001907348633
0.364,82.0923843383789,-14.173673629760742,-10.649409294128418,-9.592649459838867,-28.77794647216797,103.65390014648438,-31.500001907348633,-32.400001525878906,2.5500001907348633
0.371,80.90486145019531,-12.564770698547363,-8.427590370178223,-14.388973236083984,-31.176109313964844,103.7871322631836,-29.55000114440918,-31.200000762939453,0.6000000238418579
0.381,80.44517517089844,-12.986149787902832,-9.232041358947754,-13.722817420959473,-21.716691970825195,91.13016510009766,-27.750001907348633,-31.200000762939453,2.1000001430511475
0.391,76.537841796875,-13.943830490112305,-11.798625946044922,-10.258805274963379,-27.978559494018555,107.25114440917969,-30.750001907348633,-31.200000762939453,1.350000023841858
0.401,74.89063262939453,-15.85919189453125,-14.480132102966309,-6.661561965942383,-22.382848739624023,101.2557373046875,-30.150001525878906,-33.45000076293945,0.45000001788139343
0.42,73.77971649169922,-16.970102310180664,-15.629348754882812,-7.194486618041992,-10.92496109008789,93.12863159179688,-30.30000114440918,-32.85000228881836,2.1000001430511475
0.424,72.93695831298828,-16.35718536376953,-15.361198425292969,-14.655436515808105,-8.526799201965332,94.0612564086914,-30.000001907348633,-34.80000305175781,0.6000000238418579
0.431,73.89463806152344,-14.250288963317871,-14.786589622497559,-13.056661605834961,-4.130168437957764,90.99693298339844,-30.000001907348633,-34.80000305175781,0.6000000238418579
0.441,74.3160171508789,-12.986149787902832,-12.60307788848877,-9.592649459838867,0.5329249501228333,96.32618713378906,-28.650001525878906,-34.95000076293945,1.9500000476837158
0.451,78.10843658447266,-10.304644584655762,-11.492168426513672,-21.84992218017578,11.591117858886719,92.06278228759766,-28.05000114440918,-35.85000228881836,0.30000001192092896
0.461,81.32624053955078,-7.240066051483154,-8.848969459533691,-17.053598403930664,9.326186180114746,99.52373504638672,-27.900001525878906,-33.45000076293945,1.2000000476837158
0.48,85.11865997314453,-7.5848307609558105,-6.129156112670898,-14.255742073059082,0.2664624750614166,125.63705444335938,-28.200000762939453,-36.900001525878906,0.9000000357627869
0.484,83.7396011352539,-10.879252433776855,-14.709975242614746,-8.926492691040039,1.3323123455047607,123.2388916015625,-28.200000762939453,-35.70000076293945,0.15000000596046448
0.491,82.4371566772461,-13.21599292755127,-15.514427185058594,-6.395099639892578,2.2649309635162354,138.96017456054688,-28.200000762939453,-35.70000076293945,0.15000000596046448
0.501,79.41088104248047,-15.744270324707031,-18.732234954833984,1.0658499002456665,0.1332312375307083,161.6094970703125,-27.150001525878906,-37.20000076293945,0.9000000357627869
0.511,76.19307708740234,-18.157625198364258,-17.697938919067383,1.1990811824798584,-4.929555892944336,170.93568420410156,-27.150001525878906,-37.95000076293945,0.45000001788139343
0.53,74.92893981933594,-18.464082717895508,-14.901511192321777,4.663093090057373,4.263399600982666,171.3353729248047,-27.150001525878906,-37.95000076293945,0.45000001788139343
0.534,75.23539733886719,-18.808849334716797,-12.22000503540039,17.852985382080078,-4.130168437957764,183.99234008789062,-27.150001525878906,-37.20000076293945,0.15000000596046448
0.541,78.60643005371094,-20.11129379272461,-7.6997528076171875,13.323123931884766,-12.923430442810059,187.3231201171875,-27.150001525878906,-37.20000076293945,0.15000000596046448
0.551,77.99351501464844,-20.072986602783203,-9.921571731567383,23.581928253173828,-16.12097930908203,186.12403869628906,-27.000001907348633,-37.80000305175781,0.30000001192092896
0.561,75.58016204833984,-21.337125778198242,-15.437812805175781,21.45022964477539,7.327718257904053,188.52220153808594,-25.200000762939453,-39.900001525878906,-0.45000001788139343
0.571,73.81802368164062,-22.83110809326172,-16.395492553710938,15.854516983032227,3.7304747104644775,183.1929473876953,-24.750001907348633,-38.55000305175781,-0.30000001192092896
0.59,75.46524047851562,-26.278757095336914,-18.272546768188477,17.453292846679688,11.324655532836914,184.39202880859375,-24.750001907348633,-38.55000305175781,-0.30000001192092896
0.595,78.18505096435547,-27.313053131103516,-16.318878173828125,9.992342948913574,11.591117858886719,182.39356994628906,-23.400001525878906,-41.85000228881836,0.15000000596046448
0.601,83.54806518554688,-24.89969825744629,-12.986149787902832,1.7320060729980469,6.5283308029174805,186.65696716308594,-23.400001525878906,-41.85000228881836,0.15000000596046448
0.611,86.34449005126953,-22.639572143554688,-9.155426979064941,2.797856092453003,-22.51607894897461,197.9816131591797,-21.75,-42.900001525878906,0.0
0.621,85.42511749267578,-21.45204734802246,-7.814674377441406,4.663093090057373,-43.96630859375,206.1087188720703,-21.75,-42.900001525878906,0.0
0.631,81.55608367919922,-22.946029663085938,-14.786589622497559,-0.39969372749328613,-40.76875686645508,209.57273864746094,-21.75,-42.900001525878906,0.0
0.651,75.84831237792969,-28.155811309814453,-18.962078094482422,18.385910034179688,-47.297088623046875,219.0321502685547,-21.450000762939453,-43.80000305175781,0.45000001788139343
0.654,71.213134765625,-30.68408966064453,-17.92778205871582,14.255742073059082,-42.101070404052734,213.16998291015625,-20.400001525878906,-44.55000305175781,-0.15000000596046448
0.661,69.18285369873047,-34.66804122924805,-15.820884704589844,7.460949420928955,-43.69984436035156,219.83154296875,-21.450000762939453,-45.0,-0.45000001788139343
0.671,69.4126968383789,-38.99675750732422,-13.828908920288086,9.992342948913574,-53.95865249633789,234.62020874023438,-21.450000762939453,-45.0,-0.45000001788139343
0.681,68.99131774902344,-40.682273864746094,-12.105083465576172,5.728943347930908,-63.151607513427734,238.6171417236328,-19.200000762939453,-46.20000076293945,-2.25
0.691,69.29777526855469,-41.48672866821289,-13.752294540405273,-14.655436515808105,-63.28483963012695,233.82081604003906,-18.75,-46.650001525878906,-1.8000000715255737
0.71,71.2514419555664,-41.065345764160156,-9.27034854888916,-17.586523056030273,-69.01377868652344,248.60948181152344,-16.80000114440918,-46.650001525878906,-1.8000000715255737
0.714,68.7997817993164,-38.000770568847656,-15.322891235351562,-15.188361167907715,-65.68299865722656,257.4027404785156,-16.950000762939453,-47.70000076293945,-3.450000047683716
0.721,66.9610366821289,-38.49876403808594,-14.97812557220459,-7.06125545501709,-69.4134750366211,257.9356689453125,-16.650001525878906,-49.650001525878906,-2.700000047683716
0.731,63.05369567871094,-39.954437255859375,-15.284584045410156,-5.062787055969238,-67.814697265625,254.87135314941406,-16.650001525878906,-49.650001525878906,-2.700000047683716
0.741,61.21495056152344,-39.30321502685547,-12.411541938781738,0.5329249501228333,-67.5482406616211,260.7335205078125,-13.800000190734863,-49.500003814697266,-3.3000001907348633
0.751,59.98911666870117,-43.82346725463867,-8.197746276855469,9.192955017089844,-83.40275573730469,267.39508056640625,-12.750000953674316,-52.500003814697266,-2.1000001430511475
0.77,58.3419075012207,-50.41231155395508,-8.044517517089844,-1.5987749099731445,-75.8085708618164,270.7258605957031,-12.300000190734863,-50.250003814697266,-3.3000001907348633
0.774,54.281341552734375,-58.839900970458984,-14.595053672790527,0.7993874549865723,-69.28024291992188,264.59722900390625,-11.40000057220459,-52.650001525878906,-3.0
0.781,51.29337692260742,-60.64033889770508,-15.705963134765625,-8.526799201965332,-72.61102294921875,282.3169860839844,-11.40000057220459,-52.650001525878906,-3.0
0.791,47.615882873535156,-61.36817932128906,-19.230228424072266,-37.304744720458984,-44.49923324584961,273.7901916503906,-8.550000190734863,-53.70000076293945,-2.8500001430511475
0.801,43.86177444458008,-61.21495056152344,-20.494365692138672,-51.4272575378418,-28.911178588867188,280.185302734375,-7.200000286102295,-51.900001525878906,-4.950000286102295
0.811,42.63594436645508,-58.76328659057617,-22.026655197143555,-51.027565002441406,-24.64777946472168,290.0444030761719,-8.25,-52.95000076293945,-4.350000381469727
0.826,41.79318618774414,-53.59181213378906,-20.532672882080078,-53.82542037963867,-11.724349021911621,288.3124084472656,-6.0,-54.45000076293945,-5.100000381469727
0.831,45.62390899658203,-50.18246841430664,-17.12333106994629,-40.102603912353516,-16.25421142578125,299.90350341796875,-6.0,-54.45000076293945,-5.100000381469727
0.841,46.198516845703125,-48.535255432128906,-16.089035034179688,-25.04747200012207,-16.12097930908203,311.49462890625,-4.200000286102295,-54.30000305175781,-6.750000476837158
0.851,46.0452880859375,-49.07155990600586,-13.445837020874023,-11.058192253112793,-11.990811347961426,317.8897399902344,-1.9500000476837158,-55.35000228881836,-5.25
0.861,47.07958221435547,-49.837703704833984,-13.48414421081543,12.25727367401123,-18.2526798248291,315.0918884277344,-2.4000000953674316,-56.250003814697266,-6.300000190734863
0.871,47.2711181640625,-52.67243576049805,-14.250288963317871,21.050535202026367,-9.859111785888672,320.95404052734375,-0.15000000596046448,-56.250003814697266,-4.5
0.89,48.650177001953125,-53.553504943847656,-19.268535614013672,53.42572784423828,-1.8652373552322388,311.49462890625,0.0,-55.650001525878906,-3.9000000953674316
0.894,46.504974365234375,-52.67243576049805,-17.966089248657227,55.95711898803711,2.6646246910095215,303.2342834472656,0.0,-55.650001525878906,-3.9000000953674316
0.901,45.31745147705078,-53.43858337402344,-16.778566360473633,46.764163970947266,10.258805274963379,289.511474609375,3.450000047683716,-57.000003814697266,-4.950000286102295
0.911,42.674251556396484,-54.587799072265625,-15.016432762145996,44.23276901245117,29.31087303161621,269.7932434082031,3.1500000953674316,-56.55000305175781,-5.25
0.921,35.77894973754883,-57.38422775268555,-15.399505615234375,52.493106842041016,33.4410400390625,283.78253173828125,4.200000286102295,-55.35000228881836,-2.700000047683716
0.94,34.20835494995117,-60.7552604675293,-16.740259170532227,55.55742645263672,36.5053596496582,286.84686279296875,6.450000286102295,-57.30000305175781,-4.200000286102295
0.944,32.484527587890625,-59.83588790893555,-15.935806274414062,51.4272575378418,49.29555892944336,293.9081115722656,6.450000286102295,-57.30000305175781,-4.200000286102295
0.951,26.01060676574707,-62.249244689941406,-16.089035034179688,53.95865249633789,45.831546783447266,286.713623046875,7.500000476837158,-56.400001525878906,-2.8500001430511475
0.961,25.359384536743164,-65.16059112548828,-16.242263793945312,46.364471435546875,46.764163970947266,290.1776428222656,8.550000190734863,-57.150001525878906,-3.9000000953674316
0.971,23.060951232910156,-65.39043426513672,-18.617311477661133,49.96171569824219,62.35221862792969,285.2480773925781,9.0,-55.95000076293945,-4.650000095367432
0.981,22.333112716674805,-71.55789947509766,-20.685903549194336,33.04134750366211,69.94640350341797,301.23583984375,10.5,-58.650001525878906,-2.1000001430511475
1.001,23.44402313232422,-75.9632339477539,-20.685903549194336,18.2526798248291,67.01531219482422,316.4241943359375,10.5,-58.650001525878906,-2.1000001430511475
1.004,24.9763126373291,-76.95922088623047,-14.901511192321777,9.059723854064941,50.76110076904297,332.0122375488281,14.700000762939453,-55.80000305175781,-3.750000238418579
1.011,25.89568519592285,-78.989501953125,-12.526463508605957,3.7304747104644775,55.69065856933594,334.6768798828125,14.40000057220459,-57.30000305175781,-2.25
1.021,24.59324073791504,-78.45320129394531,-12.90953540802002,-11.457886695861816,48.22970962524414,342.1378173828125,16.950000762939453,-55.80000305175781,-4.5
1.031,23.75048065185547,-80.06210327148438,-12.22000503540039,-24.51454734802246,43.43338394165039,358.9249572753906,17.700000762939453,-56.250003814697266,-3.750000238418579
1.041,24.66985511779785,-82.89684295654297,-10.955866813659668,-33.57427215576172,36.63859176635742,329.0811462402344,16.80000114440918,-55.20000076293945,-4.350000381469727
1.06,21.643583297729492,-82.78192138671875,-14.211980819702148,-39.569679260253906,37.83767318725586,310.69525146484375,16.80000114440918,-55.20000076293945,-4.350000381469727
1.064,19.99637222290039,-83.7396011352539,-16.242263793945312,-33.17457962036133,26.513015747070312,331.3460998535156,19.80000114440918,-55.650001525878906,-2.5500001907348633
1.071,16.740259170532227,-81.97746276855469,-18.502389907836914,-41.701377868652344,25.7136287689209,317.8897399902344,20.55000114440918,-54.900001525878906,-2.8500001430511475
1.081,14.863204002380371,-81.59439086914062,-17.391481399536133,-41.967838287353516,33.17457962036133,297.10565185546875,22.05000114440918,-54.000003814697266,-4.350000381469727
1.091,12.181697845458984,-78.49150848388672,-18.77054214477539,-25.980091094970703,29.444103240966797,268.32769775390625,23.25,-55.20000076293945,-5.100000381469727
1.101,10.5344877243042,-74.7374038696289,-22.869415283203125,-14.788667678833008,38.90352249145508,275.5221862792969,23.25,-55.20000076293945,-5.100000381469727
1.12,6.703764915466309,-71.48128509521484,-23.099258422851562,-13.323123931884766,55.15773391723633,252.3399658203125,26.250001907348633,-52.500003814697266,-3.9000000953674316
1.124,9.959878921508789,-70.25545501708984,-20.76251792907715,7.327718257904053,51.4272575378418,251.94027709960938,25.950000762939453,-51.900001525878906,-3.0
1.131,10.457873344421387,-76.5761489868164,-17.697938919067383,29.31087303161621,42.76722717285156,227.29249572753906,28.200000762939453,-51.150001525878906,-5.25
1.141,9.461885452270508,-81.90084838867188,-18.502389907836914,36.63859176635742,32.37519073486328,217.1669158935547,29.55000114440918,-51.30000305175781,-3.6000001430511475
1.151,2.3367409706115723,-90.86474609375,-20.76251792907715,35.57273864746094,35.57273864746094,187.72280883789062,29.55000114440918,-51.30000305175781,-3.6000001430511475
1.161,-5.1331682205200195,-95.53822326660156,-19.536685943603516,30.110260009765625,13.58958625793457,166.1393585205078,29.400001525878906,-51.150001525878906,-3.450000047683716
1.181,-16.28057098388672,-100.63308715820312,-21.37543296813965,21.983154296875,3.9969370365142822,151.084228515625,30.000001907348633,-51.30000305175781,-3.6000001430511475
1.184,-25.5892276763916,-102.01214599609375,-20.570980072021484,13.323123931884766,-5.062787055969238,104.05359649658203,30.900001525878906,-50.85000228881836,-3.750000238418579
1.191,-35.6257209777832,-92.93333435058594,-21.98834800720215,1.5987749099731445,-15.188361167907715,109.11638641357422,30.900001525878906,-50.85000228881836,-3.750000238418579
1.201,-0.9576807022094727,-76.4995346069336,-21.0689754486084,17.453292846679688,-2.9310872554779053,54.75803756713867,31.80000114440918,-50.55000305175781,-4.350000381469727
1.211,-34.09343338012695,-84.77389526367188,-23.099258422851562,28.24502182006836,-3.0643184185028076,48.49617004394531,31.80000114440918,-50.55000305175781,-4.350000381469727
1.221,-37.617698669433594,-77.1507568359375,-21.183897018432617,47.163856506347656,-7.327718257904053,33.84073257446289,32.55000305175781,-49.05000305175781,-2.8500001430511475
1.24,-38.422149658203125,-76.19307708740234,-17.659631729125977,90.73047637939453,-6.261868000030518,9.059723854064941,31.650001525878906,-47.70000076293945,-2.700000047683716
1.243,-40.567352294921875,-69.9489974975586,-21.796812057495117,102.72128295898438,-0.1332312375307083,5.8621745109558105,34.95000076293945,-48.900001525878906,-1.2000000476837158
1.251,-40.145973205566406,-69.25946807861328,-23.903709411621094,134.83001708984375,2.9310872554779053,-2.131699800491333,34.95000076293945,-48.900001525878906,-1.2000000476837158
1.261,-41.5633430480957,-68.68486022949219,-23.788787841796875,172.93414306640625,13.323123931884766,-21.45022964477539,34.95000076293945,-48.900001525878906,-1.2000000476837158
1.271,-41.37180709838867,-70.98329162597656,-18.808849334716797,224.09494018554688,13.456355094909668,-33.30780792236328,32.70000076293945,-50.400001525878906,-1.2000000476837158
1.281,-39.07337188720703,-76.537841796875,-12.871228218078613,240.74884033203125,23.448698043823242,-51.693721771240234,32.70000076293945,-49.95000076293945,0.15000000596046448
1.294,-37.15800857543945,-88.71953582763672,-7.967903137207031,270.7258605957031,29.577335357666016,-63.28483963012695,32.400001525878906,-50.85000228881836,0.45000001788139343
1.301,-31.756690979003906,-100.17340087890625,0.38307225704193115,278.320068359375,23.715160369873047,-95.79325866699219,32.400001525878906,-50.85000228881836,0.45000001788139343
1.311,-29.64979362487793,-106.34086608886719,5.2480902671813965,259.93414306640625,20.784072875976562,-119.5084228515625,32.400001525878906,-50.85000228881836,0.45000001788139343
1.321,-24.171859741210938,-115.91767120361328,9.653421401977539,234.22052001953125,21.183767318725586,-138.42726135253906,32.400001525878906,-51.60000228881836,1.2000000476837158
1.331,-21.0689754486084,-119.44193267822266,7.814674377441406,215.83460998535156,22.649311065673828,-159.47779846191406,31.650001525878906,-51.900001525878906,3.0
1.35,-20.76251792907715,-116.18582153320312,3.064578056335449,203.44410705566406,27.445634841918945,-188.52220153808594,31.200000762939453,-49.95000076293945,3.750000238418579
1.354,-18.732234954833984,-109.55867004394531,2.719813108444214,199.44715881347656,29.7105655670166,-220.8973846435547,30.900001525878906,-52.650001525878906,4.950000286102295
1.361,-16.127342224121094,-102.85490417480469,5.439626216888428,184.92495727539062,44.09954071044922,-229.69065856933594,30.900001525878906,-52.650001525878906,4.950000286102295
1.371,-12.986149787902832,-100.78631591796875,8.542511940002441,187.72280883789062,39.43644714355469,-249.80856323242188,30.900001525878906,-52.650001525878906,4.950000286102295
1.381,-9.002198219299316,-99.17741394042969,10.994174003601074,187.85604858398438,33.4410400390625,-270.7258605957031,28.80000114440918,-53.70000076293945,5.100000381469727
1.391,-6.550535678863525,-98.21973419189453,10.189722061157227,191.0535888671875,32.108726501464844,-272.19140625,27.750001907348633,-54.45000076293945,5.100000381469727
1.411,-3.2561142444610596,-96.11283111572266,7.4316020011901855,205.04287719726562,27.31240463256836,-291.6431884765625,27.30000114440918,-52.95000076293945,6.600000381469727
1.415,-4.481945514678955,-94.5039291381836,7.929595947265625,217.30015563964844,38.10413360595703,-310.9617004394531,26.55000114440918,-54.900001525878906,6.150000095367432
1.421,-5.937620162963867,-90.71151733398438,7.738059997558594,223.9617156982422,40.76875686645508,-314.0260314941406,26.55000114440918,-54.900001525878906,6.150000095367432
1.431,-6.3973069190979,-90.51998138427734,8.236053466796875,223.82847595214844,51.693721771240234,-330.2802429199219,25.05000114440918,-54.900001525878906,9.450000762939453
1.441,-3.869029998779297,-90.74982452392578,15.322891235351562,214.23582458496094,38.77029037475586,-315.62481689453125,23.55000114440918,-55.20000076293945,11.700000762939453
1.451,1.4173674583435059,-94.96361541748047,22.103269577026367,195.84991455078125,35.57273864746094,-311.8943176269531,22.5,-56.70000076293945,10.200000762939453
1.47,2.8347349166870117,-97.79834747314453,18.195932388305664,178.79632568359375,31.44257164001465,-330.679931640625,22.5,-56.70000076293945,10.200000762939453
1.474,8.121131896972656,-97.14712524414062,15.820884704589844,175.9984588623047,24.381317138671875,-314.1592712402344,19.80000114440918,-56.400001525878906,12.450000762939453
1.481,16.089035034179688,-97.41527557373047,17.468095779418945,175.0658416748047,17.186830520629883,-302.03521728515625,19.80000114440918,-56.70000076293945,12.750000953674316
1.491,19.19192123413086,-98.06649780273438,20.264522552490234,168.9372100830078,12.523736000061035,-296.9724426269531,18.450000762939453,-56.250003814697266,13.350000381469727
1.501,25.244462966918945,-103.85089111328125,26.048913955688477,138.42726135253906,9.992342948913574,-300.30322265625,16.5,-57.60000228881836,14.250000953674316
1.511,24.554933547973633,-104.50211334228516,25.167848587036133,120.30780792236328,-13.456355094909668,-289.9111633300781,16.650001525878906,-57.30000305175781,15.600000381469727
1.53,22.333112716674805,-103.46781921386719,23.9420166015625,90.73047637939453,-9.059723854064941,-271.39202880859375,16.650001525878906,-57.30000305175781,15.600000381469727
1.534,17.697938919067383,-101.01615905761719,24.9763126373291,55.29096221923828,-9.326186180114746,-288.71209716796875,13.500000953674316,-57.60000228881836,15.750000953674316
1.541,16.203956604003906,-95.84468078613281,24.210166931152344,58.355281829833984,-12.25727367401123,-271.5252685546875,12.15000057220459,-57.30000305175781,15.90000057220459
1.551,17.50640296936035,-93.81439971923828,28.155811309814453,41.434913635253906,-10.92496109008789,-264.9969177246094,12.750000953674316,-58.35000228881836,15.750000953674316
1.561,15.629348754882812,-91.17120361328125,28.998571395874023,16.12097930908203,1.1990811824798584,-251.27410888671875,10.200000762939453,-57.000003814697266,17.100000381469727
1.571,18.157625198364258,-88.48969268798828,30.14778709411621,-1.1990811824798584,4.529861927032471,-241.54823303222656,10.200000762939453,-57.000003814697266,17.100000381469727
1.591,20.034679412841797,-90.21351623535156,32.02484130859375,-11.591117858886719,-6.5283308029174805,-248.34303283691406,9.300000190734863,-57.60000228881836,18.0
1.595,22.639572143554688,-88.6046142578125,27.27474594116211,-34.773353576660156,-15.854516983032227,-260.86676025390625,8.700000762939453,-55.35000228881836,17.400001525878906
1.601,23.44402313232422,-81.93915557861328,24.478317260742188,-47.297088623046875,-18.91883659362793,-264.4640197753906,8.40000057220459,-56.55000305175781,14.850000381469727
1.611,21.87342643737793,-76.99752807617188,23.673866271972656,-52.493106842041016,-26.113323211669922,-274.7228088378906,6.750000476837158,-56.400001525878906,16.5
1.621,19.19192123413086,-70.79175567626953,23.75048065185547,-59.02143859863281,-25.7136287689209,-272.19140625,6.750000476837158,-56.400001525878906,16.5
1.631,21.298818588256836,-62.09601593017578,25.70414924621582,-76.20826721191406,-31.176109313964844,-281.91729736328125,4.950000286102295,-57.000003814697266,16.350000381469727
1.65,24.9763126373291,-56.77130889892578,25.742456436157227,-79.67227935791016,-31.176109313964844,-282.7166748046875,5.550000190734863,-57.60000228881836,16.05000114440918
1.653,30.0711727142334,-42.1379508972168,17.238252639770508,-74.20980072021484,-41.701377868652344,-274.18988037109375,3.750000238418579,-56.400001525878906,16.80000114440918
1.661,30.224401473999023,-39.80120849609375,17.391481399536133,-64.21745300292969,-46.764163970947266,-265.6630859375,3.0,-55.20000076293945,16.05000114440918
1.671,32.02484130859375,-35.5874137878418,15.782577514648438,-57.55589294433594,-32.5084228515625,-256.3369140625,3.0,-55.20000076293945,16.05000114440918
1.681,34.62973403930664,-28.423961639404297,16.089035034179688,-27.71209716796875,-50.36140823364258,-230.62327575683594,3.0,-55.20000076293945,16.05000114440918
1.691,34.9744987487793,-28.653806686401367,15.361198425292969,-10.258805274963379,-46.764163970947266,-219.16539001464844,-0.15000000596046448,-55.35000228881836,16.350000381469727
1.709,38.34553527832031,-29.64979362487793,17.276559829711914,29.044410705566406,-57.55589294433594,-217.1669158935547,-0.75,-54.000003814697266,16.5
1.713,42.44440841674805,-36.04710006713867,22.2948055267334,36.372127532958984,-67.5482406616211,-216.10107421875,-0.75,-54.000003814697266,16.5
1.721,42.865787506103516,-38.307228088378906,22.754493713378906,26.113323211669922,-61.9525260925293,-219.29861450195312,-3.0,-54.900001525878906,14.700000762939453
1.731,42.48271560668945,-43.63193130493164,22.2948055267334,4.529861927032471,-72.47779083251953,-228.22511291503906,-3.0,-54.900001525878906,14.700000762939453
1.741,43.05732345581055,-44.398075103759766,21.45204734802246,-16.78713607788086,-72.0781021118164,-231.95558166503906,-4.200000286102295,-53.55000305175781,16.350000381469727
1.751,44.12992477416992,-40.069358825683594,17.544710159301758,-31.842266082763672,-81.00459289550781,-226.7595672607422,-3.450000047683716,-53.85000228881836,16.650001525878906
1.77,44.97268295288086,-33.672054290771484,12.334927558898926,-39.16998291015625,-72.0781021118164,-231.02296447753906,-4.5,-54.45000076293945,16.80000114440918
1.774,46.390052795410156,-21.835119247436523,5.592854976654053,-33.84073257446289,-68.21439361572266,-222.4961700439453,-4.5,-54.45000076293945,16.80000114440918
1.781,46.46666717529297,-20.226215362548828,5.784391403198242,-18.119447708129883,-72.0781021118164,-223.0290985107422,-4.5,-54.45000076293945,16.80000114440918
1.791,47.76911163330078,-17.085023880004883,4.290409564971924,-5.728943347930908,-71.2787094116211,-214.63552856445312,-7.500000476837158,-51.750003814697266,15.750000953674316
1.801,48.765098571777344,-14.633360862731934,4.903325080871582,22.116384506225586,-71.67840576171875,-203.17764282226562,-7.200000286102295,-53.55000305175781,16.350000381469727
1.82,49.722782135009766,-14.441824913024902,5.439626216888428,34.906585693359375,-79.2725830078125,-196.51608276367188,-7.800000190734863,-53.70000076293945,16.05000114440918
1.824,50.91030502319336,-15.054739952087402,7.010222434997559,71.41194152832031,-95.79325866699219,-188.65542602539062,-9.300000190734863,-52.20000076293945,16.05000114440918
1.831,54.05149841308594,-17.12333106994629,8.925583839416504,72.61102294921875,-95.79325866699219,-182.2603302001953,-9.300000190734863,-52.20000076293945,16.05000114440918
1.841,56.005165100097656,-18.655620574951172,12.373234748840332,67.814697265625,-99.3905029296875,-178.92955017089844,-9.300000190734863,-52.20000076293945,16.05000114440918
1.851,59.68265914916992,-22.218191146850586,16.012420654296875,63.28483963012695,-109.78253936767578,-170.0030517578125,-10.800000190734863,-51.30000305175781,15.000000953674316
1.861,59.87419509887695,-26.623523712158203,14.518439292907715,67.68146514892578,-128.3016815185547,-162.00918579101562,-10.950000762939453,-50.85000228881836,16.650001525878906
1.88,61.636329650878906,-30.14778709411621,11.72201156616211,57.55589294433594,-127.76875305175781,-162.80857849121094,-12.15000057220459,-50.400001525878906,15.90000057220459
1.884,61.636329650878906,-29.113492965698242,10.304644584655762,51.82695007324219,-134.43031311035156,-173.0673828125,-11.25,-51.000003814697266,17.55000114440918
1.891,62.63231658935547,-30.26270866394043,9.500192642211914,54.4915771484375,-142.4241943359375,-172.40121459960938,-11.25,-51.000003814697266,17.55000114440918
1.901,60.985107421875,-31.488540649414062,8.810662269592285,53.558956146240234,-132.9647674560547,-177.19754028320312,-13.65000057220459,-49.20000076293945,15.90000057220459
1.911,62.90046691894531,-30.99054718017578,9.998186111450195,47.696781158447266,-124.97090148925781,-188.1225128173828,-14.700000762939453,-50.400001525878906,15.90000057220459
1.921,62.555702209472656,-30.415939331054688,10.572794914245605,44.89892578125,-122.57273864746094,-195.45022583007812,-14.250000953674316,-49.80000305175781,16.5
1.941,65.19889831542969,-29.22841453552246,13.943830490112305,45.298622131347656,-137.3614044189453,-196.1163787841797,-15.000000953674316,-47.85000228881836,15.450000762939453
1.945,66.69288635253906,-28.347347259521484,16.625335693359375,25.580398559570312,-147.8866729736328,-189.5880584716797,-15.000000953674316,-47.85000228881836,15.450000762939453
1.951,68.03363800048828,-26.240449905395508,18.34916114807129,19.052066802978516,-149.3522186279297,-192.3859100341797,-16.80000114440918,-47.55000305175781,15.450000762939453
1.961,66.99934387207031,-25.627534866333008,13.599065780639648,18.119447708129883,-150.6845245361328,-180.9280242919922,-17.55000114440918,-47.55000305175781,16.5
1.971,64.58598327636719,-26.393678665161133,6.550535678863525,11.990811347961426,-143.88973999023438,-182.2603302001953,-18.75,-47.55000305175781,15.750000953674316
1.981,64.43275451660156,-26.278757095336914,4.941632270812988,3.7304747104644775,-121.77335357666016,-191.58651733398438,-18.450000762939453,-45.75,14.850000381469727
2.0,64.89244079589844,-25.5892276763916,6.358999729156494,12.390504837036133,-128.3016815185547,-178.26339721679688,-18.450000762939453,-45.75,14.850000381469727
2.004,67.11426544189453,-24.171859741210938,6.512228488922119,9.059723854064941,-109.24961853027344,-195.84991455078125,-18.450000762939453,-45.75,14.850000381469727
2.011,68.03363800048828,-24.746469497680664,7.316680431365967,10.392036437988281,-119.10872650146484,-195.983154296875,-18.30000114440918,-44.85000228881836,13.950000762939453
2.021,69.18285369873047,-24.171859741210938,8.197746276855469,-0.6661561727523804,-117.77641296386719,-197.31546020507812,-20.25,-45.150001525878906,13.200000762939453
2.031,69.60423278808594,-21.75850486755371,8.159439086914062,-18.119447708129883,-125.50382232666016,-180.79478454589844,-20.55000114440918,-43.650001525878906,13.950000762939453
2.041,70.6385269165039,-19.613300323486328,5.592854976654053,-38.23736572265625,-124.70443725585938,-173.6002960205078,-20.55000114440918,-43.95000076293945,13.500000953674316
2.06,71.40467071533203,-15.782577514648438,4.290409564971924,-57.422664642333984,-112.71363067626953,-166.53904724121094,-20.55000114440918,-43.95000076293945,13.500000953674316
2.064,73.20510864257812,-14.058752059936523,2.7964274883270264,-54.4915771484375,-120.57427215576172,-163.6079559326172,-21.450000762939453,-42.60000228881836,12.300000190734863
2.071,76.07815551757812,-12.7946138381958,-0.9576807022094727,-64.61714935302734,-119.37519073486328,-162.00918579101562,-23.55000114440918,-42.900001525878906,12.0
2.081,77.34229278564453,-9.385271072387695,-2.8347349166870117,-62.618682861328125,-107.65084075927734,-161.2097930908203,-23.25,-40.95000076293945,11.700000762939453
2.091,79.10442352294922,-10.457873344421387,-3.6774938106536865,-60.22052001953125,-89.66461944580078,-155.48085021972656,-23.700000762939453,-42.30000305175781,10.350000381469727
2.101,79.79395294189453,-7.8529815673828125,-7.163451671600342,-46.63093185424805,-97.92495727539062,-147.22052001953125,-23.700000762939453,-42.30000305175781,10.350000381469727
2.121,81.90084838867188,-8.08282470703125,-8.044517517089844,-37.17151641845703,-89.39816284179688,-134.16384887695312,-24.0,-39.75,10.65000057220459
2.124,85.23358154296875,-2.5282769203186035,-6.473921298980713,-38.37059783935547,-77.00765228271484,-134.29708862304688,-23.400001525878906,-40.650001525878906,10.350000381469727
2.131,85.11865997314453,-1.800439715385437,-6.473921298980713,-21.183767318725586,-83.5359878540039,-105.38591003417969,-23.400001525878906,-40.650001525878906,10.350000381469727
2.141,85.31019592285156,-3.5625722408294678,-6.818686485290527,-12.790199279785156,-76.60796356201172,-102.05513000488281,-25.500001907348633,-38.25,10.200000762939453
2.151,86.8041763305664,-3.8307228088378906,-8.887276649475098,-15.721285820007324,-63.551300048828125,-98.19142150878906,-25.500001907348633,-38.25,10.200000762939453
2.161,85.08035278320312,-3.869029998779297,-9.998186111450195,-14.255742073059082,-53.159263610839844,-97.7917251586914,-25.500001907348633,-38.25,10.200000762939453
2.18,86.1146469116211,-3.9839515686035156,-10.189722061157227,-11.324655532836914,-55.69065856933594,-73.0107192993164,-25.500001907348633,-37.5,8.40000057220459
2.184,86.765869140625,-2.75812029838562,-14.36521053314209,-20.91730499267578,-29.044410705566406,-65.949462890625,-25.650001525878906,-37.650001525878906,9.0
2.191,85.42511749267578,-2.4133553504943848,-15.552734375,-25.7136287689209,-18.652372360229492,-49.69525146484375,-25.650001525878906,-37.650001525878906,9.0
2.201,86.1146469116211,-0.038307227194309235,-15.514427185058594,-4.529861927032471,-9.592649459838867,-27.17917251586914,-27.000001907348633,-38.25,9.15000057220459
2.211,86.57433319091797,2.2601263523101807,-12.258312225341797,3.197549819946289,-5.462480545043945,-19.98468589782715,-27.000001907348633,-38.25,9.15000057220459
2.23,89.67721557617188,0.6129156351089478,-8.006210327148438,12.124042510986328,-9.992342948913574,-19.718223571777344,-25.80000114440918,-36.30000305175781,7.650000095367432
2.234,89.60060119628906,-3.869029998779297,-4.175487995147705,16.520673751831055,-22.382848739624023,-14.255742073059082,-24.450000762939453,-36.900001525878906,7.500000476837158
2.241,90.2901382446289,-8.772355079650879,-10.381258964538574,1.8652373552322388,-4.929555892944336,-6.395099639892578,-24.450000762939453,-36.900001525878906,7.500000476837158
2.251,90.21351623535156,-8.925583839416504,-14.748282432556152,-24.64777946472168,20.38437843322754,21.45022964477539,-26.250001907348633,-37.80000305175781,8.40000057220459
2.261,89.8687515258789,-6.856993675231934,-14.173673629760742,-45.96477508544922,34.906585693359375,19.85145378112793,-26.250001907348633,-37.80000305175781,8.40000057220459
2.271,92.7417984008789,-5.324704647064209,-10.649409294128418,-46.497703552246094,24.381317138671875,35.306278228759766,-25.650001525878906,-37.650001525878906,9.0
2.29,95.53822326660156,-2.9496564865112305,-6.742072105407715,-37.17151641845703,9.992342948913574,49.42878723144531,-24.150001525878906,-37.650001525878906,8.550000190734863
2.295,93.77609252929688,-3.7924153804779053,-4.596867084503174,-29.7105655670166,0.5329249501228333,47.56355285644531,-25.950000762939453,-38.400001525878906,7.050000190734863
2.301,88.41307830810547,-7.163451671600342,-5.324704647064209,-25.7136287689209,1.0658499002456665,43.69984436035156,-25.950000762939453,-38.400001525878906,7.050000190734863
2.311,86.42110443115234,-8.65743350982666,-3.5242648124694824,-2.9310872554779053,-4.263399600982666,53.42572784423828,-25.950000762939453,-38.400001525878906,7.050000190734863
2.321,82.74361419677734,-15.131354331970215,-2.1068975925445557,-3.4640121459960938,7.72741174697876,54.4915771484375,-25.650001525878906,-38.85000228881836,6.750000476837158
2.331,78.45320129394531,-20.226215362548828,0.7661445140838623,-11.058192253112793,-0.2664624750614166,60.62021255493164,-25.05000114440918,-38.55000305175781,7.950000286102295
2.35,75.73339080810547,-27.121517181396484,3.7158010005950928,-13.056661605834961,2.131699800491333,62.8851432800293,-25.500001907348633,-35.85000228881836,7.650000095367432
2.354,72.17081451416016,-31.871612548828125,3.064578056335449,-31.176109313964844,5.995405673980713,58.355281829833984,-24.0,-38.55000305175781,7.350000381469727
2.361,67.19087982177734,-38.000770568847656,0.689530074596405,-51.82695007324219,19.85145378112793,54.4915771484375,-24.0,-38.55000305175781,7.350000381469727
2.371,65.73519897460938,-38.69029998779297,-0.4213795065879822,-68.4808578491211,24.914241790771484,45.298622131347656,-22.80000114440918,-39.75,6.600000381469727
2.381,64.93074798583984,-40.107666015625,-0.4213795065879822,-81.53751373291016,23.182235717773438,35.306278228759766,-23.700000762939453,-39.900001525878906,6.0
2.391,62.057708740234375,-36.77493667602539,-0.8810662031173706,-92.86217498779297,39.03675079345703,33.17457962036133,-24.450000762939453,-39.900001525878906,7.050000190734863
2.411,60.946800231933594,-35.204341888427734,-0.49799394607543945,-96.45941925048828,47.696781158447266,28.911178588867188,-22.80000114440918,-39.30000305175781,6.900000095367432
2.414,60.64033889770508,-31.90991973876953,2.2218191623687744,-98.05818939208984,51.29402542114258,30.776416778564453,-22.80000114440918,-39.30000305175781,6.900000095367432
2.421,61.78955841064453,-29.34333610534668,2.4133553504943848,-88.865234375,47.163856506347656,37.83767318725586,-23.55000114440918,-39.75,6.600000381469727
2.431,60.678646087646484,-28.653806686401367,3.1028854846954346,-95.66002655029297,47.163856506347656,36.372127532958984,-23.55000114440918,-40.5,6.600000381469727
2.441,63.51338195800781,-30.339323043823242,0.8810662031173706,-84.73506927490234,47.430320739746094,36.905052185058594,-22.200000762939453,-39.900001525878906,7.500000476837158
2.451,64.73921203613281,-30.875625610351562,-2.719813108444214,-72.47779083251953,43.43338394165039,51.693721771240234,-23.700000762939453,-40.35000228881836,6.0
2.471,64.96905517578125,-31.60346221923828,-5.861005783081055,-77.14088439941406,52.75957107543945,50.62786865234375,-23.700000762939453,-40.35000228881836,6.0
2.474,66.19488525390625,-32.063148498535156,-6.933608055114746,-69.14701080322266,55.02450180053711,61.9525260925293,-23.700000762939453,-40.35000228881836,6.0
2.481,70.33206939697266,-34.85957717895508,-5.5545477867126465,-59.287899017333984,50.4946403503418,52.226646423339844,-22.80000114440918,-39.75,6.150000095367432
2.491,69.68084716796875,-35.47249221801758,-3.907337188720703,-72.0781021118164,56.09035110473633,58.08882141113281,-21.450000762939453,-40.35000228881836,7.050000190734863
2.501,72.59219360351562,-36.8132438659668,-4.213795185089111,-72.74425506591797,57.02296829223633,54.35834503173828,-21.900001525878906,-40.650001525878906,4.200000286102295
2.511,72.28573608398438,-37.809234619140625,-4.022258758544922,-78.73966217041016,51.960182189941406,56.756507873535156,-22.05000114440918,-40.95000076293945,5.850000381469727
2.529,73.93294525146484,-36.50678634643555,-4.290409564971924,-94.9938735961914,58.754974365234375,58.888206481933594,-22.80000114440918,-42.45000076293945,5.400000095367432
2.533,74.6607894897461,-36.2003288269043,-2.911349296569824,-98.59111785888672,59.02143859863281,62.8851432800293,-22.80000114440918,-42.45000076293945,5.400000095367432
2.541,73.47325897216797,-35.89387130737305,-4.060565948486328,-108.58345794677734,65.28330993652344,57.289432525634766,-22.650001525878906,-41.85000228881836,6.0
2.551,73.0518798828125,-33.7486686706543,-1.8387469053268433,-118.30934143066406,64.61714935302734,55.95711898803711,-21.75,-40.20000076293945,5.400000095367432
2.561,70.25545501708984,-33.097442626953125,-3.44765043258667,-123.10566711425781,73.41041564941406,64.61714935302734,-21.0,-42.150001525878906,7.650000095367432
2.571,70.17884063720703,-30.186094284057617,-3.294421434402466,-127.76875305175781,72.34455871582031,62.485450744628906,-21.0,-42.150001525878906,7.650000095367432
2.59,70.0256118774414,-27.964275360107422,-1.9153614044189453,-134.69677734375,77.54058074951172,61.28636932373047,-22.5,-42.150001525878906,5.400000095367432
2.594,70.29376220703125,-23.903709411621094,-2.604891538619995,-133.89739990234375,73.14395141601562,63.151607513427734,-22.5,-42.150001525878906,5.400000095367432
2.601,70.37037658691406,-23.52063751220703,-1.37906014919281,-134.96324157714844,68.08116149902344,63.950992584228516,-20.700000762939453,-41.10000228881836,5.25
2.611,68.68486022949219,-21.605276107788086,-2.2218191623687744,-133.36447143554688,64.3506851196289,63.151607513427734,-19.650001525878906,-42.60000228881836,6.750000476837158
2.621,69.48931121826172,-20.11129379272461,-2.5665841102600098,-125.50382232666016,59.55436325073242,78.3399658203125,-19.650001525878906,-42.60000228881836,6.750000476837158
2.64,67.4973373413086,-17.73624610900879,-3.869029998779297,-115.64471435546875,52.493106842041016,80.47166442871094,-19.650001525878906,-42.60000228881836,6.750000476837158
2.644,65.96504211425781,-19.613300323486328,-4.367023944854736,-120.70750427246094,60.35375213623047,84.73506927490234,-20.700000762939453,-42.60000228881836,3.750000238418579
2.651,64.35614013671875,-18.34916114807129,-3.7158010005950928,-103.7871322631836,57.02296829223633,91.13016510009766,-20.55000114440918,-45.60000228881836,4.350000381469727
2.661,63.896453857421875,-19.38345718383789,-3.600879430770874,-103.65390014648438,55.29096221923828,91.3966293334961,-18.150001525878906,-44.25,4.950000286102295
2.671,64.85413360595703,-19.000385284423828,-3.6391866207122803,-100.58958435058594,70.21286010742188,86.20060729980469,-20.400001525878906,-44.55000305175781,4.950000286102295
2.681,65.58197021484375,-19.19192123413086,-2.030282974243164,-102.98774719238281,70.47932434082031,85.93415069580078,-20.400001525878906,-44.55000305175781,4.950000286102295
2.701,67.45903015136719,-20.64759635925293,-2.2218191623687744,-113.11331939697266,65.15007781982422,89.7978515625,-19.5,-44.85000228881836,4.350000381469727
2.704,69.45100402832031,-22.7161865234375,-1.9536685943603516,-109.78253936767578,60.88667678833008,91.13016510009766,-18.30000114440918,-43.20000076293945,5.400000095367432
2.711,69.9489974975586,-24.9763126373291,-4.137180328369141,-112.71363067626953,63.81776428222656,81.27105712890625,-19.5,-45.900001525878906,3.9000000953674316
2.721,69.9489974975586,-27.427974700927734,-5.2480902671813965,-107.78407287597656,60.35375213623047,83.66921997070312,-18.150001525878906,-45.0,4.5
2.731,68.49332427978516,-27.15982437133789,-5.592854976654053,-112.58039855957031,57.422664642333984,75.14241790771484,-18.150001525878906,-45.0,4.5
2.741,68.22517395019531,-26.393678665161133,-6.01423454284668,-124.97090148925781,73.81010437011719,69.94640350341797,-17.55000114440918,-43.95000076293945,5.850000381469727
2.76,69.25946807861328,-24.018630981445312,-6.512228488922119,-122.9724349975586,71.01225280761719,71.67840576171875,-18.0,-45.150001525878906,4.350000381469727
2.764,71.32805633544922,-21.413740158081055,-2.873042106628418,-126.83613586425781,50.76110076904297,83.80245208740234,-16.650001525878906,-45.75,3.450000047683716
2.771,74.85232543945312,-18.502389907836914,-0.6512228846549988,-133.89739990234375,54.091880798339844,73.81010437011719,-18.0,-45.900001525878906,3.6000001430511475
2.781,76.80599212646484,-20.41775131225586,-3.9839515686035156,-138.6937255859375,52.89280319213867,82.6033706665039,-16.650001525878906,-46.20000076293945,1.2000000476837158
2.791,77.26567840576172,-19.19192123413086,-7.048529624938965,-129.6339874267578,44.76569747924805,93.79479217529297,-16.650001525878906,-46.20000076293945,1.2000000476837158
2.801,78.989501953125,-20.264522552490234,-11.224017143249512,-127.5022964477539,46.497703552246094,89.13169860839844,-16.200000762939453,-48.45000076293945,0.9000000357627869
2.821,81.55608367919922,-19.38345718383789,-12.48815631866455,-115.2450180053711,52.89280319213867,80.8713607788086,-16.650001525878906,-46.20000076293945,2.25
2.824,82.97345733642578,-16.855180740356445,-13.10107135772705,-90.4640121459961,42.90045928955078,89.93108367919922,-16.200000762939453,-46.20000076293945,3.450000047683716
2.831,85.69326782226562,-11.568782806396484,-11.30063247680664,-72.0781021118164,38.77029037475586,89.13169860839844,-15.450000762939453,-48.900001525878906,2.25
2.841,87.07232666015625,-11.377246856689453,-11.185709953308105,-57.15620040893555,40.9019889831543,84.60183715820312,-15.450000762939453,-48.900001525878906,2.25
2.851,88.37477111816406,-9.461885452270508,-10.074800491333008,-29.444103240966797,34.373661041259766,88.06584930419922,-15.450000762939453,-47.25,3.0
2.861,88.68122863769531,-9.385271072387695,-9.308655738830566,0.0,17.053598403930664,86.20060729980469,-14.700000762939453,-48.900001525878906,2.25
2.881,87.9533920288086,-12.143390655517578,-9.308655738830566,21.316997528076172,20.117916107177734,88.19908142089844,-14.700000762939453,-49.20000076293945,1.2000000476837158
2.884,85.96141815185547,-19.000385284423828,-10.304644584655762,38.77029037475586,14.388973236083984,66.48238372802734,-12.750000953674316,-48.30000305175781,2.5500001907348633
2.891,86.42110443115234,-28.270732879638672,-10.496180534362793,41.83460998535156,13.989279747009277,52.75957107543945,-12.750000953674316,-48.30000305175781,2.5500001907348633
2.901,85.42511749267578,-31.641769409179688,-10.649409294128418,39.83613967895508,8.260336875915527,30.643184661865234,-13.800000190734863,-49.80000305175781,3.9000000953674316
2.911,85.84649658203125,-32.9442138671875,-10.572794914245605,31.975496292114258,19.85145378112793,18.385910034179688,-12.90000057220459,-50.85000228881836,1.9500000476837158
2.921,87.11063385009766,-32.790985107421875,-7.048529624938965,24.11485481262207,11.457886695861816,14.655436515808105,-13.200000762939453,-49.650001525878906,2.25
2.94,87.72354888916016,-27.504589080810547,-7.316680431365967,40.76875686645508,-5.062787055969238,3.3307809829711914,-13.050000190734863,-51.30000305175781,2.1000001430511475
2.943,89.8687515258789,-21.796812057495117,-4.367023944854736,59.82082748413086,-3.0643184185028076,2.2649309635162354,-13.050000190734863,-51.30000305175781,2.1000001430511475
2.951,90.67321014404297,-22.06496238708496,-2.604891538619995,72.21133422851562,-8.260336875915527,-13.189892768859863,-13.050000190734863,-51.30000305175781,2.1000001430511475
2.961,91.24781799316406,-23.13756561279297,-2.5665841102600098,94.86064147949219,-12.124042510986328,-14.522205352783203,-14.40000057220459,-50.400001525878906,3.750000238418579
2.971,92.01396179199219,-24.095245361328125,1.8387469053268433,122.9724349975586,-12.124042510986328,-14.655436515808105,-14.250000953674316,-51.000003814697266,5.100000381469727
2.981,91.89904022216797,-28.53888511657715,4.711789131164551,134.16384887695312,-15.055130004882812,-41.168453216552734,-13.500000953674316,-51.30000305175781,4.650000095367432
2.994,90.17520904541016,-34.284969329833984,2.719813108444214,153.61561584472656,-18.119447708129883,-67.5482406616211,-14.250000953674316,-51.30000305175781,4.650000095367432
3.001,88.94937896728516,-39.72459411621094,-0.38307225704193115,160.6768798828125,-34.906585693359375,-67.94792938232422,-14.250000953674316,-51.30000305175781,4.650000095367432
3.011,87.22555541992188,-40.988731384277344,-2.0685901641845703,162.00918579101562,-31.975496292114258,-70.61255645751953,-14.550000190734863,-51.750003814697266,6.600000381469727
3.021,84.9271240234375,-41.21857833862305,-3.6774938106536865,155.6140899658203,-25.7136287689209,-94.32771301269531,-16.200000762939453,-49.95000076293945,7.800000190734863
3.031,83.62467956542969,-41.5250358581543,-0.07661445438861847,164.4073486328125,-36.771820068359375,-94.19448852539062,-16.5,-50.250003814697266,7.350000381469727
3.05,82.4371566772461,-38.76691436767578,3.6774938106536865,163.34149169921875,-38.37059783935547,-110.71515655517578,-16.5,-50.55000305175781,7.950000286102295
3.054,79.0278091430664,-35.89387130737305,6.588842868804932,160.01071166992188,-35.972434997558594,-116.44409942626953,-16.950000762939453,-50.400001525878906,9.75
3.061,79.0278091430664,-31.22039031982422,11.224017143249512,152.41653442382812,-50.09494400024414,-121.24042510986328,-16.950000762939453,-50.400001525878906,9.75
3.071,79.06611633300781,-28.653806686401367,12.717999458312988,161.07656860351562,-70.3460922241211,-114.97856140136719,-17.400001525878906,-49.20000076293945,11.100000381469727
3.081,76.61445617675781,-22.218191146850586,12.411541938781738,160.8101043701172,-86.20060729980469,-103.7871322631836,-18.450000762939453,-49.20000076293945,10.350000381469727
3.091,73.51156616210938,-19.958065032958984,10.036493301391602,170.93568420410156,-90.99693298339844,-114.04593658447266,-18.75,-47.85000228881836,11.700000762939453
3.111,69.9873046875,-16.47210693359375,9.730035781860352,185.19142150878906,-99.3905029296875,-99.25727081298828,-18.75,-47.85000228881836,11.700000762939453
3.114,69.3360824584961,-14.020444869995117,10.5344877243042,206.1087188720703,-93.92802429199219,-93.2618637084961,-19.200000762939453,-47.70000076293945,11.100000381469727
3.121,66.9610366821289,-12.181697845458984,12.832921028137207,222.76263427734375,-101.78866577148438,-92.86217498779297,-20.55000114440918,-49.05000305175781,11.100000381469727
3.131,65.8501205444336,-11.836933135986328,12.7946138381958,246.07809448242188,-100.18988800048828,-93.39509582519531,-21.75,-47.55000305175781,13.200000762939453
3.141,67.61225891113281,-14.67166805267334,14.67166805267334,265.9295349121094,-114.57886505126953,-79.2725830078125,-20.700000762939453,-46.5,14.40000057220459
3.151,69.18285369873047,-16.89348793029785,16.740259170532227,280.185302734375,-119.90811157226562,-80.60489654541016,-20.700000762939453,-46.5,14.40000057220459
3.171,68.41670989990234,-19.843143463134766,19.115306854248047,286.84686279296875,-113.51301574707031,-82.20367431640625,-22.05000114440918,-46.650001525878906,13.950000762939453
3.174,67.03765106201172,-22.60126495361328,21.26051139831543,282.84991455078125,-121.64012145996094,-88.73200225830078,-23.400001525878906,-47.70000076293945,14.100000381469727
3.181,67.34410858154297,-26.700138092041016,23.597251892089844,284.1822204589844,-122.83920288085938,-86.3338394165039,-23.55000114440918,-46.650001525878906,15.000000953674316
3.294,68.1102523803711,-25.972299575805664,7.891288757324219,79.80551147460938,-118.97549438476562,-149.21897888183594,-26.700000762939453,-40.650001525878906,18.150001525878906
3.301,64.43275451660156,-16.510414123535156,6.435614109039307,70.07962799072266,-104.85298156738281,-161.6094970703125,-27.900001525878906,-40.650001525878906,17.100000381469727
3.311,63.55168914794922,-12.334927558898926,5.669469833374023,81.93721008300781,-104.05359649658203,-148.8192901611328,-27.900001525878906,-40.650001525878906,17.100000381469727
3.321,63.436767578125,-7.891288757324219,6.358999729156494,97.7917251586914,-92.99540710449219,-139.7595672607422,-30.150001525878906,-38.400001525878906,15.90000057220459
3.331,65.888427734375,-5.018246650695801,9.653421401977539,113.77947998046875,-78.07350158691406,-138.42726135253906,-29.400001525878906,-39.60000228881836,19.950000762939453
3.35,68.83808898925781,-4.367023944854736,10.955866813659668,133.89739990234375,-79.40581512451172,-117.37671661376953,-31.05000114440918,-38.25,16.80000114440918
3.354,73.0518798828125,-4.405331134796143,17.583017349243164,144.55589294433594,-86.86676788330078,-110.848388671875,-31.05000114440918,-38.25,16.80000114440918
3.361,73.89463806152344,-5.784391403198242,17.238252639770508,138.02755737304688,-81.53751373291016,-113.3797836303711,-31.05000114440918,-38.25,16.80000114440918
3.371,73.47325897216797,-8.810662269592285,15.054739952087402,139.89280700683594,-81.93721008300781,-108.050537109375,-31.05000114440918,-37.80000305175781,18.30000114440918
3.381,71.36636352539062,-12.449849128723145,10.036493301391602,149.61868286132812,-83.66921997070312,-98.99080657958984,-31.80000114440918,-36.60000228881836,18.30000114440918
3.4,69.79576873779297,-16.203956604003906,4.903325080871582,127.76875305175781,-60.62021255493164,-99.52373504638672,-32.25,-36.30000305175781,17.25
3.404,68.1485595703125,-18.4257755279541,1.6089035272598267,104.5865249633789,-41.967838287353516,-149.21897888183594,-32.55000305175781,-35.85000228881836,18.30000114440918
3.411,69.79576873779297,-19.306842803955078,0.5746083855628967,87.13323211669922,-30.776416778564453,-119.64165496826172,-33.150001525878906,-35.25,17.100000381469727
3.421,71.2514419555664,-18.157625198364258,0.19153612852096558,74.07656860351562,-40.76875686645508,-110.848388671875,-33.150001525878906,-35.25,17.100000381469727
3.431,74.16278839111328,-17.353174209594727,1.072602391242981,46.364471435546875,-24.64777946472168,-119.10872650146484,-33.75,-35.10000228881836,16.5
3.441,76.46122741699219,-15.361198425292969,1.0342950820922852,24.64777946472168,-20.251148223876953,-112.58039855957031,-32.55000305175781,-32.85000228881836,18.30000114440918
3.459,77.1507568359375,-12.373234748840332,-0.038307227194309235,12.523736000061035,-22.782541275024414,-98.99080657958984,-34.650001525878906,-34.5,17.400001525878906
3.464,78.68304443359375,-8.159439086914062,-0.9193734526634216,-1.0658499002456665,-21.45022964477539,-80.20520782470703,-34.05000305175781,-33.150001525878906,17.55000114440918
3.471,79.5641098022461,-2.0685901641845703,-1.647210717201233,-13.58958625793457,-7.594180583953857,-79.40581512451172,-34.05000305175781,-33.150001525878906,17.55000114440918
3.481,80.10041046142578,1.1109095811843872,-4.711789131164551,-13.456355094909668,-3.0643184185028076,-56.62327575683594,-34.650001525878906,-33.0,16.650001525878906
3.491,82.66699981689453,3.485957622528076,-6.129156112670898,-3.9969370365142822,-8.660030364990234,-45.16539001464844,-34.5,-33.150001525878906,17.55000114440918
3.501,82.0923843383789,5.592854976654053,-7.469909191131592,6.395099639892578,-3.7304747104644775,-33.4410400390625,-34.05000305175781,-32.400001525878906,19.80000114440918
3.52,82.36053466796875,5.286397457122803,-7.469909191131592,5.062787055969238,1.5987749099731445,-19.052066802978516,-34.5,-32.85000228881836,19.80000114440918
3.524,82.13069152832031,6.282385349273682,-8.274360656738281,4.796324729919434,0.5329249501228333,-2.9310872554779053,-34.5,-32.85000228881836,19.80000114440918
3.531,81.32624053955078,4.213795185089111,-8.925583839416504,8.793261528015137,-5.196018218994141,10.658498764038086,-35.70000076293945,-33.0,18.450000762939453
3.541,81.86254119873047,4.022258758544922,-9.078812599182129,-1.1990811824798584,0.6661561727523804,13.056661605834961,-34.650001525878906,-32.25,18.150001525878906
3.551,82.0923843383789,3.026270866394043,-8.236053466796875,0.39969372749328613,-0.7993874549865723,30.24349021911621,-36.150001525878906,-31.05000114440918,19.200000762939453
3.561,82.13069152832031,2.5665841102600098,-7.201758861541748,-8.660030364990234,2.2649309635162354,45.43185043334961,-34.5,-31.950000762939453,18.75
3.581,83.24160766601562,0.9576807022094727,-6.665457725524902,-23.04900360107422,16.387441635131836,41.035221099853516,-32.400001525878906,-32.55000305175781,18.900001525878906
3.585,86.38279724121094,0.8810662031173706,-6.205770969390869,-30.776416778564453,11.857580184936523,72.21133422851562,-32.400001525878906,-32.55000305175781,18.900001525878906
3.591,89.10260772705078,-0.6512228846549988,-4.596867084503174,-41.434913635253906,15.45482349395752,48.76263427734375,-34.20000076293945,-33.0,18.450000762939453
3.601,88.75784301757812,-0.8427590131759644,-3.8307228088378906,-37.03828430175781,7.9938740730285645,66.21592712402344,-34.05000305175781,-32.85000228881836,17.25
3.611,87.9533920288086,-1.8387469053268433,-3.2561142444610596,-47.163856506347656,17.719755172729492,56.356815338134766,-33.0,-33.900001525878906,18.0
3.621,88.06831359863281,-3.026270866394043,-1.4939818382263184,-46.497703552246094,22.915773391723633,56.49004364013672,-33.150001525878906,-31.05000114440918,16.650001525878906
3.64,89.56229400634766,-3.1028854846954346,-2.5282769203186035,-56.22358322143555,27.71209716796875,65.54976654052734,-33.150001525878906,-31.05000114440918,16.650001525878906
3.644,94.27408599853516,-6.627150535583496,-4.788403511047363,-69.14701080322266,45.56508255004883,63.28483963012695,-32.25,-32.85000228881836,17.55000114440918
3.651,99.71371459960938,-7.661445617675781,-7.240066051483154,-82.86982727050781,66.21592712402344,63.28483963012695,-31.80000114440918,-31.650001525878906,18.0
3.661,99.71371459960938,-7.891288757324219,-5.70777702331543,-98.59111785888672,75.67534637451172,81.53751373291016,-32.70000076293945,-33.45000076293945,18.450000762939453
3.671,99.10079956054688,-8.848969459533691,-6.856993675231934,-110.18223571777344,80.8713607788086,85.66768646240234,-33.30000305175781,-32.85000228881836,18.0
3.681,95.1168441772461,-7.354987621307373,-4.711789131164551,-116.17764282226562,95.9264907836914,81.93721008300781,-33.30000305175781,-32.85000228881836,18.0
3.701,92.55026245117188,-6.665457725524902,-2.7964274883270264,-106.71822357177734,88.73200225830078,78.73966217041016,-30.150001525878906,-33.45000076293945,16.350000381469727
3.704,83.58637237548828,-8.197746276855469,1.6855180263519287,-87.79938507080078,73.41041564941406,119.64165496826172,-29.55000114440918,-32.85000228881836,16.80000114440918
3.711,82.89684295654297,-8.08282470703125,2.9879636764526367,-96.45941925048828,82.07044219970703,120.30780792236328,-29.55000114440918,-32.85000228881836,16.80000114440918
3.721,79.52580261230469,-10.342951774597168,5.018246650695801,-95.79325866699219,75.5421142578125,130.43338012695312,-30.000001907348633,-33.60000228881836,16.05000114440918
3.731,74.7374038696289,-15.667655944824219,6.665457725524902,-86.46707153320312,63.151607513427734,139.49310302734375,-28.500001907348633,-32.400001525878906,16.80000114440918
3.741,71.02159881591797,-20.724210739135742,6.282385349273682,-89.39816284179688,71.14547729492188,133.36447143554688,-28.500001907348633,-32.400001525878906,16.80000114440918
3.761,68.49332427978516,-26.508602142333984,5.018246650695801,-94.9938735961914,71.54517364501953,144.1562042236328,-26.400001525878906,-31.500001907348633,15.15000057220459
3.764,64.27952575683594,-35.6257209777832,2.3367409706115723,-106.31852722167969,67.814697265625,136.0290985107422,-23.25,-31.950000762939453,15.450000762939453
3.771,64.54767608642578,-35.702335357666016,4.252102375030518,-106.98468017578125,71.41194152832031,131.89892578125,-23.25,-31.950000762939453,15.450000762939453
3.781,65.35212707519531,-36.04710006713867,4.903325080871582,-121.50688934326172,85.00152587890625,133.6309356689453,-22.650001525878906,-32.55000305175781,14.850000381469727
3.791,64.89244079589844,-35.85556411743164,4.788403511047363,-115.77794647216797,84.73506927490234,128.56814575195312,-22.650001525878906,-32.55000305175781,14.850000381469727
3.801,63.62830352783203,-33.71036148071289,3.9839515686035156,-108.84992218017578,81.93721008300781,129.36753845214844,-18.75,-33.900001525878906,13.200000762939453
3.813,64.73921203613281,-33.71036148071289,4.137180328369141,-99.52373504638672,83.00305938720703,118.04287719726562,-17.700000762939453,-33.75,12.300000190734863
3.821,66.8844223022461,-34.43819808959961,4.558559894561768,-96.19295501708984,92.86217498779297,110.58192443847656,-17.700000762939453,-33.75,12.300000190734863
3.831,66.8844223022461,-36.2003288269043,6.129156112670898,-94.72740936279297,79.53904724121094,106.85145568847656,-16.5,-35.55000305175781,10.200000762939453
3.841,70.6002197265625,-39.533058166503906,9.002198219299316,-96.45941925048828,80.60489654541016,94.59417724609375,-16.5,-35.55000305175781,10.200000762939453
3.851,73.93294525146484,-42.40610122680664,9.500192642211914,-119.24195861816406,88.46553802490234,77.54058074951172,-16.5,-35.55000305175781,10.200000762939453
3.861,74.08617401123047,-43.900081634521484,8.236053466796875,-136.29556274414062,81.27105712890625,74.74272155761719,-11.40000057220459,-36.45000076293945,11.100000381469727
3.874,76.00154113769531,-42.674251556396484,6.703764915466309,-154.9479217529297,86.73353576660156,59.68759536743164,-8.25,-39.0,9.450000762939453
3.881,75.58016204833984,-37.043087005615234,5.592854976654053,-152.949462890625,86.20060729980469,65.949462890625,-8.25,-39.0,9.450000762939453
3.891,74.85232543945312,-32.13976287841797,3.179499864578247,-138.8269500732422,79.9387435913086,75.14241790771484,-7.650000095367432,-38.400001525878906,9.0
3.901,75.00555419921875,-27.27474594116211,3.2178070545196533,-140.02603149414062,74.07656860351562,70.21286010742188,-7.650000095367432,-38.400001525878906,9.0
3.911,73.58818054199219,-23.558944702148438,3.6391866207122803,-124.97090148925781,73.9433364868164,80.47166442871094,-5.550000190734863,-41.70000076293945,10.950000762939453
3.93,71.55789947509766,-20.992361068725586,2.911349296569824,-116.71056365966797,77.00765228271484,84.86830139160156,-4.200000286102295,-43.80000305175781,10.350000381469727
3.934,67.53564453125,-22.984336853027344,2.2218191623687744,-113.3797836303711,74.60948944091797,87.39968872070312,-5.25,-44.85000228881836,11.700000762939453
3.941,67.4973373413086,-25.014619827270508,3.2178070545196533,-110.848388671875,60.35375213623047,91.79632568359375,-5.25,-44.85000228881836,11.700000762939453
3.951,65.888427734375,-25.742456436157227,4.098873138427734,-112.84685516357422,65.81623077392578,86.20060729980469,-5.25,-44.85000228881836,11.700000762939453
3.961,64.54767608642578,-24.210166931152344,3.9456443786621094,-119.90811157226562,61.41960144042969,83.80245208740234,-3.750000238418579,-47.85000228881836,12.750000953674316
3.971,63.62830352783203,-27.427974700927734,2.9879636764526367,-115.64471435546875,51.4272575378418,87.53292083740234,-3.450000047683716,-50.400001525878906,13.350000381469727
3.991,61.5980224609375,-26.278757095336914,2.451662540435791,-109.38284301757812,56.889739990234375,96.99234008789062,-3.0,-49.500003814697266,15.450000762939453
3.995,58.99312973022461,-25.052927017211914,1.8770540952682495,-111.781005859375,57.02296829223633,78.07350158691406,-3.0,-49.500003814697266,15.450000762939453
4.001,61.29156494140625,-23.13756561279297,1.8770540952682495,-115.91117858886719,59.15467071533203,82.07044219970703,-3.0,-49.500003814697266,15.450000762939453
4.011,61.751251220703125,-23.82709503173828,2.3367409706115723,-121.90658569335938,60.75344467163086,79.53904724121094,-3.1500000953674316,-53.10000228881836,15.15000057220459
4.021,63.81983947753906,-24.095245361328125,2.5282769203186035,-129.90045166015625,64.3506851196289,62.8851432800293,-3.9000000953674316,-53.85000228881836,16.350000381469727
4.031,66.5396499633789,-22.754493713378906,1.5705963373184204,-124.43797302246094,64.48391723632812,61.41960144042969,-4.5,-55.20000076293945,16.5
4.05,67.95702362060547,-23.597251892089844,2.4133553504943848,-117.11026000976562,51.4272575378418,48.62940216064453,-6.750000476837158,-57.150001525878906,18.0
4.054,69.45100402832031,-24.478317260742188,1.6089035272598267,-112.84685516357422,44.89892578125,51.027565002441406,-6.750000476837158,-57.150001525878906,18.0
4.061,71.36636352539062,-24.13355255126953,-0.38307225704193115,-121.3736572265625,46.63093185424805,36.10566711425781,-5.550000190734863,-56.70000076293945,16.80000114440918
4.071,70.25545501708984,-21.37543296813965,-0.15322890877723694,-107.3843765258789,36.5053596496582,42.36753463745117,-6.450000286102295,-57.30000305175781,18.150001525878906
4.081,68.49332427978516,-18.923770904541016,-4.481945514678955,-97.65850067138672,38.37059783935547,37.97090148925781,-7.950000286102295,-57.30000305175781,18.450000762939453
4.091,67.76548767089844,-17.889474868774414,-5.70777702331543,-80.47166442871094,38.10413360595703,25.846860885620117,-9.300000190734863,-58.35000228881836,19.5
4.11,65.58197021484375,-16.089035034179688,-6.665457725524902,-76.4747314453125,50.09494400024414,39.16998291015625,-9.90000057220459,-58.35000228881836,19.5
4.114,65.00736236572266,-15.705963134765625,-5.018246650695801,-57.822357177734375,43.56661605834961,37.17151641845703,-9.90000057220459,-57.30000305175781,18.150001525878906
4.121,66.27149963378906,-16.395492553710938,-4.252102375030518,-55.95711898803711,36.238895416259766,30.643184661865234,-10.800000190734863,-57.150001525878906,19.5
4.131,66.73119354248047,-16.89348793029785,-2.6815059185028076,-59.15467071533203,43.96630859375,31.309341430664062,-11.40000057220459,-57.750003814697266,20.700000762939453
4.141,69.87238311767578,-16.778566360473633,-2.6431987285614014,-47.830013275146484,37.70444107055664,29.84379768371582,-12.0,-57.900001525878906,20.850000381469727
4.151,71.40467071533203,-19.80483627319336,-1.4173674583435059,-44.23276901245117,29.977027893066406,23.448698043823242,-12.0,-57.900001525878906,20.850000381469727
4.171,73.6264877319336,-19.345149993896484,-1.455674648284912,-53.42572784423828,40.36906433105469,6.661561965942383,-15.90000057220459,-57.30000305175781,20.700000762939453
4.174,79.33426666259766,-22.37141990661621,-2.0685901641845703,-54.35834503173828,35.03981399536133,15.721285820007324,-15.90000057220459,-57.30000305175781,20.700000762939453
4.181,79.90887451171875,-20.532672882080078,-3.5625722408294678,-42.76722717285156,32.108726501464844,15.45482349395752,-16.05000114440918,-55.95000076293945,20.55000114440918
4.191,81.09639739990234,-20.992361068725586,-4.32871675491333,-41.967838287353516,36.905052185058594,0.1332312375307083,-16.05000114440918,-55.650001525878906,20.850000381469727
4.201,81.28793334960938,-20.30282974243164,-3.600879430770874,-31.842266082763672,39.16998291015625,-7.06125545501709,-16.5,-55.20000076293945,19.80000114440918
4.211,85.23358154296875,-17.238252639770508,-3.064578056335449,-13.323123931884766,30.110260009765625,-9.859111785888672,-16.5,-55.20000076293945,19.80000114440918
4.223,86.45941162109375,-16.740259170532227,-0.727837324142456,-5.062787055969238,37.70444107055664,-18.519142150878906,-17.400001525878906,-54.60000228881836,20.400001525878906
4.231,88.5663070678711,-15.744270324707031,-2.145204782485962,6.5283308029174805,38.37059783935547,-15.055130004882812,-19.5,-54.900001525878906,18.75
4.241,91.78411865234375,-16.89348793029785,-2.4899697303771973,16.387441635131836,45.16539001464844,-18.2526798248291,-18.450000762939453,-51.60000228881836,19.950000762939453
4.251,91.24781799316406,-18.88546371459961,-2.183511972427368,28.644716262817383,31.975496292114258,-23.848390579223633,-18.450000762939453,-54.60000228881836,18.900001525878906
4.261,90.21351623535156,-24.018630981445312,-1.3024457693099976,23.98162269592285,36.10566711425781,-25.980091094970703,-18.450000762939453,-54.60000228881836,18.900001525878906
4.271,89.48567962646484,-24.401702880859375,-0.689530074596405,26.113323211669922,33.97396469116211,-31.44257164001465,-19.05000114440918,-52.500003814697266,19.5
4.283,87.9533920288086,-24.59324073791504,-0.038307227194309235,27.978559494018555,28.77794647216797,-40.502296447753906,-19.950000762939453,-51.150001525878906,20.400001525878906
4.291,88.68122863769531,-21.605276107788086,2.451662540435791,38.77029037475586,25.18070411682129,-41.701377868652344,-20.700000762939453,-53.10000228881836,17.400001525878906
4.301,91.05628204345703,-18.962078094482422,4.8267107009887695,48.76263427734375,17.852985382080078,-54.091880798339844,-19.200000762939453,-51.900001525878906,18.900001525878906
4.311,95.38499450683594,-15.820884704589844,7.316680431365967,76.74119567871094,23.448698043823242,-60.08728790283203,-19.80000114440918,-51.750003814697266,19.80000114440918
4.321,96.64913177490234,-19.919757843017578,8.427590370178223,103.52066802978516,10.791729927062988,-74.47626495361328,-19.80000114440918,-51.750003814697266,19.80000114440918
4.341,97.6451187133789,-28.19411849975586,7.048529624938965,109.38284301757812,14.788667678833008,-85.00152587890625,-21.75,-51.30000305175781,19.05000114440918
4.345,97.33866119384766,-33.82528305053711,8.619126319885254,118.44257354736328,-2.797856092453003,-96.59264373779297,-21.450000762939453,-49.95000076293945,19.650001525878906
4.351,96.64913177490234,-35.97048568725586,7.354987621307373,114.3124008178711,-9.459418296813965,-97.5252685546875,-20.400001525878906,-50.85000228881836,21.150001525878906
4.361,96.18944549560547,-32.52283477783203,9.53849983215332,118.17610931396484,-25.18070411682129,-100.58958435058594,-21.75,-50.250003814697266,19.80000114440918
4.371,92.89502716064453,-27.964275360107422,9.040505409240723,124.70443725585938,-28.511484146118164,-119.24195861816406,-21.75,-50.250003814697266,19.80000114440918
4.381,88.14492797851562,-22.7161865234375,8.810662269592285,132.9647674560547,-29.577335357666016,-115.2450180053711,-22.80000114440918,-49.05000305175781,20.850000381469727
4.401,85.27188873291016,-20.494365692138672,9.84495735168457,144.95558166503906,-31.309341430664062,-113.51301574707031,-22.200000762939453,-49.20000076293945,21.150001525878906
4.404,85.88480377197266,-20.072986602783203,11.875240325927734,157.612548828125,-44.89892578125,-104.85298156738281,-22.05000114440918,-47.85000228881836,22.05000114440918
4.411,84.85050964355469,-18.081010818481445,13.560758590698242,161.87594604492188,-61.9525260925293,-107.11791229248047,-24.150001525878906,-48.0,21.75
4.421,83.89282989501953,-16.127342224121094,13.522451400756836,181.06124877929688,-77.27411651611328,-88.59877014160156,-24.150001525878906,-48.0,21.75
4.431,81.67100524902344,-14.863204002380371,12.641385078430176,195.71669006347656,-82.47013854980469,-82.7365951538086,-23.55000114440918,-46.650001525878906,21.600000381469727
4.441,80.44517517089844,-13.21599292755127,13.675680160522461,202.77793884277344,-86.20060729980469,-87.79938507080078,-23.700000762939453,-46.5,22.5
4.461,79.06611633300781,-10.72602367401123,16.395492553710938,226.7595672607422,-99.92343139648438,-74.07656860351562,-24.450000762939453,-45.75,22.950000762939453
4.464,76.61445617675781,-9.615114212036133,18.54069709777832,257.8024597167969,-113.77947998046875,-75.5421142578125,-24.30000114440918,-45.150001525878906,22.350000381469727
4.471,73.58818054199219,-9.806650161743164,20.41775131225586,268.0612487792969,-118.30934143066406,-69.94640350341797,-25.05000114440918,-45.900001525878906,23.100000381469727
4.481,73.7031021118164,-10.41956615447998,21.298818588256836,282.5834655761719,-129.36753845214844,-61.9525260925293,-25.05000114440918,-45.900001525878906,23.100000381469727
4.491,74.7374038696289,-12.986149787902832,24.210166931152344,305.09954833984375,-139.2266387939453,-51.560489654541016,-24.750001907348633,-43.650001525878906,23.850000381469727
4.501,75.73339080810547,-17.31486701965332,26.355371475219727,316.8238830566406,-159.74424743652344,-56.889739990234375,-25.200000762939453,-43.80000305175781,24.450000762939453
4.521,77.07414245605469,-21.75850486755371,30.530860900878906,315.8912658691406,-158.545166015625,-58.4885139465332,-26.700000762939453,-43.05000305175781,25.80000114440918
4.524,77.95520782470703,-28.155811309814453,30.99054718017578,296.17303466796875,-181.19448852539062,-60.75344467163086,-26.700000762939453,-43.80000305175781,25.80000114440918
4.531,80.2536392211914,-37.88584899902344,33.978511810302734,292.0428771972656,-193.05206298828125,-74.20980072021484,-26.700000762939453,-43.80000305175781,25.80000114440918
4.541,79.48749542236328,-42.32948684692383,33.94020462036133,261.13323974609375,-199.5803985595703,-79.9387435913086,-26.250001907348633,-40.95000076293945,26.100000381469727
4.551,78.75965881347656,-47.117889404296875,31.028854370117188,235.55282592773438,-204.7764129638672,-94.0612564086914,-27.900001525878906,-43.05000305175781,25.80000114440918
4.561,77.49552154541016,-50.71876907348633,27.88766098022461,199.713623046875,-215.7013702392578,-109.11638641357422,-28.80000114440918,-39.75,26.100000381469727
4.58,73.85633087158203,-52.94058609008789,23.865402221679688,156.94639587402344,-204.7764129638672,-119.5084228515625,-28.500001907348633,-40.5,25.350000381469727
4.584,70.21714782714844,-52.289363861083984,19.268535614013672,83.5359878540039,-192.11944580078125,-153.48239135742188,-30.450000762939453,-39.900001525878906,27.750001907348633
4.591,65.58197021484375,-48.458641052246094,13.292608261108398,60.62021255493164,-186.5237274169922,-159.74424743652344,-30.450000762939453,-39.900001525878906,27.750001907348633
4.601,63.781532287597656,-43.900081634521484,11.377246856689453,20.517610549926758,-170.53598022460938,-168.0045928955078,-29.400001525878906,-37.95000076293945,24.0
4.611,62.057708740234375,-37.46446990966797,6.665457725524902,-9.459418296813965,-146.68759155273438,-176.13169860839844,-31.200000762939453,-38.400001525878906,25.80000114440918
4.621,61.5980224609375,-30.569168090820312,5.669469833374023,-25.447166442871094,-126.03675079345703,-190.25421142578125,-31.500001907348633,-37.5,23.55000114440918
4.64,61.71294403076172,-24.286781311035156,4.865017890930176,-28.644716262817383,-113.24655151367188,-190.78712463378906,-32.400001525878906,-36.45000076293945,24.750001907348633
4.644,64.31783294677734,-14.250288963317871,6.89530086517334,-34.64012145996094,-104.05359649658203,-187.72280883789062,-33.150001525878906,-36.45000076293945,24.450000762939453
4.651,63.589996337890625,-12.947842597961426,8.08282470703125,-33.17457962036133,-107.3843765258789,-174.9326171875,-33.150001525878906,-36.45000076293945,24.450000762939453
4.661,66.15657806396484,-10.764330863952637,8.96389102935791,-32.5084228515625,-109.64930725097656,-161.6094970703125,-33.30000305175781,-35.85000228881836,22.350000381469727
4.671,66.84611511230469,-5.70777702331543,7.967903137207031,-25.846860885620117,-108.050537109375,-162.1424102783203,-34.80000305175781,-33.900001525878906,20.850000381469727
4.681,67.76548767089844,-0.3447650372982025,6.627150535583496,-19.31852912902832,-99.3905029296875,-160.6768798828125,-33.150001525878906,-33.0,22.950000762939453
4.694,67.95702362060547,-0.6512228846549988,5.899312973022461,-1.9984685182571411,-93.66156005859375,-150.55130004882812,-33.900001525878906,-33.75,21.150001525878906
4.701,67.61225891113281,-1.3024457693099976,3.5625722408294678,20.517610549926758,-97.39203643798828,-129.76722717285156,-33.900001525878906,-33.75,21.150001525878906
4.711,66.99934387207031,-2.030282974243164,2.145204782485962,21.983154296875,-90.4640121459961,-136.56201171875,-35.400001525878906,-31.05000114440918,21.150001525878906
4.721,66.8844223022461,-1.455674648284912,2.911349296569824,15.854516983032227,-83.5359878540039,-116.9770278930664,-36.0,-33.150001525878906,19.05000114440918
4.731,65.42874145507812,-2.5665841102600098,2.5282769203186035,20.517610549926758,-89.5313949584961,-114.71209716796875,-36.0,-31.200000762939453,20.100000381469727
4.75,66.80780792236328,-1.4939818382263184,0.38307225704193115,20.91730499267578,-82.6033706665039,-99.52373504638672,-36.0,-31.200000762939453,20.100000381469727
4.754,66.5396499633789,1.9919757843017578,-0.9193734526634216,16.25421142578125,-78.60643005371094,-94.0612564086914,-37.5,-29.700000762939453,19.5
4.761,65.62027740478516,2.911349296569824,-3.44765043258667,14.655436515808105,-64.88361358642578,-99.92343139648438,-37.5,-29.700000762939453,19.5
4.771,66.65457153320312,3.8307228088378906,-4.022258758544922,25.18070411682129,-72.47779083251953,-83.5359878540039,-36.45000076293945,-29.850000381469727,19.200000762939453
4.781,68.07194519042969,4.750096321105957,-1.2258312702178955,10.525267601013184,-61.15313720703125,-81.13782501220703,-36.0,-29.700000762939453,18.75
4.791,69.64253997802734,5.746084213256836,-1.1492167711257935,7.194486618041992,-71.14547729492188,-70.74578857421875,-36.0,-29.700000762939453,18.75
4.811,71.13652038574219,6.933608055114746,-5.631162166595459,-7.327718257904053,-66.34915924072266,-65.41653442382812,-37.95000076293945,-29.100000381469727,17.700000762939453
4.814,72.74542236328125,5.363011837005615,-6.933608055114746,-16.12097930908203,-54.4915771484375,-53.82542037963867,-37.05000305175781,-28.500001907348633,18.0
4.821,76.07815551757812,6.435614109039307,-9.117119789123535,-23.448698043823242,-46.09800720214844,-55.15773391723633,-37.650001525878906,-29.100000381469727,16.650001525878906
4.831,77.53382873535156,6.742072105407715,-9.883264541625977,-17.32006072998047,-43.83307647705078,-58.888206481933594,-38.55000305175781,-28.200000762939453,18.0
4.841,79.87056732177734,9.385271072387695,-10.457873344421387,-15.188361167907715,-41.434913635253906,-46.231239318847656,-38.55000305175781,-28.200000762939453,18.0
4.851,81.24962615966797,13.48414421081543,-11.568782806396484,-6.5283308029174805,-36.63859176635742,-43.16691970825195,-37.95000076293945,-29.100000381469727,17.700000762939453
4.871,81.82423400878906,16.58702850341797,-12.48815631866455,6.128636837005615,-28.378253936767578,-34.64012145996094,-38.25,-28.500001907348633,17.25
4.874,82.0157699584961,20.341136932373047,-14.211980819702148,22.116384506225586,-27.31240463256836,-13.989279747009277,-37.95000076293945,-29.100000381469727,16.650001525878906
4.881,83.58637237548828,23.252487182617188,-14.901511192321777,31.176109313964844,-31.042879104614258,-6.5283308029174805,-37.80000305175781,-27.450000762939453,17.55000114440918
4.891,84.9654312133789,20.992361068725586,-15.284584045410156,42.90045928955078,-29.444103240966797,16.78713607788086,-37.80000305175781,-27.450000762939453,17.55000114440918
4.901,87.18724822998047,22.06496238708496,-15.476119995117188,47.9632453918457,-16.78713607788086,17.053598403930664,-39.0,-28.500001907348633,20.100000381469727
4.911,89.71552276611328,19.728221893310547,-14.633360862731934,68.08116149902344,-26.379785537719727,30.509952545166016,-38.70000076293945,-27.600000381469727,18.150001525878906
4.93,90.51998138427734,17.31486701965332,-16.395492553710938,63.418067932128906,-18.119447708129883,31.842266082763672,-38.400001525878906,-27.600000381469727,17.400001525878906
4.934,90.48167419433594,13.982137680053711,-16.127342224121094,71.2787094116211,-14.522205352783203,45.16539001464844,-37.80000305175781,-28.200000762939453,17.25
4.941,88.0300064086914,9.730035781860352,-17.353174209594727,70.87902069091797,-12.25727367401123,48.49617004394531,-37.5,-28.200000762939453,18.0
4.951,88.98768615722656,6.358999729156494,-17.851167678833008,70.61255645751953,-9.459418296813965,51.4272575378418,-37.5,-28.200000762939453,18.0
4.961,87.49370574951172,5.439626216888428,-17.046716690063477,53.558956146240234,12.790199279785156,45.69831466674805,-38.55000305175781,-27.450000762939453,18.75
4.971,88.87276458740234,1.9153614044189453,-15.054739952087402,53.42572784423828,5.995405673980713,46.764163970947266,-38.70000076293945,-27.900001525878906,18.150001525878906
4.991,94.27408599853516,0.3064578175544739,-14.748282432556152,33.17457962036133,10.791729927062988,41.701377868652344,-38.25,-28.200000762939453,18.0
4.995,99.10079956054688,-1.8770540952682495,-14.250288963317871,-12.523736000061035,25.846860885620117,36.238895416259766,-37.5,-28.200000762939453,17.55000114440918
5.001,101.59076690673828,2.3367409706115723,-19.115306854248047,-29.31087303161621,32.37519073486328,47.163856506347656,-37.5,-28.200000762939453,17.55000114440918
5.011,99.98186492919922,7.048529624938965,-22.754493713378906,-35.57273864746094,37.304744720458984,70.61255645751953,-38.70000076293945,-29.100000381469727,17.700000762939453
5.021,98.52619171142578,12.60307788848877,-23.02264404296875,-29.444103240966797,49.69525146484375,84.20214080810547,-38.25,-30.150001525878906,19.5
5.031,94.77207946777344,16.855180740356445,-22.792800903320312,-19.052066802978516,64.3506851196289,92.72894287109375,-36.45000076293945,-29.55000114440918,18.450000762939453
5.05,88.68122863769531,17.966089248657227,-20.149600982666016,7.594180583953857,59.95405578613281,101.78866577148438,-37.650001525878906,-30.30000114440918,18.450000762939453
5.054,81.36454772949219,11.60708999633789,-14.288596153259277,35.306278228759766,73.0107192993164,116.9770278930664,-37.650001525878906,-30.30000114440918,18.450000762939453
5.061,79.98548889160156,9.500192642211914,-11.1474027633667,40.76875686645508,75.94180297851562,119.5084228515625,-37.5,-31.200000762939453,20.55000114440918
5.071,76.26969146728516,3.485957622528076,-6.703764915466309,48.49617004394531,59.82082748413086,118.97549438476562,-36.30000305175781,-30.150001525878906,19.5
5.081,72.70711517333984,-3.1028854846954346,-1.4939818382263184,45.43185043334961,43.56661605834961,134.83001708984375,-37.650001525878906,-32.25,19.950000762939453
5.091,67.03765106201172,-9.730035781860352,1.072602391242981,9.992342948913574,48.62940216064453,121.50688934326172,-36.900001525878906,-32.25,19.200000762939453
5.103,61.444793701171875,-13.560758590698242,-3.869029998779297,-1.0658499002456665,41.035221099853516,136.56201171875,-38.400001525878906,-31.500001907348633,21.150001525878906
5.111,57.46084213256836,-15.24627685546875,-7.469909191131592,-15.321592330932617,46.09800720214844,143.4900360107422,-38.400001525878906,-31.500001907348633,21.150001525878906
5.121,56.541465759277344,-16.242263793945312,-6.971915245056152,-25.04747200012207,33.70750427246094,131.49923706054688,-34.650001525878906,-33.0,21.450000762939453
5.131,58.03544998168945,-16.127342224121094,-7.929595947265625,-29.7105655670166,35.439510345458984,118.30934143066406,-33.75,-33.60000228881836,20.850000381469727
5.141,61.36817932128906,-16.81687355041504,-7.393294811248779,-19.185298919677734,21.45022964477539,115.11178588867188,-34.95000076293945,-33.0,22.5
5.151,64.7009048461914,-16.242263793945312,-5.937620162963867,1.3323123455047607,13.722817420959473,123.63858795166016,-35.70000076293945,-33.45000076293945,21.75
5.164,68.37840270996094,-15.24627685546875,-5.822698593139648,1.7320060729980469,16.78713607788086,116.57733154296875,-35.70000076293945,-33.45000076293945,21.75
5.171,71.8260498046875,-15.284584045410156,-7.814674377441406,9.859111785888672,17.852985382080078,125.37059783935547,-37.650001525878906,-34.95000076293945,22.200000762939453
5.181,72.78372955322266,-14.748282432556152,-5.822698593139648,26.912710189819336,12.390504837036133,130.30015563964844,-34.650001525878906,-34.95000076293945,21.150001525878906
5.191,75.46524047851562,-18.655620574951172,-6.512228488922119,16.25421142578125,30.776416778564453,110.58192443847656,-34.95000076293945,-36.900001525878906,21.150001525878906
5.201,78.29997253417969,-21.911733627319336,-5.1331682205200195,11.724349021911621,27.578866958618164,117.24349212646484,-33.45000076293945,-36.150001525878906,22.200000762939453
5.221,79.98548889160156,-22.37141990661621,-5.363011837005615,-2.2649309635162354,32.24195861816406,112.4471664428711,-33.45000076293945,-36.150001525878906,22.200000762939453
5.224,80.2536392211914,-22.2948055267334,-8.197746276855469,-6.261868000030518,41.967838287353516,122.83920288085938,-33.45000076293945,-37.20000076293945,22.5
5.231,76.84429931640625,-19.49837875366211,-14.058752059936523,-18.119447708129883,50.4946403503418,115.77794647216797,-33.900001525878906,-38.400001525878906,21.450000762939453
5.241,75.84831237792969,-17.238252639770508,-15.207969665527344,-8.260336875915527,60.62021255493164,111.91423797607422,-32.25,-36.60000228881836,23.100000381469727
5.251,74.62248229980469,-14.403517723083496,-14.748282432556152,-7.327718257904053,60.62021255493164,121.64012145996094,-33.45000076293945,-38.400001525878906,21.75
5.261,75.50354766845703,-7.661445617675781,-13.177685737609863,3.197549819946289,63.684532165527344,137.09494018554688,-33.150001525878906,-38.85000228881836,23.700000762939453
5.281,76.00154113769531,-3.7158010005950928,-10.074800491333008,2.2649309635162354,61.15313720703125,135.36293029785156,-33.150001525878906,-38.85000228881836,23.700000762939453
5.284,78.49150848388672,-2.7964274883270264,-6.627150535583496,26.246553421020508,36.905052185058594,174.26646423339844,-31.650001525878906,-40.650001525878906,24.750001907348633
5.291,80.36856079101562,0.38307225704193115,-4.481945514678955,32.64165496826172,30.24349021911621,172.93414306640625,-31.05000114440918,-39.0,24.600000381469727
5.301,80.52178955078125,-1.5322890281677246,-4.060565948486328,54.4915771484375,20.784072875976562,174.66615295410156,-31.05000114440918,-40.20000076293945,23.100000381469727
5.311,82.0157699584961,-4.903325080871582,-5.018246650695801,71.41194152832031,7.194486618041992,185.32464599609375,-31.500001907348633,-40.20000076293945,24.600000381469727
5.321,82.93515014648438,-8.504204750061035,-5.4013190269470215,106.31852722167969,-9.992342948913574,192.51913452148438,-31.500001907348633,-40.20000076293945,24.600000381469727
5.341,81.70931243896484,-10.342951774597168,-5.439626216888428,123.63858795166016,-16.520673751831055,186.5237274169922,-30.750001907348633,-43.20000076293945,24.900001525878906
5.344,80.98147583007812,-11.798625946044922,-2.451662540435791,154.6814727783203,-26.246553421020508,184.1255645751953,-29.55000114440918,-43.95000076293945,24.600000381469727
5.351,79.14273071289062,-17.1999454498291,-1.2258312702178955,156.14700317382812,-21.183767318725586,177.33078002929688,-29.55000114440918,-43.95000076293945,24.600000381469727
5.361,79.98548889160156,-19.345149993896484,1.0342950820922852,169.8698272705078,-37.4379768371582,170.93568420410156,-28.80000114440918,-43.95000076293945,26.100000381469727
5.371,76.95922088623047,-26.85336685180664,0.9193734526634216,155.747314453125,-38.77029037475586,164.4073486328125,-28.80000114440918,-43.95000076293945,26.100000381469727
5.381,73.43495178222656,-30.186094284057617,-2.75812029838562,149.7519073486328,-39.30321502685547,161.07656860351562,-27.150001525878906,-41.85000228881836,26.250001907348633
5.4,70.75344848632812,-33.17405700683594,-4.903325080871582,143.75650024414062,-33.57427215576172,167.33843994140625,-27.450000762939453,-43.80000305175781,26.55000114440918
5.404,66.04165649414062,-29.573179244995117,-4.252102375030518,140.29249572753906,-30.509952545166016,160.6768798828125,-27.900001525878906,-43.80000305175781,27.000001907348633
5.411,65.42874145507812,-28.19411849975586,-3.9839515686035156,137.76109313964844,-25.447166442871094,164.67381286621094,-27.900001525878906,-43.80000305175781,27.000001907348633
5.421,64.85413360595703,-25.933992385864258,-1.8770540952682495,148.0198974609375,-31.975496292114258,158.14547729492188,-27.900001525878906,-43.80000305175781,27.000001907348633
5.431,64.6242904663086,-24.478317260742188,0.3447650372982025,157.87901306152344,-44.23276901245117,160.14395141601562,-27.900001525878906,-43.80000305175781,27.000001907348633
5.441,63.475074768066406,-27.351360321044922,4.788403511047363,154.6814727783203,-53.159263610839844,151.084228515625,-24.900001525878906,-45.30000305175781,28.80000114440918
5.46,62.249244689941406,-32.599449157714844,4.941632270812988,160.6768798828125,-60.62021255493164,151.2174530029297,-24.150001525878906,-44.55000305175781,28.500001907348633
5.464,60.60203170776367,-34.13174057006836,4.941632270812988,149.7519073486328,-70.47932434082031,129.50076293945312,-24.30000114440918,-45.60000228881836,29.700000762939453
5.471,58.3036003112793,-44.85776138305664,3.2178070545196533,145.88819885253906,-83.5359878540039,121.3736572265625,-24.30000114440918,-45.60000228881836,29.700000762939453
5.481,58.03544998168945,-46.198516845703125,0.5746083855628967,127.76875305175781,-75.27565002441406,92.19601440429688,-24.30000114440918,-45.60000228881836,29.700000762939453
5.491,57.34592056274414,-45.777137756347656,-1.1492167711257935,114.17916870117188,-80.73812866210938,66.61561584472656,-25.05000114440918,-47.10000228881836,30.450000762939453
5.501,59.06974411010742,-45.164222717285156,-1.37906014919281,100.18988800048828,-81.8039779663086,58.754974365234375,-23.700000762939453,-46.5,29.55000114440918
5.519,61.866172790527344,-42.02302932739258,-0.9576807022094727,74.60948944091797,-75.5421142578125,35.839202880859375,-23.700000762939453,-45.75,29.850000381469727
5.523,66.23319244384766,-41.5250358581543,-5.018246650695801,71.67840576171875,-77.4073486328125,29.977027893066406,-23.700000762939453,-45.75,29.850000381469727
5.531,65.81181335449219,-38.69029998779297,-6.01423454284668,61.81929397583008,-69.94640350341797,14.255742073059082,-23.700000762939453,-45.75,29.850000381469727
5.541,68.56993865966797,-37.809234619140625,-4.788403511047363,61.68606185913086,-69.81317138671875,9.192955017089844,-23.400001525878906,-44.55000305175781,29.250001907348633
5.551,70.44699096679688,-31.258697509765625,-5.324704647064209,62.21898651123047,-63.28483963012695,-1.4655436277389526,-24.30000114440918,-46.35000228881836,29.700000762939453
5.561,73.0135726928711,-30.032865524291992,-6.780379295349121,73.27718353271484,-66.34915924072266,-3.597243309020996,-24.30000114440918,-45.150001525878906,29.400001525878906
5.58,73.85633087158203,-27.542896270751953,-8.389283180236816,88.46553802490234,-45.69831466674805,-14.255742073059082,-24.450000762939453,-45.0,28.80000114440918
5.583,76.46122741699219,-25.89568519592285,-8.274360656738281,101.38896942138672,-54.75803756713867,-10.125574111938477,-24.450000762939453,-45.0,28.80000114440918
5.591,77.38059997558594,-24.708162307739258,-7.623138427734375,95.66002655029297,-54.62480926513672,-18.385910034179688,-24.450000762939453,-45.0,28.80000114440918
5.601,79.44918823242188,-23.980323791503906,-6.358999729156494,116.44409942626953,-60.48698043823242,-23.98162269592285,-25.05000114440918,-44.400001525878906,29.700000762939453
5.611,81.82423400878906,-21.98834800720215,-5.018246650695801,123.50535583496094,-70.47932434082031,-18.385910034179688,-25.200000762939453,-43.05000305175781,29.250001907348633
5.63,82.20730590820312,-21.0689754486084,-6.129156112670898,131.49923706054688,-70.21286010742188,-32.24195861816406,-24.900001525878906,-43.5,30.600000381469727
5.634,79.14273071289062,-21.605276107788086,-5.70777702331543,149.7519073486328,-74.07656860351562,-39.569679260253906,-24.900001525878906,-43.5,30.600000381469727
5.641,80.06210327148438,-22.026655197143555,-7.7763671875,165.87289428710938,-81.53751373291016,-34.64012145996094,-26.250001907348633,-42.150001525878906,32.25
5.651,82.4754638671875,-22.06496238708496,-7.163451671600342,171.86830139160156,-69.67993927001953,-48.76263427734375,-24.150001525878906,-42.60000228881836,30.600000381469727
5.661,88.52799987792969,-23.712173461914062,-2.911349296569824,186.79019165039062,-71.14547729492188,-64.21745300292969,-25.05000114440918,-42.900001525878906,30.900001525878906
5.671,93.58455657958984,-23.099258422851562,2.604891538619995,208.3736572265625,-82.6033706665039,-61.9525260925293,-24.900001525878906,-41.55000305175781,32.10000228881836
5.69,95.04022979736328,-23.482330322265625,7.1251444816589355,228.35833740234375,-77.67381286621094,-71.41194152832031,-24.900001525878906,-41.55000305175781,32.10000228881836
5.694,94.38900756835938,-24.018630981445312,5.631162166595459,264.1975402832031,-83.40275573730469,-74.8759536743164,-25.500001907348633,-40.95000076293945,33.45000076293945
5.701,90.67321014404297,-23.980323791503906,-0.2298433631658554,281.2511291503906,-92.3292465209961,-80.33843994140625,-25.200000762939453,-39.60000228881836,32.10000228881836
5.711,88.37477111816406,-22.946029663085938,-3.869029998779297,299.37060546875,-84.33537292480469,-76.20826721191406,-26.400001525878906,-37.95000076293945,34.650001525878906
5.721,87.45539855957031,-20.76251792907715,-2.719813108444214,316.0245056152344,-74.34303283691406,-73.14395141601562,-27.750001907348633,-37.05000305175781,34.95000076293945
5.731,85.27188873291016,-17.42978858947754,3.7924153804779053,320.1546630859375,-82.6033706665039,-72.74425506591797,-27.750001907348633,-37.05000305175781,34.95000076293945
5.75,87.07232666015625,-14.709975242614746,10.764330863952637,353.595703125,-92.99540710449219,-63.418067932128906,-27.750001907348633,-34.35000228881836,36.0
5.754,87.53201293945312,-16.203956604003906,16.58702850341797,364.92034912109375,-114.04593658447266,-54.89126968383789,-27.30000114440918,-34.80000305175781,36.0
5.761,86.61264038085938,-19.306842803955078,19.80483627319336,361.7228088378906,-116.71056365966797,-63.684532165527344,-27.900001525878906,-33.75,35.85000228881836
5.771,84.77389526367188,-18.808849334716797,20.456058502197266,373.58038330078125,-133.09800720214844,-54.62480926513672,-27.900001525878906,-33.0,35.85000228881836
5.781,81.55608367919922,-18.77054214477539,22.333112716674805,380.6416320800781,-152.016845703125,-51.82695007324219,-28.80000114440918,-30.900001525878906,34.95000076293945
5.791,79.67903137207031,-17.12333106994629,21.98834800720215,400.7595520019531,-149.3522186279297,-42.101070404052734,-28.80000114440918,-30.900001525878906,34.95000076293945
5.81,77.1124496459961,-15.322891235351562,22.754493713378906,414.3491516113281,-153.21592712402344,-29.444103240966797,-28.80000114440918,-29.250001907348633,34.5
5.814,73.664794921875,-10.917559623718262,26.163835525512695,447.7901916503906,-164.27410888671875,-23.98162269592285,-27.900001525878906,-27.900001525878906,36.150001525878906
5.821,72.63050079345703,-7.929595947265625,31.29700469970703,456.983154296875,-160.54364013671875,-23.581928253173828,-29.55000114440918,-25.500001907348633,38.55000305175781
5.831,73.54987335205078,-8.236053466796875,34.93619155883789,476.4349060058594,-169.73660278320312,-18.652372360229492,-29.700000762939453,-23.700000762939453,36.150001525878906
5.841,74.54586791992188,-12.258312225341797,39.37982940673828,500.2832946777344,-193.18528747558594,-8.39356803894043,-29.700000762939453,-23.700000762939453,36.150001525878906
5.851,75.3503189086914,-16.970102310180664,43.287166595458984,509.6094970703125,-197.44869995117188,-5.595712184906006,-30.450000762939453,-22.950000762939453,36.150001525878906
5.871,71.97927856445312,-23.712173461914062,41.25688552856445,512.673828125,-190.25421142578125,-20.38437843322754,-30.900001525878906,-21.75,34.35000228881836
5.874,68.91470336914062,-29.688100814819336,39.60967254638672,514.6722412109375,-190.38743591308594,-33.4410400390625,-30.900001525878906,-20.55000114440918,34.650001525878906
5.881,68.761474609375,-37.08139419555664,40.873809814453125,502.4150085449219,-190.9203643798828,-46.764163970947266,-31.650001525878906,-18.30000114440918,35.10000228881836
5.891,70.37037658691406,-39.839515686035156,41.83149337768555,471.6385803222656,-186.5237274169922,-62.8851432800293,-31.650001525878906,-18.30000114440918,35.10000228881836
5.901,71.8260498046875,-40.7205810546875,43.24885940551758,443.1271057128906,-191.18682861328125,-81.40428924560547,-33.30000305175781,-18.150001525878906,33.45000076293945
5.911,76.15476989746094,-37.96246337890625,42.09964370727539,413.6829833984375,-201.71209716796875,-88.73200225830078,-32.25,-16.5,33.45000076293945
5.93,74.46924591064453,-32.331298828125,42.252872467041016,367.185302734375,-195.31700134277344,-97.65850067138672,-33.30000305175781,-13.050000190734863,31.500001907348633
5.933,68.56993865966797,-17.659631729125977,36.69832229614258,367.185302734375,-199.5803985595703,-78.47319793701172,-33.30000305175781,-13.050000190734863,31.500001907348633
5.941,66.9227294921875,-13.254301071166992,35.31926345825195,365.4532775878906,-200.5130157470703,-76.87442779541016,-32.70000076293945,-13.200000762939453,30.30000114440918
5.951,63.74322509765625,-7.738059997558594,34.20835494995117,374.9126892089844,-188.65542602539062,-75.5421142578125,-32.70000076293945,-13.200000762939453,30.30000114440918
5.961,63.092002868652344,-2.873042106628418,32.13976287841797,390.3675231933594,-175.19908142089844,-73.14395141601562,-33.900001525878906,-11.40000057220459,28.80000114440918
5.971,62.44078063964844,-0.6512228846549988,33.48051834106445,412.2174377441406,-170.53598022460938,-69.4134750366211,-34.80000305175781,-10.350000381469727,28.650001525878906
5.989,68.1868667602539,-1.1875240802764893,37.656005859375,444.326171875,-175.59877014160156,-78.73966217041016,-35.55000305175781,-9.600000381469727,26.100000381469727
5.994,82.28392028808594,-8.006210327148438,47.19450378417969,442.32769775390625,-179.595703125,-87.9326171875,-35.55000305175781,-9.600000381469727,26.100000381469727
6.001,83.89282989501953,-9.730035781860352,47.96064758300781,444.45941162109375,-191.18682861328125,-93.79479217529297,-35.55000305175781,-9.600000381469727,26.100000381469727
6.011,82.36053466796875,-12.679692268371582,49.37801742553711,447.7901916503906,-199.84686279296875,-88.99846649169922,-35.25,-8.100000381469727,23.100000381469727
6.021,81.09639739990234,-17.353174209594727,49.224788665771484,437.2649230957031,-204.50994873046875,-96.05972290039062,-35.25,-5.700000286102295,23.55000114440918
6.04,79.33426666259766,-21.337125778198242,47.922340393066406,415.2817687988281,-192.51913452148438,-94.46094512939453,-36.0,-4.950000286102295,21.600000381469727
6.044,76.38461303710938,-22.256498336791992,45.66221618652344,386.3705749511719,-181.06124877929688,-94.19448852539062,-35.25,-4.950000286102295,22.80000114440918
6.051,72.28573608398438,-23.13756561279297,40.83550262451172,379.309326171875,-179.0627899169922,-107.91730499267578,-35.25,-4.950000286102295,22.80000114440918
6.061,71.67282104492188,-22.7161865234375,40.107666015625,368.3843688964844,-169.4701385498047,-113.91270446777344,-35.25,-3.450000047683716,20.100000381469727
6.071,73.89463806152344,-22.7161865234375,38.8818359375,360.1240234375,-150.81776428222656,-138.02755737304688,-36.0,-2.25,19.80000114440918
6.081,81.82423400878906,-24.631547927856445,39.533058166503906,355.4609375,-170.93568420410156,-142.4241943359375,-35.400001525878906,-1.6500000953674316,15.90000057220459
6.101,86.99571228027344,-25.09123420715332,40.95042419433594,338.27410888671875,-169.4701385498047,-168.80397033691406,-36.900001525878906,-2.4000000953674316,19.200000762939453
6.104,86.45941162109375,-26.54690933227539,36.8515510559082,309.2297058105469,-176.13169860839844,-169.33689880371094,-36.900001525878906,-2.4000000953674316,19.200000762939453
6.111,79.6024169921875,-25.244462966918945,29.994558334350586,307.2312316894531,-168.67074584960938,-159.74424743652344,-36.900001525878906,-2.4000000953674316,19.200000762939453
6.121,76.80599212646484,-24.36339569091797,27.849353790283203,294.8407287597656,-170.66921997070312,-164.94027709960938,-35.400001525878906,0.45000001788139343,15.15000057220459
6.131,72.66880798339844,-22.409727096557617,25.20615577697754,285.64776611328125,-158.81163024902344,-165.4731903076172,-34.650001525878906,2.1000001430511475,14.40000057220459
6.141,69.83407592773438,-19.99637222290039,22.984336853027344,273.25726318359375,-144.82235717773438,-166.67227172851562,-34.95000076293945,1.6500000953674316,12.600000381469727
6.16,67.84210205078125,-18.579004287719727,21.45204734802246,274.18988037109375,-148.55282592773438,-160.41041564941406,-36.150001525878906,3.1500000953674316,13.350000381469727
6.164,67.45903015136719,-17.774553298950195,20.149600982666016,268.4609375,-141.89126586914062,-166.1393585205078,-36.150001525878906,3.1500000953674316,13.350000381469727
6.171,71.55789947509766,-14.326903343200684,23.673866271972656,259.00152587890625,-132.83154296875,-174.66615295410156,-34.80000305175781,4.950000286102295,10.950000762939453
6.181,75.3503189086914,-13.445837020874023,23.865402221679688,251.94027709960938,-132.0321502685547,-170.26951599121094,-35.25,4.200000286102295,9.450000762939453
6.191,81.55608367919922,-12.947842597961426,22.60126495361328,256.3369140625,-145.6217498779297,-178.39662170410156,-33.75,2.25,7.950000286102295
6.201,82.85853576660156,-12.90953540802002,21.337125778198242,252.73965454101562,-146.9540557861328,-181.59417724609375,-33.75,5.700000286102295,7.950000286102295
6.221,85.34850311279297,-12.334927558898926,18.272546768188477,239.68299865722656,-143.75650024414062,-188.78866577148438,-33.75,5.700000286102295,7.950000286102295
6.224,86.91909790039062,-14.67166805267334,14.709975242614746,207.84072875976562,-135.89585876464844,-171.86830139160156,-34.20000076293945,8.25,6.750000476837158
6.231,85.96141815185547,-11.683704376220703,5.5545477867126465,184.1255645751953,-123.63858795166016,-171.86830139160156,-34.20000076293945,8.25,6.750000476837158
6.241,85.38681030273438,-11.262324333190918,-0.6512228846549988,156.41346740722656,-88.06584930419922,-172.134765625,-31.80000114440918,7.650000095367432,6.150000095367432
6.251,84.58235931396484,-8.427590370178223,-6.282385349273682,142.82388305664062,-57.289432525634766,-146.28790283203125,-32.400001525878906,6.300000190734863,4.950000286102295
6.261,84.69728088378906,-2.145204782485962,-7.240066051483154,138.02755737304688,-48.22970962524414,-126.83613586425781,-32.400001525878906,6.300000190734863,4.950000286102295
6.28,87.26386260986328,3.026270866394043,-5.592854976654053,139.6263427734375,-23.98162269592285,-123.10566711425781,-31.950000762939453,6.750000476837158,2.700000047683716
6.284,88.45138549804688,7.623138427734375,-6.090848922729492,169.8698272705078,-29.977027893066406,-93.2618637084961,-33.75,8.40000057220459,3.3000001907348633
6.291,90.97966766357422,9.461885452270508,-6.358999729156494,186.5237274169922,-32.37519073486328,-90.33078002929688,-33.75,8.40000057220459,3.3000001907348633
6.301,90.32844543457031,7.891288757324219,-5.70777702331543,185.99081420898438,-26.912710189819336,-77.14088439941406,-30.000001907348633,9.15000057220459,2.5500001907348633
6.311,89.71552276611328,5.592854976654053,-6.3973069190979,181.59417724609375,-17.986217498779297,-64.3506851196289,-33.0,7.650000095367432,3.3000001907348633
6.321,90.71151733398438,3.600879430770874,-6.3973069190979,182.7932586669922,-18.2526798248291,-46.497703552246094,-33.0,7.650000095367432,3.3000001907348633
6.34,91.09458923339844,-0.5363011956214905,-6.971915245056152,160.54364013671875,-17.852985382080078,-40.36906433105469,-30.450000762939453,9.450000762939453,1.2000000476837158
6.343,92.85671997070312,-7.469909191131592,-12.143390655517578,155.88055419921875,-17.053598403930664,-39.70290756225586,-31.05000114440918,8.100000381469727,1.350000023841858
6.351,91.59258270263672,-7.201758861541748,-12.641385078430176,137.62786865234375,-4.130168437957764,-30.24349021911621,-31.05000114440918,8.100000381469727,1.350000023841858
6.361,90.63490295410156,-5.937620162963867,-14.595053672790527,112.84685516357422,-4.796324729919434,-8.260336875915527,-31.80000114440918,8.40000057220459,0.0
6.371,88.5663070678711,-1.8770540952682495,-15.897499084472656,91.3966293334961,10.525267601013184,7.460949420928955,-31.80000114440918,8.40000057220459,0.0
6.381,85.08035278320312,4.520252704620361,-15.361198425292969,74.20980072021484,29.31087303161621,21.050535202026367,-30.450000762939453,9.0,0.15000000596046448
6.394,82.13069152832031,8.96389102935791,-7.6997528076171875,75.8085708618164,31.975496292114258,16.65390396118164,-32.55000305175781,8.40000057220459,-0.30000001192092896
6.401,79.71733856201172,11.070788383483887,-2.5282769203186035,76.74119567871094,11.457886695861816,52.093414306640625,-32.55000305175781,8.40000057220459,-0.30000001192092896
6.411,78.29997253417969,10.649409294128418,-1.7621324062347412,77.67381286621094,21.316997528076172,55.95711898803711,-31.950000762939453,8.700000762939453,0.9000000357627869
6.421,75.46524047851562,7.4316020011901855,-0.3064578175544739,84.86830139160156,16.520673751831055,61.9525260925293,-31.950000762939453,8.700000762939453,0.9000000357627869
6.431,73.74140930175781,3.8307228088378906,0.3447650372982025,95.26033782958984,8.260336875915527,76.20826721191406,-31.950000762939453,8.700000762939453,0.9000000357627869
6.45,72.13250732421875,-1.6089035272598267,1.4939818382263184,92.19601440429688,14.388973236083984,81.00459289550781,-33.0,6.750000476837158,0.45000001788139343
6.454,70.29376220703125,-7.010222434997559,-0.15322890877723694,77.80704498291016,27.84532928466797,86.0673828125,-32.55000305175781,6.450000286102295,0.6000000238418579
6.461,67.99533081054688,-8.810662269592285,-0.8427590131759644,77.4073486328125,21.050535202026367,99.79019927978516,-32.55000305175781,6.450000286102295,0.0
6.471,67.26749420166016,-9.078812599182129,1.4173674583435059,71.67840576171875,27.045940399169922,109.78253936767578,-32.55000305175781,6.450000286102295,0.0
6.481,65.96504211425781,-10.15141487121582,2.0685901641845703,59.287899017333984,27.978559494018555,105.91883087158203,-31.80000114440918,4.950000286102295,0.30000001192092896
6.491,64.73921203613281,-10.879252433776855,3.44765043258667,69.94640350341797,14.255742073059082,108.84992218017578,-33.0,4.200000286102295,1.350000023841858
6.511,62.364166259765625,-13.024456977844238,1.1109095811843872,74.34303283691406,14.388973236083984,107.78407287597656,-34.20000076293945,4.050000190734863,0.9000000357627869
6.514,61.751251220703125,-14.173673629760742,-2.9879636764526367,75.5421142578125,22.116384506225586,100.45635223388672,-32.70000076293945,4.050000190734863,1.6500000953674316
6.521,63.283538818359375,-18.617311477661133,-3.179499864578247,78.73966217041016,37.4379768371582,99.65696716308594,-32.70000076293945,4.050000190734863,1.6500000953674316
6.531,63.704917907714844,-20.83913230895996,-1.9919757843017578,84.60183715820312,34.24042892456055,105.25267791748047,-33.900001525878906,2.4000000953674316,1.2000000476837158
6.541,64.96905517578125,-20.992361068725586,-1.1875240802764893,84.4686050415039,40.502296447753906,104.32006072998047,-33.150001525878906,1.350000023841858,1.2000000476837158
6.551,68.22517395019531,-22.754493713378906,2.0685901641845703,84.73506927490234,50.36140823364258,92.86217498779297,-33.900001525878906,3.1500000953674316,1.2000000476837158
6.571,72.20912170410156,-24.478317260742188,1.072602391242981,85.13475799560547,53.159263610839844,98.32465362548828,-34.20000076293945,-1.350000023841858,1.2000000476837158
6.574,73.51156616210938,-26.278757095336914,-1.2641384601593018,87.79938507080078,48.76263427734375,90.86370086669922,-34.20000076293945,-1.350000023841858,1.2000000476837158
6.581,77.1507568359375,-29.075185775756836,-1.4939818382263184,90.06431579589844,53.558956146240234,87.9326171875,-33.900001525878906,0.45000001788139343,1.2000000476837158
6.591,78.83627319335938,-30.837318420410156,-2.5665841102600098,89.7978515625,58.08882141113281,83.26952362060547,-33.75,-0.75,1.0500000715255737
6.601,79.90887451171875,-31.488540649414062,-2.873042106628418,83.93567657470703,65.28330993652344,74.60948944091797,-34.650001525878906,0.45000001788139343,1.2000000476837158
6.611,81.36454772949219,-30.224401473999023,-1.7621324062347412,77.94027709960938,67.814697265625,82.47013854980469,-35.55000305175781,-1.5,2.1000001430511475
6.63,82.32222747802734,-30.530860900878906,-1.647210717201233,68.61408996582031,77.80704498291016,69.54670715332031,-35.25,-1.0500000715255737,1.350000023841858
6.634,83.31822204589844,-29.113492965698242,-1.455674648284912,69.01377868652344,69.67993927001953,87.26646423339844,-35.25,-1.0500000715255737,1.350000023841858
6.641,84.46743774414062,-27.044902801513672,-0.7661445140838623,61.9525260925293,65.68299865722656,85.80091857910156,-35.400001525878906,-1.6500000953674316,1.9500000476837158
6.651,83.35652923583984,-26.01060676574707,-0.7661445140838623,60.62021255493164,59.02143859863281,92.59571075439453,-35.400001525878906,-2.1000001430511475,3.0
6.661,82.32222747802734,-26.623523712158203,-0.5363011956214905,47.430320739746094,66.882080078125,97.7917251586914,-36.150001525878906,-4.050000190734863,2.700000047683716
6.671,81.90084838867188,-25.052927017211914,-0.6512228846549988,48.8958625793457,46.09800720214844,109.24961853027344,-36.150001525878906,-3.6000001430511475,1.9500000476837158
6.691,80.2536392211914,-25.09123420715332,-1.5322890281677246,43.30015182495117,39.9693717956543,117.9096450805664,-36.150001525878906,-3.6000001430511475,1.9500000476837158
6.695,77.30398559570312,-24.554933547973633,-2.719813108444214,37.70444107055664,49.96171569824219,124.43797302246094,-35.55000305175781,-3.750000238418579,2.5500001907348633
6.701,72.93695831298828,-24.516624450683594,-1.723825216293335,40.76875686645508,44.36600112915039,126.96936798095703,-35.400001525878906,-2.8500001430511475,5.25
6.711,71.71112823486328,-22.448034286499023,-0.49799394607543945,51.29402542114258,34.24042892456055,141.75804138183594,-36.0,-5.400000095367432,2.5500001907348633
6.721,70.5619125366211,-22.677879333496094,-0.3447650372982025,52.89280319213867,38.37059783935547,140.6921844482422,-36.150001525878906,-4.800000190734863,3.450000047683716
6.731,69.45100402832031,-23.099258422851562,0.8427590131759644,58.08882141113281,33.97396469116211,143.88973999023438,-36.150001525878906,-4.800000190734863,3.450000047683716
6.751,68.07194519042969,-24.861391067504883,2.1068975925445557,57.822357177734375,18.652372360229492,158.0122528076172,-37.650001525878906,-6.750000476837158,3.450000047683716
6.754,66.4630355834961,-29.76471519470215,2.5665841102600098,63.28483963012695,9.059723854064941,168.27105712890625,-37.650001525878906,-6.750000476837158,3.450000047683716
6.761,65.12228393554688,-31.067161560058594,3.026270866394043,51.693721771240234,13.58958625793457,148.28636169433594,-36.900001525878906,-7.800000190734863,3.750000238418579
6.771,64.93074798583984,-35.0128059387207,2.298433542251587,51.29402542114258,14.655436515808105,139.7595672607422,-37.650001525878906,-8.700000762939453,3.750000238418579
6.781,65.08397674560547,-37.88584899902344,3.332728862762451,51.560489654541016,20.38437843322754,137.49464416503906,-37.05000305175781,-8.850000381469727,3.3000001907348633
6.8,66.04165649414062,-41.90810775756836,3.754108190536499,32.90811538696289,27.31240463256836,124.03828430175781,-37.05000305175781,-8.850000381469727,3.3000001907348633
6.804,67.26749420166016,-45.81544494628906,4.8267107009887695,6.794793128967285,21.316997528076172,111.781005859375,-37.05000305175781,-9.15000057220459,4.650000095367432
6.811,68.26348114013672,-45.50898742675781,7.2783732414245605,-15.588054656982422,26.246553421020508,102.98774719238281,-38.25,-11.100000381469727,5.100000381469727
6.821,69.06793212890625,-44.12992477416992,6.435614109039307,-31.975496292114258,22.249616622924805,88.06584930419922,-36.75,-10.050000190734863,4.650000095367432
6.831,68.7231674194336,-39.11167907714844,3.1028854846954346,-46.63093185424805,25.18070411682129,75.67534637451172,-36.900001525878906,-10.5,4.950000286102295
6.841,67.26749420166016,-36.39186477661133,1.3024457693099976,-45.16539001464844,29.177640914916992,66.48238372802734,-36.900001525878906,-10.5,4.950000286102295
6.859,67.15257263183594,-31.258697509765625,-0.2298433631658554,-32.108726501464844,22.915773391723633,63.684532165527344,-37.20000076293945,-11.700000762939453,5.25
6.864,66.27149963378906,-29.53487205505371,-2.719813108444214,-29.577335357666016,23.581928253173828,53.159263610839844,-36.45000076293945,-11.700000762939453,4.950000286102295
6.871,64.0496826171875,-28.19411849975586,-1.3407529592514038,-29.044410705566406,30.24349021911621,49.02909469604492,-36.75,-11.550000190734863,5.850000381469727
6.881,64.93074798583984,-28.040889739990234,-2.183511972427368,-22.782541275024414,16.12097930908203,46.897396087646484,-37.20000076293945,-11.700000762939453,6.0
6.891,65.8501205444336,-29.075185775756836,-2.2601263523101807,-28.77794647216797,22.116384506225586,48.09647750854492,-37.20000076293945,-11.700000762939453,6.0
6.901,66.11827087402344,-27.15982437133789,-1.3407529592514038,-34.24042892456055,20.38437843322754,38.63705825805664,-35.70000076293945,-14.100000381469727,4.5
6.92,66.84611511230469,-26.700138092041016,-1.6855180263519287,-32.24195861816406,18.91883659362793,35.705970764160156,-36.75,-14.550000190734863,5.850000381469727
6.924,67.38241577148438,-26.470293045043945,-2.1068975925445557,-29.577335357666016,28.911178588867188,32.108726501464844,-36.45000076293945,-13.200000762939453,5.700000286102295
6.931,69.3360824584961,-27.849353790283203,-1.9919757843017578,-34.373661041259766,28.511484146118164,24.914241790771484,-37.5,-14.250000953674316,5.400000095367432
6.941,70.14053344726562,-26.278757095336914,-1.3407529592514038,-30.643184661865234,26.779478073120117,22.249616622924805,-37.5,-14.250000953674316,5.400000095367432
6.951,73.0518798828125,-27.351360321044922,-1.37906014919281,-25.846860885620117,28.77794647216797,21.716691970825195,-37.5,-14.250000953674316,5.400000095367432
6.961,76.84429931640625,-26.929981231689453,-3.179499864578247,-33.30780792236328,35.57273864746094,15.987748146057129,-35.400001525878906,-14.850000381469727,6.300000190734863
6.981,80.52178955078125,-25.435998916625977,-3.3710360527038574,-49.16232681274414,45.831546783447266,-2.398162364959717,-36.900001525878906,-14.40000057220459,6.0
6.984,83.89282989501953,-22.60126495361328,-3.2178070545196533,-40.76875686645508,53.29249572753906,1.1990811824798584,-36.45000076293945,-13.65000057220459,5.400000095367432
6.991,86.42110443115234,-16.35718536376953,-5.171475887298584,-20.117916107177734,46.897396087646484,9.326186180114746,-36.45000076293945,-13.65000057220459,7.050000190734863
7.001,87.3787841796875,-13.177685737609863,-4.405331134796143,-3.86370587348938,56.756507873535156,14.92189884185791,-36.45000076293945,-13.65000057220459,7.050000190734863
7.011,89.29414367675781,-10.074800491333008,-3.3710360527038574,13.056661605834961,51.4272575378418,8.660030364990234,-36.75,-13.500000953674316,8.40000057220459
7.021,92.35872650146484,-7.201758861541748,-2.604891538619995,48.362937927246094,37.03828430175781,8.793261528015137,-36.75,-14.550000190734863,7.650000095367432
7.041,94.23577880859375,-8.619126319885254,-0.3064578175544739,77.00765228271484,35.705970764160156,19.31852912902832,-36.0,-14.250000953674316,6.900000095367432
7.044,98.83264923095703,-12.449849128723145,2.719813108444214,113.64624786376953,29.444103240966797,10.258805274963379,-37.20000076293945,-15.15000057220459,7.800000190734863
7.051,98.71772766113281,-22.06496238708496,4.8267107009887695,137.09494018554688,16.387441635131836,0.9326186776161194,-37.20000076293945,-15.15000057220459,7.800000190734863
7.061,96.68743896484375,-29.419950485229492,5.899312973022461,157.87901306152344,15.588054656982422,-25.313934326171875,-36.45000076293945,-16.350000381469727,9.0
7.071,92.28211212158203,-38.34553527832031,5.056553840637207,162.27565002441406,15.188361167907715,-35.03981399536133,-37.5,-14.250000953674316,9.15000057220459
7.081,91.01797485351562,-44.43638229370117,5.899312973022461,163.20826721191406,5.8621745109558105,-44.89892578125,-35.55000305175781,-14.250000953674316,7.650000095367432
7.101,89.71552276611328,-47.117889404296875,5.899312973022461,158.9448699951172,0.1332312375307083,-55.29096221923828,-36.900001525878906,-15.15000057220459,8.25
7.104,86.91909790039062,-47.15619659423828,6.627150535583496,139.35987854003906,0.7993874549865723,-78.60643005371094,-37.20000076293945,-13.200000762939453,8.550000190734863
7.111,81.93915557861328,-47.34773254394531,6.818686485290527,129.6339874267578,0.6661561727523804,-85.26799011230469,-37.20000076293945,-13.200000762939453,8.550000190734863
7.121,80.56009674072266,-45.54729461669922,9.002198219299316,131.23277282714844,-3.3307809829711914,-100.85604858398438,-38.25,-14.250000953674316,7.350000381469727
7.131,78.22335815429688,-42.7508659362793,9.653421401977539,125.7702865600586,2.531393527984619,-97.39203643798828,-38.400001525878906,-13.65000057220459,7.050000190734863
