time,accel_x,accel_y,accel_z,gyro_x,gyro_y,gyro_z,mag_x,mag_y,mag_z
0.0,-0.3002992272377014,-9.787840843200684,-1.0588239431381226,0.00809396430850029,0.051923543214797974,0.04612032324075699,-13.519438743591309,50.70154571533203,-43.30604934692383
0.004,-0.25244277715682983,-9.779465675354004,-1.0719845294952393,0.01710422709584236,0.06276640295982361,0.06505714356899261,-13.387897491455078,50.90616989135742,-42.47296142578125
0.011,-0.21774685382843018,-9.802197456359863,-1.031306505203247,0.01878410577774048,0.06154467165470123,0.07299839705228806,-13.460975646972656,50.83308792114258,-42.619117736816406
0.021,-0.2021934986114502,-9.79142951965332,-0.97148597240448,0.015118913725018501,0.05406157299876213,0.07757988572120667,-12.744811058044434,50.3215446472168,-42.516807556152344
0.031,-0.2021934986114502,-9.745965957641602,-0.8566304445266724,0.009468411095440388,0.04841107130050659,0.0786488950252533,-13.504822731018066,50.540775299072266,-41.97603225708008
0.041,-0.12323036044836044,-9.617950439453125,-0.8434699773788452,0.005650503095239401,0.05146539583802223,0.08857545256614685,-13.154048919677734,50.90616989135742,-42.136802673339844
0.051,-0.0023928226437419653,-9.454041481018066,-0.9667003750801086,0.03145955875515938,0.05757404863834381,0.11667525768280029,-13.402514457702637,50.19000244140625,-42.76527404785156
0.069,0.2309073656797409,-9.504291534423828,-1.101894736289978,0.10781770944595337,0.02825251594185829,0.1595885455608368,-12.774043083190918,50.43846893310547,-42.0052604675293
0.073,0.25244277715682983,-9.525826454162598,-1.1078768968582153,0.1241583600640297,0.010690141469240189,0.17211127281188965,-13.21251106262207,50.263084411621094,-42.29757308959961
0.081,0.19621144235134125,-9.627521514892578,-1.0815558433532715,0.14294245839118958,-0.01725694164633751,0.18677204847335815,-12.934814453125,50.84770202636719,-41.683719635009766
0.091,0.008374879136681557,-9.724431037902832,-1.0707881450653076,0.15103644132614136,-0.04764748737215996,0.19883663952350616,-12.61327075958252,50.2776985168457,-42.633731842041016
0.101,-0.1698903888463974,-9.77587604522705,-1.062413215637207,0.14737124741077423,-0.07116580009460449,0.20861048996448517,-12.744811058044434,50.64308547973633,-42.22449493408203
0.12,-0.3158525824546814,-9.7938232421875,-1.0707881450653076,0.1342376321554184,-0.07467827200889587,0.22388210892677307,-13.022507667541504,50.21923065185547,-42.838348388671875
0.124,-0.4055834412574768,-9.812965393066406,-1.0133603811264038,0.11927143484354019,-0.07024950534105301,0.24327708780765533,-13.358667373657227,50.29231262207031,-42.633731842041016
0.131,-0.44386857748031616,-9.741181373596191,-1.0013961791992188,0.10797043144702911,-0.06001751124858856,0.25625795125961304,-12.408652305603027,50.2776985168457,-42.92604446411133
0.141,-0.46061834692955017,-9.69212818145752,-1.0193424224853516,0.09804386645555496,-0.03145955875515938,0.27290403842926025,-12.394037246704102,50.993858337402344,-42.53142547607422
0.151,-0.4402793347835541,-9.671788215637207,-1.038485050201416,0.09193521738052368,-0.00015271631127689034,0.2860376536846161,-12.116340637207031,49.766151428222656,-42.72142791748047
0.161,-0.38763725757598877,-9.688538551330566,-1.0683952569961548,0.08521570265293121,0.03329215571284294,0.3039054572582245,-11.9847993850708,50.555397033691406,-42.37065124511719
0.18,-0.22013966739177704,-9.714859962463379,-1.101894736289978,0.0832303911447525,0.04612032324075699,0.3220787048339844,-11.692487716674805,50.584625244140625,-43.262203216552734
0.184,0.01196411345154047,-9.77826976776123,-1.062413215637207,0.08536841720342636,0.04459316283464432,0.3452915847301483,-11.268634796142578,51.00847625732422,-42.73604202270508
0.191,0.10169495642185211,-9.842875480651855,-0.9834501147270203,0.08628471195697784,0.031001411378383636,0.3604104816913605,-11.940953254699707,50.39461898803711,-43.247589111328125
0.201,0.18903298676013947,-9.951748847961426,-0.8303093910217285,0.08521570265293121,0.017867807298898697,0.384234219789505,-11.078632354736328,50.39461898803711,-42.92604446411133
0.211,0.1579262912273407,-9.913464546203613,-0.9631110429763794,0.08659014105796814,-0.0022907445672899485,0.413555771112442,-11.663256645202637,50.13154220581055,-42.37065124511719
0.221,0.12203395366668701,-9.954142570495605,-1.0372885465621948,0.09605855494737625,-0.021532999351620674,0.4326452910900116,-11.575562477111816,50.365386962890625,-42.19526290893555
0.241,0.04307080805301666,-9.984052658081055,-0.9643074870109558,0.10415252298116684,-0.05467243865132332,0.4491386413574219,-11.210172653198242,50.20461654663086,-41.99064636230469
0.244,-0.2105683833360672,-10.035497665405273,-0.8386843204498291,0.1264491081237793,-0.09926559776067734,0.46792274713516235,-10.742472648620605,49.94153594970703,-42.75065612792969
0.251,-0.3960121273994446,-10.15753173828125,-0.8063812255859375,0.14294245839118958,-0.1082758679986,0.47448956966400146,-10.669394493103027,50.17538833618164,-42.867584228515625
0.261,-0.6520441174507141,-10.386046409606934,-0.5754737854003906,0.1569923609495163,-0.07162395119667053,0.5354233980178833,-10.05553913116455,50.0,-42.29757308959961
0.271,-0.8147560954093933,-11.005786895751953,0.12442676723003387,0.14278973639011383,0.013439035043120384,0.6250678896903992,-9.77784252166748,49.663841247558594,-42.75065612792969
0.281,-0.8518447875976562,-11.13619613647461,0.8781659007072449,-0.0039706239476799965,0.14553864300251007,0.7374670505523682,-9.397836685180664,49.590763092041016,-42.136802673339844
0.3,-0.8327022790908813,-10.593025207519531,0.29790639877319336,-0.31581732630729675,0.18906280398368835,0.8046622276306152,-8.637825012207031,49.31306457519531,-42.16603469848633
0.304,-1.195214867591858,-9.627521514892578,-1.3339985609054565,-0.3145955801010132,0.13729196786880493,0.7773259878158569,-8.696288108825684,49.32768249511719,-42.063724517822266
0.311,-1.730010747909546,-9.198010444641113,-1.8221343755722046,-0.26603180170059204,0.08811730891466141,0.7275404930114746,-8.652440071105957,48.655364990234375,-42.10757064819336
0.321,-2.2887346744537354,-9.059226036071777,-1.9680966138839722,-0.1647808998823166,0.1036943718791008,0.6743952035903931,-8.403975486755371,48.69921112060547,-41.53756332397461
0.331,-2.1750757694244385,-9.366703987121582,-1.6043875217437744,-0.09789115190505981,0.16371189057826996,0.6583600044250488,-8.228588104248047,48.23151397705078,-41.04063034057617
0.341,-1.7994025945663452,-9.926624298095703,-1.3734800815582275,-0.08307767659425735,0.19944749772548676,0.6768386363983154,-7.8485822677612305,48.81613540649414,-41.27448272705078
0.36,-1.4943177700042725,-10.27597713470459,-1.112662434577942,-0.14782939851284027,0.15241087973117828,0.7564038634300232,-6.752411365509033,48.45074462890625,-41.36217498779297
0.364,-1.2837493419647217,-10.248458862304688,-0.794417142868042,-0.17577646672725677,0.13744467496871948,0.7779368162155151,-7.190880298614502,47.77842712402344,-40.543701171875
0.371,-1.322034478187561,-10.0462646484375,-0.8901299834251404,-0.20387627184391022,0.11209376901388168,0.7987062931060791,-6.8401055335998535,47.529964447021484,-40.61677932739258
0.381,-1.435693621635437,-9.69810962677002,-1.1772687435150146,-0.21242839097976685,0.07956519722938538,0.8188648223876953,-6.693948745727539,48.30459213256836,-40.587547302246094
0.391,-1.7001004219055176,-9.401399612426758,-1.4141581058502197,-0.18157969415187836,0.058795779943466187,0.826500654220581,-5.9339375495910645,47.95381546020508,-40.71908950805664
0.401,-1.9286149740219116,-9.20877742767334,-1.537388563156128,-0.13973543047904968,0.05955936014652252,0.8155050873756409,-6.0508623123168945,48.085357666015625,-40.543701171875
0.42,-1.7850456237792969,-9.115457534790039,-1.574477195739746,-0.062460970133543015,0.09773843735456467,0.7579310536384583,-5.042385101318359,47.57380676269531,-40.35369873046875
0.424,-1.6582260131835938,-9.174081802368164,-1.5337992906570435,-0.0455094613134861,0.10293079167604446,0.7396051287651062,-5.466238021850586,47.63227081298828,-40.25138854980469
0.431,-1.4488540887832642,-9.329615592956543,-1.3495519161224365,-0.025961771607398987,0.1062905564904213,0.7220426797866821,-4.574686050415039,46.95995330810547,-40.514469146728516
0.441,-1.153340458869934,-9.542576789855957,-1.1832507848739624,-0.0012217304902151227,0.10277807712554932,0.7139487266540527,-4.413913726806641,47.5591926574707,-40.339080810546875
0.451,-0.8434699773788452,-9.958927154541016,-0.9571290016174316,0.04184426739811897,0.09560041129589081,0.7449501156806946,-4.691610336303711,46.78456497192383,-40.587547302246094
0.461,-0.7094718813896179,-10.494918823242188,-0.4211367666721344,0.05115996673703194,0.11560624837875366,0.8222246170043945,-3.9023678302764893,47.1791877746582,-40.397544860839844
0.48,-0.9320043921470642,-10.521241188049316,-1.3543375730514526,-0.03985895588994026,0.07956519722938538,0.9686795473098755,-3.829289674758911,46.287635803222656,-40.23677444458008
0.484,-1.1940184831619263,-10.386046409606934,-1.6666009426116943,-0.04718933627009392,0.05207626149058342,1.0212138891220093,-3.0985093116760254,46.126861572265625,-39.62291717529297
0.491,-1.5804593563079834,-10.02592658996582,-1.9621144533157349,-0.038179077208042145,0.029626963660120964,1.116508960723877,-2.616194009780884,45.60070037841797,-40.67523956298828
0.501,-1.9226329326629639,-9.66221809387207,-2.0267207622528076,-0.01114829070866108,0.01618792861700058,1.2391400337219238,-2.1484947204589844,45.542240142822266,-40.29523468017578
0.511,-2.042273998260498,-9.448060035705566,-1.6474583148956299,0.0006108652451075613,-0.014813481830060482,1.3381003141403198,-1.1546331644058228,45.33761978149414,-41.17217254638672
0.53,-2.091326951980591,-9.235098838806152,-1.380658507347107,-0.01114829070866108,-0.07513642311096191,1.4196507930755615,-0.891552209854126,45.01607894897461,-40.10523223876953
0.534,-2.2468602657318115,-9.743573188781738,-0.7130610942840576,-0.02825251594185829,-0.12476921826601028,1.472490668296814,-0.46769949793815613,44.31452941894531,-40.558319091796875
0.541,-2.3078773021698,-9.864411354064941,-0.9008976817131042,-0.0679587572813034,-0.13500121235847473,1.4880677461624146,0.6138556003570557,44.09529113769531,-39.929847717285156
0.551,-2.358126640319824,-9.564111709594727,-1.514656662940979,-0.08491026610136032,-0.15271630883216858,1.4967725276947021,0.014615609310567379,43.58374786376953,-40.2221565246582
0.561,-2.451446771621704,-9.229116439819336,-1.7754743099212646,-0.03741549327969551,-0.16432274878025055,1.5068517923355103,0.891552209854126,43.422977447509766,-39.579071044921875
0.571,-2.8965117931365967,-9.290133476257324,-1.9465612173080444,0.040164388716220856,-0.1667662113904953,1.4767667055130005,1.6223325729370117,43.072200775146484,-40.23677444458008
0.59,-3.1585259437561035,-9.736394882202148,-1.7862420082092285,0.08429940044879913,-0.14278973639011383,1.457371711730957,2.3823444843292236,42.64834976196289,-39.579071044921875
0.595,-3.036491870880127,-10.401598930358887,-1.5804593563079834,0.08765916526317596,-0.10064005106687546,1.5063936710357666,3.0254311561584473,42.37065124511719,-40.38292694091797
0.601,-2.796013355255127,-10.808380126953125,-1.1234301328659058,0.05406157299876213,-0.06811147183179855,1.5401439666748047,3.536977529525757,41.97603225708008,-40.017539978027344
0.611,-2.499303102493286,-11.13619613647461,-0.7130610942840576,-0.09834930300712585,-0.015271631069481373,1.6013832092285156,4.1654486656188965,40.67523956298828,-39.62291717529297
0.621,-2.4981067180633545,-10.634900093078613,-1.3471590280532837,-0.3032945990562439,-0.022143863141536713,1.648267149925232,4.925460338592529,39.8421516418457,-38.73136520385742
0.631,-2.93001127243042,-9.522236824035645,-2.0398812294006348,-0.36132678389549255,-0.06154467165470123,1.6801848411560059,5.188541412353516,39.564453125,-39.85676574707031
0.651,-3.4576287269592285,-8.920442581176758,-2.0195422172546387,-0.36621370911598206,-0.12324206531047821,1.7088954448699951,6.562408924102783,38.570594787597656,-38.90675354003906
0.654,-4.121636867523193,-8.745766639709473,-1.8245272636413574,-0.3776674270629883,-0.1638645976781845,1.7702873945236206,6.927798748016357,37.971351623535156,-38.73136520385742
0.661,-4.4721856117248535,-8.827122688293457,-1.6510475873947144,-0.38988474011421204,-0.1543961763381958,1.796401858329773,7.395498275756836,38.015201568603516,-39.140602111816406
0.671,-4.843072891235352,-8.845067977905273,-1.3758729696273804,-0.44944408535957336,-0.07528913766145706,1.8530596494674683,7.8339667320251465,37.34288024902344,-38.7459831237793
0.681,-5.097908020019531,-8.763712882995605,-1.502692461013794,-0.494189977645874,-0.0032070425804704428,1.8851301670074463,9.090909004211426,36.67056655883789,-38.585208892822266
0.691,-5.029713153839111,-9.052047729492188,-1.1186444759368896,-0.5250386595726013,0.04795292019844055,1.9309450387954712,8.915521621704102,35.57439422607422,-38.64366912841797
0.71,-4.480560302734375,-8.733802795410156,-1.5601202249526978,-0.611934244632721,0.13087788224220276,2.02120041847229,10.654779434204102,34.47822189331055,-38.1467399597168
0.714,-4.474577903747559,-8.623732566833496,-1.5912269353866577,-0.6102543473243713,0.1212567538022995,2.0305159091949463,10.260157585144043,34.171295166015625,-37.54750061035156
0.721,-4.49132776260376,-8.189435005187988,-1.6175479888916016,-0.597426176071167,0.06322455406188965,2.054187059402466,10.976323127746582,33.38205337524414,-37.50365447998047
0.731,-4.64805793762207,-7.7730841636657715,-1.2837493419647217,-0.5942191481590271,-0.01114829070866108,2.0705277919769287,11.064016342163086,32.607425689697266,-38.263668060302734
0.741,-5.107479572296143,-7.713263511657715,-0.8973084688186646,-0.6087271571159363,-0.049785517156124115,2.121229410171509,12.759428024291992,31.613563537597656,-36.99210739135742
0.751,-5.843272686004639,-7.5457658767700195,-0.7010970711708069,-0.660803496837616,-0.06536258012056351,2.1534526348114014,13.095585823059082,30.590471267700195,-37.065185546875
0.77,-7.11984395980835,-6.794419765472412,-1.4596216678619385,-0.6444628238677979,-0.06612616032361984,2.177276372909546,14.425606727600098,28.675825119018555,-36.64133071899414
0.774,-7.304090976715088,-6.671189785003662,-1.5756735801696777,-0.6189591884613037,-0.03252857178449631,2.17742919921875,14.586379051208496,28.427358627319336,-36.33440399169922
0.781,-7.7144598960876465,-6.15433931350708,-2.043470621109009,-0.5624541640281677,0.056352317333221436,2.185370445251465,15.127155303955078,27.755043029785156,-36.04209518432617
0.791,-7.7036919593811035,-5.507081031799316,-2.362912178039551,-0.45662176609039307,0.2099849283695221,2.196518659591675,15.054078102111816,26.60040855407715,-36.4074821472168
0.801,-7.34357213973999,-5.194817543029785,-2.4562323093414307,-0.3455969989299774,0.34804046154022217,2.2293527126312256,15.682548522949219,25.92809295654297,-35.282081604003906
0.811,-6.7824554443359375,-5.253442287445068,-2.3509480953216553,-0.22892174124717712,0.4499022364616394,2.281428813934326,15.916398048400879,24.188833236694336,-35.6474723815918
0.826,-5.960521221160889,-5.729613304138184,-2.0159530639648438,-0.1319468915462494,0.4331034719944,2.3939807415008545,16.676410675048828,22.698041915893555,-34.6682243347168
0.831,-5.729613304138184,-5.840879917144775,-1.8257235288619995,-0.12690724432468414,0.3822489380836487,2.4187209606170654,16.617948532104492,22.157264709472656,-34.50745391845703
0.841,-5.7164530754089355,-5.876771926879883,-1.5720844268798828,-0.12064588069915771,0.24984388053417206,2.4642302989959717,17.290266036987305,21.616485595703125,-34.2443733215332
0.851,-5.894718170166016,-5.911468029022217,-1.5050853490829468,-0.12507465481758118,0.12293662130832672,2.5086708068847656,17.61180877685547,19.862613677978516,-34.142066955566406
0.861,-5.986842155456543,-5.97727108001709,-1.5194423198699951,-0.1359175145626068,-0.027641652151942253,2.546391725540161,17.918737411499023,19.146448135375977,-34.50745391845703
0.871,-6.319444179534912,-6.029912948608398,-2.049452543258667,-0.14584407210350037,-0.18677204847335815,2.557692766189575,17.845659255981445,17.392576217651367,-33.791290283203125
0.89,-6.303890705108643,-5.916253566741943,-2.163111686706543,-0.03176499158143997,-0.40943241119384766,2.465299367904663,18.63490104675293,15.244080543518066,-34.69745635986328
0.894,-6.427121639251709,-5.723631381988525,-1.904686689376831,0.008246680721640587,-0.41340306401252747,2.4161245822906494,18.78105926513672,15.068693161010742,-34.58053207397461
0.901,-6.56829833984375,-5.3347978591918945,-1.7264214754104614,0.06429356336593628,-0.4095851480960846,2.3351850509643555,19.55568504333496,14.279450416564941,-34.142066955566406
0.911,-6.82313346862793,-4.645665168762207,-1.712064504623413,0.15134187042713165,-0.37751469016075134,2.281428813934326,19.219526290893555,12.993276596069336,-34.85823059082031
0.921,-7.323233604431152,-4.3202409744262695,-1.8233308792114258,0.24724771082401276,-0.35735616087913513,2.274709463119507,20.008769989013672,11.736333847045898,-35.296695709228516
0.94,-7.3878397941589355,-4.2245283126831055,-1.8795621395111084,0.2958114743232727,-0.38896840810775757,2.289675712585449,19.7310733795166,10.96170711517334,-35.296695709228516
0.944,-7.562515735626221,-3.370290756225586,-1.8197414875030518,0.3430008292198181,-0.4274529218673706,2.3243422508239746,19.584917068481445,9.383220672607422,-35.9836311340332
0.951,-7.921439170837402,-3.253042459487915,-1.7862420082092285,0.36224305629730225,-0.4004221558570862,2.3269383907318115,19.935691833496094,9.061677932739258,-36.31978988647461
0.961,-8.032705307006836,-3.053241491317749,-2.073380708694458,0.37629297375679016,-0.3730859160423279,2.3122775554656982,20.4326229095459,7.600116729736328,-35.77901077270508
0.971,-8.60219669342041,-2.8618156909942627,-2.2983059883117676,0.4398229718208313,-0.3781256079673767,2.362062931060791,20.008769989013672,6.518562316894531,-36.71440887451172
0.981,-9.066404342651367,-3.0664021968841553,-2.3365912437438965,0.4876231551170349,-0.32009339332580566,2.4414756298065186,20.564163208007812,5.232388019561768,-35.99824523925781
1.001,-9.687341690063477,-3.2063820362091064,-1.9118653535842896,0.5054909586906433,-0.22831088304519653,2.5476133823394775,20.841859817504883,2.616194009780884,-36.18824768066406
1.004,-10.168299674987793,-3.462414264678955,-1.530210018157959,0.43188172578811646,-0.10125090926885605,2.6505444049835205,20.476469039916992,2.5285003185272217,-36.67056655883789
1.011,-9.768697738647461,-3.304487705230713,-1.483549952507019,0.38866299390792847,-0.016798794269561768,2.6904029846191406,19.54106903076172,1.9146448373794556,-36.71440887451172
1.021,-9.945767402648926,-3.0664021968841553,-1.3722838163375854,0.3562871515750885,0.06673702597618103,2.7227790355682373,20.169540405273438,0.6723180413246155,-36.524410247802734
1.031,-10.205388069152832,-3.2434709072113037,-1.3339985609054565,0.3162754774093628,0.19379699230194092,2.729804039001465,19.774919509887695,-0.2923122048377991,-36.81671905517578
1.041,-10.076175689697266,-2.9347968101501465,-1.6390833854675293,0.25244006514549255,0.2793181240558624,2.6974282264709473,19.511838912963867,-1.900029182434082,-35.74978256225586
1.06,-10.264013290405273,-2.6153552532196045,-1.94297194480896,0.21792617440223694,0.2782491147518158,2.66337251663208,19.482608795166016,-4.209295749664307,-35.735164642333984
1.064,-10.14197826385498,-2.231307029724121,-2.0374884605407715,0.19944749772548676,0.3124575614929199,2.5747969150543213,19.19029426574707,-4.267758369445801,-36.88979721069336
1.071,-10.007980346679688,-2.043470621109009,-2.076970100402832,0.20311269164085388,0.327271044254303,2.5004241466522217,18.035661697387695,-5.32008171081543,-35.925167083740234
1.081,-9.53659439086914,-1.820937991142273,-2.0985054969787598,0.20555615425109863,0.3257438838481903,2.3582451343536377,18.839519500732422,-6.007015228271484,-35.23823165893555
1.091,-8.949155807495117,-1.3758729696273804,-2.5950162410736084,0.23121249675750732,0.256868839263916,2.263561248779297,17.582576751708984,-6.8985676765441895,-35.74978256225586
1.101,-8.49452018737793,-0.9643074870109558,-2.78165602684021,0.31291571259498596,0.1638645976781845,2.1843013763427734,17.34872817993164,-8.053200721740723,-35.57439422607422
1.12,-8.065009117126465,-1.1198409795761108,-2.513659954071045,0.4156937897205353,-0.06398813426494598,2.0641136169433594,17.027183532714844,-10.026308059692383,-36.20286560058594
1.124,-8.902496337890625,-1.454836130142212,-2.368894338607788,0.41431936621665955,-0.08888089656829834,2.0309741497039795,16.70564079284668,-9.997076988220215,-35.48670196533203
1.131,-9.443273544311523,-1.5002998113632202,-2.1104695796966553,0.36850446462631226,-0.15745051205158234,1.9715675115585327,16.15024757385254,-10.552470207214355,-35.48670196533203
1.141,-10.643274307250977,-0.7369893193244934,-2.4741785526275635,0.2828305959701538,-0.2620611786842346,1.792125940322876,16.018707275390625,-11.414791107177734,-36.07132339477539
1.151,-11.458030700683594,0.28594231605529785,-2.4083759784698486,0.2402227520942688,-0.30115655064582825,1.6297883987426758,14.703303337097168,-12.174802780151367,-36.05670928955078
1.161,-12.399605751037598,1.5170494318008423,-2.489731788635254,0.17180584371089935,-0.2843577563762665,1.4149165153503418,15.448699951171875,-13.139432907104492,-36.14440155029297
1.181,-12.780064582824707,2.7421746253967285,-2.531606435775757,0.03680463135242462,-0.08689558506011963,0.9010262489318848,15.14177131652832,-13.972522735595703,-36.04209518432617
1.184,-11.699705123901367,4.1419758796691895,-2.6560330390930176,0.013286319561302662,-0.055894169956445694,0.7783950567245483,15.156386375427246,-13.987138748168945,-35.67670440673828
1.191,-12.242877006530762,2.242074728012085,-3.3954150676727295,-0.006566801108419895,-0.027183502912521362,0.5949827432632446,14.586379051208496,-14.35252857208252,-36.62671661376953
1.201,-10.110871315002441,4.599005222320557,-2.803191661834717,-0.020311269909143448,-0.0884227380156517,0.5050328373908997,14.381760597229004,-14.542531967163086,-36.0274772644043
1.211,-9.359525680541992,4.442275047302246,-2.445464611053467,-0.03940080478787422,-0.22861631214618683,0.3988949954509735,13.665594100952148,-14.717918395996094,-36.451332092285156
1.221,-9.06401252746582,4.657629013061523,-2.1643080711364746,-0.08048149198293686,-0.3553708493709564,0.312304824590683,14.586379051208496,-15.22946548461914,-36.31978988647461
1.24,-8.160720825195312,4.91126823425293,-2.671586275100708,-0.06643159687519073,-0.7467827200889587,0.12461650371551514,14.250219345092773,-15.404851913452148,-37.4451904296875
1.243,-8.049454689025879,4.990231513977051,-2.7493531703948975,-0.04749477282166481,-0.8704829812049866,0.08491026610136032,14.191757202148438,-15.79947280883789,-37.35749816894531
1.251,-7.858029365539551,5.111069202423096,-2.857030153274536,-0.010231993161141872,-1.0793988704681396,0.015271631069481373,13.621747970581055,-15.52177619934082,-37.91289138793945
1.261,-8.047062873840332,5.173282623291016,-2.427518606185913,0.05406157299876213,-1.4091134071350098,-0.09010262042284012,14.527915000915527,-15.711779594421387,-37.89827346801758
1.271,-8.815157890319824,4.959124565124512,-1.636690616607666,0.11331550031900406,-1.721112847328186,-0.21074850857257843,14.191757202148438,-14.966383934020996,-38.92136764526367
1.281,-10.085746765136719,4.777270317077637,-0.9008976817131042,0.15943582355976105,-1.9646953344345093,-0.3251330256462097,14.878690719604492,-15.390236854553223,-39.53522491455078
1.294,-12.068201065063477,4.036691665649414,-0.1375872939825058,0.2255619913339615,-2.1933116912841797,-0.5777257680892944,15.331774711608887,-15.375621795654297,-40.66062545776367
1.301,-12.93200969696045,3.6191442012786865,0.5838487148284912,0.23121249675750732,-2.218967914581299,-0.6982190012931824,15.726396560668945,-14.776381492614746,-41.5814094543457
1.311,-14.275579452514648,2.9252257347106934,1.3004990816116333,0.2148718386888504,-2.1372647285461426,-0.8678867816925049,15.828704833984375,-14.790996551513672,-42.838348388671875
1.321,-14.796018600463867,2.5914268493652344,1.117448091506958,0.18891006708145142,-1.9772180318832397,-1.0595457553863525,16.121017456054688,-14.586379051208496,-43.072200775146484
1.331,-14.635699272155762,2.583051919937134,0.6939185857772827,0.20112738013267517,-1.8176295757293701,-1.2409727573394775,15.594855308532715,-14.162525177001953,-44.12452697753906
1.35,-13.89392375946045,2.368894338607788,0.4139583110809326,0.22220222651958466,-1.6905696392059326,-1.4674509763717651,16.32563591003418,-13.884828567504883,-44.72376251220703
1.354,-12.77049446105957,2.0003998279571533,0.6831508874893188,0.28298333287239075,-1.6285666227340698,-1.6872097253799438,16.866413116455078,-12.70096492767334,-45.39608383178711
1.361,-12.508480072021484,1.6534403562545776,1.2059825658798218,0.32391127943992615,-1.5832099914550781,-1.799150824546814,17.26103401184082,-12.993276596069336,-45.64455032348633
1.371,-12.257233619689941,1.113858938217163,1.5038889646530151,0.34162637591362,-1.5231924057006836,-1.9350682497024536,17.392576217651367,-11.809412002563477,-46.872257232666016
1.381,-12.117253303527832,0.7154539227485657,1.3351950645446777,0.3321579694747925,-1.520138144493103,-2.054797887802124,18.44489860534668,-11.151710510253906,-46.81379699707031
1.391,-11.83011531829834,0.37088748812675476,1.0588239431381226,0.3101668059825897,-1.581682801246643,-2.1791090965270996,17.88950538635254,-10.523239135742188,-48.056121826171875
1.411,-11.546565055847168,0.4127618968486786,1.0959126949310303,0.29077184200286865,-1.6783522367477417,-2.2684481143951416,18.5325927734375,-9.836304664611816,-48.18766403198242
1.415,-11.138589859008789,0.8147560954093933,1.038485050201416,0.28557947278022766,-1.7719674110412598,-2.392301082611084,19.219526290893555,-8.506284713745117,-48.80152130126953
1.421,-11.026126861572266,0.8255237936973572,1.1270194053649902,0.3260492980480194,-1.8387043476104736,-2.4530820846557617,19.584917068481445,-8.082432746887207,-49.37152862548828
1.431,-11.206785202026367,0.5790630578994751,1.781456470489502,0.3962987959384918,-1.8635971546173096,-2.4920246601104736,19.45337677001953,-7.147032737731934,-50.92078399658203
1.441,-11.637492179870605,-0.1543370485305786,2.605783700942993,0.39614611864089966,-1.7655532360076904,-2.4970643520355225,19.83338165283203,-6.0508623123168945,-50.89155578613281
1.451,-12.143574714660645,-0.574277400970459,2.421536445617676,0.3306308090686798,-1.6169601678848267,-2.5276074409484863,19.511838912963867,-4.793920040130615,-51.4177131652832
1.47,-12.094521522521973,-1.054038405418396,1.8903299570083618,0.28649580478668213,-1.517083764076233,-2.5451700687408447,20.315698623657227,-3.9900612831115723,-52.075416564941406
1.474,-11.992826461791992,-2.0470597743988037,2.3258235454559326,0.22861631214618683,-1.5013539791107178,-2.5132522583007812,20.242618560791016,-2.747734546661377,-53.244667053222656
1.481,-12.149557113647461,-2.372483730316162,2.361715793609619,0.20036378502845764,-1.475545048713684,-2.475989580154419,20.841859817504883,-1.6369482278823853,-53.96083068847656
1.491,-12.757332801818848,-3.0795626640319824,3.153740167617798,0.17501288652420044,-1.3495540618896484,-2.390010118484497,20.257234573364258,-1.5638701915740967,-54.82314682006836
1.501,-13.152149200439453,-3.363112211227417,3.3607192039489746,0.09025533497333527,-1.2078332901000977,-2.3357958793640137,21.01724624633789,-0.2192341536283493,-55.33469772338867
1.511,-13.14138126373291,-2.9802606105804443,3.071187734603882,-0.006719517521560192,-1.00197172164917,-2.2718076705932617,20.1110782623291,1.0669395923614502,-55.52470016479492
1.53,-12.814762115478516,-2.4634108543395996,3.129812002182007,-0.04520402476191521,-0.7822129726409912,-2.2343924045562744,20.330312728881836,2.2361881732940674,-56.22624588012695
1.534,-12.143574714660645,-2.1308083534240723,3.005384922027588,-0.051312681287527084,-0.5717698335647583,-2.202627182006836,20.65185546875,2.660040855407715,-56.942413330078125
1.541,-11.818150520324707,-2.187039852142334,3.2925240993499756,-0.040622539818286896,-0.5218316316604614,-2.1765129566192627,21.338788986206055,3.0838937759399414,-57.527042388916016
1.551,-11.737991333007812,-2.1332013607025146,3.7471601963043213,-0.03726277872920036,-0.3442225456237793,-2.099390983581543,20.564163208007812,4.1508331298828125,-57.132415771484375
1.561,-11.095518112182617,-2.1643080711364746,3.803391456604004,-0.01664607785642147,-0.18845191597938538,-2.016160726547241,21.075708389282227,5.437006950378418,-56.78164291381836
1.571,-11.212766647338867,-2.4873390197753906,4.088137149810791,0.006108652334660292,-0.0858265683054924,-1.9504926204681396,20.286466598510742,6.021631240844727,-57.132415771484375
1.591,-11.179266929626465,-2.80558443069458,3.613162040710449,-0.014660765416920185,0.026419920846819878,-1.982257604598999,20.213388442993164,7.483191967010498,-56.85471725463867
1.595,-10.400403022766113,-3.1214370727539062,3.150151014328003,-0.09743300080299377,0.20005835592746735,-2.0754146575927734,20.491085052490234,7.8339667320251465,-57.2347297668457
1.601,-9.985248565673828,-2.9599215984344482,3.0759735107421875,-0.13515393435955048,0.29565879702568054,-2.113440990447998,20.403390884399414,8.769365310668945,-57.950889587402344
1.611,-8.898907661437988,-2.5292134284973145,3.091526985168457,-0.1495092660188675,0.407905250787735,-2.1568124294281006,20.1110782623291,9.368605613708496,-57.556270599365234
1.621,-7.892724990844727,-2.662015199661255,3.214756965637207,-0.16310101747512817,0.48899760842323303,-2.19163179397583,20.35954475402832,10.01169204711914,-56.85471725463867
1.631,-7.0887370109558105,-3.0999014377593994,3.332005262374878,-0.19715675711631775,0.5371032357215881,-2.2069034576416016,19.701841354370117,11.400175094604492,-56.56240463256836
1.65,-5.347958564758301,-3.741178274154663,2.530409812927246,-0.29794952273368835,0.5641340017318726,-2.2009475231170654,19.131834030151367,12.65711784362793,-55.992401123046875
1.653,-5.106283187866211,-3.768695592880249,2.444268226623535,-0.3049744665622711,0.5473352670669556,-2.175138473510742,19.46799087524414,12.949429512023926,-55.583160400390625
1.661,-4.185046672821045,-3.975674629211426,2.2851455211639404,-0.3017674386501312,0.5032002329826355,-2.1204659938812256,19.409530639648438,14.235603332519531,-55.90470504760742
1.671,-3.476771354675293,-4.24367094039917,2.221735715866089,-0.3006984293460846,0.40744709968566895,-2.026392698287964,18.985675811767578,14.980999946594238,-55.43700408935547
1.681,-3.095116138458252,-4.418346881866455,2.117647886276245,-0.3153591752052307,0.26633724570274353,-1.9239200353622437,18.795673370361328,16.04793930053711,-54.881614685058594
1.691,-3.1058835983276367,-4.671986103057861,2.049452543258667,-0.33658674359321594,0.09086620807647705,-1.827250599861145,18.605670928955078,15.960245132446289,-54.99854278564453
1.709,-4.023531436920166,-5.441278457641602,2.7637100219726562,-0.41493022441864014,-0.2643519341945648,-1.7256942987442017,18.35720443725586,17.81642723083496,-55.583160400390625
1.713,-4.2723846435546875,-5.4687957763671875,2.8462624549865723,-0.4300491213798523,-0.2854267954826355,-1.718363881111145,17.831043243408203,18.035661697387695,-55.773162841796875
1.721,-5.119443893432617,-5.44726037979126,2.9383859634399414,-0.4911356270313263,-0.2750420570373535,-1.7186694145202637,18.313358306884766,18.91259765625,-56.2993278503418
1.731,-5.55733060836792,-5.50947380065918,2.7529425621032715,-0.5396994352340698,-0.15500706434249878,-1.7551685571670532,18.196434020996094,19.292604446411133,-56.503944396972656
1.741,-5.326422691345215,-5.55613374710083,2.368894338607788,-0.5809328556060791,0.0138971833512187,-1.8009834289550781,17.88950538635254,20.330312728881836,-56.942413330078125
1.751,-4.5786662101745605,-5.56450891494751,1.9082759618759155,-0.6140722632408142,0.20861048996448517,-1.831526756286621,17.24641990661621,20.315698623657227,-55.89009094238281
1.77,-2.7014968395233154,-5.654239654541016,1.062413215637207,-0.5904012322425842,0.26771169900894165,-1.8098410367965698,16.486408233642578,22.04033851623535,-56.182403564453125
1.774,-2.348555326461792,-5.715256690979004,0.9475577473640442,-0.5777257680892944,0.2353358417749405,-1.793653130531311,16.033323287963867,22.215726852416992,-55.32008361816406
1.781,-1.9022939205169678,-5.8683977127075195,0.8518447875976562,-0.5658139586448669,0.15256358683109283,-1.7626516819000244,15.79947280883789,23.370359420776367,-55.45161819458008
1.791,-1.4763715267181396,-5.997609615325928,0.8147560954093933,-0.5635231733322144,0.008399397134780884,-1.7081319093704224,15.887167930603027,23.706518173217773,-55.51008605957031
1.801,-1.2669994831085205,-6.193820953369141,0.92482590675354,-0.5812382698059082,-0.16814064979553223,-1.6505578756332397,15.52177619934082,24.714996337890625,-55.568546295166016
1.82,-1.332802176475525,-6.367300987243652,1.0229315757751465,-0.6218608021736145,-0.3877466917037964,-1.5685491561889648,14.966383934020996,25.606548309326172,-56.021629333496094
1.824,-1.813759446144104,-6.713063716888428,1.2646067142486572,-0.6690501570701599,-0.5389358401298523,-1.4807372093200684,14.747150421142578,26.264249801635742,-55.42238998413086
1.831,-2.093719720840454,-7.034898281097412,1.566102385520935,-0.7031058669090271,-0.5931501388549805,-1.432020902633667,13.987138748168945,26.147327423095703,-55.363929748535156
1.841,-2.4430718421936035,-7.536194801330566,2.0817556381225586,-0.7756461501121521,-0.6117815375328064,-1.365283727645874,13.577900886535645,26.96579933166504,-56.12394332885742
1.851,-3.0616164207458496,-7.624728679656982,2.0721843242645264,-0.8801040649414062,-0.5726861357688904,-1.310916781425476,13.022507667541504,27.535808563232422,-56.430870056152344
1.861,-3.5018956661224365,-7.7144598960876465,1.7611173391342163,-0.986852765083313,-0.5166392922401428,-1.286940336227417,13.154048919677734,28.412744522094727,-55.553932189941406
1.88,-3.645465135574341,-7.795815944671631,1.550549030303955,-1.0418306589126587,-0.4818199574947357,-1.29243803024292,12.320959091186523,28.71967315673828,-56.05086135864258
1.884,-3.6119656562805176,-7.700103282928467,1.4309078454971313,-1.0728321075439453,-0.4686863422393799,-1.3315335512161255,12.788658142089844,29.71353530883789,-56.387020111083984
1.891,-3.7256245613098145,-7.621140003204346,1.377069354057312,-1.0658071041107178,-0.4729623794555664,-1.3657419681549072,11.780181884765625,29.596609115600586,-55.787784576416016
1.901,-3.645465135574341,-7.70967435836792,1.4428720474243164,-1.038623571395874,-0.4631885588169098,-1.4170546531677246,11.940953254699707,30.56123924255371,-56.05086135864258
1.911,-3.720839262008667,-7.767101764678955,1.5038889646530151,-1.0151053667068481,-0.4660901725292206,-1.4776830673217773,10.698626518249512,30.692779541015625,-56.09471130371094
1.921,-3.5461630821228027,-8.055437088012695,1.8281164169311523,-1.0057896375656128,-0.4332561492919922,-1.505935549736023,10.800935745239258,31.803565979003906,-55.96316909790039
1.941,-3.4851462841033936,-8.38444995880127,2.331805467605591,-1.0416779518127441,-0.39645153284072876,-1.5123496055603027,9.880152702331543,32.1251106262207,-55.94855499267578
1.945,-3.311666488647461,-8.553144454956055,2.4023938179016113,-1.1652253866195679,-0.29596421122550964,-1.5085316896438599,9.8655366897583,33.49897384643555,-56.03624725341797
1.951,-3.218346357345581,-8.458627700805664,2.132004976272583,-1.2011137008666992,-0.26145032048225403,-1.4987578392028809,9.470914840698242,33.46974563598633,-56.182403564453125
1.961,-3.153740167617798,-8.115257263183594,1.4500504732131958,-1.1998920440673828,-0.16844607889652252,-1.469741702079773,9.339374542236328,34.47822189331055,-56.007015228271484
1.971,-3.0305097103118896,-7.885546684265137,0.9308079481124878,-1.1145235300064087,-0.12629638612270355,-1.4622586965560913,8.287050247192383,34.69745635986328,-54.8377685546875
1.981,-2.957528829574585,-8.078168869018555,0.9643074870109558,-1.0195341110229492,-0.10965030640363693,-1.465618371963501,8.506284713745117,36.0274772644043,-54.77930450439453
2.0,-2.95393967628479,-8.394021987915039,1.1234301328659058,-0.9190467596054077,-0.0933096632361412,-1.5030338764190674,6.927798748016357,36.77287292480469,-54.91084289550781
2.004,-2.867797613143921,-8.50289535522461,1.0444670915603638,-0.911410927772522,-0.10903944075107574,-1.520138144493103,7.819350719451904,36.81671905517578,-54.51622772216797
2.011,-2.66560435295105,-8.645268440246582,1.2047861814498901,-0.922711968421936,-0.14004085958003998,-1.5402966737747192,6.328558921813965,37.25518798828125,-54.13621520996094
2.021,-2.799602508544922,-8.769694328308105,1.3268201351165771,-0.9543241858482361,-0.058948494493961334,-1.524108648300171,5.860859394073486,38.1028938293457,-54.22391128540039
2.031,-2.579462766647339,-8.761320114135742,1.0743772983551025,-0.9640980362892151,0.0933096632361412,-1.4611896276474,5.349313259124756,37.79596710205078,-53.90237045288086
2.041,-2.0685951709747314,-8.846264839172363,0.867398202419281,-0.9508117437362671,0.2496911585330963,-1.3932307958602905,4.896229267120361,39.19906234741211,-53.741600036621094
2.06,-1.8484554290771484,-9.041280746459961,0.6005984544754028,-0.9118691086769104,0.4245513379573822,-1.2904528379440308,3.873136520385742,39.900611877441406,-52.528499603271484
2.064,-1.5134602785110474,-9.402596473693848,0.2512463629245758,-0.9028587937355042,0.4366159439086914,-1.281595230102539,3.946214437484741,39.8859977722168,-52.703887939453125
2.071,-1.046859860420227,-9.622735977172852,0.10289137810468674,-0.8819366693496704,0.47708573937416077,-1.2716686725616455,3.3615901470184326,39.87138366699219,-52.64542770385742
2.081,-1.0636096000671387,-9.761519432067871,-0.1375872939825058,-0.8594873547554016,0.45295655727386475,-1.2505937814712524,2.937737464904785,40.587547302246094,-51.95848846435547
2.091,-0.8195416927337646,-9.949356079101562,-0.4570291042327881,-0.818559467792511,0.4323398768901825,-1.2206615209579468,2.835428237915039,40.499855041503906,-51.62232971191406
2.101,-0.6197410225868225,-10.125227928161621,-0.6089733242988586,-0.7542658448219299,0.38087448477745056,-1.1954632997512817,2.6015784740448,41.2452507019043,-51.87080001831055
2.121,-0.43908295035362244,-10.50090217590332,-0.5132604241371155,-0.6667593717575073,0.27641651034355164,-1.061072826385498,1.5346390008926392,41.522945404052734,-50.48231506347656
2.124,-0.10648059844970703,-10.599007606506348,-0.5527420043945312,-0.6447682976722717,0.25732696056365967,-1.017701506614685,1.2277112007141113,41.85910415649414,-50.745399475097656
2.131,0.0011964113218709826,-10.63968563079834,-0.7226324677467346,-0.6130033135414124,0.18768833577632904,-0.9476047158241272,1.2423267364501953,41.888336181640625,-50.70154571533203
2.141,-0.1495514065027237,-10.622936248779297,-0.6999006271362305,-0.5711589455604553,0.12629638612270355,-0.8655960559844971,0.9792458415031433,42.063724517822266,-50.11692810058594
2.151,-0.22731813788414001,-10.603793144226074,-0.8315058350563049,-0.530536413192749,0.0780380368232727,-0.7828238010406494,0.7746273279190063,42.20988082885742,-50.21923065185547
2.161,-0.468993216753006,-10.683952331542969,-0.8566304445266724,-0.4934263825416565,0.058948494493961334,-0.7099781036376953,-0.11692487448453903,42.706809997558594,-49.12306213378906
2.18,-0.39481574296951294,-10.687541961669922,-1.3316056728363037,-0.37048977613449097,0.1088867262005806,-0.5523748993873596,-0.950014591217041,43.30604934692383,-48.99152374267578
2.184,-0.25363919138908386,-10.599007606506348,-1.5601202249526978,-0.3061962127685547,0.1293507218360901,-0.4964807331562042,-0.9792458415031433,42.96989059448242,-48.216896057128906
2.191,0.1172483041882515,-10.52363395690918,-1.6498512029647827,-0.1927279680967331,0.14294245839118958,-0.3992004096508026,-1.2277112007141113,42.882198333740234,-49.225372314453125
2.201,0.5455635190010071,-10.759326934814453,-1.3758729696273804,-0.0734565407037735,0.10995574295520782,-0.2793181240558624,-1.5346390008926392,43.379127502441406,-48.72844314575195
2.211,0.5599204897880554,-11.13021469116211,-0.8410770893096924,-0.03252857178449631,-0.007941247895359993,-0.20326539874076843,-1.5931013822555542,42.96989059448242,-49.049983978271484
2.23,0.20458632707595825,-11.420942306518555,-0.3409772217273712,-0.09911288321018219,-0.1414152979850769,-0.14935654401779175,-1.388482928276062,43.72990417480469,-48.041507720947266
2.234,-0.9308079481124878,-11.186446189880371,-0.769292414188385,-0.1598939746618271,-0.13836097717285156,-0.11010845750570297,-1.8707979917526245,43.13066482543945,-48.406898498535156
2.241,-1.176072359085083,-10.998608589172363,-1.380658507347107,-0.09453140199184418,-0.05971207842230797,-0.07162395119667053,-2.002338409423828,43.34989929199219,-48.37766647338867
2.251,-1.062413215637207,-10.942378044128418,-1.5122638940811157,0.08964447677135468,0.12095130980014801,0.04245513305068016,-2.2508037090301514,42.95527648925781,-48.026893615722656
2.261,-0.7130610942840576,-11.350354194641113,-0.9690931439399719,0.2226603776216507,0.2993239462375641,0.16264288127422333,-1.8854135274887085,43.422977447509766,-47.36919021606445
2.271,-0.23569302260875702,-11.82174015045166,-0.6879364848136902,0.2246456891298294,0.3669773042201996,0.2590068578720093,-1.6515638828277588,42.516807556152344,-47.866119384765625
2.29,-0.14476576447486877,-11.93659496307373,-0.31345975399017334,0.1342376321554184,0.33597588539123535,0.32039880752563477,-1.4177141189575195,42.91142654418945,-47.471500396728516
2.295,-0.349352091550827,-11.252248764038086,-0.3230310380458832,0.014660765416920185,0.2226603776216507,0.3784310221672058,-1.344636082649231,42.253726959228516,-47.71996307373047
2.301,-0.6448656916618347,-10.855039596557617,-0.22133608162403107,-0.001679879380390048,0.16798794269561768,0.39538252353668213,-0.8038585186004639,42.77988815307617,-47.909969329833984
2.311,-1.3435698747634888,-10.423134803771973,-0.017946168780326843,-0.009010262787342072,0.06352998316287994,0.41691553592681885,-0.7892428636550903,41.61064147949219,-47.74919891357422
2.321,-2.1068801879882812,-9.952945709228516,0.18305093050003052,0.029168814420700073,0.005803219974040985,0.4634940028190613,-0.1900029182434082,42.443729400634766,-47.20841979980469
2.331,-3.093919515609741,-9.524630546569824,0.6400800943374634,0.05146539583802223,0.03985895588994026,0.5022839307785034,-0.891552209854126,41.65448760986328,-47.26688003540039
2.35,-3.7292141914367676,-9.159724235534668,0.5288137793540955,0.04963279888033867,0.09987646341323853,0.5070181488990784,-0.014615609310567379,41.02601623535156,-47.661502838134766
2.354,-4.460221290588379,-8.592625617980957,0.32901307940483093,0.0780380368232727,0.21868975460529327,0.48319438099861145,-0.10230926424264908,40.85062789916992,-48.289974212646484
2.361,-4.817948341369629,-8.319844245910645,0.2679961323738098,0.10797043144702911,0.3159700334072113,0.44547346234321594,0.49693071842193604,40.85062789916992,-48.14381790161133
2.371,-4.90408992767334,-8.025527000427246,0.13639087975025177,0.16111570596694946,0.5006040930747986,0.3649919927120209,0.4092370569705963,40.572933197021484,-47.51534652709961
2.381,-4.618147850036621,-7.730013370513916,0.10289137810468674,0.21303924918174744,0.6235406994819641,0.29794952273368835,0.8038585186004639,41.01139831542969,-47.58842468261719
2.391,-4.242474555969238,-7.542176723480225,0.19142581522464752,0.2583959996700287,0.7089090943336487,0.24694228172302246,1.0523239374160767,40.83601379394531,-48.01227569580078
2.411,-3.8811581134796143,-7.501498699188232,0.3768695592880249,0.3162754774093628,0.7525859475135803,0.2028072625398636,0.5115463137626648,40.83601379394531,-47.5591926574707
2.414,-3.5605199337005615,-7.601996898651123,0.5048855543136597,0.3295617997646332,0.7498371005058289,0.20784689486026764,0.8477053642272949,40.44139099121094,-47.5591926574707
2.421,-3.4444680213928223,-7.654639720916748,0.5491527915000916,0.3446807265281677,0.7496843934059143,0.23228150606155396,1.7100263833999634,40.529083251953125,-46.974571228027344
2.431,-3.4265217781066895,-7.822136878967285,0.40797626972198486,0.34636056423187256,0.7350236177444458,0.27259859442710876,1.4323296546936035,40.324466705322266,-47.03303146362305
2.441,-3.4504499435424805,-8.115257263183594,-0.0203389935195446,0.33536502718925476,0.6805039048194885,0.31841349601745605,1.739257574081421,40.83601379394531,-46.78456497192383
2.451,-3.6406795978546143,-8.181060791015625,-0.37806597352027893,0.34605515003204346,0.6209444999694824,0.369878888130188,1.8123356103897095,39.87138366699219,-46.1414794921875
2.471,-3.805784225463867,-8.251648902893066,-0.5647060871124268,0.3929390609264374,0.5426010489463806,0.4479169249534607,2.0754165649414062,39.710609436035156,-46.59456253051758
2.474,-4.022334575653076,-8.583054542541504,-0.48574298620224,0.3998112976551056,0.5265658497810364,0.45646902918815613,1.900029182434082,39.91522979736328,-46.53609848022461
2.481,-4.125226020812988,-8.731410026550293,-0.39122650027275085,0.4040873646736145,0.5115996599197388,0.46013423800468445,2.0608010292053223,40.529083251953125,-46.667640686035156
2.491,-4.342973232269287,-8.94556713104248,-0.23210379481315613,0.3988949954509735,0.5161811113357544,0.45723262429237366,1.783104419708252,39.228294372558594,-47.20841979980469
2.501,-4.436293125152588,-9.07119083404541,-0.25004997849464417,0.41111230850219727,0.5461135506629944,0.4488332271575928,2.4700381755828857,40.149078369140625,-46.00994110107422
2.511,-4.502095699310303,-9.136992454528809,-0.2141576111316681,0.44119739532470703,0.6076582074165344,0.44684794545173645,2.3969600200653076,38.92136764526367,-46.69687271118164
2.529,-4.393222332000732,-9.243474006652832,-0.1339980661869049,0.4879285991191864,0.7802276015281677,0.44577890634536743,3.3469743728637695,38.658287048339844,-46.740718841552734
2.533,-4.381258010864258,-9.218348503112793,-0.12083754688501358,0.494189977645874,0.8019133806228638,0.44745880365371704,3.4346680641174316,38.43905258178711,-45.87839889526367
2.541,-4.2281174659729,-9.0843505859375,-0.1375872939825058,0.5204571485519409,0.8805622458457947,0.445931613445282,3.9169833660125732,38.96521759033203,-46.1414794921875
2.551,-3.9876389503479004,-8.96112060546875,-0.15314064919948578,0.5451971888542175,0.9427177309989929,0.4538728594779968,3.726980447769165,38.205204010009766,-46.21455764770508
2.561,-3.7292141914367676,-8.879764556884766,-0.10767702013254166,0.5630649924278259,0.9905179738998413,0.46303585171699524,4.238526821136475,38.263668060302734,-45.62993240356445
2.571,-3.4360930919647217,-8.827122688293457,-0.0406779870390892,0.5688682198524475,1.0238101482391357,0.48029276728630066,4.1216020584106445,38.00058364868164,-46.302249908447266
2.59,-2.7972095012664795,-8.786444664001465,-0.04905286058783531,0.5534439086914062,1.0413724184036255,0.5236642360687256,4.033908367156982,37.16749572753906,-45.8199348449707
2.594,-2.7421746253967285,-8.790033340454102,0.010767702013254166,0.5422956347465515,1.0406090021133423,0.5351179242134094,4.106986045837402,37.53288269042969,-46.05378341674805
2.601,-2.4981067180633545,-8.775676727294922,0.039481572806835175,0.5152648091316223,1.0418306589126587,0.5535966157913208,4.545454502105713,37.88365936279297,-46.170711517333984
2.611,-2.27677059173584,-8.687142372131348,-0.04785645380616188,0.47601673007011414,1.0314459800720215,0.5813909769058228,4.574686050415039,37.34288024902344,-45.68839645385742
2.621,-2.2121644020080566,-8.50169849395752,-0.15194423496723175,0.4470006227493286,1.0122036933898926,0.6174320578575134,5.363928318023682,37.79596710205078,-45.96609115600586
2.64,-2.0865414142608643,-8.316254615783691,-0.22013966739177704,0.43768492341041565,0.9827294945716858,0.6624833345413208,5.232388019561768,36.845951080322266,-45.498390197753906
2.644,-2.155933141708374,-8.078168869018555,-0.22133608162403107,0.4499022364616394,0.9379835724830627,0.6988298296928406,5.568547248840332,36.99210739135742,-45.03069305419922
2.651,-2.0757734775543213,-8.053044319152832,-0.19381862878799438,0.45982882380485535,0.9106473326683044,0.712574303150177,5.831628322601318,36.26132583618164,-45.27915573120117
2.661,-2.076970100402832,-8.050651550292969,-0.18903298676013947,0.4795292019844055,0.8614726662635803,0.717613935470581,5.9923996925354,36.451332092285156,-44.621456146240234
2.671,-2.255235195159912,-8.159524917602539,-0.1256231814622879,0.5019785165786743,0.8151996731758118,0.7141014933586121,6.547792911529541,36.3636360168457,-44.97222900390625
2.681,-2.2372889518737793,-8.429913520812988,0.02273181453347206,0.517861008644104,0.808174729347229,0.7165449261665344,6.445483684539795,36.20286560058594,-44.6799201965332
2.701,-2.6081764698028564,-8.685946464538574,0.044267214834690094,0.5035056471824646,0.8228355050086975,0.7260133028030396,7.190880298614502,35.9836311340332,-44.738380432128906
2.704,-2.840280294418335,-8.748159408569336,-0.16390834748744965,0.4813618063926697,0.8468118906021118,0.7151704430580139,7.073955059051514,35.79362487792969,-44.986846923828125
2.711,-3.1477580070495605,-8.648857116699219,-0.32183465361595154,0.47342056035995483,0.8610145449638367,0.697149932384491,7.775504112243652,35.06284713745117,-43.86144256591797
2.721,-3.1824538707733154,-8.566305160522461,-0.43190446496009827,0.4752531349658966,0.8944594264030457,0.656069278717041,7.61473274230957,35.39900588989258,-44.76761245727539
2.731,-3.084348201751709,-8.561518669128418,-0.4833501875400543,0.48915034532546997,0.9268352389335632,0.6004804968833923,7.863198280334473,34.419761657714844,-44.051448822021484
2.741,-2.9036900997161865,-8.6033935546875,-0.5180460810661316,0.5071708559989929,0.9486737251281738,0.5603160858154297,7.8485822677612305,34.58053207397461,-43.14527893066406
2.76,-2.6021945476531982,-8.854640007019043,-0.1866401582956314,0.52702397108078,0.957531213760376,0.5601634383201599,8.681672096252441,34.419761657714844,-43.67144012451172
2.764,-2.3952155113220215,-9.422935485839844,0.259621262550354,0.46761733293533325,1.0166324377059937,0.5900958180427551,8.257820129394531,34.536685943603516,-44.3437614440918
2.771,-2.2576282024383545,-9.591629981994629,0.015553345903754234,0.40882155299186707,1.0494664907455444,0.6204863786697388,8.783981323242188,33.64513397216797,-43.67144012451172
2.781,-2.2025930881500244,-9.701699256896973,-0.4773681163787842,0.3675881624221802,1.0835222005844116,0.655458390712738,8.959368705749512,33.93744659423828,-42.999122619628906
2.791,-2.2564315795898438,-9.827322959899902,-0.9762716293334961,0.36254850029945374,1.0671815872192383,0.6803511381149292,8.608593940734863,33.2066650390625,-41.946800231933594
2.801,-2.093719720840454,-10.086943626403809,-1.2981061935424805,0.37110063433647156,1.0247265100479126,0.6788239479064941,9.339374542236328,33.615901947021484,-42.47296142578125
2.821,-1.746760368347168,-10.364510536193848,-1.3722838163375854,0.3675881624221802,0.8177958726882935,0.6655376553535461,9.456298828125,33.2651252746582,-41.91756820678711
2.824,-1.2526426315307617,-10.713863372802734,-1.2430713176727295,0.3549126982688904,0.7422012686729431,0.665232241153717,9.909382820129395,32.9289665222168,-42.3414192199707
2.831,-0.9631110429763794,-10.941182136535645,-1.1282157897949219,0.33826664090156555,0.654542088508606,0.6711881756782532,9.967845916748047,32.490501403808594,-41.888336181640625
2.841,-0.6759723424911499,-11.152946472167969,-0.9774680137634277,0.27809640765190125,0.4465424716472626,0.7020369172096252,10.508623123168945,32.46126937866211,-42.692195892333984
2.851,-0.49651068449020386,-11.197213172912598,-0.9523433446884155,0.2252565622329712,0.24953843653202057,0.7281513810157776,9.938613891601562,31.949722290039062,-41.36217498779297
2.861,-0.8781659007072449,-11.044072151184082,-0.8757730722427368,0.17928895354270935,0.04398229718208313,0.7292203903198242,10.947091102600098,31.730487823486328,-41.5814094543457
2.881,-1.6115659475326538,-10.826325416564941,-0.9463613033294678,0.13866640627384186,-0.26893341541290283,0.6133086681365967,11.634024620056152,31.74510383605957,-42.19526290893555
2.884,-3.0508487224578857,-10.679167747497559,-1.046859860420227,0.13866640627384186,-0.3029891550540924,0.5583308339118958,11.9847993850708,31.321250915527344,-42.29757308959961
2.891,-3.4360930919647217,-10.689935684204102,-1.062413215637207,0.13500121235847473,-0.32849279046058655,0.4637994170188904,12.262495994567871,30.63431739807129,-42.76527404785156
2.901,-3.8392839431762695,-10.715059280395508,-1.0109676122665405,0.12476921826601028,-0.3234531283378601,0.3361286222934723,12.028646469116211,30.955860137939453,-42.96989059448242
2.911,-3.8500516414642334,-10.811968803405762,-0.7932206988334656,0.1111774668097496,-0.2848159074783325,0.22968532145023346,11.911721229553223,30.239694595336914,-42.867584228515625
2.921,-3.3571300506591797,-10.962716102600098,-0.5838487148284912,0.08032877743244171,-0.23716843128204346,0.15454889833927155,12.744811058044434,30.795087814331055,-42.57527160644531
2.94,-2.1738791465759277,-11.301301002502441,-0.363709032535553,-0.02076941914856434,-0.3556762933731079,0.05268712714314461,12.920199394226074,30.99970817565918,-44.986846923828125
2.943,-2.2193429470062256,-11.33958625793457,-0.3242274522781372,-0.04459316283464432,-0.44196099042892456,0.026114489883184433,13.256357192993164,30.47354507446289,-44.79684066772461
2.951,-2.311466693878174,-11.398210525512695,-0.08374878764152527,-0.06734789162874222,-0.5699372291564941,-0.02519819140434265,12.861736297607422,30.868165969848633,-44.89915466308594
2.961,-2.4155545234680176,-11.491530418395996,0.30987051129341125,-0.07177666574716568,-0.746630072593689,-0.1059851199388504,13.256357192993164,31.321250915527344,-44.24144744873047
2.971,-2.8689942359924316,-11.560921669006348,0.6616154909133911,-0.08552113175392151,-0.9294314384460449,-0.1800525188446045,13.256357192993164,31.218942642211914,-44.91376876831055
2.981,-3.524627685546875,-11.47836971282959,0.6209374666213989,-0.11743884533643723,-1.0873401165008545,-0.26572638750076294,13.358667373657227,31.56971549987793,-45.95147705078125
2.994,-4.518845558166504,-11.148159980773926,0.2141576111316681,-0.1771509051322937,-1.2406672239303589,-0.4222606122493744,12.847121238708496,31.540485382080078,-46.50687026977539
3.001,-4.754538536071777,-10.945966720581055,-0.04905286058783531,-0.20784689486026764,-1.280068039894104,-0.4964807331562042,13.387897491455078,31.935108184814453,-46.98918533325195
3.011,-4.839483737945557,-10.581061363220215,-0.22851455211639404,-0.2298380434513092,-1.3141237497329712,-0.5807800889015198,12.876352310180664,32.15433883666992,-46.755332946777344
3.021,-4.91126823425293,-10.52243709564209,-0.035892337560653687,-0.21991148591041565,-1.319010853767395,-0.6562219858169556,13.051739692687988,32.75358200073242,-48.23151397705078
3.031,-4.709074974060059,-10.395617485046387,0.4833501875400543,-0.21242839097976685,-1.3231340646743774,-0.736245334148407,12.627885818481445,33.177433013916016,-48.9622917175293
3.05,-4.381258010864258,-10.106086730957031,1.0109676122665405,-0.2428189367055893,-1.3350459337234497,-0.8219191431999207,12.510961532592773,33.45513153076172,-50.13154220581055
3.054,-3.8536407947540283,-10.037890434265137,1.5074782371520996,-0.29474249482154846,-1.3335187435150146,-0.8914051055908203,12.101724624633789,33.95206069946289,-50.61385726928711
3.061,-3.460021495819092,-10.057032585144043,1.7036895751953125,-0.35873058438301086,-1.328937292098999,-0.9138544201850891,12.525577545166016,34.975154876708984,-50.2776985168457
3.071,-2.8462624549865723,-9.833304405212402,1.712064504623413,-0.48411068320274353,-1.3100005388259888,-0.9130908250808716,11.414791107177734,34.785152435302734,-51.476173400878906
3.081,-2.2995026111602783,-9.391828536987305,1.537388563156128,-0.5991060733795166,-1.3213015794754028,-0.8848382830619812,11.56094741821289,36.01285934448242,-51.4177131652832
3.091,-1.852044701576233,-8.963513374328613,1.4620145559310913,-0.6834054589271545,-1.3981177806854248,-0.8345946073532104,11.502485275268555,36.0859375,-52.66004180908203
3.111,-1.4847464561462402,-8.648857116699219,1.5122638940811157,-0.7235698699951172,-1.4976887702941895,-0.7779368162155151,10.786319732666016,36.80210494995117,-52.79158401489258
3.114,-1.109073281288147,-8.398807525634766,1.7084753513336182,-0.7548767328262329,-1.680795669555664,-0.7180721163749695,10.830166816711426,37.34288024902344,-53.46390151977539
3.121,-1.098305583000183,-8.251648902893066,1.8448662757873535,-0.7747297883033752,-1.8139643669128418,-0.6856961846351624,10.537854194641113,37.81058120727539,-53.37620544433594
3.131,-1.223928689956665,-8.333003997802734,2.018345832824707,-0.7964155077934265,-1.9877554178237915,-0.6565274000167847,10.377082824707031,37.971351623535156,-54.238529205322266
3.141,-1.537388563156128,-8.567501068115234,2.3222343921661377,-0.8168795108795166,-2.152994394302368,-0.6427829265594482,9.704765319824219,38.833675384521484,-54.91084289550781
3.151,-1.9836498498916626,-8.679964065551758,2.65842604637146,-0.863457977771759,-2.286621332168579,-0.6198754906654358,8.827827453613281,39.05290985107422,-54.57468795776367
3.171,-2.544766664505005,-8.657232284545898,2.940778970718384,-0.9008734822273254,-2.3386974334716797,-0.6137667894363403,9.427068710327148,40.10523223876953,-55.20315933227539
3.174,-3.016152858734131,-8.591429710388184,3.146561861038208,-0.9265298247337341,-2.347555160522461,-0.6276640295982361,8.506284713745117,40.07600402832031,-56.09471130371094
3.181,-3.280559778213501,-8.567501068115234,3.2207393646240234,-0.934471070766449,-2.3322834968566895,-0.6502660512924194,8.579362869262695,40.41215896606445,-56.32855987548828
3.294,-1.9932211637496948,-8.036294937133789,0.9942178130149841,-0.8991936445236206,-0.645684540271759,-1.239598274230957,2.893890619277954,45.64455032348633,-58.857059478759766
3.301,-1.5864413976669312,-7.892724990844727,0.9678966999053955,-0.8472700715065002,-0.6397286653518677,-1.2110402584075928,2.2800350189208984,46.88687515258789,-57.731658935546875
3.311,-0.6400800943374634,-7.88076114654541,1.1078768968582153,-0.7793112993240356,-0.7017314434051514,-1.1653780937194824,1.5784857273101807,46.82841491699219,-57.936275482177734
3.321,-0.31824538111686707,-8.096115112304688,1.3746765851974487,-0.7151704430580139,-0.8026769757270813,-1.107040524482727,1.3007892370224,47.8807373046875,-57.950889587402344
3.331,-0.1375872939825058,-8.459823608398438,1.6486546993255615,-0.6692028641700745,-0.9323330521583557,-1.0412198305130005,0.7015492916107178,47.41303634643555,-58.0385856628418
3.35,-0.24526430666446686,-9.154938697814941,2.286341905593872,-0.6388123035430908,-1.131933331489563,-0.9043859839439392,-0.6430867910385132,48.62613296508789,-58.27243423461914
3.354,-0.3397807776927948,-9.195616722106934,2.3222343921661377,-0.6488915681838989,-1.1611021757125854,-0.8706356883049011,-0.6723180413246155,48.9184455871582,-58.243202209472656
3.361,-0.7704888582229614,-9.182456970214844,2.289931058883667,-0.6760751008987427,-1.183704137802124,-0.8382598161697388,-0.5846244096755981,49.210758209228516,-58.30166244506836
3.371,-1.2059825658798218,-8.910871505737305,1.7024933099746704,-0.6893614530563354,-1.1934778690338135,-0.8323038816452026,-1.8854135274887085,48.5822868347168,-58.681671142578125
3.381,-1.7563318014144897,-8.585447311401367,1.0971091985702515,-0.6411030292510986,-1.1808024644851685,-0.855516791343689,-1.9877228736877441,49.75153350830078,-58.155513763427734
3.4,-2.20737886428833,-8.46341323852539,0.6759723424911499,-0.5426010489463806,-1.1166616678237915,-0.8897252082824707,-2.5138847827911377,49.13768005371094,-58.243202209472656
3.404,-2.4610180854797363,-8.520841598510742,0.3601197898387909,-0.3689625859260559,-0.9046913981437683,-0.9045386910438538,-2.923121929168701,50.043846130371094,-58.477054595947266
3.411,-2.3676979541778564,-8.762516021728516,0.32901307940483093,-0.294437050819397,-0.7762569785118103,-0.8973610401153564,-3.2154340744018555,50.29231262207031,-59.58784103393555
3.421,-2.1882362365722656,-9.176474571228027,0.4175475239753723,-0.23518311977386475,-0.6311764717102051,-0.8846855759620667,-3.741595983505249,50.92078399658203,-59.310142517089844
3.431,-2.060220241546631,-9.46480941772461,0.35533416271209717,-0.20906862616539001,-0.4775438904762268,-0.8604037165641785,-4.501607418060303,50.51154327392578,-59.485530853271484
3.441,-1.7335999011993408,-9.584450721740723,0.2620140612125397,-0.18417586386203766,-0.3139847218990326,-0.8303185701370239,-4.618532657623291,51.02309036254883,-58.550132751464844
3.459,-1.137787103652954,-9.724431037902832,0.25722840428352356,-0.15745051205158234,-0.168751522898674,-0.7754933834075928,-5.1446943283081055,50.73078155517578,-59.7339973449707
3.464,-0.24765713512897491,-9.905089378356934,0.02991028130054474,-0.12599095702171326,0.0012217304902151227,-0.6462953686714172,-5.787781238555908,51.60771560668945,-58.38935852050781
3.471,0.1339980661869049,-10.015158653259277,-0.2309073656797409,-0.10430524498224258,0.055436018854379654,-0.5690209865570068,-6.021631240844727,51.154632568359375,-58.6378288269043
3.481,0.6340979933738708,-10.202995300292969,-0.4582255482673645,-0.07651086896657944,0.052839841693639755,-0.46731188893318176,-6.0508623123168945,51.62232971191406,-58.90090560913086
3.491,0.8398807048797607,-10.321439743041992,-0.4833501875400543,-0.06398813426494598,-0.00427605677396059,-0.3640756905078888,-6.635486125946045,51.25694274902344,-58.40397644042969
3.501,0.906879723072052,-10.370492935180664,-0.5539384484291077,-0.06475171446800232,-0.05665775015950203,-0.2557998299598694,-6.664718151092529,51.4177131652832,-58.3162841796875
3.52,0.9056833982467651,-10.272387504577637,-0.6903292536735535,-0.06169738993048668,-0.09193521738052368,-0.11438451707363129,-7.468576908111572,51.6807975769043,-58.243202209472656
3.524,0.8207381367683411,-10.101300239562988,-0.7310072779655457,-0.041691552847623825,-0.11667525768280029,0.003359758760780096,-7.220110893249512,51.710025787353516,-58.360130310058594
3.531,0.6759723424911499,-10.116853713989258,-0.6735795140266418,-0.0277943667024374,-0.11178833991289139,0.06444628536701202,-6.986261367797852,51.403099060058594,-58.28704833984375
3.541,0.5000999569892883,-10.130014419555664,-0.6029912829399109,-0.012675453908741474,-0.08109235763549805,0.1408044397830963,-6.971645355224609,52.17772674560547,-58.60859298706055
3.551,0.33020952343940735,-10.202995300292969,-0.5682953596115112,0.004886921960860491,-0.016035212203860283,0.2168571650981903,-7.190880298614502,51.62232971191406,-58.56474685668945
3.561,0.2464607208967209,-10.38365364074707,-0.6005984544754028,0.038026362657547,0.08017606288194656,0.30711251497268677,-7.307804584503174,51.213096618652344,-58.857059478759766
3.581,0.1172483041882515,-10.729416847229004,-0.5312066078186035,0.06658431142568588,0.15546520054340363,0.3683517277240753,-7.117801666259766,51.169246673583984,-58.82782745361328
3.585,0.0011964113218709826,-10.999804496765137,-0.380458801984787,0.09178250283002853,0.24892757833003998,0.4314235746860504,-7.0447235107421875,50.80385971069336,-58.667057037353516
3.591,-0.039481572806835175,-11.081161499023438,-0.24765713512897491,0.09636398404836655,0.27351492643356323,0.44684794545173645,-7.05933952331543,50.68693161010742,-59.17860412597656
3.601,-0.041874393820762634,-11.048858642578125,-0.0813559740781784,0.10033462196588516,0.31383201479911804,0.47540587186813354,-6.8401055335998535,51.43233108520508,-58.76936340332031
3.611,-0.08853442966938019,-10.935198783874512,0.03349951654672623,0.1137736514210701,0.3465133011341095,0.5010622143745422,-7.0301079750061035,50.61385726928711,-58.60859298706055
3.621,-0.2967100143432617,-11.027322769165039,-0.0011964113218709826,0.1586722582578659,0.38347065448760986,0.5012149214744568,-6.8547210693359375,50.993858337402344,-58.46243667602539
3.64,-0.6089733242988586,-11.576476097106934,-0.1423729509115219,0.2399173229932785,0.43218716979026794,0.4758639931678772,-7.117801666259766,50.43846893310547,-58.38935852050781
3.644,-0.9200402498245239,-12.289536476135254,-0.47976091504096985,0.35705074667930603,0.5499314665794373,0.45982882380485535,-7.220110893249512,50.62847137451172,-58.19935607910156
3.651,-0.9667003750801086,-12.301501274108887,-0.5000999569892883,0.4265366494655609,0.625220537185669,0.49816060066223145,-6.8839521408081055,49.2984504699707,-58.477054595947266
3.661,-1.1341978311538696,-12.027523040771484,-0.5168496966362,0.5754350423812866,0.8019133806228638,0.6026185750961304,-6.533177375793457,49.70768737792969,-58.46243667602539
3.671,-0.7992027401924133,-11.907881736755371,-0.24765713512897491,0.6719517707824707,0.9005680680274963,0.6598871946334839,-6.986261367797852,48.62613296508789,-58.3747444152832
3.681,-0.4893321990966797,-11.736795425415039,0.008374879136681557,0.704022228717804,0.9034696817398071,0.7037167549133301,-6.869336128234863,48.34843444824219,-57.337032318115234
3.701,-0.5946164131164551,-10.77129077911377,0.4043869972229004,0.6302602291107178,0.7623597979545593,0.8416195511817932,-7.746273040771484,47.57380676269531,-57.717044830322266
3.704,-0.8243273496627808,-10.569097518920898,0.5730810165405273,0.6120869517326355,0.7470881938934326,0.8994990587234497,-7.380882740020752,47.06226348876953,-57.27857208251953
3.711,-1.0372885465621948,-10.124032020568848,0.7680960297584534,0.5881105065345764,0.746019184589386,0.9812023043632507,-8.053200721740723,46.185325622558594,-57.05934143066406
3.721,-1.530210018157959,-9.529415130615234,1.039681315422058,0.5522221326828003,0.741284966468811,1.067639708518982,-7.351651668548584,46.185325622558594,-56.8985710144043
3.731,-2.1343977451324463,-9.11426067352295,1.1006983518600464,0.5161811113357544,0.7064656615257263,1.1133018732070923,-7.439345359802246,44.051448822021484,-56.387020111083984
3.741,-3.0233314037323,-8.62612533569336,0.9690931439399719,0.49266281723976135,0.6914994120597839,1.1220066547393799,-7.512423515319824,43.08681869506836,-56.211631774902344
3.761,-4.2137603759765625,-7.987241268157959,0.5216353535652161,0.5510004162788391,0.7834346890449524,1.093143343925476,-7.702425956726074,40.529083251953125,-54.5600700378418
3.764,-4.3549370765686035,-8.01834774017334,0.6424728631973267,0.5752823352813721,0.8255844116210938,1.0841330289840698,-7.702425956726074,40.499855041503906,-55.05699920654297
3.771,-4.442275047302246,-8.087740898132324,0.8530412316322327,0.6070473194122314,0.8910996913909912,1.0674870014190674,-7.351651668548584,38.87752151489258,-53.61005783081055
3.781,-4.271188259124756,-8.170292854309082,0.891326367855072,0.6281222105026245,0.9500481486320496,1.0435105562210083,-7.468576908111572,37.53288269042969,-53.50774383544922
3.791,-4.0558342933654785,-8.11286449432373,0.760917603969574,0.6466008424758911,0.9634872078895569,1.0257954597473145,-7.863198280334473,35.355159759521484,-52.85004425048828
3.801,-3.9278182983398438,-8.11286449432373,0.7130610942840576,0.6669121384620667,0.922711968421936,0.9975429177284241,-7.64396333694458,33.67436599731445,-52.76234817504883
3.813,-3.950549840927124,-8.34018325805664,0.7477570176124573,0.6863070726394653,0.8350527882575989,0.958142101764679,-7.117801666259766,30.707395553588867,-50.48231506347656
3.821,-4.210171222686768,-8.475377082824707,0.8841480016708374,0.6818782687187195,0.7681630253791809,0.9089674949645996,-7.0008769035339355,29.90353775024414,-50.71616744995117
3.831,-4.7365922927856445,-8.810372352600098,1.1593225002288818,0.6708827614784241,0.7547240257263184,0.8420777320861816,-7.0447235107421875,27.097341537475586,-50.11692810058594
3.841,-5.151747226715088,-9.20279598236084,1.3124631643295288,0.6513350009918213,0.8013024926185608,0.7657195925712585,-5.817012310028076,25.635778427124023,-50.08769607543945
3.851,-5.438885688781738,-9.308079719543457,1.3351950645446777,0.6250678896903992,0.8959865570068359,0.7012733221054077,-4.676995277404785,23.85267448425293,-49.166908264160156
3.861,-5.294119834899902,-9.497113227844238,1.1676974296569824,0.6186537742614746,1.0224356651306152,0.6272058486938477,-3.9608304500579834,21.718795776367188,-49.19614028930664
3.874,-4.588237285614014,-9.482755661010742,1.0145567655563354,0.6262896060943604,1.1782063245773315,0.5455026626586914,-3.1277403831481934,19.43876075744629,-49.56153106689453
3.881,-3.9840495586395264,-9.355936050415039,0.8147560954093933,0.62964928150177,1.204626202583313,0.5218316316604614,-2.1192634105682373,18.91259765625,-49.50307083129883
3.891,-3.2135608196258545,-9.421738624572754,0.6340979933738708,0.6452264189720154,1.1876747608184814,0.5148066878318787,-0.7307804822921753,17.275650024414062,-49.53229904174805
3.901,-2.7732813358306885,-9.369096755981445,0.607776939868927,0.6411030292510986,1.1354458332061768,0.541532039642334,0.4823150932788849,16.530254364013672,-49.605377197265625
3.911,-2.379662036895752,-9.126225471496582,0.6005984544754028,0.6241515278816223,1.0653489828109741,0.5900958180427551,1.8707979917526245,14.600994110107422,-50.08769607543945
3.93,-2.4406790733337402,-8.787640571594238,0.5874379277229309,0.5926920175552368,0.9605855345726013,0.6482807397842407,3.814674139022827,13.943290710449219,-50.73078155517578
3.934,-2.7122642993927,-8.447859764099121,0.6915256977081299,0.5549710988998413,0.9062185883522034,0.6860016584396362,5.773165702819824,13.373282432556152,-51.4177131652832
3.941,-3.014956474304199,-8.373682022094727,0.7094718813896179,0.5283983945846558,0.8904888033866882,0.6933320164680481,7.687810897827148,13.358667373657227,-52.77696990966797
3.951,-2.919243335723877,-8.221738815307617,0.778863787651062,0.48915034532546997,0.8999572396278381,0.6983716487884521,8.827827453613281,12.525577545166016,-53.36158752441406
3.961,-3.2853453159332275,-7.951349258422852,0.6161518096923828,0.4560109078884125,0.9034696817398071,0.7053965926170349,10.508623123168945,12.569424629211426,-54.48699188232422
3.971,-3.1345977783203125,-7.794619560241699,0.6209374666213989,0.4358523488044739,0.9375254511833191,0.6966918110847473,11.707103729248047,12.247880935668945,-54.647762298583984
3.991,-2.8462624549865723,-7.518248558044434,0.5539384484291077,0.43676862120628357,0.940732479095459,0.6812674403190613,13.329436302185059,12.993276596069336,-55.23238754272461
3.995,-2.7278177738189697,-7.502695083618164,0.5383850932121277,0.47021350264549255,0.9443976879119873,0.6513350009918213,14.820228576660156,13.285589218139648,-56.76702880859375
4.001,-2.830709218978882,-7.661818027496338,0.503689169883728,0.48227810859680176,0.9564622640609741,0.6407976150512695,15.14177131652832,13.738672256469727,-56.76702880859375
4.011,-2.699103832244873,-7.956134796142578,0.5479563474655151,0.4911356270313263,0.9831876158714294,0.611934244632721,16.6325626373291,13.534053802490234,-57.65857696533203
4.021,-2.5710878372192383,-8.195417404174805,0.4570291042327881,0.4778493344783783,0.9783006906509399,0.5618432760238647,17.684886932373047,14.35252857208252,-57.87781524658203
4.031,-2.9001009464263916,-8.517251968383789,0.3613162338733673,0.45982882380485535,0.9640980362892151,0.5111414790153503,18.5325927734375,14.922536849975586,-59.675533294677734
4.05,-2.935993194580078,-8.724230766296387,0.4259223937988281,0.3732386529445648,0.972955584526062,0.39095374941825867,19.497222900390625,16.910259246826172,-60.46477508544922
4.054,-2.6835503578186035,-8.888139724731445,0.30149564146995544,0.361174076795578,0.965319812297821,0.37629297375679016,20.418006896972656,17.69950294494629,-59.85091781616211
4.061,-2.5363919734954834,-8.837889671325684,0.25004997849464417,0.3306308090686798,0.9500481486320496,0.3423899710178375,21.134170532226562,18.88336753845215,-60.50862121582031
4.071,-2.1511476039886475,-8.702695846557617,-0.041874393820762634,0.2987130880355835,0.8846855759620667,0.3020728826522827,21.791873931884766,19.0733699798584,-61.37094497680664
4.081,-1.8664016723632812,-8.374878883361816,-0.4666004180908203,0.30863967537879944,0.8037459254264832,0.2880229651927948,21.92341423034668,20.944168090820312,-61.86787414550781
4.091,-1.659422516822815,-8.285148620605469,-0.592223584651947,0.3289509117603302,0.7232643961906433,0.2883284091949463,22.332651138305664,21.967260360717773,-61.44401931762695
4.11,-1.6905291080474854,-8.165507316589355,-0.45104703307151794,0.36392295360565186,0.5496259927749634,0.2817615866661072,22.318035125732422,24.364221572875977,-63.75328826904297
4.114,-1.6737794876098633,-8.199006080627441,-0.3696911036968231,0.3623957931995392,0.5145012736320496,0.27320948243141174,22.069570541381836,24.729610443115234,-63.09558868408203
4.121,-1.7886348962783813,-8.356932640075684,-0.2225324958562851,0.35705074667930603,0.48945578932762146,0.25793784856796265,21.616485595703125,25.694242477416992,-63.387901306152344
4.131,-1.8891334533691406,-8.672784805297852,-0.08374878764152527,0.3275764584541321,0.44165557622909546,0.23640485107898712,21.704179763793945,26.746564865112305,-64.63021850585938
4.141,-2.0650060176849365,-8.979066848754883,0.07417750358581543,0.3019201457500458,0.41951167583465576,0.215482696890831,21.66033363342285,28.251972198486328,-63.85559844970703
4.151,-2.0925233364105225,-9.219545364379883,0.16869398951530457,0.28191429376602173,0.39385536313056946,0.1927279680967331,20.798011779785156,29.1873722076416,-64.7179183959961
4.171,-2.3856441974639893,-9.844072341918945,-0.10169495642185211,0.2868012487888336,0.37950003147125244,0.15515977144241333,19.394912719726562,31.525867462158203,-64.26483154296875
4.174,-2.4023938179016113,-9.937392234802246,-0.16510476171970367,0.2871066629886627,0.3741549551486969,0.1437060534954071,19.19029426574707,31.701257705688477,-63.56328582763672
4.181,-2.3569302558898926,-10.01874828338623,-0.22612173855304718,0.2843577563762665,0.3497203588485718,0.11484266072511673,18.81028938293457,32.88512420654297,-63.98713684082031
4.191,-2.2600209712982178,-10.1336030960083,-0.15912269055843353,0.2922990024089813,0.30405816435813904,0.0682641938328743,17.78719711303711,33.162818908691406,-63.665592193603516
4.201,-2.0518453121185303,-10.467402458190918,-0.041874393820762634,0.2981022298336029,0.2583959996700287,0.00931569468230009,17.056415557861328,33.9082145690918,-63.11020278930664
4.211,-1.730010747909546,-10.790432929992676,0.0323031060397625,0.2848159074783325,0.17898350954055786,-0.05054909735918045,16.281789779663086,34.43437576293945,-62.2332649230957
4.223,-1.5086746215820312,-10.966304779052734,0.02153540402650833,0.275347501039505,0.030237827450037003,-0.09911288321018219,16.121017456054688,35.325927734375,-62.65711975097656
4.231,-1.5996018648147583,-11.175678253173828,0.02871387079358101,0.29397889971733093,-0.08979719132184982,-0.11468994617462158,15.697164535522461,35.25284957885742,-62.320960998535156
4.241,-2.018345832824707,-11.440084457397461,-0.035892337560653687,0.31413745880126953,-0.16982053220272064,-0.11514809727668762,14.90792179107666,35.325927734375,-61.16632843017578
4.251,-2.4023938179016113,-11.401800155639648,-0.04546362906694412,0.31322115659713745,-0.24098633229732513,-0.14355333149433136,14.177140235900879,35.939781188964844,-61.020172119140625
4.261,-2.8067808151245117,-11.22353458404541,0.11246266216039658,0.2961169183254242,-0.27152958512306213,-0.19562958180904388,13.870213508605957,36.465946197509766,-61.38555908203125
4.271,-2.922832727432251,-11.060822486877441,0.1986042857170105,0.26740625500679016,-0.2632829248905182,-0.2522873282432556,13.636363983154297,36.33440399169922,-60.93247604370117
4.283,-2.533998966217041,-11.045268058776855,0.4211367666721344,0.22663100063800812,-0.2638937830924988,-0.31932979822158813,13.460975646972656,36.37825393676758,-60.52324295043945
4.291,-2.0721843242645264,-11.387442588806152,0.8135596513748169,0.21609358489513397,-0.30543261766433716,-0.35643988847732544,13.44636058807373,36.33440399169922,-59.470916748046875
4.301,-1.4428720474243164,-11.883954048156738,1.1066803932189941,0.18860463798046112,-0.43279802799224854,-0.40286561846733093,12.671732902526855,36.87518310546875,-60.34785079956055
4.311,-1.8795621395111084,-12.034701347351074,1.3088740110397339,0.15454889833927155,-0.6114761233329773,-0.4437935948371887,13.095585823059082,36.94826126098633,-60.74247360229492
4.321,-2.717050075531006,-12.131609916687012,1.184447169303894,0.144622340798378,-0.7831292152404785,-0.5198463201522827,12.744811058044434,37.7228889465332,-59.690147399902344
4.341,-3.634697675704956,-12.32662582397461,1.2059825658798218,0.11682797223329544,-0.9358454942703247,-0.6386595964431763,12.160186767578125,37.16749572753906,-61.15170669555664
4.345,-4.202992916107178,-12.33141040802002,1.2406784296035767,0.036041051149368286,-0.9561567902565002,-0.7431175708770752,12.364805221557617,37.401344299316406,-60.830162048339844
4.351,-3.9290146827697754,-12.250054359436035,1.399801254272461,-0.03084869496524334,-0.9486737251281738,-0.79213947057724,12.087108612060547,37.73750305175781,-60.56708526611328
4.361,-3.2542386054992676,-11.82652473449707,1.4596216678619385,-0.1362229436635971,-0.9627236127853394,-0.8355109095573425,11.809412002563477,38.49751663208008,-60.53785705566406
4.371,-2.561516523361206,-11.210373878479004,1.408176064491272,-0.21334467828273773,-1.0334312915802002,-0.8701775074005127,11.736333847045898,38.570594787597656,-61.8971061706543
4.381,-2.2396819591522217,-10.75454044342041,1.4500504732131958,-0.24236077070236206,-1.1465940475463867,-0.8843801021575928,11.297865867614746,39.53522491455078,-61.5171012878418
4.401,-2.0817556381225586,-10.85743236541748,1.7575281858444214,-0.2658790946006775,-1.229824423789978,-0.8756753206253052,10.596317291259766,40.11984634399414,-62.48173141479492
4.404,-1.9848462343215942,-10.876575469970703,1.9238293170928955,-0.3637702465057373,-1.3075571060180664,-0.8301658034324646,9.982461929321289,40.04676818847656,-62.08710479736328
4.411,-1.8472589254379272,-10.693524360656738,1.9070795774459839,-0.44135013222694397,-1.352913737297058,-0.7883215546607971,9.982461929321289,39.75445556640625,-62.51095962524414
4.421,-1.6091731786727905,-10.353742599487305,1.832902193069458,-0.5293146967887878,-1.4381294250488281,-0.7344127297401428,9.748611450195312,40.42677688598633,-63.02250671386719
4.431,-1.3794622421264648,-10.217351913452148,1.9298113584518433,-0.5925393104553223,-1.571603536605835,-0.6751587986946106,9.251681327819824,40.83601379394531,-63.080970764160156
4.441,-1.098305583000183,-10.097711563110352,2.2169501781463623,-0.6904304623603821,-1.7027868032455444,-0.6250678896903992,8.79859733581543,41.21601867675781,-63.387901306152344
4.461,-0.8291130065917969,-9.751948356628418,2.493321180343628,-0.7791586518287659,-1.8613063097000122,-0.5752823352813721,7.8485822677612305,42.0052604675293,-64.77638244628906
4.464,-0.8530412316322327,-9.422935485839844,2.7421746253967285,-0.8718574047088623,-2.0705277919769287,-0.5206099152565002,7.673194885253906,41.522945404052734,-64.70330047607422
4.471,-0.9822536706924438,-9.330811500549316,2.9001009464263916,-0.9201157689094543,-2.1905627250671387,-0.4931209683418274,7.220110893249512,41.873722076416016,-65.36100769042969
4.481,-1.2514461278915405,-9.377471923828125,3.1728827953338623,-0.9863946437835693,-2.3301455974578857,-0.4570798873901367,6.723180294036865,42.48757553100586,-64.99561309814453
4.491,-1.5517455339431763,-9.509077072143555,3.4923245906829834,-1.0760390758514404,-2.4801130294799805,-0.4069889783859253,6.182402610778809,42.67757797241211,-65.53639221191406
4.501,-2.335394859313965,-9.735198020935059,3.899104356765747,-1.1467467546463013,-2.5644121170043945,-0.3813326060771942,5.685472011566162,43.27682113647461,-65.68254852294922
4.521,-3.180061101913452,-9.919445991516113,4.225724697113037,-1.3312280178070068,-2.5532639026641846,-0.4075998365879059,4.501607418060303,44.12452697753906,-66.77871704101562
4.524,-4.295116424560547,-10.083354949951172,4.448256969451904,-1.3811663389205933,-2.5137102603912354,-0.43447789549827576,4.866997718811035,44.12452697753906,-66.7933349609375
4.531,-4.926821708679199,-10.13719367980957,4.445864677429199,-1.433700680732727,-2.453998327255249,-0.4668537676334381,4.399298667907715,43.83221435546875,-66.32563781738281
4.541,-5.623133182525635,-10.051051139831543,4.264009952545166,-1.543503761291504,-2.2405009269714355,-0.575893223285675,3.566208839416504,44.431453704833984,-66.85179901123047
4.551,-6.392425537109375,-9.747162818908691,3.805784225463867,-1.6071864366531372,-2.0147862434387207,-0.6850853562355042,3.0546624660491943,44.65068435668945,-67.15872192382812
4.561,-6.821937084197998,-9.359525680541992,3.3200414180755615,-1.6430747509002686,-1.725388765335083,-0.8190175890922546,2.1192634105682373,45.77608871459961,-65.8579330444336
4.58,-6.928417682647705,-8.87378215789795,2.798405885696411,-1.5862643718719482,-1.0093021392822266,-1.1073459386825562,1.1546331644058228,46.44840621948242,-66.36947631835938
4.584,-6.58265495300293,-8.289934158325195,2.1678972244262695,-1.5483906269073486,-0.8269587755203247,-1.176831841468811,1.0961706638336182,46.53609848022461,-66.06256103515625
4.591,-6.033502578735352,-8.00518798828125,1.8149559497833252,-1.4734069108963013,-0.5682573914527893,-1.2652546167373657,0.17538732290267944,46.4191780090332,-65.34638977050781
4.601,-5.0464630126953125,-7.572086811065674,1.2490533590316772,-1.3463469743728638,-0.2652682065963745,-1.3548990488052368,-0.6138556003570557,47.9391975402832,-65.82870483398438
4.611,-4.094119548797607,-7.434499740600586,0.9499505758285522,-1.2006556987762451,-0.03344487026333809,-1.4104878902435303,-1.3007892370224,48.085357666015625,-65.50716400146484
4.621,-2.9970104694366455,-7.503891468048096,0.8123632073402405,-1.0595457553863525,0.10903944075107574,-1.4497358798980713,-1.6515638828277588,49.41537857055664,-65.21485137939453
4.64,-1.6654045581817627,-7.877171516418457,1.124626636505127,-0.8834638595581055,0.18539761006832123,-1.4721851348876953,-2.586962938308716,49.95615005493164,-64.03099060058594
4.644,-1.5409777164459229,-7.917849540710449,1.1892328262329102,-0.8613199591636658,0.18280142545700073,-1.4669928550720215,-3.507746458053589,50.51154327392578,-64.03099060058594
4.651,-1.2011969089508057,-8.084151268005371,1.3112667798995972,-0.8478809595108032,0.19318613409996033,-1.4457652568817139,-3.5223617553710938,50.29231262207031,-62.84711837768555
4.661,-0.5682953596115112,-8.274380683898926,1.2801601886749268,-0.8367326259613037,0.23335051536560059,-1.3755158185958862,-4.209295749664307,51.62232971191406,-62.86173629760742
4.671,0.02991028130054474,-8.366503715515137,1.1066803932189941,-0.8240572214126587,0.20845776796340942,-1.2846496105194092,-4.647763729095459,51.6807975769043,-63.0371208190918
4.681,0.35892340540885925,-8.346165657043457,0.9678966999053955,-0.7950411438941956,0.1134682148694992,-1.2092077732086182,-5.349313259124756,52.45542526245117,-62.40864944458008
4.694,0.34695929288864136,-8.376075744628906,0.6592226028442383,-0.7608326077461243,-0.076052725315094,-1.106735110282898,-6.343174934387207,52.47003936767578,-61.76556396484375
4.701,0.16869398951530457,-8.376075744628906,0.605384111404419,-0.7389942407608032,-0.15592335164546967,-1.0653489828109741,-6.518562316894531,52.98158645629883,-61.634029388427734
4.711,-0.15912269055843353,-8.309076309204102,0.5694918036460876,-0.7174611687660217,-0.2197587788105011,-1.0160216093063354,-6.8401055335998535,52.309268951416016,-61.224788665771484
4.721,-0.17108681797981262,-8.25404167175293,0.5168496966362,-0.6957755088806152,-0.22128592431545258,-0.9665415287017822,-7.3370361328125,53.49312973022461,-60.610931396484375
4.731,-0.038285162299871445,-8.206185340881348,0.4773681163787842,-0.6835582256317139,-0.1820378452539444,-0.9135489463806152,-7.877813339233398,53.4200553894043,-60.56708526611328
4.75,0.16869398951530457,-8.173882484436035,0.21176479756832123,-0.6511823534965515,-0.1414152979850769,-0.8454374670982361,-8.389359474182129,54.18006134033203,-59.39783477783203
4.754,0.6460620760917664,-8.118846893310547,-0.09930214285850525,-0.5966625809669495,-0.14966197311878204,-0.7762569785118103,-8.75475025177002,54.41391372680664,-59.63168716430664
4.761,0.7034898400306702,-8.173882484436035,-0.14476576447486877,-0.5540547966957092,-0.17333300411701202,-0.7408268451690674,-9.0762939453125,54.22391128540039,-59.280914306640625
4.771,0.7058826684951782,-8.437091827392578,0.1543370485305786,-0.5241223573684692,-0.19898934662342072,-0.698677122592926,-9.792458534240723,54.38468551635742,-58.94475555419922
4.781,0.7621140480041504,-8.673981666564941,0.2069791555404663,-0.5335907936096191,-0.17241671681404114,-0.6397286653518677,-9.953229904174805,55.14469909667969,-57.9947395324707
4.791,0.8386843204498291,-8.788837432861328,-0.1411765217781067,-0.5258022546768188,-0.07254024595022202,-0.5436700582504272,-10.040924072265625,54.82314682006836,-58.126277923583984
4.811,0.7908278107643127,-8.931209564208984,-0.5874379277229309,-0.4720461070537567,-0.0025961773935705423,-0.49586984515190125,-9.660917282104492,54.79391860961914,-57.05934143066406
4.814,0.836291491985321,-9.390631675720215,-0.8207381367683411,-0.39538252353668213,0.08139779418706894,-0.4752531349658966,-9.967845916748047,55.188541412353516,-57.16164779663086
4.821,1.098305583000183,-9.6526460647583,-0.9044869542121887,-0.3634648323059082,0.10293079167604446,-0.47051894664764404,-9.646302223205566,55.87547302246094,-57.103187561035156
4.831,1.317248821258545,-9.957731246948242,-0.9511469602584839,-0.3423899710178375,0.10537425428628922,-0.4599815011024475,-9.850920677185059,55.61239242553711,-57.2347297668457
4.841,1.8460626602172852,-10.140782356262207,-1.1234301328659058,-0.32681289315223694,0.09315694868564606,-0.4288273751735687,-10.099386215209961,55.84624481201172,-57.20549774169922
4.851,2.3090739250183105,-10.159924507141113,-1.2550355195999146,-0.3110831081867218,0.013286319561302662,-0.3604104816913605,-10.260157585144043,56.13855743408203,-57.79011917114258
4.871,2.7661027908325195,-10.146763801574707,-1.4213366508483887,-0.284052312374115,-0.06627887487411499,-0.27779096364974976,-10.552470207214355,56.25548553466797,-58.053199768066406
4.874,3.0664021968841553,-10.402796745300293,-1.4811570644378662,-0.23839014768600464,-0.17989981174468994,-0.14935654401779175,-10.990938186645508,56.16778564453125,-58.71090316772461
4.881,3.1453652381896973,-10.582257270812988,-1.5038889646530151,-0.21441368758678436,-0.24862214922904968,-0.06673702597618103,-11.283249855041504,56.75241470336914,-58.667057037353516
4.891,3.0173492431640625,-10.846664428710938,-1.5326027870178223,-0.19013181328773499,-0.3341432809829712,0.042302414774894714,-11.385560035705566,55.992401123046875,-59.58784103393555
4.901,2.851048231124878,-11.0835542678833,-1.5397813320159912,-0.17287485301494598,-0.4260784983634949,0.16096298396587372,-11.297865867614746,56.25548553466797,-58.98860168457031
4.911,2.5160529613494873,-11.239087104797363,-1.605583906173706,-0.15561792254447937,-0.4905247688293457,0.23350323736667633,-11.79479694366455,56.372406005859375,-58.7547492980957
4.93,2.111665964126587,-11.26062297821045,-1.6749757528305054,-0.1336267739534378,-0.5477933883666992,0.2880229651927948,-12.247880935668945,56.16778564453125,-58.88629150390625
4.934,1.5816556215286255,-11.203194618225098,-1.683350682258606,-0.09712757170200348,-0.5951354503631592,0.3306308090686798,-11.911721229553223,56.03624725341797,-58.95936965942383
4.941,1.2514461278915405,-11.032108306884766,-1.7850456237792969,-0.07147122919559479,-0.6007859706878662,0.35063666105270386,-11.56094741821289,56.387020111083984,-58.7547492980957
4.951,0.9427720904350281,-10.86461067199707,-1.798206090927124,-0.005192354787141085,-0.5684100985527039,0.3888157308101654,-11.926337242126465,55.84624481201172,-58.27243423461914
4.961,0.5252245664596558,-10.950752258300781,-1.573280930519104,0.03985895588994026,-0.5111414790153503,0.4082106947898865,-11.195556640625,56.85471725463867,-59.047061920166016
4.971,0.1579262912273407,-11.554940223693848,-1.4859428405761719,0.07376197725534439,-0.4340197443962097,0.39309176802635193,-11.531715393066406,55.68547058105469,-58.52090072631836
4.991,-0.19501502811908722,-12.251252174377441,-1.4560325145721436,0.09651671350002289,-0.3211624026298523,0.3452915847301483,-10.96170711517334,55.2762336730957,-58.857059478759766
4.995,-0.039481572806835175,-12.52164077758789,-1.9082759618759155,0.14385876059532166,0.0073303827084600925,0.33735033869743347,-11.151710510253906,55.363929748535156,-59.35398864746094
5.001,0.3852444291114807,-12.44267749786377,-2.1092729568481445,0.20128010213375092,0.18478672206401825,0.39965859055519104,-11.020169258117676,56.021629333496094,-59.39783477783203
5.011,1.6342978477478027,-12.104093551635742,-2.520838737487793,0.2981022298336029,0.30146196484565735,0.5093088746070862,-10.654779434204102,55.33469772338867,-59.44168472290039
5.021,2.3497517108917236,-11.773883819580078,-2.3856441974639893,0.37919458746910095,0.260992169380188,0.6114761233329773,-10.304004669189453,55.72931671142578,-58.842445373535156
5.031,2.644068956375122,-11.172087669372559,-2.2265214920043945,0.4337143301963806,0.13408491015434265,0.7089090943336487,-9.514761924743652,55.2762336730957,-59.58784103393555
5.05,1.971685767173767,-10.12881851196289,-1.8017953634262085,0.5677992701530457,-0.17104226350784302,0.8681922554969788,-9.324758529663086,54.633148193359375,-59.865535736083984
5.054,1.6522438526153564,-9.996016502380371,-1.215553879737854,0.5868887901306152,-0.2513710558414459,0.90728759765625,-9.280911445617676,54.867000579833984,-59.82168960571289
5.061,0.906879723072052,-9.739984512329102,-0.6197410225868225,0.5711589455604553,-0.32681289315223694,0.9636399149894714,-8.79859733581543,55.23238754272461,-59.792457580566406
5.071,-0.015553345903754234,-9.355936050415039,-0.0203389935195446,0.4938845634460449,-0.4155410826206207,0.9921978712081909,-8.564746856689453,54.60391616821289,-60.93247604370117
5.081,-1.0169496536254883,-8.598608016967773,0.37806597352027893,0.39935314655303955,-0.3724750578403473,1.0369436740875244,-8.111662864685059,54.969303131103516,-60.3770866394043
5.091,-1.6378871202468872,-7.916653156280518,0.0526420958340168,0.33505958318710327,-0.19562958180904388,1.0807733535766602,-7.556270122528076,54.09237289428711,-61.06401824951172
5.103,-1.8616158962249756,-7.272984027862549,-0.6795615553855896,0.3364340364933014,-0.01191187184303999,1.0801624059677124,-6.913183689117432,53.8585205078125,-61.604793548583984
5.111,-2.018345832824707,-7.1270222663879395,-0.6915256977081299,0.3474296033382416,0.1160643994808197,1.0806206464767456,-6.518562316894531,53.142356872558594,-61.99941635131836
5.121,-1.9441683292388916,-7.290930271148682,-0.6520441174507141,0.3197879493236542,0.21288654208183289,1.0674870014190674,-5.787781238555908,53.61005783081055,-61.8971061706543
5.131,-1.683350682258606,-7.599604606628418,-0.6879364848136902,0.26190847158432007,0.21059578657150269,1.0290025472640991,-5.1300787925720215,52.952354431152344,-61.926334381103516
5.141,-1.6175479888916016,-8.078168869018555,-0.592223584651947,0.1866193264722824,0.14004085958003998,0.9912815690040588,-4.428529739379883,53.01081466674805,-61.5755615234375
5.151,-1.5206387042999268,-8.50289535522461,-0.5623133182525635,0.12629638612270355,0.06429356336593628,0.9721919894218445,-4.370067119598389,52.42618942260742,-62.26249313354492
5.164,-1.466800332069397,-8.827122688293457,-0.698704183101654,0.1036943718791008,-0.05757404863834381,0.9892961978912354,-3.610055446624756,52.42618942260742,-62.27711486816406
5.171,-1.514656662940979,-9.066404342651367,-0.6376872062683105,0.11927143484354019,-0.12171489745378494,1.0073168277740479,-3.4200527667999268,51.81233215332031,-62.39403533935547
5.181,-1.9537396430969238,-9.315258026123047,-0.4666004180908203,0.1485929638147354,-0.19547687470912933,1.0062477588653564,-2.850043773651123,52.13387680053711,-62.320960998535156
5.191,-2.392822504043579,-9.693324089050293,-0.5000999569892883,0.17440202832221985,-0.21532998979091644,0.9799805283546448,-2.4115755558013916,51.12540054321289,-62.364803314208984
5.201,-2.6632113456726074,-10.004390716552734,-0.38763725757598877,0.19975292682647705,-0.15790866315364838,0.9587529897689819,-1.900029182434082,51.31540298461914,-62.81789016723633
5.221,-2.7086751461029053,-10.06421184539795,-0.6400800943374634,0.2304489016532898,-0.0354301817715168,0.940732479095459,-1.8123356103897095,50.48231506347656,-62.130958557128906
5.224,-2.3712871074676514,-9.635896682739258,-1.2981061935424805,0.3013092875480652,0.041691552847623825,0.9387471675872803,-1.0961706638336182,50.3800048828125,-63.34404754638672
5.231,-2.1439690589904785,-9.440881729125977,-1.4656038284301758,0.36224305629730225,0.07406741380691528,0.9379835724830627,-0.7746273279190063,49.69307327270508,-63.168663024902344
5.241,-1.6331013441085815,-9.266205787658691,-1.6091731786727905,0.4430300295352936,0.07177666574716568,0.9465356469154358,-0.30692780017852783,50.263084411621094,-63.56328582763672
5.251,-0.9320043921470642,-9.31884765625,-1.4416755437850952,0.5012149214744568,0.05803219974040985,0.9741773009300232,-0.33615902066230774,49.48845672607422,-62.87635040283203
5.261,-0.41036906838417053,-9.509077072143555,-1.1389836072921753,0.5161811113357544,-0.001679879380390048,1.049924612045288,0.7600116729736328,50.10231018066406,-63.32943344116211
5.281,0.09212366491556168,-9.884749412536621,-0.5551348328590393,0.4671592116355896,-0.0659734457731247,1.1418598890304565,1.1254018545150757,48.976905822753906,-64.26483154296875
5.284,0.4833501875400543,-10.15155029296875,-0.25244277715682983,0.3634648323059082,-0.15164729952812195,1.2793045043945312,1.388482928276062,48.596900939941406,-63.82636260986328
5.291,0.3601197898387909,-10.293922424316406,-0.34695929288864136,0.2779436707496643,-0.2477058470249176,1.3634512424468994,1.7538732290267944,47.836891174316406,-64.42560577392578
5.301,0.09690931439399719,-10.467402458190918,-0.35533416271209717,0.15790866315364838,-0.4106541574001312,1.447445273399353,2.981584310531616,47.64688491821289,-63.72406005859375
5.311,-0.3756731152534485,-10.437492370605469,-0.3888336718082428,0.028710665181279182,-0.611934244632721,1.500285029411316,2.703887701034546,46.53609848022461,-64.68869018554688
5.321,-0.8231310248374939,-10.291529655456543,-0.46061834692955017,-0.04138611629605293,-0.76846843957901,1.5102115869522095,3.800058364868164,46.872257232666016,-65.14176940917969
5.341,-1.1545369625091553,-10.235298156738281,-0.20458632707595825,-0.08491026610136032,-0.9524915814399719,1.5051718950271606,4.706226348876953,46.112247467041016,-66.34024810791016
5.344,-1.6331013441085815,-10.05463981628418,0.0023928226437419653,-0.16859880089759827,-1.214094638824463,1.4592043161392212,5.188541412353516,45.68839645385742,-65.94563293457031
5.351,-2.104487419128418,-10.027122497558594,0.18544374406337738,-0.18997909128665924,-1.2767083644866943,1.443169116973877,4.866997718811035,45.04530715942383,-66.8371810913086
5.361,-2.638087034225464,-9.82971477508545,0.4989035129547119,-0.2817615866661072,-1.3761266469955444,1.406975269317627,5.539316177368164,45.42531204223633,-66.95410919189453
5.371,-3.638286828994751,-9.21595573425293,0.05503491684794426,-0.32971450686454773,-1.3361150026321411,1.374904990196228,5.80239725112915,44.29991149902344,-67.23180389404297
5.381,-3.9397823810577393,-8.854640007019043,-0.27756741642951965,-0.3243694305419922,-1.262963891029358,1.3542882204055786,6.430868148803711,44.38760757446289,-67.14410400390625
5.4,-3.43489670753479,-8.282755851745605,-0.2464607208967209,-0.2678644061088562,-1.144914150238037,1.330159068107605,6.299327373504639,43.40835952758789,-67.933349609375
5.404,-3.3092734813690186,-8.206185340881348,-0.21655045449733734,-0.26374107599258423,-1.1465940475463867,1.3283264636993408,6.781642913818359,43.34989929199219,-67.80181884765625
5.411,-3.267399311065674,-8.10568618774414,-0.1663011610507965,-0.25335633754730225,-1.1545352935791016,1.3193161487579346,6.8985676765441895,42.692195892333984,-68.43028259277344
5.421,-2.7074787616729736,-8.179863929748535,0.22731813788414001,-0.270766019821167,-1.204626202583313,1.3101532459259033,7.220110893249512,42.72142791748047,-68.92721557617188
5.431,-3.0113673210144043,-8.141578674316406,0.6831508874893188,-0.32650747895240784,-1.2666290998458862,1.3019065856933594,6.913183689117432,41.873722076416016,-69.65798950195312
5.441,-3.4408788681030273,-8.041080474853516,0.8626124858856201,-0.41202861070632935,-1.28434419631958,1.2782355546951294,7.468576908111572,42.22449493408203,-69.95030975341797
5.46,-3.8261232376098633,-7.808976650238037,0.802791953086853,-0.5590943694114685,-1.2915217876434326,1.144914150238037,7.673194885253906,40.85062789916992,-70.02338409423828
5.464,-5.240281105041504,-7.371089935302734,0.5982056260108948,-0.5827654004096985,-1.245248794555664,1.0862711668014526,7.877813339233398,40.952938079833984,-70.50569915771484
5.471,-5.419743537902832,-7.272984027862549,0.4378865361213684,-0.6012440919876099,-1.1733193397521973,0.9822712540626526,7.45396089553833,40.529083251953125,-70.37416076660156
5.481,-5.3276190757751465,-7.219145774841309,0.18903298676013947,-0.6114761233329773,-1.0740537643432617,0.8327620029449463,7.556270122528076,40.38292694091797,-70.65185546875
5.491,-5.4556355476379395,-7.3292155265808105,0.06340979784727097,-0.6108652353286743,-0.973566472530365,0.6849326491355896,7.8339667320251465,40.17831039428711,-70.5349349975586
5.501,-5.554937362670898,-7.607979774475098,-0.014356935396790504,-0.6067418456077576,-0.8620835542678833,0.537408709526062,8.272435188293457,40.8652458190918,-71.22186279296875
5.519,-4.975874423980713,-8.141578674316406,-0.24765713512897491,-0.6035348773002625,-0.6223189830780029,0.2635883390903473,8.462437629699707,40.74831771850586,-71.0757064819336
5.523,-4.882554531097412,-8.203792572021484,-0.30628129839897156,-0.597426176071167,-0.5800164937973022,0.20784689486026764,7.9801225662231445,40.2660026550293,-71.0318603515625
5.531,-4.631308078765869,-8.496912956237793,-0.4139583110809326,-0.5839871764183044,-0.5525276064872742,0.13515393435955048,6.8401055335998535,40.017539978027344,-71.54341125488281
5.541,-3.7399816513061523,-8.801998138427734,-0.38285163044929504,-0.5676465034484863,-0.5250386595726013,0.0633772686123848,7.556270122528076,40.70447540283203,-70.95877838134766
5.551,-3.5808589458465576,-8.987441062927246,-0.6364907622337341,-0.5375614166259766,-0.5560400485992432,0.02535090781748295,7.190880298614502,40.38292694091797,-70.63723754882812
5.561,-3.087937355041504,-9.232706069946289,-0.62931227684021,-0.49984046816825867,-0.6012440919876099,-0.0018325956771150231,7.512423515319824,41.142940521240234,-70.90032196044922
5.58,-2.81276273727417,-9.436095237731934,-0.6999006271362305,-0.4360050857067108,-0.7600690722465515,-0.06658431142568588,6.650102138519287,41.02601623535156,-71.73340606689453
5.583,-2.7182462215423584,-9.616753578186035,-0.6687938570976257,-0.42348232865333557,-0.8023715019226074,-0.08750644326210022,7.0301079750061035,41.40602111816406,-70.95877838134766
5.591,-2.695514678955078,-9.885946273803711,-0.5539384484291077,-0.4144720435142517,-0.8571966290473938,-0.11911872029304504,6.489330291748047,41.142940521240234,-71.32417297363281
5.601,-2.551945447921753,-10.192227363586426,-0.4450649917125702,-0.4360050857067108,-0.9112582206726074,-0.15347988903522491,6.562408924102783,41.37678909301758,-71.631103515625
5.611,-2.352144718170166,-10.346565246582031,-0.4139583110809326,-0.4836525619029999,-0.9793696999549866,-0.17730362713336945,6.0800933837890625,40.99678421020508,-72.58111572265625
5.63,-2.258824348449707,-10.226922988891602,-0.5934200286865234,-0.5525276064872742,-1.1009318828582764,-0.2093740552663803,6.226249694824219,41.683719635009766,-72.20111083984375
5.634,-2.231307029724121,-10.030712127685547,-0.7417749762535095,-0.5855143666267395,-1.2362385988235474,-0.25595253705978394,5.042385101318359,41.712947845458984,-72.171875
5.641,-2.27677059173584,-10.173084259033203,-0.6329016089439392,-0.5986478924751282,-1.3231340646743774,-0.28909197449684143,4.954691410064697,42.47296142578125,-72.85881042480469
5.651,-2.504088878631592,-10.820343971252441,-0.2069791555404663,-0.5946772694587708,-1.4344643354415894,-0.3475823402404785,4.282373428344727,42.15141677856445,-73.19497680664062
5.661,-2.57228422164917,-11.465209007263184,0.5551348328590393,-0.5739078521728516,-1.5247195959091187,-0.42638394236564636,3.843905448913574,42.15141677856445,-73.32650756835938
5.671,-2.451446771621704,-11.761919021606445,0.9726824164390564,-0.5589417219161987,-1.6731598377227783,-0.4966334402561188,2.776965856552124,41.93218231201172,-73.67729187011719
5.69,-2.3988046646118164,-11.934203147888184,1.0923235416412354,-0.5601634383201599,-1.8562666177749634,-0.5542075037956238,2.2361881732940674,42.58988571166992,-73.66267395019531
5.694,-2.4335005283355713,-11.575279235839844,0.5694918036460876,-0.6110179424285889,-2.096184015274048,-0.6194173693656921,1.0230926275253296,42.57527160644531,-74.68576049804688
5.701,-2.4466609954833984,-11.154142379760742,0.061016976833343506,-0.6372851133346558,-2.2295053005218506,-0.6340781450271606,0.8477053642272949,43.10143280029297,-74.37883758544922
5.711,-2.166700839996338,-10.829915046691895,-0.12801600992679596,-0.628885805606842,-2.397951602935791,-0.6145303845405579,-0.4384683072566986,43.48143768310547,-75.25577545166016
5.721,-1.8412768840789795,-10.765308380126953,0.4893321990966797,-0.597426176071167,-2.593428373336792,-0.5655084848403931,-0.7161648273468018,44.27068328857422,-74.8465347290039
5.731,-1.4763715267181396,-10.900503158569336,1.5708880424499512,-0.6224716901779175,-2.722473621368408,-0.5056437253952026,-2.1046478748321533,44.12452697753906,-76.13270568847656
5.75,-1.566102385520935,-11.040483474731445,2.2372889518737793,-0.6876814961433411,-2.8437302112579346,-0.45005494356155396,-4.560070037841797,44.051448822021484,-77.03887939453125
5.754,-1.9621144533157349,-10.991430282592773,2.768495798110962,-0.8058840036392212,-2.9321532249450684,-0.403323769569397,-5.057000637054443,44.358375549316406,-76.10347747802734
5.761,-2.1068801879882812,-10.815557479858398,2.8965117931365967,-0.8869763016700745,-2.9602530002593994,-0.39095374941825867,-5.173925876617432,45.1037712097168,-76.64425659179688
5.771,-2.0721843242645264,-10.51406192779541,3.0029923915863037,-0.9792169332504272,-3.0188961029052734,-0.3962987959384918,-6.8547210693359375,45.24992752075195,-76.629638671875
5.781,-1.8843477964401245,-10.191031455993652,3.047259569168091,-1.0865764617919922,-3.1175506114959717,-0.3579670190811157,-7.117801666259766,45.57147216796875,-77.40426635742188
5.791,-1.5625131130218506,-9.839285850524902,3.205185890197754,-1.1441506147384644,-3.2209396362304688,-0.2958114743232727,-8.681672096252441,45.615318298339844,-76.64425659179688
5.81,-1.0217353105545044,-9.43489933013916,3.5820553302764893,-1.228450059890747,-3.518125534057617,-0.16600261628627777,-11.020169258117676,46.185325622558594,-76.68810272216797
5.814,-0.468993216753006,-9.065208435058594,4.161118507385254,-1.2370021343231201,-3.561649799346924,-0.1518000215291977,-11.707103729248047,46.667640686035156,-77.31657409667969
5.821,-0.47258248925209045,-9.10708236694336,4.596611976623535,-1.2623529434204102,-3.6969566345214844,-0.1215621829032898,-12.525577545166016,47.14995574951172,-77.1850357055664
5.831,-0.8937192559242249,-9.431309700012207,5.188835620880127,-1.3272573947906494,-3.888309955596924,-0.09010262042284012,-14.250219345092773,47.38380432128906,-77.4919662475586
5.841,-1.612762451171875,-9.525826454162598,5.685346603393555,-1.4155274629592896,-4.012010097503662,-0.07528913766145706,-15.711779594421387,48.12919998168945,-76.98041534423828
5.851,-2.4047865867614746,-9.079565048217773,5.72722053527832,-1.4892895221710205,-4.118300437927246,-0.06872233748435974,-17.187957763671875,47.71996307373047,-76.2496337890625
5.871,-3.163311243057251,-8.678768157958984,5.584847927093506,-1.4848606586456299,-4.218482494354248,-0.1492038369178772,-19.424144744873047,48.72844314575195,-76.13270568847656
5.874,-4.3310089111328125,-8.548358917236328,5.596811771392822,-1.4720324277877808,-4.196796894073486,-0.19303342700004578,-19.33645248413086,49.25460433959961,-75.08039093017578
5.881,-4.700699806213379,-8.663214683532715,5.653043270111084,-1.4640913009643555,-4.120896816253662,-0.27641651034355164,-20.213388442993164,49.2984504699707,-75.29962158203125
5.891,-5.038087844848633,-9.035297393798828,5.659025192260742,-1.4735596179962158,-3.936262845993042,-0.40164390206336975,-21.92341423034668,49.38614273071289,-74.42268371582031
5.901,-4.84905481338501,-9.377471923828125,5.645864963531494,-1.486693263053894,-3.7058138847351074,-0.517250120639801,-22.522653579711914,50.39461898803711,-74.43729400634766
5.911,-4.328616142272949,-9.440881729125977,5.642275333404541,-1.504866600036621,-3.461620330810547,-0.6139195561408997,-23.954984664916992,50.02922821044922,-73.26805114746094
5.93,-2.4370899200439453,-8.675178527832031,5.071587562561035,-1.5505287647247314,-3.0526461601257324,-0.6734789609909058,-26.001171112060547,51.505409240722656,-71.28032684326172
5.933,-2.170289993286133,-8.561518669128418,4.995017051696777,-1.5445727109909058,-2.9892690181732178,-0.6663012504577637,-26.42502212524414,51.154632568359375,-71.32417297363281
5.941,-1.0612168312072754,-8.086544036865234,4.675575256347656,-1.518916368484497,-2.955671548843384,-0.636521577835083,-27.360422134399414,51.75387191772461,-70.38877868652344
5.951,-0.11485548317432404,-7.781459331512451,4.5367913246154785,-1.4619531631469727,-3.017979621887207,-0.5777257680892944,-27.71119499206543,51.75387191772461,-69.73107147216797
5.961,0.36251261830329895,-7.670192718505859,4.651647090911865,-1.395827054977417,-3.1694743633270264,-0.5196936130523682,-28.412744522094727,52.22157287597656,-69.77491760253906
5.971,0.35413771867752075,-8.139185905456543,4.9399824142456055,-1.335504174232483,-3.3322699069976807,-0.4951062798500061,-29.523530960083008,52.323883056640625,-68.13796997070312
5.989,-0.4821537435054779,-10.283154487609863,6.15553617477417,-1.3353514671325684,-3.620598316192627,-0.58062744140625,-31.05817222595215,52.36772918701172,-66.54487609863281
5.994,-0.8566304445266724,-10.535597801208496,6.351747512817383,-1.3846787214279175,-3.651294231414795,-0.6096435189247131,-31.175094604492188,52.38234329223633,-65.6094741821289
6.001,-1.3016955852508545,-10.589436531066895,6.534798622131348,-1.4706579446792603,-3.665343999862671,-0.6433938145637512,-31.423559188842773,53.25928497314453,-65.46331787109375
6.011,-1.8580267429351807,-10.292726516723633,6.561119556427002,-1.5419765710830688,-3.65114164352417,-0.6734789609909058,-32.02280044555664,52.79158401489258,-64.08944702148438
6.021,-2.4227328300476074,-9.996016502380371,6.4761738777160645,-1.5415184497833252,-3.5753941535949707,-0.6939429044723511,-32.27126693725586,53.94621658325195,-63.72406005859375
6.04,-2.715853691101074,-9.671788215637207,6.221338748931885,-1.4982997179031372,-3.415041923522949,-0.7241807579994202,-33.48435974121094,53.37620544433594,-62.67173385620117
6.044,-2.884547472000122,-9.005387306213379,5.639883041381836,-1.4283556938171387,-3.221703290939331,-0.764955997467041,-34.40514373779297,53.78544235229492,-60.976322174072266
6.051,-2.7876384258270264,-8.806783676147461,5.37906551361084,-1.3735305070877075,-3.1227431297302246,-0.7987062931060791,-34.77053451538086,53.317745208740234,-60.31861877441406
6.061,-2.66560435295105,-8.97547721862793,5.229514122009277,-1.2973251342773438,-3.037069082260132,-0.8694139719009399,-35.23823165893555,54.267757415771484,-59.76322937011719
6.071,-2.6297121047973633,-9.8871431350708,5.24626350402832,-1.2301298379898071,-2.9856038093566895,-0.9772316217422485,-36.31978988647461,53.653900146484375,-59.22244644165039
6.081,-2.99222469329834,-10.867003440856934,5.452045917510986,-1.2403618097305298,-2.9054276943206787,-1.1246027946472168,-37.035953521728516,54.29698944091797,-58.59397506713867
6.101,-3.218346357345581,-11.118249893188477,5.047659397125244,-1.3187053203582764,-2.782796621322632,-1.2064588069915771,-37.86904525756836,54.019290924072266,-56.5770263671875
6.104,-3.211167812347412,-10.260422706604004,4.3549370765686035,-1.3716979026794434,-2.6224446296691895,-1.255022644996643,-38.17597198486328,54.37007141113281,-55.89009094238281
6.111,-3.049652338027954,-9.724431037902832,3.9517464637756348,-1.3524556159973145,-2.5340216159820557,-1.2651019096374512,-39.06752395629883,53.93159866333008,-55.05699920654297
6.121,-2.788834571838379,-9.18006420135498,3.5545380115509033,-1.2945761680603027,-2.4407119750976562,-1.2695306539535522,-39.228294372558594,54.004676818847656,-54.79391860961914
6.131,-2.561516523361206,-8.749356269836426,3.2590243816375732,-1.2278391122817993,-2.372905969619751,-1.269988775253296,-40.2221565246582,53.39081954956055,-52.99620056152344
6.141,-2.337787628173828,-8.453842163085938,3.078366279602051,-1.1533136367797852,-2.2937989234924316,-1.2701416015625,-40.879859924316406,53.741600036621094,-52.703887939453125
6.16,-2.0985054969787598,-8.37966537475586,3.0029923915863037,-1.0983357429504395,-2.2435553073883057,-1.280220866203308,-41.59602355957031,53.7562141418457,-50.64308547973633
6.164,-1.7096717357635498,-8.861818313598633,3.119044303894043,-1.05099356174469,-2.1930062770843506,-1.3058772087097168,-42.20988082885742,53.317745208740234,-50.42385482788086
6.171,-1.5852450132369995,-9.349953651428223,3.245863676071167,-1.0415252447128296,-2.163532018661499,-1.3213015794754028,-42.45834732055664,53.37620544433594,-48.9184455871582
6.181,-1.4871392250061035,-9.969695091247559,3.1657042503356934,-1.0491610765457153,-2.124589443206787,-1.344361662864685,-42.73604202270508,53.244667053222656,-48.6407470703125
6.191,-1.3471590280532837,-10.39202880859375,2.9790639877319336,-1.0667234659194946,-2.1003074645996094,-1.3865114450454712,-44.13914108276367,52.79158401489258,-48.216896057128906
6.201,-1.444068431854248,-10.747363090515137,2.7086751461029053,-1.0989465713500977,-2.0818285942077637,-1.4246904850006104,-43.978370666503906,52.99620056152344,-47.00379943847656
6.221,-1.746760368347168,-10.858628273010254,2.3700907230377197,-1.0955867767333984,-1.8377881050109863,-1.449125051498413,-44.79684066772461,52.58695983886719,-46.03916931152344
6.224,-1.852044701576233,-10.709076881408691,1.444068431854248,-1.0557278394699097,-1.7200437784194946,-1.425454020500183,-45.01607894897461,52.57234573364258,-46.15609359741211
6.231,-1.7371891736984253,-10.486544609069824,0.6735795140266418,-0.9909761548042297,-1.5980234146118164,-1.3933836221694946,-45.27915573120117,52.17772674560547,-45.162235260009766
6.241,-1.2741780281066895,-10.26760196685791,-0.19142581522464752,-0.7443392872810364,-1.3464996814727783,-1.288467526435852,-46.06840133666992,51.4177131652832,-44.86991882324219
6.251,-0.47018963098526,-10.370492935180664,-0.5455635190010071,-0.5193881988525391,-1.2148581743240356,-1.1733193397521973,-45.93686294555664,51.31540298461914,-45.0599250793457
6.261,0.2835494577884674,-10.634900093078613,-0.4450649917125702,-0.34987306594848633,-1.1459832191467285,-1.0311405658721924,-46.65302658081055,51.505409240722656,-43.686058044433594
6.28,1.5326027870178223,-11.211569786071777,-0.38165518641471863,-0.1918116807937622,-1.2840386629104614,-0.7970263957977295,-46.82841491699219,51.24232864379883,-42.809120178222656
6.284,1.561316728591919,-11.25344467163086,-0.36610186100006104,-0.18738290667533875,-1.3672691583633423,-0.7524333000183105,-47.486114501953125,51.4615592956543,-43.61297607421875
6.291,1.4464612007141113,-11.274980545043945,-0.3732803165912628,-0.19257526099681854,-1.467145562171936,-0.6788239479064941,-47.19380569458008,50.90616989135742,-42.867584228515625
6.301,1.0049854516983032,-11.221141815185547,-0.4175475239753723,-0.19486600160598755,-1.5312864780426025,-0.569631814956665,-47.04764938354492,51.505409240722656,-43.13066482543945
6.311,0.6675975322723389,-11.258230209350586,-0.3960121273994446,-0.18570303916931152,-1.5485433340072632,-0.4576907753944397,-47.529964447021484,51.02309036254883,-42.03449249267578
6.321,0.20937196910381317,-11.43529987335205,-0.5371886491775513,-0.17760907113552094,-1.5373951196670532,-0.3701843023300171,-46.88687515258789,50.745399475097656,-41.97603225708008
6.34,-0.7860422134399414,-11.59681510925293,-1.042074203491211,-0.1595885455608368,-1.3965907096862793,-0.2739730477333069,-47.67612075805664,50.64308547973633,-41.21601867675781
6.343,-0.8626124858856201,-11.557332992553711,-1.1306086778640747,-0.14034628868103027,-1.3194688558578491,-0.25014930963516235,-47.471500396728516,50.46770095825195,-41.698333740234375
6.351,-0.8937192559242249,-11.283354759216309,-1.4045867919921875,-0.09346237778663635,-1.1746938228607178,-0.20341812074184418,-47.310726165771484,50.02922821044922,-40.90909194946289
6.361,-0.4570291042327881,-10.881360054016113,-1.6271193027496338,0.0006108652451075613,-0.9604328870773315,-0.10613783448934555,-47.8807373046875,50.540775299072266,-40.8652458190918
6.371,0.2991028130054474,-10.5152587890625,-1.5601202249526978,0.11133018881082535,-0.7722863554954529,0.014508049935102463,-47.734580993652344,50.21923065185547,-40.63139724731445
6.381,1.0767701864242554,-10.38365364074707,-1.039681315422058,0.18112152814865112,-0.6655376553535461,0.1336267739534378,-47.58842468261719,51.00847625732422,-40.73370361328125
6.394,1.5625131130218506,-10.15633487701416,-0.09690931439399719,0.1713476926088333,-0.6243042945861816,0.2929098606109619,-46.682254791259766,50.570011138916016,-40.85062789916992
6.401,1.5529417991638184,-9.920642852783203,0.13040883839130402,0.14614950120449066,-0.6311764717102051,0.36560285091400146,-46.63841247558594,51.154632568359375,-41.02601623535156
6.411,1.3124631643295288,-9.598808288574219,0.2309073656797409,0.11530081182718277,-0.6618725061416626,0.4491386413574219,-45.58608627319336,50.51154327392578,-40.762935638427734
6.421,0.8518447875976562,-9.274580001831055,0.2883351147174835,0.09666942805051804,-0.717613935470581,0.5151121020317078,-45.8199348449707,51.60771560668945,-40.66062545776367
6.431,0.19142581522464752,-8.96231746673584,0.3960121273994446,0.08277223259210587,-0.7660250067710876,0.5671883821487427,-45.790706634521484,51.03771209716797,-41.02601623535156
6.45,-0.45224347710609436,-8.70508861541748,0.3433700203895569,0.0910189226269722,-0.7779368162155151,0.6265950202941895,-45.39608383178711,51.31540298461914,-40.73370361328125
6.454,-1.031306505203247,-8.398807525634766,0.30149564146995544,0.17302757501602173,-0.704022228717804,0.7171558141708374,-44.84069061279297,51.31540298461914,-40.762935638427734
6.461,-1.0755738019943237,-8.333003997802734,0.39481574296951294,0.2171625941991806,-0.6304128766059875,0.780380368232727,-44.358375549316406,51.72464370727539,-40.98217010498047
6.471,-1.0911270380020142,-8.315058708190918,0.5132604241371155,0.2379319965839386,-0.5516113042831421,0.8535314798355103,-44.10990905761719,51.60771560668945,-40.777549743652344
6.481,-1.0995019674301147,-8.248059272766113,0.647258460521698,0.2073887437582016,-0.525496780872345,0.8868235945701599,-43.53989791870117,51.53464126586914,-40.514469146728516
6.491,-1.2406784296035767,-7.9860453605651855,0.5539384484291077,0.12767083942890167,-0.5419901609420776,0.8846855759620667,-43.27682113647461,51.81233215332031,-40.47062301635742
6.511,-1.466800332069397,-7.685746192932129,0.11365906894207001,0.1160643994808197,-0.5749768614768982,0.8593347072601318,-42.867584228515625,52.63081359863281,-40.35369873046875
6.514,-1.998006820678711,-7.7383880615234375,-0.09690931439399719,0.17730362713336945,-0.6235406994819641,0.8219191431999207,-42.312191009521484,52.58695983886719,-40.339080810546875
6.521,-2.218146562576294,-7.885546684265137,-0.0526420958340168,0.22403483092784882,-0.6470589637756348,0.8049676418304443,-41.85910415649414,53.04004669189453,-40.689857482910156
6.531,-2.4155545234680176,-8.008777618408203,0.08255238085985184,0.29275718331336975,-0.6603453159332275,0.8100072741508484,-41.727561950683594,52.689273834228516,-40.09061813354492
6.541,-2.5734806060791016,-8.366503715515137,0.42352959513664246,0.337503045797348,-0.6617197394371033,0.8240572214126587,-41.01139831542969,53.34697341918945,-40.38292694091797
6.551,-2.715853691101074,-8.791230201721191,0.4295116364955902,0.3484986424446106,-0.6812674403190613,0.8127562403678894,-39.929847717285156,52.513885498046875,-40.82139587402344
6.571,-2.970689058303833,-9.11426067352295,0.1256231814622879,0.37110063433647156,-0.707534670829773,0.7848091125488281,-40.134464263916016,53.332359313964844,-41.084476470947266
6.574,-3.317648410797119,-9.477970123291016,0.014356935396790504,0.41890081763267517,-0.7203628420829773,0.7388415336608887,-39.79830551147461,53.30312728881836,-41.698333740234375
6.581,-3.456432342529297,-9.665806770324707,-0.008374879136681557,0.4547891914844513,-0.7156286239624023,0.7064656615257263,-39.11137008666992,53.639286041259766,-41.17217254638672
6.591,-3.6526436805725098,-9.862017631530762,-0.04307080805301666,0.5027421116828918,-0.7000515460968018,0.6620252132415771,-38.819061279296875,53.46390151977539,-41.61064147949219
6.601,-3.669393539428711,-9.992426872253418,-0.06939185410737991,0.5593998432159424,-0.6656904220581055,0.6191118955612183,-38.33674621582031,54.048526763916016,-41.65448760986328
6.611,-3.592823028564453,-10.208977699279785,0.035892337560653687,0.5882632732391357,-0.628885805606842,0.6023131012916565,-38.29289627075195,53.66851806640625,-42.239112854003906
6.63,-3.431307554244995,-10.377671241760254,0.06699903309345245,0.5942191481590271,-0.5736024975776672,0.6198754906654358,-36.845951080322266,53.59543991088867,-42.823734283447266
6.634,-3.1992037296295166,-10.502098083496094,0.16390834748744965,0.5917757153511047,-0.5656611919403076,0.6285803318023682,-37.079803466796875,52.98158645629883,-42.53142547607422
6.641,-3.1166512966156006,-10.498509407043457,0.20458632707595825,0.5705481171607971,-0.5413792729377747,0.6600399017333984,-37.25518798828125,54.10698699951172,-43.15989685058594
6.651,-3.0759735107421875,-10.424330711364746,0.12801600992679596,0.5189300179481506,-0.49984046816825867,0.717613935470581,-36.75825881958008,53.88775634765625,-42.58988571166992
6.661,-3.071187734603882,-10.293922424316406,0.1423729509115219,0.47051894664764404,-0.4570798873901367,0.7745771408081055,-36.524410247802734,54.57468795776367,-43.30604934692383
6.671,-3.0999014377593994,-10.052248001098633,0.04905286058783531,0.42806383967399597,-0.3975205719470978,0.8520042896270752,-36.50979232788086,54.41391372680664,-43.452205657958984
6.691,-2.9479572772979736,-9.760323524475098,-0.003589233849197626,0.39125916361808777,-0.3478877544403076,0.9317222237586975,-35.63285446166992,54.22391128540039,-43.379127502441406
6.695,-2.74337100982666,-9.290133476257324,-0.01196411345154047,0.3462078869342804,-0.3475823402404785,1.0293078422546387,-35.355159759521484,54.41391372680664,-43.23297119140625
6.701,-2.706282138824463,-9.132206916809082,0.06580261886119843,0.3217732608318329,-0.36850446462631226,1.0641272068023682,-35.2674674987793,54.764686584472656,-44.446067810058594
6.711,-2.585444688796997,-8.87378215789795,0.12083754688501358,0.285121351480484,-0.4118758738040924,1.1064296960830688,-33.732826232910156,54.37007141113281,-45.01607894897461
6.721,-2.557927370071411,-8.72064208984375,0.24047866463661194,0.24465152621269226,-0.46074509620666504,1.146288514137268,-32.85588836669922,55.30546951293945,-45.07453918457031
6.731,-2.7876384258270264,-8.57946491241455,0.41156551241874695,0.2079996019601822,-0.48716503381729126,1.1972957849502563,-32.607425689697266,54.73545837402344,-44.85530471801758
6.751,-3.3655049800872803,-8.318647384643555,0.5970092415809631,0.1365283876657486,-0.4775438904762268,1.2545644044876099,-31.423559188842773,54.77930450439453,-44.88453674316406
6.754,-3.592823028564453,-8.214560508728027,0.5276173949241638,0.12767083942890167,-0.47571131587028503,1.2518155574798584,-30.94124412536621,55.14469909667969,-45.30839157104492
