time,accel_x,accel_y,accel_z,gyro_x,gyro_y,gyro_z,mag_x,mag_y,mag_z
0.0,-0.01955435181141945,0.06301865928417397,9.626597684543722,-0.023147156338784978,-0.0036563431176051507,-0.10482576859736732,19.77705478958548,41.721697529428496,30.416715163908794
0.02,-0.06588088205590409,0.036364810302283015,9.672548644688996,-0.07227806032373066,0.02339057318836968,0.05950000398500102,20.186616517881497,41.7927113572804,30.36314721125088
0.04,-0.018988706815739723,-0.0019170654776222464,9.61961177996221,-0.06694096186917399,0.09758540507064441,-0.11077659400665213,19.696731970515867,42.08954417697571,30.83250053915875
0.06,-0.2685082697521071,-0.05982343416893392,9.940398882931078,-0.10402395405684292,0.040562159953760016,-0.023436244664626002,20.069195474951325,41.511433461281015,30.86551218607913
0.08,-0.05636062654050143,0.1140637990168647,9.965836715402885,-0.009442717104602722,0.0725331723445693,-0.016458409676618754,20.10229057960166,42.15179323777522,30.413430190472702
0.1,0.012853508581409566,-0.013156815618234365,9.772636892132025,0.09334067748494726,-0.20945115098772044,-0.007167308271061161,19.660989140261904,41.707396505914396,30.113047275484224
0.12,-0.07517364858733247,0.08105862686358828,9.447898144285455,-0.10050813149486036,-0.15051665923561652,0.02140024939778185,20.014807894130197,42.13837910228224,30.016018258298455
0.14,-0.5260761653103958,0.46140281056958365,7.992519279782739,-0.15841412162612678,0.027117373278131893,0.04867722729381032,20.207070282233037,41.7819508353226,30.601577800084673
0.16,-0.750509034205916,0.7276408394823293,7.319089917641647,-0.1698601028852409,0.10832451413145269,-0.08557281553883844,20.273618148093004,41.874692920698664,30.71182065245168
0.18,-0.8720423276981741,0.7871422077253256,8.540904813638436,-0.3399783116971559,0.3445149571748321,0.07606250283901059,20.146679039682923,41.79560765209184,30.579661620078564
0.2,-0.8211206137781701,0.5886745673064366,9.531161427269131,-0.24125565975779198,0.3425371275601009,-0.04667764765647073,20.383119636203983,41.686083833702305,30.55758116916299
0.22,-0.9654777790226615,0.46338348606928614,9.580806048888121,-0.2734455004228823,0.31139574889020705,0.13842587560364206,20.219344679632623,41.75850662737371,30.391470377449483
0.24,-1.0935712244520446,-0.26413222368463485,10.21771642134272,-0.41086668032082896,0.2832886264896505,0.06369249065178328,20.273727877139525,42.1636073787589,30.751620199385336
0.26,-0.9433358202082209,-0.3598764389134272,11.087854143875123,-0.42762322071388226,-0.02511966628484337,-0.03492941229521866,20.35567125894654,41.28622799583559,31.006955379697928
0.28,-0.9193195619806543,-0.8736226930208824,12.417540736594283,-0.3215532643775489,-0.0013010657504327477,0.038244606147119366,20.54252602884675,41.552986682946944,30.08180594002472
0.3,-0.6955940836040835,-0.7187768542873585,12.760766229708835,-0.33658408953834357,-0.24124837001286306,0.04097862789572378,20.18259030859172,41.68463953022902,30.604820318681053
0.32,-0.7377361731240158,-0.8212773754784993,11.838183528427303,-0.32178923376753366,-0.25745260167642486,0.13079095723917364,20.252582711624424,41.608065965112345,30.39999783884763
0.34,-0.5032031967092905,-0.6051119893315299,10.54822825753753,-0.09967917643564449,-0.3198161185160056,0.05218663841677053,20.233479061829097,42.23708025905938,30.28452576618659
0.36,-0.2995739123321739,-0.4807729465648192,10.008767342523761,-0.01902153034590119,-0.2464608023666935,0.039918790056666306,20.338814070024696,42.18404329264171,30.38029340371326
0.38,-0.20562179377585432,0.12353579179892993,9.901915457312667,0.0063306962258136,-0.20144079701830697,0.06787329805323607,20.785294215986593,42.03150215893284,30.751751491213682
0.4,0.005534433247749125,0.09500695968706216,9.642799321069937,-0.07877188522369068,0.0777070304167073,-0.008768657275469369,20.604833850968866,41.743252157400704,30.766854267935244
0.42,0.0013266326615867172,0.04002531636142652,9.79049685044169,-0.07677157507304316,-0.03911382965595682,0.04225127766194419,20.22022147373927,42.223344001473826,31.02905525290704
0.44,-0.02938638520290469,-0.04554206962361289,9.807965154183538,0.0034337573051491646,0.03954686337799703,0.03803166683591951,20.37179659929337,41.52808155875268,30.68950471727809
0.46,-0.05815045600501763,0.03958287423541586,9.693832225965808,-0.03299226207030193,0.006733393013929916,-0.08018816961416474,20.629502658766288,42.42930353484539,30.27412162520689
0.48,-0.1998444890460497,-0.11482710815848186,9.709457243411041,-0.02346557592849649,-0.10111741620429315,0.08537901465778976,20.346521295730206,41.75660433610173,30.64751713782911
0.5,-0.08047743873184308,0.07266667908248545,9.807673301851946,0.0583177893036002,-0.05811698751138196,-0.08821810680424166,20.41395237895435,41.863406748225664,30.380413848145604
0.52,-0.07112574198321234,0.1679377073188705,9.643989477804885,0.04099075904535346,-0.011992682011330098,0.05204199896867088,20.934677539496214,41.828323469701736,30.431863459031412
0.54,-0.12627327230659427,0.09847326719750235,9.821990845829928,0.07968856082985677,0.06373754699350366,-0.09402438221433795,20.488428938212408,41.678581284362345,30.86905962239686
0.56,-0.049354285399921094,-0.11755229637688913,9.672557475160897,-0.06243739340263546,0.02482338345342687,0.03307420728910039,20.888405882196086,42.40260480916102,30.784439872873257
0.58,0.018486102817744605,0.013370078072772344,9.907542443163987,-0.023591494121202716,-0.07305004943284286,0.10871489268901036,20.984101322913926,42.13405178941848,30.886841955309
0.6,0.19634230814526363,-0.18517698525103773,10.060539329446597,0.04253890172760676,-0.011418973682829587,-0.015778719393012678,20.530218203488804,42.240257596025124,30.66789517398062
0.62,-0.009050662460179326,0.03868683734108108,9.676709183795783,0.023884700460773504,0.1180683869275818,-0.018381338571188777,20.515967177469886,41.6583791933884,30.95116404318747
0.64,0.0009060468867317234,0.02407240954350466,9.844104943484961,0.08894282295525731,0.0036734000904514817,0.03362639995901095,20.686475632918924,41.99868705969882,30.669838765946594
0.66,-0.03893350989194007,-0.25437796074385965,9.692790971414158,0.022232202354244158,-0.022639534504343743,-0.022763787357752578,20.514542218465653,42.08319753331155,31.044551674844868
0.68,-0.260252545835885,-0.16941406126948363,9.904914500855735,0.10788654624633313,0.02650437844537323,0.10609672222456928,20.827799292827223,42.02570692814345,30.866626110663788
0.7000000000000001,-0.033181665053906025,-0.06397666760925205,9.628168990909774,0.029401068103388443,0.0428035847749182,0.00853153496752174,20.772202124285332,41.68449609024269,30.741469960217394
0.72,-0.022772374807076827,-0.06610316965689915,9.837670411011326,0.0607300468553196,-0.030370100848803542,-0.022210170493243545,20.930770737114578,42.22305136402951,30.849158314699867
0.74,0.26558905349823436,-0.17513723225025662,9.675241323973278,-0.022410896807067426,0.02715448646228622,-0.03541713167374099,21.202032861675942,41.99573399649818,30.800945399606185
0.76,-0.0530833157737347,0.01667744752226205,9.755161849308196,-0.002142767286960656,-0.022733369800248555,-0.05897690821038124,21.085356116627853,41.738685945466024,31.195141622447796
0.78,0.006185681080033499,0.00017683307286144728,9.610487869760489,0.051656664230368514,-0.17197237824619793,-0.04066529920544938,21.02882541042963,41.523617033930286,30.87769220555279
0.8,-0.25668634632094356,0.29379469545662423,9.400024807310729,0.004770316653057494,-0.09190212910827311,-0.001788310223884343,20.46165572909113,42.11516133018726,30.824977218785822
0.8200000000000001,-0.604125103631902,0.5047702059554203,7.876006631580361,-0.1327992786883781,0.05950741245416588,0.011130029501841013,21.061864918801152,42.558039192748524,30.77456846656256
0.84,-0.516351064116931,0.8757871849154466,7.396739026485559,-0.2573862270595706,0.1110586101845507,0.019858463737647117,21.390677041840615,41.726321428459165,31.04047640776704
0.86,-0.7215995185456169,0.9485911833160544,8.539577564533408,-0.23309249121551145,0.20174007672411365,0.20111362206794936,20.276353663647765,42.01062656325267,31.014180234435475
0.88,-0.8360450342572534,0.5374378079128397,9.554671661618576,-0.4949062665377605,0.35184350124753644,0.025291182200872522,21.18580107023674,42.23565965637243,30.78458982059189
0.9,-1.1140544067571923,0.2436469612354681,9.784272944533221,-0.4783052349631419,0.27540121620938063,0.10329074647695285,21.00340753201644,41.66352911633341,30.57884961572174
0.92,-0.8616646826876682,0.02894491984943965,10.094586889110778,-0.3621019465798967,0.22623411888192596,0.1325512605856523,20.85883789274303,41.851845840270435,30.645483051566345
0.9400000000000001,-1.1731500397168972,-0.4200705168636848,11.117938266725716,-0.392124663497542,0.07769999296135899,0.13229927095320632,21.276022093115245,41.759071807430956,30.82336737073467
0.96,-0.8605460166463867,-0.6721928500540119,12.511737597427466,-0.32705672809351777,0.017334263609826317,0.0835804622432936,21.51486731439927,42.19999165666626,31.196778221004667
0.98,-0.5489768073708328,-0.7211839515384981,12.656172035836278,-0.31186814164129556,-0.19907822175638018,0.06074099393596444,21.311200781765596,42.27963917852211,30.81831986803547
1.0,-0.7723541608744162,-1.039065060246334,11.998325189808455,-0.2181391790672611,-0.26515333416253817,0.08644182966024375,21.05648443628218,41.99721249427216,30.740955791250865
1.02,-0.5318394666698909,-0.4972689069921037,10.83254313715698,-0.22541766490661475,-0.25395409420578485,0.05637967291044787,20.93937720825708,41.75424354996508,30.466011761632878
1.04,-0.240562770145798,-0.36838532837452637,9.902170355421784,-0.057779208417744546,-0.2157869371426544,0.003714563309580695,21.2205712274987,41.846892183771836,31.256728225402235
1.06,-0.09041707849394402,-0.07937917734746182,9.638720437003862,0.056664871692455016,-0.2465575918175653,-0.09671271430346583,21.41527985635225,41.79843148353541,31.03479309201251
1.08,-0.2160796117279359,-0.04070809850657387,9.816235308020612,0.07023303623587394,0.11458103891735297,-0.03107542333999485,21.132489996285305,41.71148309259227,31.0938702081987
1.1,-0.02177244302327672,-0.03450847739753775,9.714311097267975,0.11781325767892198,0.01579450162161698,-0.07179300982244746,21.175156061501188,41.91750290594458,31.13808712195494
1.12,-0.1574764456471326,-0.23774415641339103,10.004232386299561,0.011645906610143194,-0.06557569570852426,-0.043029573003979596,21.941391983100104,42.07560348476252,30.872052900992877
1.1400000000000001,0.026831091676221788,0.1493925872943883,9.784176904859981,0.013434665210830733,0.019143122915398082,-0.001006605688982433,21.542047978536246,42.050649255529706,30.936047386712527
1.16,-0.14033090810805637,-0.025040924127525784,9.68373607103578,-0.09439034785043086,-0.02597995286900746,0.01852416863979697,21.578054617682973,41.92604406326838,31.277018235200543
1.18,0.15599212860210473,0.02316025565368502,9.642340858678596,-0.0348846840683055,0.02304410923099061,0.10382716507754437,20.97019699878793,41.936435919471975,30.96671133995757
1.2,-0.12399039508034844,0.08418597246888512,9.9107885950909,-0.01458492444039676,-0.005571374859620282,-0.03524438273422883,21.169368928826945,41.89758561492477,31.068325567147426
1.22,-0.06864738194468106,-0.152539494907236,9.711457923109899,0.0600191731365813,0.001456421411408687,0.043477538116509035,21.375230205094628,41.599934364669146,31.13980806882502
1.24,0.06762206608436037,0.026816627884227416,9.785259455935252,-0.03966006744537775,-0.05769560259516875,0.015357601466270191,21.135026925705258,41.943498289399145,31.08858408220025
1.26,-0.17770371797207463,-0.06211693090785522,9.894696329413499,0.04478040118492994,0.056403673842981596,0.07475986023838738,21.777166706152002,41.75849098432851,30.906772356197667
1.28,-0.0027048078475044694,0.07161249302597925,9.721888997768302,-0.0030973030178028074,-0.07236764202906193,0.03157372317573756,21.74909300335757,41.568389420795526,30.932500444759185
1.3,0.12685713051389136,-0.28526729044217947,9.77448854055118,-0.013630086906885715,-0.06952589372429971,-0.06350888563717898,21.29988637387065,41.973608331171874,31.130212607987385
1.32,-0.2228979881473473,-0.04189131602895228,9.778011790821298,0.011933638147995387,0.0190416209488492,-0.10638276175747388,21.873166700302143,41.730408644301505,31.132612185701277
1.34,-0.007843936976123494,-0.10233847869407539,9.861998941381932,-0.02646938233517055,0.09317065483067817,0.01567570198005029,21.460861787635576,41.92416847936625,31.2293857391472
1.36,0.0011859353098108254,0.021871554076098657,9.85088932026124,-0.02874223488555993,-0.024155585823864432,-0.03470705987402345,22.09995629364558,42.0649243448429,31.083757010427792
1.3800000000000001,0.06381874461327725,0.026405302484184254,9.753586352249421,-0.10528715434740686,0.03905833936223794,-0.06181882475703584,21.529609693348903,41.6251190187152,31.097007911507927
1.4000000000000001,-0.17843408530536983,-0.11491510737864313,9.787637887379583,-0.017877252439673377,0.061400410611812714,-0.07905466227198465,21.6493127456304,41.86667308668129,30.848900029042237
1.42,-0.18845479357011316,-0.11546086370112522,9.735386518617181,-0.031798088768923594,0.045881066237644146,0.006658529855229331,21.862901429014737,41.401154139179305,30.81853792703364
1.44,0.032632987874027714,-0.043279844226879534,9.556897413947832,-0.033958859360944775,-0.2338045317063851,0.08746246195880189,21.849208868227112,42.19426061570015,31.147226925321675
1.46,-0.21688277316833207,0.20950992401622157,9.332254853691014,-0.06699598982712335,-0.1675465216181946,-0.005268247346731057,21.680556493168286,41.49078060246206,30.82377658811333
1.48,-0.4338245970760529,0.6965032294286791,8.20350728541308,-0.1370355784795927,-0.10186351110928896,0.07580459257627514,21.53926029307523,41.68361207464974,30.95816162251379
1.5,-0.6119160167190965,0.7056374656917654,7.224457018482812,-0.23846425046495373,0.14083919298685738,0.0532129991728178,21.71142583674824,42.11830209218855,31.29548747320138
1.52,-0.8934344490574487,0.40110374342686206,8.488105762772564,-0.2560076815602435,0.3217025018822157,-0.0021797770994005927,21.406794300184096,41.730439015850024,31.25869375110139
1.54,-0.9030984242430986,0.5504865391798074,9.46392101363719,-0.32885383161114573,0.2276637038822567,0.13118556740086695,21.65357728778424,41.488695794360105,31.03926394434551
1.56,-0.9697592153859819,0.19248173279276992,9.85349324909198,-0.410674536261068,0.32217758994363616,0.028811268576540094,21.364957990592103,41.93627033619836,30.896681458066755
1.58,-1.115722170163164,-0.22575309785531333,10.239824104213412,-0.4307713771428628,0.15212288255285192,0.09829759783561388,21.21764448646501,41.919638600470584,30.938906793942976
1.6,-0.7810349708444528,-0.5255981878807552,11.073669690010835,-0.3742018306667187,0.10244807316976046,0.07400156631786406,21.670758274397492,41.59044243701477,31.177361263952204
1.62,-0.8741089173930047,-0.6423361693544674,12.217935162308262,-0.3289615205668536,0.00587815401830874,0.14068153286418342,21.97493565735058,41.60464125874655,30.960810328108142
1.6400000000000001,-0.954787902132348,-0.650505430355671,12.760628625132993,-0.23186193456532217,-0.20217934916490637,0.011694088698561811,21.907246426370357,41.61406391317693,30.835871861254315
1.6600000000000001,-0.574703368822674,-0.7723601928816614,11.669953317335297,-0.18092553804708772,-0.24678817892667038,0.08280117465399095,21.67818788341152,41.65653863973183,31.26177716856905
1.68,-0.5808455395448369,-0.7282455925603127,10.669982609161345,-0.20904187603745344,-0.3260191431714925,-0.009999470529166228,22.12964503690117,41.239299486048274,31.01354894166951
1.7,-0.1580707815072207,-0.322398487873563,10.1046918804357,-0.0981287503901617,-0.24385607955621977,-0.011414219344095613,21.58603862628455,41.63718679365267,30.831239286436826
1.72,0.10903146948088836,-0.0850908372262792,9.663183093218686,0.037261068295066146,-0.2010130042468861,-0.22111201365240613,21.27430261403838,42.09571375983172,31.084384227055292
1.74,-0.12848187820220525,-0.11335204429957735,9.59609780678044,0.06107986668353832,0.00039046046575604357,0.12252591429707452,21.222568587018856,41.439119325408576,31.20203107617637
1.76,0.08560513550931861,-0.16852352018795813,9.969532547003384,0.053338168122287526,0.09050099760851865,0.03003341596957391,21.474197022559554,41.50042547324759,30.726439452765806
1.78,0.019533711232379798,-0.2402194568102063,9.70658884325945,-0.0068326699698808,0.036738368542098124,-0.04904084915628987,21.964800441515678,41.342443729028076,30.91935674027437
1.8,0.06864721919933879,-0.07679084478713344,9.916313741513259,-0.078241359145711,-0.044421111967577344,-0.07047934129997964,21.627301460899865,41.75921728060229,30.907288851028284
1.82,0.19761515791847367,-0.011033581209584177,9.76152028017626,-0.06293618257473547,-0.008151834047865712,-0.03273892517276043,21.90084201541574,41.88659289633541,31.073911601033778
1.84,-0.059446573920344456,-0.041594840401786765,9.76056542196704,0.013358010859164857,-0.007553927104779644,0.040012772089167085,22.195590357301988,41.866371871376096,31.11575732142237
1.86,-0.12044833972289874,-0.07991603135368303,9.832609523939597,0.017533534765460733,0.0018191743575127137,-0.11652509553509553,21.54644042371307,41.26858838173796,30.83027725190185
1.8800000000000001,-0.1367417315550628,-0.14348952728361375,9.673920137190427,-0.0689207624060631,0.14847055659644967,-0.011495065157660286,21.93499434929993,41.67282391125004,30.602769627124044
1.9000000000000001,-0.12789723419585258,0.04298954300219622,9.795899657219477,-0.0003258233466437023,0.01925111356265981,0.1032385123477604,21.958904109213876,41.8814869228631,31.20690403406684
1.92,-0.039252205129692505,-0.1880558303935902,9.73422127022111,0.03487346141830699,-0.12515415420628656,-0.07103678015806825,21.63208076767968,41.64397157065947,30.68857167407657
1.94,0.010938236977997264,0.06312334966121703,9.621540786791396,-0.07207359945042865,-0.03556793830301791,0.0018231023258192987,22.172478337366567,41.6204912350637,31.02037303891861
1.96,0.0032028959196022874,-0.15026604227120696,9.820497848967168,0.06329983210826487,-0.11894232524974852,0.12919858891546546,21.786931378453854,41.376256677886175,30.92138811617765
1.98,0.06926198988432285,-0.12029222848236419,9.748403063174651,-0.025651868913589507,-0.022787895422750386,0.034929097781446365,21.772095894570366,41.52581530125587,30.989669534159212
2.0,-0.028439772974651157,-0.20601422287388124,9.761157020586635,0.07245678675459906,-0.1222386137835857,0.004555429229127308,22.37890020501062,41.75300601408433,31.34444375394345
2.02,0.144424089258878,-0.0901682576262764,9.634780686790302,-0.03500714674655403,-0.05529542826410568,0.027398187294540167,22.0051931076613,41.51812580842159,31.67464533098141
2.04,-0.06175881998855473,0.08703749501735746,9.970968044131537,-0.06459752897305074,-0.09424329177804719,-0.02705192010058214,22.10911330995927,41.12260369130405,30.550588871869277
2.06,0.29642029999075425,0.03187537061327478,9.885205702366335,-0.030488219390503172,0.02004961067804865,0.07497787711820639,22.21922964673741,41.295344290097724,31.175753847775706
2.08,0.04508008173180074,0.08741065344336421,9.849909608878804,-0.008708887384639208,-0.2150996725982315,-0.02695980137401271,21.744649517796333,41.67739946978353,30.89896631127898
2.1,-0.35537984072626827,0.37976409680611883,9.264689386510236,-0.11531716798881461,-0.08390598013662626,-0.09829880312852718,22.207123385550144,41.44726507791099,31.184647650088667
2.12,-0.5923908388848915,0.4630248065507796,7.7689423273727005,-0.18951358094141008,0.024316259516880767,0.016910187675328228,21.792808878229906,41.379834910477186,31.159450400622063
2.14,-0.5955931120295512,0.7102476228261521,7.564853401264481,-0.23235801176292198,0.0729517579423359,0.0013449083932711367,21.78834413213196,41.20001149742383,31.26443916270603
2.16,-0.8386470167071319,0.6563184342513635,8.573537626964184,-0.3260033551749959,0.2818285419237693,0.05831150751495723,21.859256253782434,41.599739012847294,30.99073415591888
2.18,-0.845288808611368,0.7551341744591089,9.478552370712032,-0.36735429079808807,0.4104471365841399,0.07155184324540406,21.780414544381703,41.69474190889113,30.704936001259288
2.2,-0.9481393972329982,0.1734923537228892,9.816558424583178,-0.49552474882488523,0.30471775380890304,0.1663381832064768,22.131892045295096,41.58000659750454,31.13701224752779
2.22,-1.0387394695188248,0.0772437227266934,10.326060344270235,-0.37949811903937164,0.18357655839691028,0.13871756359986315,22.00325922629322,41.6039351543174,30.938488673124624
2.24,-1.1065431583500323,-0.26995252688099414,11.089928146370553,-0.3983233627342296,0.010399688020223452,0.11028872047270616,21.82547802890763,41.1522922797405,30.8496913042063
2.2600000000000002,-1.1127505348647229,-0.4359107617684933,12.481526469857663,-0.2667699683319954,-0.09107336107659024,0.0869201621102862,22.109184697432987,41.09880951432229,30.787016589630028
2.2800000000000002,-0.8654132767160727,-0.8591047208609984,12.879503402758226,-0.3721065030224496,-0.13542724356027716,0.011651667715323347,21.884879066420577,41.16159836831232,31.138180438049403
2.3000000000000003,-0.5507219465399169,-0.7244636705958395,11.728542230127347,-0.36089364045346434,-0.19263017816052272,-0.07152153407406728,21.87549251374143,41.188455807799045,31.27667182967027
2.32,-0.43819248982193376,-0.3816669655897629,10.571916608459308,-0.13946938601122078,-0.2854616924846542,0.047177974595322816,21.968906753416388,41.502529050309484,30.6000362147467
2.34,-0.4020095874017535,-0.4512239925260909,10.11501341369872,-0.07121675248374595,-0.23817176171015136,0.06693056561005102,22.071132519322493,41.41859542371076,31.031102251847518
2.36,-0.009218288897858284,-0.21420482970388335,9.487813481957474,-0.0635059812318688,-0.17267133971432974,-0.009500032994675339,22.055830654136923,41.24752899801586,30.7872296848554
2.38,0.01623808556746041,-0.2556012040689316,9.762065316820202,-0.09478493730024548,0.027392063483155055,-0.03509125936720202,21.877137996780547,40.7541439308036,30.519082966433302
2.4,-0.13606289234413596,0.05552544346335976,9.60830025580504,0.08924380384105739,-0.04250841571567536,0.02487012991285275,22.169360146642,40.67165785578344,30.901161157222532
2.42,-0.01155298728653665,-0.25597802496703004,9.722813543827977,0.0818466234364069,0.007435410718509147,-0.00799993203746082,21.914099316952914,41.11347372723744,30.660100667963555
2.44,-0.02301495378648001,-0.07467828635255074,9.744141589316497,-0.15224740552236776,-0.053902668232928296,0.09814465151843767,21.811382668015085,41.24583395331564,30.47559438570402
2.46,-0.16715643573967476,0.022477582444675286,9.7370106746511,-0.030493381755390056,-0.001954262822513893,0.07096370052409706,21.617043182862435,40.99411469963354,30.660699238068766
2.48,0.012934483241793991,-0.007778935580410314,9.713728649746487,0.09685152328703395,0.016851811864014715,0.054570483421399765,22.205804923847396,41.451263144926536,30.59557430570152
2.5,0.03729414316418812,0.02105338370210067,9.648342762044543,-0.031563753466672013,0.09772702844321128,0.04246404685259422,21.97297361828656,40.71021414949269,30.680820559049224
2.52,0.09996614918103325,-0.003325217303897513,10.055029352018243,-0.032436734041599156,-0.08158391846205792,-0.08041004486708742,22.020451454450154,40.658151556796966,30.511461827648603
2.54,0.09645624624418836,0.12346389759760718,10.004095440499363,-0.0199655596577621,0.025890457859478324,0.036779622123155976,22.220361078334484,40.76673015330255,30.72835322988903
2.56,-0.19532032415485093,-0.14427796568865564,9.640552101569247,-0.07025381842608956,0.08587419549741568,0.019579557458794514,21.8540014496977,40.73545683014382,30.64538518696598
2.58,-0.14253900478981474,-0.11123941661502375,9.969854010156428,-0.10528654465368266,0.04253086595032778,0.0333854837034698,21.63761809357824,41.008019853210676,30.89995674754424
2.6,0.03180423206503917,-0.12271913343249888,9.732064141143258,0.060152838644084924,0.04697672656950248,0.026556569208783153,21.982800825388196,40.758059513927414,30.945370597445695
2.62,0.03165431410946506,0.06962301742351322,9.795502496799806,-0.11357621437486054,0.03226169411206872,0.024165755270883934,22.038228573020497,40.465207335207495,30.8583371948983
2.64,0.03180572235672575,0.07804783060740762,9.772407124812371,0.011836287126525354,0.074900069386525,0.15905198817297567,21.899183442407853,41.0279497028184,30.73224474291645
2.66,0.43232777887856655,0.02414703831822098,9.655041065827689,0.05019476956545897,-0.2803807244427063,-0.007571140197115142,22.31359905270088,40.368730965466945,30.7184893758352
2.68,-0.18401407267313435,0.45912623132083785,9.419405032035975,-0.17908195151659528,-0.1852393185447649,0.07543233624539125,21.360542644786893,40.511045944438024,30.573166446982405
2.7,-0.32761586229588624,0.4541002818892582,7.99155065778231,-0.23200959980272756,0.030209294403076993,0.012128985295915627,22.223042995724903,40.35558159592568,30.57141119976581
2.72,-0.5390095902395492,0.9500092231315954,7.273317144579431,-0.179605169439998,0.02693989674029837,0.10678747521913366,22.140799727480715,40.77151074793819,30.927734539118433
2.74,-0.733664532311334,0.93273096435093,8.424318594668831,-0.28375908977358955,0.3248560080191659,0.1315423416607503,22.05692847612394,40.743104842700085,30.32875610820235
2.7600000000000002,-0.9688011772592605,0.6837398256439138,9.461176944588145,-0.4004246895737009,0.3683565746976992,0.10896245141836279,21.142755516543154,41.134939147935285,30.7238025254485
2.7800000000000002,-0.9138516057226316,0.5309228603465738,9.569576621772953,-0.3208362246710592,0.25416396578743866,0.19464760776077236,22.247261977043273,40.87073390136283,30.657499221100085
2.8000000000000003,-1.1227390257445087,-0.22879478492133273,10.18747267551966,-0.3306078565927419,0.18688579855633367,0.04394343781837495,21.688230314904764,40.97372837747929,30.87078675998173
2.82,-1.0333461449906247,-0.44004076764556466,10.949094342026681,-0.37682800329178706,0.09174287007750988,0.06525953471808904,21.80786402995648,40.67321353566634,30.37672150111272
2.84,-0.9892124936419115,-0.7437016012562581,12.296230188202712,-0.4173971608333874,-0.03346810380461513,0.0998396919516513,21.883594007586773,40.34559740055562,30.7133308356744
2.86,-0.8020065857416714,-0.7233648108945776,12.913955632569447,-0.3405395151955198,-0.1549791878029436,0.12803155945585634,22.016834073889626,40.58682434464855,30.784145889955276
2.88,-0.37573077385791254,-0.9359592184977165,12.001623921366184,-0.23521271610617003,-0.22352333335578703,0.07011475146356935,22.066726195955557,40.674184495903454,30.23607277284558
2.9,-0.687955562228568,-0.5645657680539258,10.648898193846131,-0.1878691853958726,-0.31147124414848143,0.11753391610238978,22.121448055293893,40.67675341297091,30.426633966145985
2.92,-0.17016971111137333,-0.2126426540144417,9.98965878696797,-0.03567094288843491,-0.22957340088384273,-0.020449298862347667,22.09656812008539,40.37021198263037,30.65359470719665
2.94,-0.2235259045427583,0.053424348010079725,10.038911935545249,-0.09478644480656023,-0.18837516772844612,-0.07143470936931326,21.95475787218332,40.576569804953586,30.79005969281071
2.96,-0.08663182389473201,0.004050122839380131,9.842490734443047,-0.09265581174397432,-0.039417806752358134,0.015487700192190278,21.986865016208572,40.21092723228166,30.701394422802014
2.98,0.10067407163608391,-0.1485448009080899,9.740663224814817,0.007852266688945946,0.07710676006824584,-0.007630816566821779,21.617948197695945,40.15998681090803,30.78292518284309
3.0,-0.022286397708544466,-0.13162211593504375,9.608877825945546,-0.03249266482841427,-0.08449541916734922,0.0295718232214932,21.69186659895374,40.118035050903,30.3800812033251
3.02,-0.15932937335151673,0.11995426863559999,9.82726478617977,-0.04062291688186445,-0.008529948649288589,-0.0046441374519902365,22.079107063671447,40.367117903697725,30.2484393031683
3.04,-0.11583644511119619,0.06352188046863988,9.879518852709944,-0.10908340315046383,0.05501504406452807,-0.023401187437407423,22.05691134860061,40.05384944980881,30.640525380731656
3.06,0.0515517298721611,-0.034682342325305295,9.704201817058363,-0.0018272493121090946,-0.04638438629472868,-0.00749625430342341,22.021179575254408,40.20985615067751,30.31560112936217
3.08,-0.11764399580605639,-0.08014914549190687,9.814944330616564,-0.006165306480045939,0.01557333880602909,-0.0012690663124089036,21.71519786211566,40.50370543244353,30.393269302050374
3.1,-0.004024969250163015,-0.2730969447733652,9.736371204610197,0.03620873891710444,0.02960037581994288,-0.02129887799089982,22.048071083442988,40.01517493438603,30.81489458543664
3.12,-0.024531379211542345,-0.15850229024213267,9.75791611209612,0.0011343679872583261,-0.054631432078874345,-0.015187922779405689,21.54145574507363,40.116245629697104,30.626634707443735
3.14,-0.10819204171269804,0.1993702904567668,9.48146135309252,-0.010956244694429806,-0.007348663175642104,-0.027215600219214608,22.069030049098686,40.22954427808558,30.434902546510425
3.16,0.2272732907190391,-0.183654668520296,9.753386231554064,0.06762003820742023,-0.012390229812552608,0.04839990719216439,21.737873352942817,40.24663961163611,30.393641327108508
3.18,0.04607028267816135,-0.007262421453470322,9.896324316288966,-0.081748038206913,-0.03610427110993757,0.008641260270347957,22.19441283889174,40.04255666919542,30.70000827390586
3.2,-0.27301711039891285,0.09089327678342382,9.704231693332014,0.02918335313085457,0.13510049112304648,0.13240514833012598,21.41450800283632,40.326202103161066,30.59158659224043
3.22,-0.007625482227668682,-0.18059072016027508,9.786303164185838,-0.10326882988772093,-0.04878638120672855,0.006642273076707709,22.192027474153186,40.25400708712586,30.2388563186707
3.24,-0.10941437577220656,-0.007834743026270005,9.643496817975135,-0.05330171280004846,-0.15483621671189124,-0.03605144821971971,21.670931409303297,40.360784497669,30.052420076280608
3.2600000000000002,-0.15022893378076752,0.42965685579532514,9.344595751958371,-0.1647678015399246,-0.12565177959941864,0.17949261588741533,21.655197876184268,40.04253631823841,30.960991236222316
3.2800000000000002,-0.5589862277294821,0.596965104603294,7.95046149040877,-0.12963694351990818,-0.03460882850212456,0.06520595657461595,21.78134376942645,39.91393158633262,30.205339635469915
3.3000000000000003,-0.6672581748347614,1.094150696425471,7.2177943304838985,-0.256320534759217,0.1627784775439051,0.11875646739944234,21.55531442101556,39.84805315448381,30.61467417016516
3.3200000000000003,-0.7512330089903749,0.5497104186800755,8.740775504044704,-0.31654278766279054,0.2899628628317353,0.11070932723895248,21.693008549026498,40.060441569132585,30.83980387049135
3.34,-0.8270782446020044,0.7225126095604896,9.679880187858306,-0.4297915264247347,0.35034423747191346,0.12447754854810683,21.520816530720662,39.87110505621449,30.501791441915334
3.36,-1.1489634810285168,0.2963707828064709,9.693953423973824,-0.41095277462870283,0.3739009057318144,0.12663203429933081,21.516798064952297,39.79989049961865,30.311315299443145
3.38,-1.0701401483009139,0.06263041858040111,10.245740446839973,-0.4488079181985467,0.38584681175207025,0.03087492611343609,21.78884159166152,39.80377639643667,30.102143754726956
3.4,-1.0619213495211384,-0.32415013309013696,11.157183653439255,-0.3699638639814765,0.11111457081188598,0.11654453407186709,21.442280132131184,39.722162976111775,30.087693506403053
3.42,-1.0093683758112646,-0.7434439296276234,12.405173597906279,-0.4228530152808645,-0.07637487326051559,0.007605208559227569,21.460689463682964,39.908910337593035,30.512530149373482
3.44,-0.5999769736342986,-0.7824627626503379,12.546232702616793,-0.23594493107490752,-0.13543716334690725,0.06472137806205096,21.301721898452488,39.49703907413146,30.75911365824665
3.46,-0.604891996543419,-1.0328905039132534,11.978500757539509,-0.35293074772093913,-0.2729900367928747,0.015811932792076128,21.49612183206613,39.883717866378674,30.30465549261834
3.48,-0.6151898136377636,-0.5830754859058568,10.584407545587357,-0.224944685594417,-0.24555569517683898,0.061836585062679264,21.91746298856811,39.948325685821615,30.254811266600452
3.5,-0.14237750030974183,-0.3413279753751842,9.957169602092197,0.008623657015439781,-0.36399485687445365,0.03929966823592558,21.38500991512518,39.621532080302146,30.54413210487048
3.52,0.22465874364151586,0.04663922023717208,10.129872799885952,-0.02910832487772211,-0.07303196181193808,0.02586875344591122,21.39754198609681,40.197254041622216,30.20059753926718
3.54,0.09389583126613762,0.09697419901045803,9.816224805686522,-0.08189271986426472,0.048362885686530764,0.014237794364945228,21.60452206445124,39.71525335021475,30.419526604573477
3.56,-0.2123243959144816,0.014114380825165307,9.733641302946339,0.010144293752260117,-0.10404024106776988,-0.03940952050718393,21.45358572016135,39.31140187437534,30.352048298407503
3.58,-0.08810808874395015,-0.012229269624206857,9.515364675269291,-0.03152353453287254,-0.04554173413889833,-0.018660209361100775,22.06168166713796,39.59377067481866,30.232050114341458
3.6,0.12202933790239473,-0.13572820039935507,9.946771696073563,-0.05315221533709835,0.04596486264683632,0.05222376967526909,21.472019774029278,39.65149998135239,30.31484288922505
3.62,-0.11492033587425368,-0.11546649163788611,9.618574839502969,-0.06875224864792305,0.06758064337028727,0.06107140063766399,21.575337425115066,39.719460923569684,30.72992311019238
3.64,0.02325833137754741,0.11240815442127972,9.65958733158006,0.16310241633755657,-0.0793342576339178,-0.07180698591759295,21.705007269824044,39.525228166459364,30.439995885264707
3.66,0.06295608641152041,0.14236024868471742,9.740237724109459,-0.01809311401104818,0.03978155102597693,-0.09485565795075879,21.68378097865545,39.31959788641518,30.54519824096971
3.68,-0.14123165658936995,-0.05857325235744648,9.949969415004036,-0.11853404161997262,-0.1198403923597154,-0.04661336299228273,21.50101525429012,39.27500703332745,30.050552044575106
3.7,-0.03714304272741601,-0.024479670329607104,9.872788798399892,0.08662258554033204,-0.008360151928262758,0.059712454921935026,21.38926665803818,39.35643443133509,30.522056472370288
3.72,-0.4189520808082887,-0.13855372499925192,9.761059498819169,0.033664254306634236,0.06372281052619237,0.06989304181098206,21.896384898506835,39.35500016937751,30.40034417533428
3.74,-0.15292651696011478,0.11073082143209337,9.81699504763666,-0.048987985861187265,-0.03609094380617883,-0.0584827128240703,21.369128888343145,39.192116430005115,29.87497992408853
3.7600000000000002,-0.06030817816717923,0.04985001884301345,9.707953716855467,-0.0589871453211685,-0.09341533794828082,0.015438561224180296,21.26929431453486,39.26435886680955,30.352294661218593
3.7800000000000002,-0.17973398183578193,0.2029460923756499,9.796758442747842,0.03740836776949384,0.005772887782653558,0.10706587998840525,21.202302854435047,39.574311523422,30.087381078978268
3.8000000000000003,0.16588935647179623,-0.13539876926156866,9.788800409373376,-0.017815099649367276,-0.03928313199812869,0.02191868863442003,20.924661443207754,39.787555431957735,29.827357987792507
3.8200000000000003,-0.2016169653552759,-0.07536094788218606,9.850463290259928,-0.11855866910670608,-0.1773585323920141,0.08229019711398561,21.517853396778964,39.54923342893719,30.21724498492143
3.84,-0.30532627235995247,0.34488050199711523,9.417404125495912,0.015226024293754331,-0.15520330451963377,0.07917568760061734,20.738487319564303,39.65741056478828,30.30318284556291
3.86,-0.44819486984322715,0.6730439305015163,8.03572155997779,-0.2025929233799807,-0.01576887054819367,-0.014223548461918832,21.28179802968873,39.55397247501514,30.197880190351707
3.88,-0.4805370071707996,0.7240622132397431,7.287021608460207,-0.1626616165545478,0.035349483702026355,0.04795009477604866,21.214945370913757,39.49641807346283,30.1229523845206
3.9,-0.9841349406095625,0.6451869988910149,8.669888003251703,-0.23902649550926908,0.2612139424315742,0.07726841694431386,21.782439625632925,39.19178480222261,30.057428265486102
3.92,-0.7913892176438239,0.7012340894452527,9.557372130290073,-0.4234481198299365,0.28545936667137684,0.09334489007152232,20.78578642769013,39.28317371401248,30.71634663607224
3.94,-1.0036999448594732,0.40364323479951636,9.63671251139963,-0.3309797730109406,0.208861918848106,0.14947252842449665,20.989454437304424,39.12501945703659,29.82812125159347
3.96,-1.147781038125754,-0.13995289206764688,10.137611314680527,-0.44208655299182087,0.22075995718198976,0.12152108573652451,21.153197445305615,39.15011286755462,30.308989157975574
3.98,-0.9494754952702311,-0.21445385516138693,11.102837451154928,-0.504973200080966,0.1577079366251985,-0.08167926540850452,21.11840292512244,39.19591034368415,30.090718924955034
4.0,-0.9070817044336027,-0.5150413408708314,12.437323343744707,-0.3888634371222962,-0.04952341943612931,0.008326470404678349,21.013679802790534,39.327782590227365,29.869456501763562
4.0200000000000005,-0.8838575077270855,-0.7938267500757236,12.727520029477343,-0.29187434288063535,-0.1465196059652823,-0.056059706651759564,21.105708308588014,39.23522925653102,30.05040723618669
4.04,-0.6451135516599313,-0.8003905862603345,11.712604127266841,-0.28016011962327375,-0.24061858479337536,0.06987089462519341,20.802242843324773,39.072029625221695,29.715199188886388
4.0600000000000005,-0.5101213707409694,-0.5889782534405151,10.659580423134065,-0.19497639610252937,-0.37337345259871035,0.054817632879821485,21.16947752393516,39.10157061633669,29.89405278339534
4.08,-0.2388988525261652,-0.4805113597247983,10.013723678911935,-0.023394410886809214,-0.1627698498500546,0.036245590912274604,20.505632211369917,39.169784510424144,30.01316312653446
4.1,0.049455680942525476,-0.026396222500310332,9.835627505083057,0.003389638817405461,-0.24338302416330135,-0.06053569606287696,21.03546894454745,39.20358259489416,29.639607559665407
4.12,0.16032201793744225,-0.28828602535310166,9.890384581914532,-0.05359789867709715,0.03636697211161624,0.03744864030719935,20.876263653299333,38.656650111350416,30.12084913930936
4.14,-0.17853785985922188,0.07517467746035227,9.902270788810789,0.03912181942003959,0.043152916633742974,0.03997574978811174,21.242788173824607,38.7405864450737,29.75545172705021
4.16,0.225964004958752,-0.2173791866930231,9.7086946953142,0.008860534017254708,-0.011375707626945106,-0.07830894403230947,21.398521060223516,39.24301847735469,29.62577574803215
4.18,-0.2642505359427002,0.1504103794114799,9.706062785034128,-0.15429628808772258,0.03340770150357807,-0.09096229208693234,20.876002162596496,38.940916169756164,29.70232226098642
4.2,-0.04821421140427,-0.06961441127597404,9.655176154685345,0.022701174826286922,0.011749153308983348,-0.0030079011736162714,21.267281571197373,38.83216759884566,30.47128657895716
4.22,0.04059806477814919,-0.055400037831741224,9.863857880433658,0.020509722462966097,-0.08805838543364436,0.10450693641680153,20.835539956979364,38.84929082740549,29.461760555650404
4.24,0.003719024128203921,-0.10532806873014067,9.953858413000527,-0.001792732225148401,-0.022936362075005292,0.09898456453191853,20.657289355691994,38.82799313388426,30.028609151263893
4.26,-0.10472394237847125,-0.06456466487064916,9.74219016865093,0.050502034864174504,-0.039753054141243714,0.030804261626883146,21.285783303904612,39.00410952311617,29.730997838644274
4.28,-0.05497467004287303,0.14022376141776438,9.751028332233002,-0.04334361505959013,-0.030704702480767624,-0.046799800294804586,20.969217880038027,38.58337623978833,29.81481997136702
4.3,-0.08916011215905995,-0.3285370387842095,9.956013906827877,0.01718998732925405,-0.08124019067019828,0.050210559569315104,20.8226238285565,38.834519523790355,30.031265579550965
4.32,-0.10072377083330537,0.12323584633058252,9.840666942385802,-0.09701756227004117,0.0645860230047618,-0.030145455888542488,20.96367375601024,38.867094054563175,30.006963286066963
4.34,0.07195225164252295,0.01056281773220498,9.832348284576128,0.021425423003929907,0.09311955927680476,-0.04905042220042863,20.841624479858563,38.88276652353104,29.697939481766984
4.36,0.012841858315805678,-0.17484259774286587,9.637090019283153,0.11418358173239378,0.055680178559904515,-0.13163800989731966,20.73613467576844,38.820972711547014,29.52294585257836
4.38,-0.1131491514312785,-0.15903748716590854,9.86144736831353,-0.06269138114805246,0.07323175344882857,0.0031429319008591736,20.411213832489683,38.871315867635985,29.98567357481908
4.4,0.07795198505199008,0.17116716326498435,9.66850363913883,-0.04858812791926652,-0.02367809022048937,-0.040792040948242514,20.64132028845065,38.59025736318938,29.95648749775983
4.42,0.0068759425051931194,-0.14346082559312773,9.643917577687805,-0.045600926573493135,-0.04117541009916219,0.0027858227717102646,20.832405059056534,38.48207402363831,29.74310458783874
4.44,0.0675434542606752,-0.1684020612715151,9.738387410787995,0.004799893548095717,-0.04971522280870269,-0.1409614617742237,20.629820704184198,39.278389253313,29.90516924999073
4.46,0.045555461030833466,0.1064777450837675,9.709704873186158,-0.06678217637122309,0.03564389537743335,0.007189600355021233,20.852197271717266,38.59720850100213,29.679735837052313
4.48,-0.12947940131064867,0.010626345154309706,9.70761893945196,0.02227484272145881,-0.20150825116731524,-0.14886726983829768,20.703964425342445,38.606252152836845,29.575907151169602
4.5,-0.31974265877995073,0.20455592210967868,9.128424954660247,-0.04119797685437586,-0.10671702128245567,0.08452850859174456,20.377281272409398,38.794420410734574,29.7630392326513
4.5200000000000005,-0.3742085065027667,0.6214601830229782,8.091502230889231,-0.1444926628397962,0.10829825548271292,0.07170184795986088,20.24748189327436,38.99622910585634,29.874381141114664
4.54,-0.5802453700067177,0.6268520077086257,7.46582567070771,-0.35850084628177775,0.18090610418352154,0.04262909390039808,20.502315684956713,38.46412407566574,29.8117930920508
4.5600000000000005,-0.8143396737437276,0.8820408975561715,8.34718823102799,-0.2560225330776956,0.20069780151725014,0.10894633985172773,20.390089043489546,38.336955465677555,29.847568517595494
4.58,-0.9168895819053652,0.7228297017592001,9.685823282914425,-0.3071455023057469,0.25425913321983107,0.028412431030428772,20.572400246888996,38.26063465494657,29.53066562180242
4.6000000000000005,-0.8516081246872127,0.38094773515267977,9.66927880006661,-0.3431614825319512,0.321084597047759,0.09883532215507591,20.295026736226653,38.92340013389509,30.08073164932671
4.62,-1.1009885666602997,0.013399327349642089,10.288842914147773,-0.38062946508065054,0.2716360055152401,0.14468644230762015,20.295303835866278,38.27443779261866,29.606826867653478
4.64,-0.9392762264414191,-0.16576441630996158,11.084480633980839,-0.37975980602042153,0.12918453252190834,-0.09116456372730099,20.67127825412154,38.49972727917808,29.648420983560563
4.66,-0.9552319861944865,-0.6555028266878368,12.331550517394657,-0.30144418327338385,0.07722398204133255,0.06026342520959049,20.429582932314805,38.25478070759413,29.348492062979034
4.68,-0.8379532268552966,-0.9517672247959549,12.727331692205656,-0.2003217837310048,-0.06450919301071559,0.07382450043862056,20.200765465326263,38.12494582542183,29.6065011528113
4.7,-0.5216365796202708,-0.7560054602055821,12.003163477123612,-0.30957834854538446,-0.23055510967743945,0.04757136312112737,20.348996663267855,38.385839803954,29.76887041010578
4.72,-0.3648337772389947,-0.40513954002997044,10.504020859635443,-0.11186597189933699,-0.3514285025368629,0.12781448348540012,20.650984816270952,38.21463880832857,29.812294795102286
4.74,-0.15489977763623833,-0.49887813047634955,10.07304979475335,-0.09718139946297315,-0.3647642497964164,-0.048181974099741565,20.3657831355757,38.25765615661118,29.992370721479148
4.76,0.12665745685851937,-0.07337553200327848,9.945486609401474,-0.01078038312171609,-0.2383749390568472,-0.04026955460671373,20.412759372503544,38.88929575962325,29.73062967910621
4.78,-0.027479539004068913,0.019973524572174314,9.86596080966485,-0.09519184142292231,0.042192806784969415,-0.1179521415785069,20.06504429260269,38.494235843442304,29.66055834627134
4.8,0.05183435655539567,-0.036468581880688695,10.058963869718811,-0.0200873645709237,0.10659882475871627,0.08761719907638872,20.467007117640915,38.60049284864456,29.47537358678446
4.82,-0.06723201079121471,-0.14787642964527775,9.716526388473037,-0.06283589747810492,0.02204682206464799,-0.017777408556528,20.752057312258273,38.55978940716155,29.41211314304378
4.84,0.008899962298613055,0.10462294274765649,9.894876578711225,-0.03083126577035674,0.0671233676538742,-0.02930453328220242,19.980771195499344,38.322849380858315,29.792299929658228
4.86,-0.04561716652412215,0.24840488664207114,9.76726912375903,-0.06889118302668899,-0.01771844917126814,-0.0061489609386428425,19.862047839252206,38.22696476813718,29.776271447811553
4.88,-0.018360484200873817,-0.006464224917131119,9.92800872916232,-0.02993450323878038,0.034366147513653,0.03517414970581944,20.1627837495763,38.37794123390371,29.27817242883911
4.9,0.04141884305242963,-0.13848819476832003,9.779077320513435,-0.027366621421404193,0.04640140976863035,0.017841804210967482,20.305702251021284,38.3445857033636,29.698907833731905
4.92,-0.1281864819880167,-0.215875263006417,9.733454906176505,0.0028052951063280186,-0.12177565655115169,0.15587305281342523,20.048555115067476,38.15386786582176,29.6702364635715
4.94,0.22108647308225524,0.0009571177465417038,9.936728664464596,-0.09988499173747986,-0.027806328142590615,0.024236153304226474,19.79261083028963,38.30803352389977,29.235681786941736
4.96,-0.15072208577996424,0.10246528119795092,9.721012567317729,-0.08973108886471941,0.05398202305667218,-0.030914725750144863,19.99419999205938,38.09410715847425,29.62163083956121
4.98,-0.17570263353452786,0.027020129579445794,9.610472908931934,0.018714856243831592,0.013468100138193894,-0.03668140425143683,20.138674225233295,38.20950208441121,29.22903083738641
5.0,0.10897330482000814,-0.03028846091026246,9.717978374019141,-0.05084628702420594,-0.07479090288905597,-0.026565537145008547,19.872312361532945,38.157481158546965,28.886969687758363
5.0200000000000005,0.0649995232755523,-0.10071259821471674,9.854283953590624,0.06147178741379586,-0.14880734254364136,-0.09311021547779028,20.090609124494474,37.920990485772926,29.420732388848048
5.04,0.04489437804625862,-0.16105963592617076,9.94704465019045,0.0105161833209028,-0.024946844718120382,-0.0006081475505048364,20.199270397570903,37.649088126047765,29.510270133566088
5.0600000000000005,0.04540146111171359,0.07017015915898585,9.793335525035582,0.033405729012384436,-0.007295141573632743,0.044008086372535025,19.95227498484504,37.97611449926233,29.410097614842318
5.08,-0.03146961274162975,0.07965259456627027,9.938183648068083,0.08164153922525368,-0.05603537698970072,-0.039801816037394154,19.86280389853367,38.62287764908261,30.1152243018826
5.1000000000000005,-0.13767052457829979,-0.21548757440288796,9.61701900942269,-0.021582648708394353,0.0055850962216796645,-0.051442803377046695,20.04346150299568,38.10425285183236,29.507532745773048
5.12,-0.020903453016752838,0.16078067738168206,9.681019287000018,-0.03746920232497654,-0.18474882952199054,0.08795670877765402,19.6138821903592,38.353775674616315,29.44149965932826
5.14,-0.3337803393377678,0.38599553780132667,9.266713736744746,-0.03970621844659696,-0.06184248834297616,-0.06633689600163846,19.565167246812212,37.64692794694392,29.498953740257992
5.16,-0.346869371107428,0.7634165433919191,7.962697142816409,-0.1459826818112421,-0.11076579266494699,-0.08368072867688225,19.705299221914615,37.904343916383404,29.279692135824803
5.18,-0.6711366876389901,0.5888869999272451,7.340594641955763,-0.26363573933277146,0.07775251708611375,-0.00982513643296961,19.626236161097562,37.8110808341638,29.598532823362735
5.2,-0.9108911460831312,0.5860434310956063,8.663778642811952,-0.23224511496985545,0.2327399008672011,-0.0172428147806548,19.526531458801674,38.07772169440209,29.452041352220128
5.22,-0.9695351689007783,0.5775888688023485,9.515031525653981,-0.3761222057513635,0.32944405083022055,0.11027045063651683,20.13373185263043,38.69794951240011,29.431080603958133
5.24,-0.9553761376687487,0.3774411225214699,9.78322567807958,-0.3910047466193826,0.3095190399055124,0.07285052119120797,20.190827192037116,38.21783670437626,29.19578609766592
5.26,-1.0976469463364769,0.18556329875123573,10.180591102870952,-0.40172664094994454,0.2374442312285648,0.08381877729856961,19.55983645946889,38.50531965630975,28.960369832890027
5.28,-1.1035943596497955,-0.29237752163623065,10.98158742463387,-0.44904679856663776,0.07307864206841425,0.16366884183666874,19.641966429989054,38.028596675655336,29.205810756036193
5.3,-0.9017264025233896,-0.6845869391918677,12.314457447015165,-0.3587324237917842,-0.05624734906958996,0.045616795120475326,19.55015509401324,38.40881590925025,29.384411521512266
5.32,-0.7824354939349834,-0.9331066346653658,12.732304266548548,-0.2319269823433026,-0.20630937905990515,0.12168851295154146,19.836379856599542,38.5707128943069,29.200390682154318
5.34,-0.7143229829032691,-0.6623422610191609,11.837898304815228,-0.2256978218209229,-0.21092561208213434,0.15002834813806554,19.8593407149975,38.039066271501824,29.367776915336652
5.36,-0.5204083357917569,-0.7712298370645098,10.65658255592822,-0.1746896900630874,-0.35634299023234745,0.013048624030936186,19.094915166415724,37.92837565134849,29.232745536852967
5.38,-0.2246749414733986,-0.18169076472136872,10.009189778978755,-0.10171441045246613,-0.23516281538113618,0.06347346472901032,19.611244597968298,37.73431085044423,29.382709070460944
5.4,-0.203770120979679,-0.06412615795278132,9.761451568121847,0.016852021704381027,-0.20266084006770554,-0.017509074751738792,19.158983103791616,37.96950040434621,29.035898869276558
5.42,-0.19889565292518663,0.16086984871414203,9.932725768076553,0.0419859977093511,-0.005702668707309216,0.05244588773044734,19.870302305310272,38.05672364860496,29.30770741262733
5.44,-0.11621330655029231,0.0514717548071134,9.639662324495639,0.033554329853385176,-0.042402623986588,-0.09728935125457638,19.529755656215844,38.51819612717218,29.098773858912484
5.46,-0.05561365820542167,-0.04643945873309499,9.693483586983612,-0.02291189170931875,-0.08433251166984758,-0.10173073470752078,19.20235758585301,37.71397854500705,28.874717277513053
5.48,0.007308907871760549,-0.09232756461913519,10.113595634906828,0.016486895646606874,-0.04185916538268274,-0.026476062894452444,19.317999703740842,38.033403367062924,29.19568518247385
5.5,0.14704274603394624,-0.07090894528152958,9.655441037401292,0.02579638446889672,-0.022800412117493177,-0.05633548854358624,19.28261146926623,37.578270849398876,29.595571392238938
5.5200000000000005,0.07291915478424232,0.021398003085028497,9.61754943903483,-0.06343169925161869,-0.14514145869487508,-0.03400254656579312,19.454139886678178,37.90621092725827,28.86844719034427
5.54,-0.04919262359561125,-0.02074122045387399,9.868137209400146,0.007093832471021661,-0.014841309320079855,-0.01617159494682839,19.55441993595662,38.07860782203286,29.2389286917153
5.5600000000000005,-0.032281944948322656,-0.10125736896824461,9.530745617547135,-0.1326782331781417,0.052461442081560325,0.0402008119101751,19.005144403577756,38.12244229722909,29.393582039652813
5.58,-0.15030352375653705,-0.04987576923811587,9.751767130803309,0.025952022589271102,0.03103307432603235,-0.027459634713956092,19.698477322792403,38.13664846108386,29.74618115203015
5.6000000000000005,-0.032221576319086793,-0.02057075643370202,10.03749899100918,0.036620583273760894,-0.03277235254449044,-0.0524316786373852,19.619116520507646,38.086832301966865,29.068002626886955
5.62,-0.0646390366704166,-0.28544809132977744,9.594607689341592,0.04185276754718756,-0.00018382209508633696,-0.02409080260553393,19.000364152734544,38.12724144694011,29.026882906929576
5.64,0.00872622724057074,0.024980173774643843,9.542164261711354,-0.02670281113017405,-0.03636987416531998,-0.049148716788397065,19.20472509697255,37.99571540974278,28.890938411438356
5.66,-0.12926771322627875,-0.14756654696601681,9.600098255765078,0.015542810101442088,0.005925644000141767,-0.05904033012376286,19.57478117916011,37.730361438690636,29.437176125376357
5.68,0.03232158170894067,-0.1683998883846894,9.88780314820164,0.08243723073247,0.0894064694246419,-0.09978100881461814,19.437149298816028,37.5348769662253,28.947907795792002
5.7,0.15392866956030932,-0.23248132165328522,9.914973206398297,0.08182617889747552,0.055109928157492556,0.0011686869732647175,19.037623089658357,37.84580920428406,29.05990764724021
5.72,-0.043051217814822906,-0.24526709974414682,9.71848934436258,-0.004750361953593638,0.028247658341565163,-0.03712234239582321,19.29121002219442,37.94276093710667,28.69799892533329
5.74,0.018205406651872973,-0.1926537003734747,9.861985488480128,0.00535917784377359,-0.0325730947430231,0.0549767243540803,19.792561157832527,38.27438165469237,29.34692127440268
5.76,0.052817279005333506,-0.11508251491565885,9.946830639301439,0.06365466868406598,0.041996303576690305,-0.08984376552353643,19.076078674401312,37.94797828394217,29.405905928614033
5.78,-0.07814645662630035,0.20439109650318818,9.948692472509745,-0.09304812091573049,-0.3163446514383474,-0.035525013302872735,18.87675655532373,37.923946268365064,29.324198839126364
5.8,-0.22562983613906437,0.2540014301866221,9.271782517061656,-0.11139291814314724,-0.11722492750600357,0.12802652663515637,19.047873416298508,38.062965143492335,28.7293576723146
5.82,-0.46237265102374275,0.6167951987265877,7.700267667992713,-0.09641926831481788,0.06561202802042934,-0.01598819711411515,19.04371781982277,37.905267306454746,29.253909977532278
5.84,-0.6417686700328736,0.7980000961262184,7.231997844676577,-0.19388388824240743,0.20103489579746603,0.04515698506010592,18.83686477936845,38.16454762568499,28.700446912518
5.86,-0.9045926565306858,0.7656701520913608,8.529652824532658,-0.29357676632821766,0.2912103291814297,0.0022325092772808863,19.0471109487124,38.44532079725857,29.109648639432784
5.88,-0.9280276469913459,0.5861719706873049,9.537335690645033,-0.4537374914808049,0.3128035043205544,0.006191236023383048,18.618594485742808,38.49664821402012,29.13890680732919
5.9,-0.9451681172323696,0.17367173966213725,9.743999107524159,-0.3959657788551992,0.26842150034747725,0.18733145020344305,18.738618281959923,37.99504409034096,29.158240393114767
5.92,-0.855862767064595,0.14411130579350553,10.32027320146152,-0.438394923774996,0.24141059254555358,0.10726236955822883,19.059190052808614,38.05381870267607,29.20635736305584
5.94,-0.8898154130515988,-0.1602433940575002,11.245625624303319,-0.37310883070369666,0.038912056151372124,0.10251352151243977,18.435079762653483,38.35341555443594,29.070505554920974
5.96,-0.6725869730010324,-0.857384229269146,12.307496611233963,-0.41194834824866045,-0.08726997862858732,-0.014682087316731415,19.052222323825234,37.940339864596524,28.595981297409057
5.98,-0.903913190014596,-0.9328257606518242,12.88136159526242,-0.3772759966856885,-0.1589055423669829,0.0967076315333012,18.331979065386093,38.14149235218466,29.190066783057155
6.0,-0.5488113254522522,-0.8435195708306997,11.900627336611326,-0.37628783740451194,-0.24662540120596038,0.1287942969455029,18.378911596484738,37.708517778138855,29.079880496228057
6.0200000000000005,-0.441882698428956,-0.771209721363647,10.660512137881954,-0.10324521454842121,-0.41065057368185154,0.1093569975614676,18.654435135551548,37.90913887789033,28.834786853258347
6.04,0.010255418029805702,-0.3163911248793435,10.108894252958345,-0.11599460426910943,-0.2588562162355392,0.05935208717200115,18.822986726887432,38.26430549912035,28.66986633806953
6.0600000000000005,-0.12699579424261828,-0.11739266428879376,9.821997235403277,0.006428747022152023,-0.16876833168080072,-0.07076913465572422,19.052344038569903,37.81788192093634,29.411378987644884
6.08,-0.13076662106169312,0.2298067281367923,10.026937341251731,-0.0031342869884508654,-0.007637114247977719,0.015787405031579497,18.7284467405769,37.96324009772309,29.332684313792466
6.1000000000000005,-0.10192711745328266,0.11286583132123151,9.607390659984654,-0.06704603597762997,0.13946797699703953,0.037055097628596455,18.63597915468438,37.62019761091448,29.202147788261893
6.12,-0.2848674869171768,-0.004491116324134212,9.718179492108959,-0.0785438946868916,-0.043976106378911174,-0.11066661510533408,18.81498757637746,38.483739262190646,28.86609986540864
6.140000000000001,-0.09309060260169132,0.09323835159836787,9.764817732365527,-0.06331890755983413,-0.02466522980321217,-0.0702767754889071,18.44781277158178,38.31013926788919,28.420175432856116
6.16,-0.12109591938644375,0.10270805092287708,9.832734322854959,-0.04639010632976358,-0.026704014367632558,0.05028943930460649,18.671435903374633,38.0571240651116,29.20376923297239
6.18,-0.011952745622855084,-0.09767369856698918,9.93215525845237,0.018996374820828298,-0.007571256677461053,0.049562746600315705,18.331467281848667,38.13906009066587,29.104392899204242
6.2,0.011010717093259133,-0.12794606934503577,9.777072171931662,-0.05074305981123669,-0.022723488777977464,-0.09591498201728355,18.620727512192722,38.11785773992008,28.92276154829061
6.22,0.19514050070590633,-0.020622832443642304,9.609332442059255,0.10178943789567729,-0.0874086326762923,0.04470128755615035,18.55153267017053,38.36096968665833,29.27907761691059
6.24,0.08405086058232603,0.07339633493975328,9.881101667574601,0.05862906215358906,-0.03579289777418852,0.0027182039492170676,18.37167575925444,37.910422075707615,29.20923884573227
6.26,-0.09922843867948837,-0.013312752161589881,9.870595051937036,0.04550157297994249,-0.008857241746444564,0.043860537276429086,18.586538398350484,38.217183103945146,29.044729960113774
6.28,-0.13780976056180294,-0.21923957786291964,9.546976960874472,-0.010179534148389008,0.07071432492371985,-0.041071279406036484,18.567433866982498,38.306828166330725,29.007781453254537
6.3,0.029030300580780682,-0.12633893327410106,9.779543503959504,0.08785684414322902,0.1291345964023748,0.035711009788854116,18.79417170811857,38.34703923785021,29.008653349350762
6.32,-0.18842798484247705,-0.03887674363132536,9.589182980318364,-0.016080337867267442,0.07712843387103928,0.04762972646913747,18.10962174854858,37.520527134838446,29.156814070163396
6.34,0.18977505190252245,-0.039079872519099626,9.654452771077917,-0.0048756848492547645,-0.2616547761363206,-0.0240800961273427,18.459865971304346,37.92666658695223,28.785195761447152
6.36,-0.11098811946975995,0.5538120525088235,9.193005679567701,-0.0818099011975696,-0.14383229522412005,0.0203172461660286,18.279034262598955,37.8339077816613,29.090742214794975
6.38,-0.5201848173701227,0.42914663288654414,8.073556037902149,-0.13444411321442262,0.021029628180431293,0.001477076141476602,18.65385787193941,38.1227248767469,28.76523560908146
6.4,-0.8590659453496388,0.810613038765764,7.344522936266402,-0.21418143600331427,0.2636831562858161,0.15844731710702611,18.60991241009453,37.61158876833279,29.304777204150028
6.42,-0.6493667975681803,0.9286359027448537,8.426598407834165,-0.34424010969388813,0.24109181663757162,0.06796683188725704,18.53496655968242,37.61339487537846,29.10969704748716
6.44,-0.9447136493327332,0.8680391554251596,9.67401626178932,-0.3953671703265249,0.21546321353572692,0.031775427279610996,18.22850315379009,38.63437012409638,28.81494965372934
6.46,-0.8563899547450082,0.26857930051197126,9.594485536773796,-0.35457698744360444,0.25009437087532815,0.05154323638569736,18.59453214260995,38.27128889146783,28.997761993329878
6.48,-1.221331319055324,0.02897153432642407,10.225619504566353,-0.3600858049665261,0.25455539446512926,0.10460623606852679,17.999634607359848,38.1618734247426,28.771961405531435
6.5,-1.0768529149362764,-0.3087357484302088,10.995012932785823,-0.41657223236210184,0.13748013520031538,0.13969266152487508,17.93549144238784,38.23019052019615,29.336465185679916
6.5200000000000005,-0.9303396239362371,-0.6320073781880289,12.284216199801275,-0.4586188313416749,-0.04860234282049168,0.00694727608121061,18.03111245858917,38.18839730359034,29.36373335533452
6.54,-0.8061938112162611,-0.8218037538941755,12.810055899900808,-0.32817155874770676,-0.12160474254099887,0.18604274842334995,18.31490085026469,38.40329291850019,29.140259058860895
6.5600000000000005,-0.7074976584362428,-0.7576252830054535,11.920281900502738,-0.21498437281394195,-0.39340759192129515,0.07786949782921035,18.470847657845564,38.023080633455045,29.345842619010252
6.58,-0.38914174723585837,-0.9593347162007863,10.81320770996516,-0.06822848486183647,-0.2948839088660109,0.06837573228992058,17.58069612615343,38.23087674870336,29.00791329530398
6.6000000000000005,-0.3806353854822263,-0.29525865248653155,9.990238510144575,-0.1638858513229657,-0.23452387381039255,0.013420720766225313,18.59880242864712,38.25217394584262,29.154120186023093
6.62,-0.047085538202555344,-0.014858651560564134,9.850101093170329,-0.02859427516983446,-0.2651038308652364,-0.001844461958932455,18.29947796349344,37.958130466236156,29.264363730563115
6.640000000000001,-0.015564524194572136,-0.05669698761339184,9.727471521311482,-0.026364213691522594,-0.05318031218977728,-0.011896988275644178,17.87868132419115,38.527913868049865,28.9687619014994
6.66,0.031732660087049884,0.21562346348634692,9.801838785914736,0.07834832036589007,-0.11498688916580851,0.058067758142157616,18.26638043848383,38.12681319212718,28.987073698725023
6.68,0.055393785370666776,-0.11099208225486627,9.832738325761023,-0.005096490027517967,0.09239373568864163,-0.0034757152472022243,18.491838590183768,38.490568656244626,29.194112676064453
6.7,-0.1649570510205443,-0.07836911868780369,9.768202818305475,-0.05743959356233594,-0.046209238621294,0.04302301310956259,18.361252483585773,38.28685053400814,29.12537882826819
6.72,-0.21409370048827467,0.20898639626456808,9.563549941908901,0.030521716975309147,0.011462596671726704,-0.029030851401154332,18.469195082143045,38.664486007510405,28.789250845440282
6.74,0.12332121862782108,-0.1298473565819828,9.819776507559707,-0.02727831120245678,0.033235022489002466,0.008738431698738947,17.865827911317606,38.03591690120945,28.446222293884674
6.76,0.009877681437550995,-0.09601383395238466,9.823747377282656,-0.07646323640147726,0.08772407694848718,-0.05123522065436527,18.082955895264256,38.03919395195715,28.929592276661836
6.78,-0.11981838438678644,-0.047643050811702,9.698379182838247,-0.05656639843656904,-0.012233866439138118,0.06999169395297221,17.949263361541608,38.09612108996375,28.46927491750688
6.8,0.15613823706270274,0.07088813785554592,9.6258735556713,0.10104251726535714,-0.035365787626705114,-0.05302483444314695,18.572565144278595,38.35969251385604,28.735662980085163
6.82,-0.016119043884856958,-0.005063699117602391,9.957105498060477,0.020052553298967737,0.007384058914233208,-0.022498766655679573,18.3032351410668,38.71212688460553,28.764808449026162
6.84,0.11151566208765917,-0.1851150416582715,9.83897346130733,0.003465603327152577,0.07404481659253721,-0.02189762474728469,18.822799956108,38.73924687838619,28.839450521438362
6.86,-0.021897782230786925,-0.09386022757526274,9.752510276289396,-0.017993624148722766,-0.013210351884047025,-0.024237083260426097,18.01731001724812,37.81749661282233,29.17427416399032
6.88,0.21728975098583844,-0.10288253198546536,9.643556054022302,0.014528930527127934,-0.06029214489504458,0.04034974616657622,17.945923775527326,38.447055822762636,29.22801318043377
6.9,0.18064090109318454,-0.03926652542676547,9.68138222058944,0.01381415676014966,-0.09544546849892174,-0.02199946588419862,18.07616863496066,37.631504218824716,29.10282543979074
6.92,-0.05987569781748882,0.02110123903557949,9.93631084761435,0.014530129692439567,-0.07627784307631352,0.08063547183246436,18.432147848228187,38.609155205699366,29.13444313523973
6.94,0.08658851411452265,0.02018469070655665,9.796519432904166,0.0038907054166651793,0.048863489844399886,-0.05210850516781009,18.004663559242168,38.702687748513654,29.142180079820395
6.96,0.04744511395021771,-0.24312141048580826,9.713929551959916,0.04912790029833295,-0.02223746857840869,0.007162648196562414,18.113883951711937,38.440890477315264,28.387697270233964
6.98,0.13423578690388183,0.09767291850730273,9.841162707746959,-0.0016137392399561382,-0.039451254595242624,-0.049547159358756,18.099009158703346,38.48716663505335,28.99176444677147
7.0,-0.14579081526961252,0.0003082615195948192,9.682272217506442,-0.061676330133158326,-0.04595803339103654,0.022258366951888,18.077366190098218,38.501383683350866,28.56070230618539
7.0200000000000005,0.05232617519981271,0.13614384571126875,9.91431206641181,-0.039745373454052095,-0.21002928274395333,-0.003956983618606202,17.903695279995716,38.31237828350341,29.116735730448994
7.04,-0.12550999553436387,0.3704107905689272,9.463678814990844,-0.2107494951919085,-0.11645102421248515,0.009948370713722735,18.020006565666762,38.62141975572597,28.495040194038328
7.0600000000000005,-0.6749324774883319,0.7276239409027154,7.920455385568777,-0.05494446868447973,0.014201414207837205,0.11169687190196724,18.002720032503504,38.47966778767686,28.957078381020025
7.08,-0.7954808233786265,0.8059277671194742,7.255062885722036,-0.2006306452263322,0.2375690586232453,0.02008846792256714,18.037421204011537,38.77609762977933,29.13499896952308
7.1000000000000005,-1.0565393437992419,0.9114894204897888,8.266693344081816,-0.3655368226949662,0.3432982366801832,0.11037405770388299,18.259277714099387,38.54340285468866,28.73857552560643
7.12,-0.963297688035766,0.6581352622965575,9.390618653648275,-0.38029823812479363,0.19851236259343297,0.040959292029754374,18.44928726248053,38.38209444274397,29.241104568184106
7.140000000000001,-0.9188228414863081,0.3053571617208981,9.605805862650275,-0.4311837533251155,0.2998205629610877,0.1012539032278048,17.819241911386115,38.23841725358923,29.135488911809947
7.16,-0.8497171537484767,0.24269216645362593,10.202228690628326,-0.310447167317553,0.1625203084386807,0.025265480306593285,17.921385282914564,38.1781492324676,29.109055350721263
7.18,-0.9960365385314506,-0.2704225366204594,11.053546168567847,-0.4781637947289852,0.08118865175488454,0.05474176243977794,17.81228703961402,38.959239357135274,29.189086023354033
7.2,-0.7355350024338642,-0.5866158554538943,12.166657191215108,-0.3565189836318409,-0.018032639723390653,0.08216830405587001,18.050329867475966,38.553289347333624,28.93941560869852
7.22,-0.9774436574538171,-0.963098859730059,12.715803725040455,-0.3222442635411029,-0.17537281797045587,0.1840620982861877,17.871667461138955,38.76354464044908,29.066291272451583
7.24,-0.8578956945813522,-0.9645392438410835,11.918348430333277,-0.2027856029009466,-0.24318966693082722,0.0653972124134598,18.05417935168234,39.1295933964943,29.036598701497713
7.26,-0.4705494629851525,-0.6203393281174017,10.716112143128315,-0.182794049310505,-0.26073545060605774,0.1396684728637582,18.25756696903092,38.58607686279647,29.035677932292906
7.28,-0.20643308008359806,-0.3596444475618584,9.772148520402084,-0.1975009061818521,-0.26849039106009115,0.03247149089708658,17.382877544013592,38.590284193796386,28.882052640140525
7.3,-0.0339233697712913,-0.10369470780099814,9.797935371956667,-0.0180670700785465,-0.25394221260602173,-0.026225054668496332,18.10379777087521,38.72908294970997,28.74992914087805
7.32,-0.2780930520047852,-0.013082076046552798,9.613999106763407,-0.0613297330765995,-0.040751976418219434,0.08936139135604161,17.87233248722449,38.78797954502137,28.972233167335908
7.34,-0.04069440474153461,0.1606352313652315,9.888207443656833,0.001774772793393638,-0.08938231779708213,0.02322105732440513,18.090599310353653,39.25422971782306,28.9640987886208
7.36,-0.18653634006058237,0.05344829694603584,9.874097569962421,0.08305062219121959,-0.0542352178512431,-0.04156329563296282,17.762580116653606,39.197500597507805,28.88658195363911
7.38,0.050360705859604615,-0.1669210211703286,9.672236732841066,-0.10736551465393669,0.11472410171391169,0.025234287564017844,18.262784836672424,38.99138134521076,29.273264565634996
7.4,0.013991789531621793,-0.04338105925715324,9.688074575711953,-0.05101336412399422,-0.05052021444571467,-0.020555684994456612,18.193133891473124,39.21107620607256,28.79295865147524
7.42,-0.14278557435928263,-0.1265959777023073,9.724647953940204,-0.03616157722700982,-0.0746027287466292,-0.12234205177027775,18.1089306024382,38.841464768498675,29.03878406665705
7.44,-0.09166403008040322,-0.07652398996902735,9.50966479263224,-0.02589786572479268,0.0161956717106864,0.05315838955593705,18.161795226993245,38.97722871215377,29.36566637039863
7.46,-0.15710562262667419,-0.07963387987555712,9.82031618081287,0.04140753984631465,-0.009621885557511591,0.06269604333851574,17.791682709312077,38.854425933920496,29.309874093221232
7.48,-0.03752149167278063,-0.08731746991248063,9.747258654439184,-0.01341266505368325,-0.014735594210953523,0.1072765217995365,17.821448210466937,38.63862552444917,29.389670486422503
7.5,0.08461707846014858,-0.18061624463680737,9.896421009908144,0.02194816354322671,0.08154275798472539,0.022328621531715758,18.150584688196194,39.25892993803046,28.96218725764575
7.5200000000000005,-0.14828712556026524,-0.04531856178218281,9.648190893844495,-0.04054638262390658,0.02994760053350191,-0.01792340544495195,17.7859029173279,39.119451671481656,29.298555144057158
7.54,0.030485581862141328,-0.0972729164216772,9.705705246210009,0.010795460725076252,-0.03479957590220852,0.04709936564271514,18.317584032631338,39.018180046445295,28.861700248765928
7.5600000000000005,-0.0936309142046929,-0.38153384280027214,9.599216969035307,0.04366785785266289,-0.028468555055506793,0.04798922191913438,17.893759197611374,39.03539955485537,29.05722527289789
7.58,-0.12514473987148128,0.21635664294019955,9.65948513238069,-0.04693797298422531,-0.033155190834341104,0.0952968709881853,18.092980740354516,38.69679718625544,29.08656918838347
7.6000000000000005,-0.042843643194546935,0.10065235850600066,9.638162160471815,0.043881487188390876,0.04948437729481542,-0.005677657383986529,18.477766427764678,38.84613556167349,28.998877108362375
7.62,-0.15422907869032487,-0.07515608699099952,9.899516841461574,0.00014236612365410833,-0.021488857767188247,-0.012934738354055668,17.806188594502434,39.18398771491299,29.057263106388234
7.640000000000001,-0.09643791664166185,-0.027741714031128187,9.696208578149834,0.05972761442893515,-0.11058921014724903,-0.045932665185511645,17.994235601916404,38.99904208664255,29.03283836459454
7.66,-0.1737453471106618,-0.1705985216781074,9.794901082169353,-0.01508519400461841,-0.005899180724060659,0.0292477252035121,18.23310192555035,39.096629442383545,28.92275348653423
7.68,0.20576701594996671,0.17348674533730382,9.688519294314748,0.019874679309725928,-0.30735359442363996,-0.09589570009385011,18.21108395229035,39.14674422649242,29.371474797480253
7.7,-0.24828930771970695,0.54478163466682,9.1490069188817,-0.09444474748323757,0.028970117518743982,0.06581733576738531,17.907094922913597,39.031176322531685,29.129682081285978
7.72,-0.5478508000766684,0.6142684333640068,7.956248223332514,-0.182326231369458,-0.027350731999841504,0.0756584812237032,17.865061843601453,38.985897961753054,29.22947515976061
7.74,-0.6278122125706268,0.8727660070477004,7.402395715189371,-0.236860095049952,0.14689773703313713,0.09445319233337567,17.936743886713355,38.854580776794116,29.228221717207823
7.76,-0.8253108484309294,0.7709767432175298,8.435938200819686,-0.28352414483371774,0.26650942385055343,0.08347666243691342,18.344113975460587,39.22984550214587,29.209957831382795
7.78,-0.9574852198464058,0.4350581333093124,9.665501881122205,-0.43836144187640796,0.27779417332721895,0.179075581642107,17.9338859254152,39.43705054753856,29.227126895178767
7.8,-0.9312279081766126,0.26768818701840774,9.664575725067882,-0.30695314834365683,0.2627631750045387,0.14681239914379415,18.024173264738653,38.917794512390046,29.139704811540796
7.82,-0.9390990747943234,-0.014168643987365056,10.128047778581099,-0.514579782432988,0.23444167152561687,0.06057536851745802,17.90786114220988,39.33028130262134,29.56169087130948
7.84,-1.0685880498950868,-0.43165271754325973,11.156376187862016,-0.43405989145706325,0.18765667611432688,0.05914204823632356,18.184795408414647,39.42741334302862,29.412243276434708
7.86,-1.0000670567797807,-0.6817035792666282,12.2484851108386,-0.3690436914068617,0.00946120207804553,0.03431645798536371,18.058272263446923,39.146422182934884,29.242582039835952
7.88,-0.8448376861262274,-0.8209102766465525,12.754052393256506,-0.2909912348420552,-0.07389879024018815,0.10826014821333826,17.785912419588676,39.74931058064104,29.139498670052802
7.9,-0.9297203416270038,-0.8196477494893143,11.819945073161023,-0.15782556907901074,-0.3198144062540953,-0.0006593550885240426,17.80031589037434,39.33958867020025,29.227010318112217
7.92,-0.6457066665813845,-0.649194167114726,10.668295581942903,-0.2880509849405297,-0.28207190497265106,0.10539190252675695,17.55957138636013,39.43210677755406,29.364604893497496
7.94,-0.08849602186297198,-0.5043795992616394,9.71442026144233,-0.12247002128590861,-0.2768502359690136,0.0986304918963641,17.84642751863768,39.44203426861067,29.633321187230234
7.96,0.16739612562015393,-0.11604193789535254,9.593765171789757,-0.130610009267956,-0.19406655685536023,-0.055740976137027054,18.24350341483697,39.080160193294574,28.95287400114542
7.98,-0.059884324746765395,-0.1841501118839963,9.853916040725622,-0.001102681565385134,0.07957391823813435,-0.01413291207557122,18.377973439629656,39.77172706370956,29.449929779938888
8.0,0.039186835566691974,0.08733786596234404,9.904461768677887,0.01330101507000184,-0.016247348987523242,-0.002002741118255178,18.232420974581817,39.32485211394386,29.571283066468013
8.02,0.007350018545224331,-0.2826776330208389,9.670741595576217,0.09244774453027516,-0.02733020199324526,0.050038989628180056,18.208915118164274,39.522027409858524,28.953448180119715
8.040000000000001,0.3394656970146285,0.10843084119803104,9.750716597739464,0.004238085653607247,0.02903884784511983,0.09356060253659261,18.053652676327395,39.746908465279596,29.276279802234466
8.06,0.1043489893721492,0.1363619276715412,9.815366310348276,0.05964150776654277,-0.10969216365395085,-0.10412954357211464,18.278511777871607,39.97882201802813,29.073869779926508
8.08,-0.04535011097769198,-0.06626167043791456,9.863186112199045,0.032030224892343535,-0.0172111229473307,-0.02209084305160097,18.17004888862643,39.39381079224057,29.44238044650064
8.1,-0.14466485287205108,-0.3423764505392758,9.536678727399499,-0.029114891820310098,-0.011051861357127178,-0.018961001733620815,18.543514781500406,39.57067788233251,29.262847995956356
8.120000000000001,-0.22277355843090868,-0.07335726743607486,9.673675170362594,-0.08753764480752235,-0.058221516978415516,-0.08704019129319286,18.09621871092866,40.03449995346357,29.32751581012908
8.14,-0.005584363695933226,-0.03770209935465831,9.740090474418016,0.013500137897508646,0.06042354068139463,-0.032106601158243694,18.45185824536493,39.83893855936681,29.27008928248144
8.16,-0.1207620894341164,-0.1512717863914696,9.864376823668326,-0.09252612102872183,-0.06673441904059706,0.022666136661036666,18.349305034394447,39.91369437090401,29.55167033564204
8.18,-0.2006704451517209,-0.09182620725698912,10.07981165804658,0.07471242436017864,-0.011152382901827771,-0.019720734170373427,18.326294447319007,39.52534197242497,29.44398081029109
8.2,-0.10758874610910318,0.15362342386360214,9.752639312782835,-0.012723726122209435,0.014589433519378102,-0.09567727011644482,17.67758797695712,39.71163402615299,29.454708855685084
8.22,-0.1597857604337274,0.04979125947620891,9.611162704547521,0.06871064469068498,0.0782070936885671,0.1694449618805948,18.394194991638706,39.78742096129116,29.448199325191403
8.24,0.17245699620870777,-0.14094769372537197,9.828272169264157,-0.03181286604794396,-0.003633386092851199,0.01297067191225082,18.151715236759276,39.64688634561549,29.557500039083674
8.26,0.07579677083393406,-0.22171190035145186,9.938519494744886,0.013131047184059514,0.05316921564769263,0.003701647806400499,18.087184743708537,39.475982509756555,29.3677679584458
8.28,-0.030956716957994082,-0.06924207811317254,9.747172597295705,0.009560931440081327,-0.1730963105193366,-0.06887558178402278,17.849518417247396,39.78047224529459,29.84945129946369
8.3,-0.0749276372895113,0.29149217777199393,9.192544925384723,-0.0947110206631812,-0.09467626521640157,0.03489446311390796,18.21604572775991,40.253144328133544,29.155622250334424
8.32,-0.45459954219984394,0.6550090884580219,8.091403547090714,-0.2025130664508188,-0.03478146166541497,0.03053554686926616,18.237684873897326,39.967446666904976,29.048542005709095
8.34,-0.7568439060181251,0.6857043242373398,7.410128789585552,-0.22884855963526218,0.07053477130034003,-0.05396242457705102,17.929432704378776,40.308207375168415,29.039548638138566
8.36,-0.629056593195671,0.8113222787888823,8.457739626621413,-0.3713023887962045,0.2574075838536364,0.010967821845938017,17.901359446118207,40.046473773153046,28.98547874957454
8.38,-0.86629966266026,0.8276836707816516,9.61417942033856,-0.43595366689851117,0.26255185053381597,0.13479244785067862,18.384799711641364,39.84510480504334,29.65716523082293
8.4,-1.1293974507009983,0.4149671139873581,9.88621410376427,-0.3184015512731198,0.3353206645933878,0.21113385021820885,18.4905533804507,40.36037987063401,29.63903221270797
8.42,-1.052840641370033,-0.03577062087969261,10.327832654816907,-0.359369920666474,0.2538834254418789,0.11902992430258269,18.340611818297095,40.12981300323031,29.80774297233499
8.44,-1.1100021025879945,-0.3990850478204418,11.084720336063674,-0.38901766835659507,0.08500705892032717,0.1606777879157844,18.585008517532618,40.334782281840546,29.275527487732017
8.46,-1.0969048356181395,-0.6982659620760083,12.285127916163418,-0.2634790042083408,-0.10605211826746846,0.07775156827524932,18.302202408498786,39.87260728274638,29.719345073311494
8.48,-0.7006901767642332,-0.6682654202512014,12.896816268785955,-0.33179852411070276,-0.13196548997816432,0.06999037860596684,18.32427719270958,40.40334752618257,29.56545359739953
8.5,-0.42435980500231796,-0.8852199432596153,11.712488712257889,-0.1730337275441547,-0.31809422653659425,0.12480772184304126,18.131879284352312,40.43559035266591,29.603244116721605
8.52,-0.6317118479758552,-0.6500384608944261,10.705400936048965,-0.16601905055147398,-0.34662149834382466,0.14015501126252397,17.99240795564535,40.27357893852892,29.724924614679587
8.540000000000001,-0.18496462555344645,-0.3709632430683171,9.835705758821417,-0.1534934185871094,-0.3449299433854196,0.09731789500356879,18.82713811483063,40.035314463825344,29.404841673002355
8.56,-0.10807710829461935,-0.09021410313738402,9.941172142285879,0.10788241150625093,-0.2234420956723615,-0.06698178452308913,18.6689349077867,40.24283369078966,30.218923842110094
8.58,-0.08845504605176352,-0.1946958657460921,9.749034538126661,0.05644265079744511,0.06721154004423369,-0.007017533418914746,18.078872380752717,40.42544090299772,29.92932882462589
8.6,-0.10108727090866429,0.008756940434120182,9.932229988277697,-0.010261261860573858,-0.0033024522134117223,0.013651481068577713,18.466353972327926,40.35983429821697,29.493818523719295
8.620000000000001,-0.13367889236157793,-0.03732047662264602,9.838969530762665,0.040630275572036946,-0.02959312154566174,-0.018580677810451744,18.421103863312222,40.47255114691303,29.37145626347001
8.64,-0.02417740464662076,0.03002885633238838,9.633213572392568,-0.027222206039874408,-0.09453689580271465,0.020271452604935746,18.39573904496866,40.595927525590724,29.623995022486397
8.66,-0.12971401396932453,-0.09403203677270003,9.95095532784927,0.04674894210357251,0.030127475083790576,0.046234608700136834,18.379953425676046,40.2219980506065,29.70074397851141
8.68,0.002454819093580661,0.11649855585756574,9.966149431971328,-0.14646471391703755,-0.04982427635571765,0.05716858511730842,18.586478360555965,40.12497946929517,29.924708971134073
8.700000000000001,-0.03602857313389643,-0.13521285374542136,9.885874379111906,-0.06418808002167561,0.004051057149485796,0.09815220913329138,18.70842487127033,40.41769242789197,29.40047518427913
8.72,-0.05867376562396917,0.1754448340821471,9.688609456195653,0.05575558465721776,-0.024253116954998436,-0.022766466283490078,18.625955830790954,40.371995385489214,29.761537605146078
8.74,-0.13890763944499174,-0.23971638117939137,9.743278325477112,-0.01797933229313516,0.047290633175966254,-0.08484198989035883,18.51800423573042,40.66409290957654,29.33815340687767
8.76,-0.09921255966819993,0.02217240774682694,9.797451266088691,0.009452537693324513,-0.012434183521713129,0.018494075640867167,18.52696564834843,40.241886361007445,29.821980937209137
8.78,0.060646947099090714,0.02705168190319481,9.695554752080229,-0.08380713972692608,-0.006535581271383097,0.11002866187108812,18.807528824435828,40.76885017224609,29.703632115281078
8.8,0.030110062514925692,-0.12546684815290587,9.983081588695585,0.10787201974212618,0.026144828847327575,-0.03161855159724355,18.71213257329048,40.87293050018017,30.206452272837925
8.82,-0.14730662937582611,0.02092727254332151,9.797319176607125,0.06843177862306059,0.12341641093579114,0.03821081862382316,18.636779854886452,40.57215057381479,29.382860580224474
8.84,-0.018080123348492894,0.12354224037121905,9.455598234347118,-0.015041113102519786,0.05030681582151326,0.03874474754835856,18.62935995370747,40.610572766036064,30.09513338784974
8.86,0.06016645480461469,-0.2960182607224877,9.774933600308913,-0.027281751411799577,-0.2204484007368808,0.008486522840676539,18.739693410801035,40.435604797065714,29.369586225683094
8.88,-0.45284956769087903,0.3774363681929443,9.25956386318516,-0.03023211189734419,-0.10189183914963283,0.019667576658254304,18.563484391606842,40.513294589599,29.472323889258856
8.9,-0.3986805160319659,0.2962726875348146,7.967453087378897,-0.05760526863688761,-0.0009022247884737308,-0.015017378431527735,18.89232133665659,40.56914329128867,29.400728559250577
8.92,-0.733004652932235,0.634062553322674,7.286268991471456,-0.19517030539481217,0.09960988074341925,-0.0775507441593613,18.456411222577508,41.036950513081486,29.87571911219798
8.94,-0.7433596422368507,0.9454422935335723,8.67771489791769,-0.18542443294341585,0.2178522125445059,0.008472105846961259,18.635531211475374,40.69678291217937,29.546374380578758
8.96,-1.0225599666875211,0.5256513419673776,9.702770879660845,-0.4187286269046827,0.2487847251452562,0.06367863784353996,18.900804867517834,40.41997990389171,29.516912556522822
8.98,-1.2215137642615659,0.1762413955649699,9.800508615116243,-0.44213437470265693,0.31936710212026337,0.16033815246354477,18.502298158679935,40.821734802515515,29.901646812447932
9.0,-1.2253050925459794,-0.05375252747816173,10.14528850725326,-0.47433646708320093,0.1448603428838251,0.09081231625891747,18.416907445179174,40.98178291606094,29.97389762934227
9.02,-0.9991577185824578,-0.1289582307144202,11.087733748523709,-0.3664655258937607,0.1760763522693528,0.06335124808309346,18.82999323525848,40.80026962639542,29.88754082465853
9.040000000000001,-0.8998021676958413,-0.8752670556391469,12.330449403694253,-0.3528513341727054,0.008533440186137463,0.03363776027303609,18.428312144679335,41.181742577189326,29.85156438232717
9.06,-0.9203494774805592,-0.93609951914218,12.653251805352422,-0.3248496603955312,-0.1613795191925406,0.11459149795737184,18.544535914051174,41.03836076162113,30.341967830755937
9.08,-0.5768587068054487,-0.6302505277639038,11.927179410444142,-0.20384040305609555,-0.2569981430805811,0.14085041017170966,19.058793894973004,40.622455876209216,29.950573339163064
9.1,-0.6632661465898334,-0.43254090474989615,10.7079765000017,-0.10261377933414347,-0.334550541544846,0.10419451722380338,18.84919794821663,40.764248195264585,30.121490300012137
9.120000000000001,-0.2604505097939929,-0.3895187382088814,10.18496190287835,-0.1835481181397365,-0.2699599344116445,0.05562107538113964,19.228167608007563,40.973085357009765,29.97498398009336
9.14,-0.1753219439714949,-0.17868632430319728,9.963968963249345,-0.03881832167406698,-0.14984648656344896,-0.09153676478297638,18.651965490612,40.54095478646416,29.689755313949895
9.16,-0.1082203329362591,0.2215012202170991,9.697719009889186,0.04620861564738359,-0.04518938773534883,-0.024100454570626283,18.940205028976727,41.0434616677837,30.09778426570108
9.18,-0.024312159442030315,0.16133308700990362,9.878435804941077,-0.03106432103151492,-0.09500352533512382,0.1138382537333805,19.080445609673276,40.561695350919265,29.82098612766202
9.200000000000001,-0.1332496038340743,0.051473638531467955,9.665885594028664,-0.05089236458148925,0.039193095291404634,0.06431702951491348,18.725569068565633,41.25167804808174,29.96910574675394
9.22,-0.07614666530757905,-0.1274882818724904,9.863511852112902,0.058112245659023676,0.01646195845462803,-0.0952501930940835,19.276214992749246,41.24521498344227,30.076800693955494
9.24,0.09075513710573287,-0.03588352090056441,9.718006296148788,-0.0803700041834388,-0.07021192808647077,-0.006335431391956284,19.17340321071687,41.16986511939698,29.55012005398806
9.26,-0.09922702434277784,-0.04924320972537969,9.657209613194931,-0.021094788467466298,-0.04700348225484708,0.018785905959662324,18.68700466701495,40.90758473700512,29.64232894657708
9.28,0.07028305344781702,0.009702156553869329,9.81360544112369,0.016718641548288515,-0.054546256443008444,-0.04872950778157319,19.08671043560807,41.131548503563536,30.25941946886818
9.3,-0.16556482255891417,0.14412017257576032,9.459051944621503,-0.037429194834607125,-0.046471936142054936,-0.14155224128453092,19.211071033571926,40.98821653836535,29.89437869614857
9.32,0.033576501349833934,0.07553004493648838,9.569882931071373,0.04398933936079048,-0.022420965242471263,0.002929442700985903,18.999635236366693,40.88457853391691,29.918275928108248
9.34,0.14298823447894804,-0.15928512923817098,9.758700973947086,-0.037132618511842144,-0.018992838256844835,-0.050265495457226354,18.809019551250557,41.07103945361954,30.118638593003183
9.36,-0.32659734001527474,0.13517957400234454,9.789893011996181,0.08151716960675515,-0.042047619304107615,-0.05003050434508105,19.25408277579297,41.340098376301555,29.9986149625204
9.38,-0.1256274306564572,0.007575856801578636,9.735681747581017,-0.010544777849746358,-0.04848982916999569,-0.02428082159584548,19.741140117024212,41.203017033919004,30.20386147046334
9.4,0.039248655261664794,0.052447895503069955,9.590467644153888,0.03727620820232121,-0.016727060635162893,-0.011020554879288703,19.140874710832797,41.560465942348884,30.10381379926648
9.42,-0.05436544632515912,0.14598490311343235,9.68185297894338,0.04176143717896898,0.007061492091573676,-0.0035449676457411866,19.633794126081828,41.41568065007896,30.176167438095398
9.44,0.01453750480455706,-0.16338962994162615,9.781156022046652,-0.040652400164644366,-0.2341098265378549,-0.056039393935320085,19.100164836428213,41.40937760840447,29.972451388465135
9.46,-0.3249991563622129,0.312807921849271,9.37115656327864,-0.21521756650187907,-0.032563697186072035,0.006039521617586797,19.356091863356415,40.88434560283311,30.199727845100984
9.48,-0.4534929646208101,0.5316906398113181,7.974497500001598,-0.1549081503671932,0.06107460569623954,-0.06505702831240949,19.513278187795848,41.22104072696879,30.430825214062555
9.5,-0.672171070105783,0.5617991987016042,7.469323369090178,-0.24805861991600123,0.06115887154307921,0.07801132410795805,19.349946731416974,41.05281183421351,30.04165211895035
9.52,-0.6716976350688529,0.7915475270580493,8.628556970739997,-0.2823830313327043,0.2824409256933164,-0.09619337655366646,19.304460281114434,41.28291163316054,30.40986310881262
9.540000000000001,-0.9004383667062734,0.8968519721645549,9.478713667759454,-0.37697919550393794,0.3314463019231077,0.06972748196422474,19.574232080184135,41.178802906528375,30.190052496244345
9.56,-0.9644155927327993,0.09629766195335626,9.73288198923581,-0.41879682680077246,0.25408090100505876,0.14964396043879957,19.87804535662996,41.27270368122306,30.39090612305761
9.58,-1.079425235934696,-0.03387367332593634,10.017661910844897,-0.28249161934109807,0.11942017911777492,0.033439558763510416,19.5204578493336,41.63592759663316,30.257700565012932
9.6,-1.0634406590705228,-0.3002418390850736,11.07971753425384,-0.48131240856337615,0.09656772415121832,0.13747860343762636,19.348765783303005,41.513005342227004,30.230901199791763
9.620000000000001,-0.9828758504407736,-0.6406958017756821,12.461549524011497,-0.31935051845911333,-0.03705186191992696,0.15644084951749543,19.451461632210226,41.65812399358628,30.33493685076358
9.64,-0.7644972253826345,-0.8235176960473476,12.83177822030152,-0.3502087044782155,-0.2299083971465924,-0.12329084890304028,20.126188313056126,41.04949534989434,30.554302675037597
9.66,-0.7040079395571651,-0.9658482933589578,12.025949091725888,-0.27254263780791876,-0.34409041274408136,0.05026720597132882,19.578363488077038,41.46458485990331,30.331693869420295
9.68,-0.4291107562899887,-0.6275307768216044,10.616425191882566,-0.19557966560146123,-0.3063668757551791,-0.13215803174594068,19.42792075131247,41.69945794980335,30.401821009095364
9.700000000000001,-0.003472838118862287,-0.4679186685359585,10.16164092944686,-0.14021443003280143,-0.30014963061555966,0.012159586661374733,19.320421070872744,41.84550113087643,30.210430267480177
9.72,0.07453496441180295,-0.29279060459742656,9.79013048244097,0.031273452614174316,-0.24016795627530793,-0.0034302726588795966,19.18173761946242,41.12875117822335,30.687720505702757
9.74,-0.06912282386014093,0.11335106646164769,9.956590209908388,0.08043861575699743,-0.00800464408479368,-0.1519526391546503,19.731985895333317,41.431996948608536,30.4761759620688
9.76,0.11414567065967338,0.08500629838104509,9.777377190306945,0.025200819674799688,-0.06916658242921915,0.11249030172479192,19.826662900036364,41.78038386551807,30.352876726297897
9.78,-0.07896904476258616,-0.023800682777870424,9.864867764856514,0.0032029197727257075,-0.02908923677196685,0.014160948458077496,19.599212335439073,41.501592426484315,30.316463939379464
9.8,-0.27457494422134243,-0.0025110374153156922,9.957013483717184,-0.062186429945954795,0.028999501836860852,-0.05394140592492212,19.715740632543962,41.344559594247656,30.59221357107765
9.82,-0.15097035731008848,0.09891816152586735,9.756788684570257,0.028009515949467052,-0.023998204821077326,0.0849227656499111,19.463376420023767,41.20612908508323,30.22358018048943
9.84,-0.2544950305231027,-0.0030792411866300898,9.806206678505301,0.1263809779037579,-0.10331834830755311,-0.11073679323853901,19.801179401856167,41.36525562928356,29.952669709957007
9.86,-0.07218161808495704,0.07848210657135772,9.934663611024757,-0.02584167742770555,-0.0313615366634143,-0.07675026201109904,19.90985648383462,41.20216642515689,30.40936134046765
9.88,-0.027789794497253793,-0.06569786410486202,9.764039620328393,-0.025559014761111967,-0.06720950781041163,-0.1409673314201939,19.6909069648239,41.63583358258312,30.68894562050463
9.9,0.1711724774730339,0.1274380486288736,9.621492926099261,-0.03666534785885984,0.013028177787703845,0.10506271179236003,20.250127601641974,41.85095692600708,30.796549293869248
9.92,0.009231284851699516,0.008494287111922065,10.03716084655019,-0.03236485406966522,0.01613024420282552,0.01694078228832021,19.6686058452212,41.3469848919205,30.40010507593937
9.94,-0.05629206345706371,-0.006713766767295116,9.723628264279544,-0.16771797322034307,-0.10252647750516185,0.03656410739090969,19.962654019624683,41.72498509330293,30.44746512000088
9.96,0.0695286697420187,-0.18240733064544384,9.799050726112506,0.021302123151342767,0.04254077823493133,0.015060074035108544,20.12333594184243,41.87923875898565,30.57276609739202
9.98,-0.29533623708094625,0.00443470251620505,9.918720800334135,-0.05373313058127683,-0.0697311780767135,0.03142606566867507,19.92631844019744,41.688698013791374,30.39563415181065
10.0,-0.0017262530269720883,-0.12983459009933412,9.706980731552257,-0.09961578712750802,0.09055093742894108,0.0016846628337593662,19.92476556346532,41.315484176788736,30.593937427613874
10.02,0.06250382326643601,-0.1065939271834193,9.659055850413345,0.042191396983952925,-0.005926575870037012,0.01325528056244648,19.652204203658787,41.80717086512069,30.460346611609474
10.040000000000001,-0.20743034949358097,-0.12784507539793452,9.764659378391146,-0.06792106710251616,-0.28991564426831395,0.0034562061733770452,20.34602214985858,41.713518636061835,30.73433377742075
10.06,-0.1152704487714829,0.18915879946613953,9.086173583053752,-0.11232851681555123,-0.17060288282811104,-0.017263414938525273,20.004605996939645,41.70094920508794,30.67580071512921
10.08,-0.42326417021822843,0.8504377543364593,7.94189554488896,-0.08856695217570848,0.05147506033823304,0.037590887998875666,20.199456338343897,41.618866531435586,30.707336013995103
10.1,-0.7033243515268296,0.9097030171840673,7.359907955083588,-0.3369488686249642,0.1331316295606983,0.07576465458157401,20.257033956145058,41.782252502784594,30.47411531449084
10.120000000000001,-0.7358976585352757,0.9803864300027703,8.548475100305868,-0.4076884870630777,0.24521802519139677,0.08181609541993083,19.969861972971604,41.89481298202609,30.99603693422397
10.14,-0.6584857249658915,0.4487177836277565,9.38319423305215,-0.34722917578722734,0.3918804769297951,-0.00156943967495711,20.098295528071596,42.35696077095428,30.660287038708464
10.16,-0.9831039615748042,0.3256574412833537,9.957843590389686,-0.3240019230321074,0.23821035523876574,0.013793591101677813,20.490999193880867,41.82062712371808,30.613741875956013
10.18,-1.0002135296439596,-0.18522091502449137,10.198430428183741,-0.4974605030639178,0.21272980581770665,0.16197048603498349,19.927585329969254,42.166515536072275,30.38191583620364
10.200000000000001,-1.060051220126653,-0.4605903765576941,11.264432467232218,-0.36850978066249884,0.18127438782893335,0.07607314846517826,20.73136680507035,41.89958752319945,30.55130187802672
10.22,-1.0329501922381943,-0.7656404239844128,12.296893099683285,-0.32852757476326616,-0.02035853430300831,0.12218040761239835,20.06681111290297,41.79943300429289,30.612011747544695
10.24,-0.7121911844827207,-0.6611922489724713,12.64394197233331,-0.4392822220087513,-0.2590057870760811,0.00965595366345924,19.98736698864779,41.868272048649146,30.405382497704185
10.26,-0.7562198609677977,-0.8574898911176702,11.890009683046213,-0.20448584046906024,-0.226693919064557,-0.029039772412918434,20.327028495355016,41.548410622950776,30.534034773777606
10.28,-0.45529579065123116,-0.527259665931142,10.62687696597906,-0.12395714285649254,-0.3708938344349794,-0.010227422840146959,20.85004970139212,41.92374497468059,30.57406457824053
10.3,-0.30983982756812894,-0.30461248454342515,9.858777579146185,-0.11071550797788747,-0.20175654736853246,0.0058981891493467,19.88613080462932,41.38065712491783,30.63684156261168
10.32,0.0274775790895669,0.2464366502525745,9.989701100669226,0.07214078173788044,-0.26450409065584296,-0.04290841795706472,20.335576188591286,41.65982878940374,30.209831765096908
10.34,0.010039452634433794,-0.20753330677676687,9.70532757325272,0.06518733445949071,0.17517057046473986,0.07463601138634282,20.50831782398568,41.90104749491178,30.60977267499049
10.36,0.0945047933109479,0.12110798877441586,9.559168033824532,0.0031870755430322903,0.08504255929966069,0.007771398092247692,20.42661751194729,42.168756563519864,30.560924528762335
10.38,-0.09120196786256965,0.10757290444808731,9.93937992647488,-0.030086723419496017,-0.05079675417767872,0.1079363171137115,20.53465919484817,42.23276437995774,30.655617809939447
10.4,-0.06238499223520455,-0.14680546056324414,9.719484238102485,-0.061369673554977425,-0.001799171699903371,0.021264489244285034,20.295051834608362,41.83955395448149,30.918129716396624
10.42,-0.14745164589387688,0.09085600037677916,9.707061132886125,-0.005253810561971474,0.04221865689800781,-0.14775304907518866,20.34774976955626,41.940303710130536,31.17116110833417
10.44,-0.08331519120913339,0.010337395563147458,9.568153489556403,0.03118553518225074,0.04401962845360246,0.06036249638751326,20.48028243571644,42.145479733691296,30.85020767387789
10.46,0.015276059165382265,-0.05729715119440893,9.988912978391639,-0.022450611662438474,0.02354017559857183,-0.09357309734819728,20.26886538384329,41.59614924388359,30.399833495079672
10.48,0.06083863399744223,-0.12887225843663996,9.625262329534838,-0.13485006031572178,0.0721295422179666,0.01083202003268035,20.553358426808423,42.018054888700064,30.62178015955953
10.5,-0.14065983890131506,-0.1162931341739023,9.787013937684678,0.07312283367459421,-0.010378136798062172,-0.04948104345983069,20.494735118268732,41.72760091329982,30.856176019596855
10.52,0.07435271041267921,0.2159774514943111,9.889514438704854,0.008413393310693625,-0.02500306011456199,0.1255626620678512,20.49907637517725,41.89012798309806,30.83748419091566
10.540000000000001,0.1326765430565941,-0.029918061725102082,9.830606031960372,-0.02577746980061003,-0.023811839275476632,0.08337587564580812,20.712560628069646,41.825961483627395,30.96668362488804
10.56,0.0196121883868441,0.0638556001837751,9.772841482560937,0.048429503305397296,0.04850239391832763,-0.04750923850210549,20.2223275679812,42.045063609907714,30.714472216900855
10.58,0.1952154975069679,-0.12490792580010637,9.57580009700551,0.08847831578896537,0.018910862418158765,-0.010641460087266706,20.627842132614543,42.076789959792386,30.658586153756797
10.6,-0.12285470389242875,-0.12358235354659665,9.682833019707926,-0.1711146941692735,0.014477019941415384,0.011675884178953044,21.26241400911692,42.162403548501345,31.174275218265688
10.620000000000001,-0.17935856439737002,0.09983817710999307,9.802536040565103,0.023055818995324294,0.04471405495543092,0.04880484429369662,20.46889186632545,42.03562753751445,30.7755178927741
10.64,-0.24344642986851342,-0.19194914538618385,9.68553911160156,-0.08859895264862083,-0.1260631444712313,-0.0012508852604992393,21.061267452830663,41.996458886010394,30.525053611291153
10.66,0.14952531737870195,-0.07982565214863258,9.804403135199852,0.026946630407936475,0.015604129432509023,-0.06449369396285201,20.78893034044637,42.403116359977275,31.13057987267463
10.68,0.04852387876248693,-0.025916710671332152,9.816020111835982,0.004675632142474754,-0.20201790102354128,-0.04605351835200318,20.654041287855026,41.59487918564417,30.42484984725595
10.700000000000001,-0.259191094465569,0.33047170351485283,9.41684309709925,-0.05386478199609277,-0.0019552337085078225,0.01898318561302396,20.50460458484299,42.36993208493002,29.952338355736437
10.72,-0.4302875039591797,0.5739739917724852,7.829302751175589,-0.20650835251670258,-0.061125936104827666,0.11445579263763728,20.87775520497032,41.89537410082974,30.98290880602662
10.74,-0.7885484875345387,0.7974407034769697,7.594100841963214,-0.3647903274526425,0.2500408208972064,0.08501925181803599,21.215581737575587,42.10357595735813,31.02380020088608
10.76,-0.5183412449140107,0.8330850204435963,8.672966849271385,-0.34275468446261204,0.25554180750396516,0.028778252649902032,20.79574904639575,41.88971899067788,30.911439164839415
10.78,-0.9154623260653917,0.6836216914295438,9.568202647794152,-0.33897668905258066,0.3244530348075755,0.1259992534528293,20.891977122393836,41.800267172330535,30.50619771597579
10.8,-0.9918005368292365,0.1988105342539074,9.897286625614402,-0.3320476251522161,0.3807201263490728,0.07127370088549279,21.17599635224911,42.0858598932203,30.81123549490235
10.82,-0.942908005132157,-0.06409861175145556,10.469854782349836,-0.47330987802835156,0.24277771043629864,0.15042448031121047,21.037263673019687,42.22004061062443,30.765045814601823
10.84,-0.9472068043734181,-0.23373544786881392,10.920047800973984,-0.33134753926034843,0.12010581595430381,0.24611341631789868,20.599900216137623,42.083504363254455,30.709162832534066
10.86,-0.9041027849889234,-0.5481075234655591,12.301065932605974,-0.4022598845397589,-0.022051871682853216,0.06556730453362894,21.022611999368255,41.83961148234967,31.18317769645686
10.88,-0.9066884171214675,-0.9746854639231863,12.464131610951403,-0.29398560009154046,-0.19161831105426333,0.12327945783038527,21.383285638482334,42.83586432446621,30.599111957795316
10.9,-0.5969135990024141,-0.7677647417031948,11.880826156533358,-0.2829895579154314,-0.2587266072391088,0.014625380263609579,21.03278770520579,42.25590334120562,30.93206864797675
10.92,-0.2380407995405542,-0.8928522158994012,10.696618730169462,-0.1656232579842972,-0.34404442893533765,0.033652547880277967,20.404831230393967,42.19103761786058,31.14852668085617
10.94,-0.09107052841771762,-0.37147480304680297,9.995409500252018,-0.03849571550830952,-0.2888390130580393,0.021025830607957575,21.176922830958233,41.88079849907556,30.959112346301367
10.96,0.16118239519672753,0.19773204200951705,9.73478296109493,-0.07662084463731221,-0.3552878761792701,-0.01462101960266282,21.056908352762942,41.813629460719,31.170904028934977
10.98,-0.09134588117174222,-0.14374712607227835,9.534058258057401,-0.04379435380480989,0.022742374054052918,0.1447808213265014,20.68616274750344,41.89435238367483,31.013653792437673
11.0,-0.14875257843102968,-0.13011876545898984,9.824824042009412,0.008097755240525195,-0.010304235227017528,-0.02139558448070294,20.742560562972038,42.21858136139074,30.986589378560687
11.02,-0.04509443041195778,0.06168357378874313,9.95465213806984,0.1410950196618211,-0.023172224200005857,0.03221109232709207,21.39983568050435,41.71851468562547,30.976624765332268
11.040000000000001,-0.023313010525356646,-0.2151361818251575,9.709077785311989,-0.054791382730009684,0.010185485036408589,-0.11880521215940594,21.010088736446388,41.69679308932549,31.040704664853717
11.06,0.10130298221651382,-0.10593060358620468,9.832807191482777,0.11940803315981513,-0.08901383537792644,0.022919793802176618,20.987920094804032,42.079242534961274,30.80569695359802
11.08,-0.23309575556577833,0.041572936509810324,9.591822682389594,0.11726539822051024,0.11275619979727694,0.0655232755411348,21.2168294679578,42.0226347660959,30.590378090947826
11.1,0.15354603833527364,-0.10611430172272837,9.834865567643103,-0.00883866904209547,-0.00916604768925598,-0.03465584055474306,21.090239259900592,41.7571168250472,31.136252408243084
11.120000000000001,-0.048960947829478726,-0.058316398465316596,9.732794124270642,-0.020889151571994016,-0.011750665978331375,-0.15361332846242476,21.288123593805548,41.675756269672014,31.190406308016414
11.14,-0.08122572839369041,0.05930228523780415,9.688509845927651,-0.044523911919881504,-0.06092377260797534,-0.005319106129639506,21.23451870444111,42.278082747275285,30.97622054923057
11.16,-0.1514525250312201,0.02058553002438735,9.688756363054065,-0.0070921518199601455,-0.0015632170530443252,-0.0019689689768683156,21.014024795646026,42.01370089283695,30.788143620419817
11.18,-0.2285828006238923,0.002018207555448223,9.73276661015604,-0.08740316595357348,0.08021759341639682,0.04044450304465824,21.197978144587314,41.59549439133916,30.549759818553863
11.200000000000001,0.06878047007542974,-0.07069467351240465,9.825891997883105,-0.007574341039235856,0.05915497256592203,0.11765418212480602,21.445355008971564,41.60668767708657,30.947913201513682
11.22,-0.02120184393739153,0.01440733383227464,9.622540415856538,0.08681281643105136,0.04826626506843336,-0.025803219036018406,21.36736694128288,41.824502260680944,30.607127813964585
11.24,-0.18479530796892646,-0.04484792161197079,9.732346160211858,-0.03966510374860306,0.0297839371000363,-0.054377287419616824,21.355633743823656,42.080947947802684,30.576923561785712
11.26,-0.18540945264763392,0.024936673191094168,9.775023386640102,-0.017443458239343044,-0.024512551653756584,-0.0730150680822866,21.85804357230162,42.04136323734362,30.932557390337863
11.28,-0.07029416391481538,-0.08963184301415739,9.648115293056177,-0.10506842845603451,-0.09000979002220211,0.008884717021895961,21.58606705586834,42.163354642274086,30.757327886749405
11.3,0.17028258303472715,-0.051908276925544936,9.949810726979168,0.01944372528786261,-0.22719436066796234,0.025761255529110114,21.632523158399945,41.52695504127354,31.026453196352705
11.32,-0.283671896119947,0.1983120561878049,9.198923293195877,-0.07613947248544334,-0.11623600645857077,-0.01348723026612363,21.405193816845564,41.93094705858907,30.908140554702094
11.34,-0.6442608934917309,0.5912642727736757,7.896111844477092,-0.172731354061077,0.09351700921126681,0.08710933865530318,21.514717136532667,42.21172601802126,30.803417619489103
11.36,-0.6829789695490468,0.6526222261099976,7.213106361387039,-0.265405543756822,0.17517304950219018,0.08727202479502388,21.37503876398604,42.1813636845405,30.542314115058478
11.38,-0.8445583108377502,0.6162567557260198,8.796686938381463,-0.3332980681135592,0.3477559514426981,0.0777770496254964,21.681496965748686,41.9393147073291,30.749129414046546
11.4,-1.2545952650554075,0.6265045237170707,9.634756973666377,-0.3332735331389273,0.36696297537026323,0.03295200354559439,21.484530508567808,42.40808842106071,30.760123279458245
11.42,-1.011443296163961,0.34263576439696586,9.654151194895968,-0.3947001609680469,0.2527752625222645,0.06558093228909898,21.580295262877378,41.981884058734394,30.663939968047302
11.44,-1.0577121436250414,0.0639448481938288,10.318753636773035,-0.3841016877066801,0.10142428255877216,-0.04878531786095269,21.58112357679048,42.07671186583585,30.880904932619142
11.46,-0.9213831484042134,-0.4288420596430583,11.116778056415475,-0.3800721958254566,0.17921823262303901,0.10864001507006439,21.553620745758362,41.82762406222149,30.686240526555345
11.48,-0.7090941365089778,-0.6064988443540131,12.358967860238318,-0.29598190993522194,0.044973770562852323,0.08867736411508803,22.278299105859134,41.61973472334248,30.923831603911943
11.5,-0.6766436789222993,-0.7438466210726191,12.708206145085908,-0.2751129471447088,-0.2445823184087343,0.0864918877121722,21.42804536215116,41.5870407070983,31.02222058664875
11.52,-0.6857564447253133,-0.7565694728056676,11.767778054180758,-0.24082421015448202,-0.1664628585788352,0.08960812111974698,21.440507734196277,41.83031216966012,30.767476091885165
11.540000000000001,-0.5966668481665587,-0.7545436279106811,10.693303353024998,-0.08544817380789252,-0.27818663273242167,0.0635376630976892,21.783648414491676,41.725310757428126,31.068932696014645
11.56,0.05628224243366825,-0.35918337342150464,9.934698486505678,-0.0667922618391323,-0.2765238692049712,0.01262910255686938,21.488351238613582,41.34067219967036,30.641029068127395
11.58,-0.02289378791826153,0.013696835526559167,10.03133766516374,0.07529776132742508,-0.11824503910112467,-7.991741023484131e-05,21.575118553360547,41.50772034917212,30.70159515681031
11.6,-0.028328484970446453,-0.029138583971046968,9.627685067370829,0.03341655650319827,0.07768111039383689,-0.08725898500177016,21.39791722219868,41.665990300689444,30.941950678668913
11.620000000000001,-0.03289501045320039,-0.2803773190045301,9.964338812742595,-0.11351514473589258,0.036079857119712226,-0.03802323874136555,21.789962864246004,41.90517067395876,31.134460016748495
11.64,-0.006229828707857408,-0.010741245123182391,9.766641738144264,0.07529008579915977,0.025393023948718983,2.8263221007683234e-05,21.806075051063498,41.71470433344637,31.178035525534202
11.66,-0.0473232494308731,0.23550372472766903,9.815890288082533,0.005110574480560144,0.033983657431821544,-0.04715121455474163,21.622200740004043,41.68892897977636,31.35696497634895
11.68,-0.09883944082562834,-0.07320471225083792,9.879978931995533,-0.006117286254046677,-0.02700344603295155,0.04860904775235278,21.881923514574268,41.45675351402871,30.87958357832228
11.700000000000001,-0.09562307294884706,-0.11736925174263853,9.704370084599468,0.013880900849374624,-0.006306086983939257,-0.042517924857301825,21.276663356791666,41.68628837953592,30.93918036699205
11.72,-0.0339303924259198,0.014801827165367779,9.883709806163838,-0.023698989717424044,-0.05713902927567256,0.009978324674898977,21.564937636506464,41.9841585988548,30.721596454747143
11.74,-0.09521097253605179,0.0074853852559886025,9.455094737354258,0.010621731623336718,-0.022982386544335126,0.003993939408920152,21.705477892936464,41.69149014460744,30.668034737332324
11.76,-0.11554149392125972,0.11312821984996974,9.693601256013368,-0.03851256398058555,-0.024998032720135982,0.041776655616624574,21.47633504904582,41.27870867612469,31.023138289033476
11.78,-0.01722837267697238,-0.18094417870906654,9.669112463119072,0.0734563355240622,-0.041118322177299875,0.05104747044169811,21.34911937415225,41.32614649756212,30.78125651961198
11.8,-0.06059726609050263,0.05776563030899909,9.62957927851539,-0.009815286817263017,0.005204790158907786,0.03864195665807636,21.705759073322813,41.75360774880097,31.26226386725365
11.82,0.15047915862992262,0.040850647350175615,9.754205419430527,-0.02595503056334601,-0.02243885104203463,-0.129360372082988,21.956776762264568,41.54398981632781,30.61439010559757
11.84,-0.34811637700716147,-0.047057584432865535,9.826289996181805,-0.058495548943156436,0.027134083221118436,0.06864888888078759,22.108188359184194,41.56519633474863,31.08080009333393
11.86,0.1009808222306954,0.010642478150602798,9.864319199819917,0.01312654734891849,-0.10033923679762592,0.08863849345167586,21.679114602762446,41.4210547210689,30.72125357329284
11.88,0.11953022309971548,0.09353489779180287,9.808905210864049,0.008226426007505516,-0.009801287646437982,-0.031927457059288164,21.996126214698098,41.673692826858755,30.76412227731619
11.9,-0.2788068278889779,0.07467784560341403,9.65432768699094,0.020305476820650384,-0.20723893594531448,0.011198814760370986,21.98232306091466,41.46516666347279,31.088659228623477
11.92,-0.29364344524595626,0.1799446738451991,9.345624723342258,-0.1536434868328335,-0.12072147297676296,-0.03419780741221548,22.1311238467535,41.47686525159418,30.7951472343492
11.94,-0.5084566430370531,0.693884168385082,7.9913585574952135,-0.2726243675757176,0.020245780842438478,-0.07651433649217326,21.763421868022785,41.30137929706205,30.8315006535033
11.96,-0.8223912052248721,0.7421796971415567,7.442830055518061,-0.2148604425930998,0.061494862310809514,0.015026064253330168,21.424340952941407,41.71065680831287,30.758145524620637
11.98,-0.9051694849789348,0.7586872215073208,8.67410173227667,-0.2266540812746215,0.27240588604865473,0.04277480587898637,21.881041214570946,41.41991707355745,31.37909014689746
12.0,-1.0642379693583184,0.6042488248946275,9.572065515904916,-0.42496876450436144,0.333970021921997,0.065805842909133,21.628802534757572,41.60218093090353,30.7999508860746
12.02,-0.7946554589709889,0.2990778326382554,9.658871874905854,-0.2976046878590276,0.3097772367447363,0.03695794581782309,21.706087863318402,41.15289368063052,30.957830275896036
12.040000000000001,-0.9177185928223046,0.11300489965284789,10.10765183100999,-0.38596533647581716,0.2714556579224952,0.05299448999096567,21.814750983461984,41.83832158596205,30.894154586537486
12.06,-0.8523413007825246,-0.3871531464759519,11.026719489944245,-0.3933949391457793,0.10817549493350027,0.0938324119204779,21.812712711648377,41.71136406116953,30.99275646530963
12.08,-0.8443682202172309,-0.789810721380404,12.290265489634987,-0.38724046895371433,-0.007868471991936094,0.04088326780363339,21.934737501721536,40.92882093973203,30.78892890944979
12.1,-0.9473176950140976,-0.8571659124618262,12.781709461446972,-0.3988036741527119,-0.15324417864718956,0.10779460819980469,22.07592383819797,41.17686168701144,30.884966430507664
12.120000000000001,-0.7164322338123065,-0.7884989637282019,11.94352889943096,-0.19313220978801748,-0.21576421659293557,0.10024861926971973,21.825006925843113,41.465892265541214,31.02425574449761
12.14,-0.4051587917702081,-0.507959411858778,10.6466371779766,-0.22308987733327948,-0.3957474411359001,0.18321163868162518,22.014021147159074,41.01624034792728,30.718978695857754
12.16,-0.3991762710233484,-0.3047356291001873,10.002043928653206,-0.138796774126782,-0.339779857171191,0.08679288932303922,21.928092089519705,41.28289262979983,31.183779701870588
12.18,0.05555981162068645,-0.13206423344964546,9.830523746214729,0.05651557859321722,-0.11991805493397885,0.011586183499704876,22.15422875977932,41.398154514048215,31.202949682218485
12.200000000000001,-0.0588390477789762,0.268222790001467,9.71809136242412,-0.1159790068003036,-0.1506261493257723,-0.04021585780006072,21.88931245719186,41.232506989105126,31.05993460051558
12.22,-0.07497849690595171,0.001773037317357555,9.668952929082845,-0.09441586864009,-0.011410675789520635,0.014624841100439927,21.920186266872516,41.387034454019414,30.926939586913207
12.24,0.05531519618441898,0.12304688855988177,9.569347452322715,-0.004088054610484906,0.06733649757648408,0.016595757594981365,21.853515780896,41.07198260041993,30.188069328269403
12.26,0.02331159737832477,-0.04820573202926749,9.696582077030776,0.014597065740291126,-0.008595639932505877,-0.03379878534033965,21.90836383988579,40.68024652757168,31.00314019283629
12.280000000000001,-0.07331593989828958,0.03400310936465392,9.836777454392134,0.02608407887813543,-0.027300664287041847,0.04402388380517265,21.762885700590292,41.43482888487174,30.802740604209244
12.3,0.10911957640370976,0.07073622054220856,9.695650627435253,-0.021107909603775166,0.004765300608918024,-0.08688588088091252,21.74240605395451,41.41339374658936,30.83275729284829
12.32,-0.15972759931198768,0.11618336541051072,9.751463155508887,0.14882218011850135,-0.02418721080014679,-0.01766399013225063,22.14340631350787,41.75995709722862,30.431550269509138
12.34,0.043912272833311644,0.096884196645387,9.835971754489478,-0.016673553525950045,-0.0011490304345836506,0.030351507559044404,21.699933629998295,40.60905784193411,31.000294950262383
12.36,0.04117215095620605,0.07466364000875735,9.842482739570722,-0.01684716912616333,-0.044002862191207776,-0.020255048855525818,21.885678876758845,41.29849605131802,30.528943158118366
12.38,-0.06714557271767883,-0.06781040774329303,9.650456057740076,-0.05081920012883265,0.06352046519734345,-0.015405264205756275,22.208000069226266,40.62514504146684,30.89965023303734
12.4,0.009135962669054157,-0.09860952503472736,9.899647122774438,0.004434408991264264,0.08239589526393964,-0.011267151671536826,21.881405266055676,41.49834148608876,31.082829555897774
12.42,-0.18013362916623635,0.009912901238903704,9.91528201072266,0.03389767392280647,-0.011003419326697354,-0.05313607444126473,22.16637162209657,41.17285070857207,30.74741497169284
12.44,0.08088324230482812,0.08197536868092832,9.644418017133773,0.0692146832720076,-0.0861893652414746,0.06743405589445249,21.826727972306735,40.80610786052917,31.146107574430896
12.46,-0.05218825637315868,-0.05672648409319284,9.681139575643062,-0.09235705586641307,-0.034430590218803715,-0.0640822603153689,21.717089113042555,41.20046418529456,30.669039260632932
12.48,-0.09272676246228474,0.09782063588572637,9.922930881977543,-0.017759720301342048,-0.014039319606177852,0.01608955964459311,21.587083883231433,40.85895526187966,30.986343984416283
12.5,0.09588110710042672,0.14431400945834152,9.762377577449364,0.02380221664854865,0.027332332614192486,0.021818873896942412,22.28505377662544,41.042099863892304,30.52287682343439
12.52,-0.1145212428651311,-0.13995851028881034,9.513626646305779,0.03222345207567213,-0.06348079339024068,-0.05991731407253801,21.696993004815372,40.99758659656609,31.077145310440816
12.540000000000001,-0.19901535556362715,-0.13043048445555358,9.566249122210243,-0.0026070805317276436,-0.2612817734744933,0.001386255262844598,22.148693160196622,41.34475793985173,31.03342454777835
12.56,-0.4393164347791828,0.3002619842254062,9.27141839578254,-0.05946293541059966,-0.07144315031502169,-0.035325836969050686,21.728591658850764,41.339590379730474,30.92897087921743
12.58,-0.3911625449560814,0.6323787061571274,7.836879156078958,-0.2250913292225713,0.08692387275336581,0.12385092241511253,22.28364605351759,40.73836755514136,30.715421224241968
12.6,-0.8071413241582874,0.6869942880934129,7.2808924628893665,-0.158921594804392,0.11931398024435991,-0.008977996032699435,22.495681310764166,41.113215706688905,30.46644109108735
12.620000000000001,-0.601256180629906,0.9122066512095163,8.584756873566917,-0.2561749068084462,0.17102423653142546,0.03594932259288512,21.559550586195545,40.92185068325124,30.702147860818805
12.64,-1.1808003968484657,0.6463532093566383,9.743878898718608,-0.44408321438487797,0.4921607550452458,0.013643386288907086,21.701925674088226,40.474927177129906,31.05522513498564
12.66,-0.8013531479870191,0.3218406370829353,9.73168776569787,-0.4574773477597348,0.3271632533178331,0.013030867606129246,22.145453681275374,40.62402461643493,30.81266284797795
12.68,-1.004677903935686,-0.2023091428642232,10.31471086565857,-0.4658153050064144,0.19311180864994237,0.1924729174529376,22.080352922647812,41.3288133818645,30.401335580878147
12.700000000000001,-1.0165334856062707,-0.5350048892653473,11.264145432545222,-0.3522929666189378,0.14822559511840053,0.1270592716529361,22.1406906477714,40.830916229169326,30.49659528456341
12.72,-0.9963591583194931,-0.621744075940607,12.500214610027186,-0.44047121314601567,-0.04405674061385764,0.09551449233227456,21.81322151929625,40.96174874052538,31.05962594698408
12.74,-0.7639351487457816,-1.0658538048840391,12.783713961342471,-0.3355940530396969,-0.11058020960858954,0.03578853044598772,22.42431168812144,40.64756275681572,30.868183792389157
12.76,-0.6580059661497154,-0.6884258405881704,11.622113274874916,-0.22511365695848698,-0.2474536679019119,0.11380568884867946,21.97170376042128,40.545404051358716,30.447016481666026
12.780000000000001,-0.3314875132755757,-0.6744436472991024,10.708070404986909,-0.18052345171980938,-0.2956373490779184,-0.009064972450291357,21.647057650615963,40.65795898572017,30.31134663679287
12.8,-0.2388136161168702,0.012064165057320664,10.125916940642774,-0.07647512263976364,-0.2929799111863577,0.06687045105543767,21.87381886144707,40.56386832021807,30.57698494334774
12.82,-0.01196378862457481,0.24694995007393306,9.803598936962477,-0.06694816268092556,-0.3019749143637497,-0.05535067659633816,21.64085404967357,40.245566515907115,30.274398287216506
12.84,-0.0736334654656627,-0.051773888309702004,9.989350064409031,0.03269126240383468,0.11328569396358838,-0.041670462112540316,22.306362173189374,40.339262927828386,30.6729351887561
12.86,-0.036833474846528096,-0.042760440303757793,9.883180027376095,-0.03979271354855979,-0.0594920352160646,0.04249694316707526,21.760574242501125,40.725970803629046,31.2902197372698
12.88,0.006936212267047104,0.08946978168024357,9.848192805258334,-0.022477180463876475,-0.08460141457863567,0.04882964064934602,22.031459502168055,40.440637688745916,30.30993880714754
12.9,-0.23522020711879507,0.17438071319016452,9.9103656853447,0.011263903674359168,-0.01577159296538204,0.032848376033805665,21.794204767461537,40.51400881291723,30.63982652046331
12.92,-0.19178225065268556,-0.226563486892322,9.820004382151305,0.0031846932918508895,-0.0606883088106304,-0.0659804469454077,21.753070323323545,40.539972429335705,30.99048664851122
12.94,0.05919169128272579,-0.24436505584256238,9.480862740072558,-0.0015611988590644224,-0.006102767433616262,-0.029803611943369723,21.435594339664718,40.5343930629623,30.8464455209705
12.96,-0.009496147424646977,-0.10464417666652577,9.720103325823557,-0.04803760931860534,0.03826583091370611,0.006413924471910804,22.030605482752485,40.71003291999925,30.621896816583174
12.98,-0.05207800036232149,0.039928509980863724,9.923660163269743,-0.020972964671951526,0.056718174031753374,-0.0539568577146055,22.19153259012429,40.14668643787815,30.61329248129477
13.0,-0.02778792803215282,0.029624830860911652,9.683089039188205,-0.0028689845497778432,0.0458838432973009,0.07925776560775757,21.65228081306267,40.52268403528599,30.361712258576958
13.02,0.011709804643400525,0.09837257459806201,9.753183299371567,-0.0855051139900251,-0.021337923287140816,-0.14711681663703274,21.493341622389806,40.54241433688881,30.56550200230169
13.040000000000001,-0.09477116163712337,-0.173963703403837,9.654619642331632,-0.030751977978802726,-2.449034030484751e-05,-0.04972437092214917,22.048776922042805,40.573134601987476,30.67866975876766
13.06,-0.12339656704827752,-0.30793726355626516,9.994070711424213,0.020260792741970787,0.021472743053849455,-0.033573990172189906,21.452369791522248,39.972694580386985,30.875873156919344
13.08,-0.006498569388278214,0.07296170343625745,9.981779094890163,-0.07964619623072056,-0.10846724543652435,-0.17363661988630605,22.131345789540802,40.34816207250746,30.452104510658305
13.1,-0.14740473331380383,-0.12938355275582814,9.673935732583113,0.06639489909565438,0.031235082007191575,-0.08677374781417145,21.61249814226739,40.67402428426047,30.545587349543077
