time,accel_x,accel_y,accel_z,gyro_x,gyro_y,gyro_z,mag_x,mag_y,mag_z
0.0,0.06305706023572569,0.16627332410521745,9.668247105679653,-0.020183945423481224,0.0041795711029935624,-0.12228221074670914,19.808818486981853,41.8066092098934,30.483393954885994
0.02,0.005148897430119884,0.13295601287785375,9.725685805861245,-0.08159757540466331,0.03798821648546209,0.08312500498125129,20.314487627410198,41.892269173600084,30.413723256097136
0.04,0.06376411648032534,0.08510366815297218,9.659514724952762,-0.07492620233646749,0.13073175633830553,-0.12972074250831517,19.695849915423167,42.2602717455183,30.997724325024667
0.06,-0.24813533719013392,0.012720707288832601,10.060498603663849,-0.12127994257105365,0.059452699942200024,-0.0205453058307825,20.15514925235419,41.534664246413236,31.03631888460248
0.08,0.017049216824373215,0.2300797487710809,10.092295894253606,-0.003053396380753401,0.09941646543071163,-0.011823012095773442,20.190241065412195,42.3322146796145,30.46856740453025
0.1,0.10356688572676195,0.07105398047720704,9.862243389470489,0.12542584685618408,-0.20003093014565948,-0.00020913533882645045,19.632341165562725,41.773889752273284,30.090461207044445
0.12,0.049163172754913,0.10204653575597372,9.56453699265601,-0.094633070972944,-0.15462489439788313,0.029937288398319453,20.068346464898784,42.30985970685309,29.966569228547215
0.14,-0.4616242718586052,0.5078872167183736,8.076538031200146,-0.14587927812090265,0.034249380889916775,0.05874944063932395,20.30241225451593,41.86163723947483,30.695935206971495
0.16,-0.6947638422927116,0.8020654669165469,7.396236568210624,-0.14122614842067777,0.10425323692566563,-0.11380326447001637,20.37934182769065,41.97494929404704,30.831177989784813
0.18,-0.8070950390057103,0.8764421772202922,8.610913685066825,-0.33803974137464193,0.3758893815264188,0.0842823414870625,20.214420607166915,41.87354915069749,30.663441487213277
0.2,-0.7136585502471079,0.6669769126394398,9.601849697527804,-0.20272268790699804,0.362392993708133,-0.07212128126814887,20.503732928472825,41.73417321633363,30.633326682738147
0.22,-0.875615245732871,0.579952609763096,9.61437200219885,-0.23556408431042047,0.3272034363396312,0.157409146700007,20.292785704198465,41.82230333348505,30.42319782056784
0.24,-1.0294640305650558,-0.2426652796057936,10.30564406425094,-0.40483335040103624,0.30982777452307203,0.0633656133147291,20.35454705186403,42.32635406294901,30.87091898702017
0.26,-0.8479377972148202,-0.2755688008182724,11.166644126568702,-0.42828623467417043,-0.04742051250269175,-0.05928496317356889,20.450770491085734,41.22737815687524,31.187646502431864
0.28,-0.8364072355002131,-0.848162069782497,12.519901558316619,-0.30309469368169417,0.01552100351970715,0.034031535986338735,20.678146006570802,41.558648726258646,30.028793279384587
0.3,-0.5865347338880967,-0.6159854854228335,12.843571934601995,-0.33379696367612643,-0.25290805677742867,0.04042749780795399,20.22204722844679,41.72111122766753,30.680170247353793
0.32,-0.6787977659403365,-0.7441111369117593,11.91330241738023,-0.33113756202354366,-0.2495614371534098,0.1566514515024987,20.303373399273326,41.62336527756618,30.421776937882814
0.34,-0.43303306110722345,-0.5125236901708063,10.6020924666373,-0.07246059663279977,-0.31649173240301387,0.0631362045430242,20.273345272325347,42.40767903568431,30.27509780654336
0.36,-0.2313371569261386,-0.42668943538251225,10.090931939628414,0.007225180463255015,-0.22853475318523928,0.05308546422192501,20.398882207056182,42.3395039113129,30.392494851466196
0.38,-0.1695272422198179,0.24191973974866246,10.004062574237151,0.016663370282267012,-0.19001798768389266,0.09359162256654509,20.95086827147138,42.14702406749652,30.854531862554747
0.4,0.09441804155968642,0.2062586996088277,9.688499151337421,-0.08971485652961333,0.10588378802088413,-0.0022108215943367083,20.719197370128654,41.78498391335205,30.871151999790715
0.42,0.0891582908269834,0.13753164545178315,9.873121063052112,-0.08721446884130395,-0.04014228706994602,0.06156409707743024,20.232356089029143,42.38344711348147,31.19667251857753
0.44,0.05076701849636914,0.030572412970483888,9.894956442729423,0.013042196631436456,0.058183579222496284,0.056289583544899394,20.415769781358048,41.512793763192946,30.77003161010682
0.46,0.01481192999372797,0.13697859279426983,9.752290282457261,-0.03249032758787741,0.017166741267412397,-0.09148521201770592,20.731868692222875,42.63782249325426,30.24862832741472
0.48,-0.1623056113075621,-0.05603388519810233,9.7718215542638,-0.020581969910620612,-0.11764677025536643,0.11547376832223721,20.37213082887424,41.79552654827108,30.71322696528655
0.5,-0.01309679841480385,0.1783333488531068,9.894591627314933,0.08164723662950026,-0.06389623438922744,-0.10152263350530208,20.450431976505467,41.927684634915174,30.377231103812658
0.52,-0.0014071774790154201,0.29742213414858815,9.689986847256106,0.059988448806691824,-0.006240852514162622,0.0738024987108386,21.095375119466663,41.88256283867206,30.439455705846093
0.54,-0.07034159038324282,0.21059158399687794,9.912488557287409,0.10836070103732097,0.08842193374187958,-0.10878047776792243,20.53162640050402,41.69419483951642,30.983893165901254
0.56,0.025807143250098634,-0.05944037047111142,9.72569684395112,-0.06929674175329431,0.039779229316783585,0.05009275911137549,21.02568589115785,42.59811159659723,30.876090727208926
0.58,0.11060762852218076,0.10421259759096543,10.019428053954982,-0.020739367651503395,-0.08256256179105356,0.14464361586126295,21.139420714285784,42.26138546726555,31.002095891035122
0.6,0.3329278851815795,-0.14397123156379715,10.210674161808246,0.06192362715950846,-0.00552371710353698,-0.010973399241265846,20.566210478018668,42.3931858285499,30.72644560314432
0.62,0.07618667192477585,0.13585854667635136,9.730886479744727,0.03860587557596688,0.15633548365947725,-0.014226673213985973,20.54256942407646,41.66495903706475,31.078595816992994
0.64,0.08863255860841465,0.11759051192938083,9.940131179356202,0.11992852869407164,0.013341750113064352,0.05078299994876369,20.749907707730056,42.089543329319056,30.725034592049187
0.66,0.03883311263507492,-0.2304724509298246,9.750988714267697,0.03654025294280519,-0.01954941813042968,-0.019704734197190724,20.529224555225237,42.19445925467143,31.191552644809406
0.68,-0.23781568229485622,-0.12426757658685457,10.016143126069668,0.14360818280791643,0.041880473056716536,0.1413709027807116,20.91506132553739,42.12195231955644,30.96730444703208
0.7000000000000001,0.04602291868261747,0.007529165488434936,9.670211238637219,0.04550133512923556,0.062254480968647746,0.01941441870940218,20.83986300957413,41.694873683178606,30.80905014798832
0.72,0.059034531491153966,0.004871037928876068,9.932088013764158,0.08466255856914952,-0.029212626061004426,-0.01901271311655443,21.032405538067756,42.36758136529734,30.941883897350436
0.74,0.4194863168727929,-0.13142154031282077,9.729051654966598,-0.019263621008834282,0.04269310807785778,-0.03552141459217624,21.365849469049913,42.08302700146528,30.879873757547692
0.76,0.021145855282831624,0.10834680940282757,9.828952311635245,0.0060715408912991806,-0.01966671225031069,-0.06497113526297654,21.214405215474073,41.76138810332744,31.37090801336657
0.78,0.09523210135004187,0.0877210413410768,9.65955711150607,0.07332083028796064,-0.15318246421875636,-0.042081624006811716,21.138179796954372,41.49230200155712,30.97241846290752
0.8,-0.17772769941210087,0.36796662149726866,9.5046953214376,0.036964989211953306,-0.08135673173870385,0.0009515888712367075,20.423692824313058,42.231561320996654,30.904880458442154
0.8200000000000001,-0.5591854447604879,0.5620964609506695,7.930897220947173,-0.1138607244487168,0.07473692985995926,0.011815443399362316,21.168467477727297,42.785066536796414,30.840259015139516
0.84,-0.4020663796814804,0.9872483987079435,7.493297954265514,-0.25063380363858984,0.10767085699203814,0.017985834625590565,21.574034701482887,41.74540617205839,31.171067460921744
0.86,-0.6190415275650136,1.0782533967087033,8.609254623685539,-0.20443246577258634,0.1974207809630208,0.24059624052323597,20.175722312668956,42.10085338627744,31.136655034778684
0.88,-0.732314075845962,0.6029309633974436,9.63123749046461,-0.5197859463819587,0.37402596081742734,0.01783975605353018,21.30716402281528,42.382289493117916,30.84815932277313
0.9,-1.0613360304010344,0.3052819537208235,9.868705621755225,-0.491638752485745,0.2822102704885982,0.11349023529164548,21.073846017531054,41.66734998036733,30.58951112484437
0.92,-0.7395808533595851,0.12368114981179953,10.151732148961012,-0.34387743322487085,0.23850964001341637,0.14943907573206539,20.887850192561654,41.90304843412533,30.671364963263645
0.9400000000000001,-1.1352055716006657,-0.35081139825609436,11.204249280131942,-0.3839130381537451,0.0811040615550612,0.1497508908869623,21.404089808149962,41.78746228067527,30.892317618362142
0.96,-0.7629403038323785,-0.5963747660739089,12.6376476343581,-0.30997402332665525,0.038815165220030985,0.09070135610655651,21.697449668435713,42.339072258355735,31.357713871371814
0.98,-0.4032631385965334,-0.618994356986758,12.712829192261296,-0.3029020288048164,-0.20019537145682503,0.06513045535825479,21.43771462549586,42.43917053268335,30.883309270280655
1.0,-0.7220702506283369,-1.016345742871553,12.11347949410667,-0.201574993648203,-0.2591873527610514,0.10121504202883636,21.11421291920649,42.08675467015606,30.785308374652935
1.02,-0.468828398557974,-0.37771983724652364,10.957486066161612,-0.2296337072215126,-0.23416420201523788,0.06837749766012088,20.962769018792592,41.78373950582544,30.440368602837964
1.04,-0.15757322919316877,-0.2862049126446461,9.957685705750942,-0.041221917126549185,-0.1901924216551904,0.007830180788067995,21.309248885526074,41.90032472749616,31.427540711538374
1.06,-0.025521348117429992,-0.011723971684327221,9.675068798851145,0.07958108961556878,-0.24641398118296556,-0.11214089287933228,21.547670013895146,41.840601572680605,31.148934780771402
1.08,-0.18259951465991991,0.036614876866782664,9.905294135025764,0.09654129529484244,0.1519762986466912,-0.03009427917499356,21.189266814711285,41.73284696089488,31.221630806399055
1.1,0.0602844462209041,0.04436440325307781,9.77788887158497,0.15601657209865247,0.028493127027021226,-0.08099126227805932,21.23773308200214,41.99138061389547,31.275788405070703
1.12,-0.10934555705891573,-0.20968019551673883,10.14029048287445,0.023307383262678994,-0.07321961963565532,-0.045036966254974484,22.19071199809041,42.190093073830226,30.94216908726734
1.1400000000000001,0.12103886459527724,0.2742407341179854,9.865221131074975,0.02554333151353842,0.0326789036442476,0.00749174288877196,21.68676709529383,42.16006470219541,31.02112282473738
1.16,-0.08791363513507046,0.056198844840592774,9.739670088794723,-0.10923793481303858,-0.023724941086259325,0.03190521079974622,21.727062338386595,42.00555012139421,31.446334351717663
1.18,0.2824901607526309,0.11645031956710628,9.687926073348244,-0.03485585508538187,0.037555136538738265,0.13853395634693047,20.962579844424404,42.019859149681494,31.05748619331672
1.2,-0.06748799385043555,0.1927324655861064,10.023485743863626,-0.009481155550495947,0.0017857814254746496,-0.03530547841778603,21.20693760806934,41.97269256721938,31.183577084551267
1.22,0.0016907725691486658,-0.10317436863404501,9.774322403887373,0.08377396642072664,0.01057052676426086,0.0630969226456363,21.459711103461885,41.60210167231917,31.272041111857053
1.24,0.17202758260545048,0.12102078485528427,9.866574319919065,-0.04082508430672219,-0.06336950324396094,0.027947001832837742,21.15495867223215,42.03310638321812,31.207159962145607
1.26,-0.13462964746509326,0.009853836365180967,10.003370411766873,0.06472550148116243,0.079254592303727,0.10219982529798423,21.95319054408536,41.80347344920123,30.97908220598168
1.28,0.08411899019061941,0.17701561628247403,9.787361247210375,0.004878371227746492,-0.0817095525363274,0.04821715396967195,21.91371174175301,41.567548827645965,31.01046741419035
1.3,0.2460714131423642,-0.2690841130527243,9.853110675688976,-0.008287608633607143,-0.07815736715537462,-0.07063610704647372,21.347873653627605,42.07585066519881,31.256871034265945
1.32,-0.19112248518418412,0.03513585496380965,9.857514738526623,0.02366704768499423,0.0325520261860615,-0.12422845219684234,22.060201816698594,41.77370484211639,31.259172357297363
1.34,0.07769507877984563,-0.04042309836759424,9.962498676727414,-0.02433672791896319,0.12521331853834772,0.02834462747506286,21.54060666183238,42.01783371464178,31.37947969508837
1.36,0.08898241913726354,0.11483944259512333,9.94861165032655,-0.02717779360694991,-0.02144448227983054,-0.034633824842529304,22.335319676688922,42.19578261374706,31.196822829426385
1.3800000000000001,0.16727343076659656,0.12050662810523032,9.826982940311776,-0.12285894293425859,0.05757292420279743,-0.06852353094629479,21.61829086118041,41.648104695446484,31.21280424832345
1.4000000000000001,-0.1355426066317123,-0.05614388422330391,9.869547359224478,-0.01359656554959172,0.0855005132647659,-0.09006832783998081,21.763884310650106,41.95220036360567,30.902126027035173
1.42,-0.14806849196264144,-0.056826079626406525,9.804233148271477,-0.030997610961154488,0.06610133279705518,0.017073162319036665,22.026895635484916,41.37252876627548,30.863668956369324
1.44,0.12829123484253463,0.033400194716400586,9.592569041740248,-0.03369857420118097,-0.23047265604399034,0.11807807744850236,22.00586686921558,42.3662126011367,31.274064765782764
1.46,-0.12797323297133648,0.26261065719676535,9.419982879412958,-0.05274289388827273,-0.1759122223761057,-0.0033983325323216802,21.79120041713644,41.48923661264873,30.86932548403235
1.48,-0.34630981156567664,0.8017627402922429,8.34027303823807,-0.11915609918773505,-0.12697672459435927,0.09265864724240498,21.610791873908603,41.7327228949059,31.036919562326776
1.5,-0.5215225704341871,0.7745612496783421,7.27794544426208,-0.22698133289531883,0.14489658549492146,0.059679003919553913,21.82227379874783,42.278604886414385,31.45822886765966
1.52,-0.8338351907048034,0.39389409684721277,8.544914871484483,-0.23307645370350139,0.3473738124106483,-0.01352050843595147,21.43782324987153,41.79636764028516,31.411927968642097
1.54,-0.8161308133282685,0.6192418774811532,9.517799180487879,-0.3122204027236903,0.2188012141108277,0.1502077375535232,21.74270531091609,41.49685193318208,31.13737127419334
1.56,-0.8809670411870214,0.24132541816745073,9.955231002453674,-0.40710037910815267,0.34068073765641765,0.02039088791612953,21.378399538642224,42.05905473013556,30.958913083276734
1.58,-1.0571527127039553,-0.1946913723191417,10.333278667839306,-0.4297142214285785,0.14587059460207386,0.10662199729451736,21.190791588060193,42.041070548199656,31.01150405932237
1.6,-0.6450617355101101,-0.48272098702743227,11.148913559238341,-0.361509497115216,0.11203916181556303,0.07687876009278449,21.753783880245862,41.63245125665286,31.309420872415544
1.62,-0.779893929765651,-0.5590539151994782,12.270394590459093,-0.3123550139183251,0.024495028230634007,0.16207769438266878,22.130672330790883,41.65314566749972,31.038620371461374
1.6400000000000001,-0.9105270070484275,-0.5306462055082241,12.84339992888219,-0.2028942699598497,-0.20407178071748278,0.0038218238115015207,22.04279470486612,41.66793937493984,30.8823749176737
1.6600000000000001,-0.47500676056365915,-0.682964658665712,11.703014653515224,-0.15505794237298626,-0.23623090871621666,0.09666422327102034,21.753273145667986,41.72411720209067,31.41472365395353
1.68,-0.5300859896516564,-0.666440694206785,10.75428540616707,-0.20916397113506097,-0.3242455132223724,-0.01459643163939673,22.3144644187917,41.20572122143296,31.104444950017268
1.7,-0.05445824339494715,-0.2287213620184419,10.21083761201834,-0.09165884459207062,-0.22527884967214712,-0.011080797529027384,21.631894942833757,41.70630136198558,30.87660393717732
1.72,0.22378933685111052,-0.018863546532848954,9.705647119119675,0.0553263353688327,-0.18948324671961653,-0.26764001706550766,21.2392326543305,42.28274861172271,31.193120638391253
1.74,-0.07310234775275656,-0.05419005537447169,9.63012225847555,0.08509983335442291,0.009238075582195054,0.16190739287134315,21.1716425093668,41.46536112737437,31.340304180967923
1.76,0.19450641938664825,-0.12315440023494766,10.09691568375423,0.07542271015285941,0.12187624701064832,0.04629176996196739,21.483325566123813,41.5454158576394,30.745979068878544
1.78,0.11191713904047475,-0.2127743210127579,9.768236054074313,0.0002091625376489997,0.05467296067762266,-0.052551061445362326,22.09379792611141,41.35142666923629,30.9873295054732
1.8,0.1733090239991735,-0.00848855598391679,10.030392176891574,-0.08905169893213873,-0.046776389959471684,-0.07934917662497454,21.669213299891826,41.87594699618601,30.972487848972982
1.82,0.33451894739809207,0.07370802348801977,9.836900350220326,-0.06992022821841934,-0.0014397925598321377,-0.03217365646595054,22.008499533927182,42.038784737823946,31.18104883098079
1.84,0.013191782599569428,0.035506449497766546,9.835706777458801,0.02544751357395607,-0.0006924088809745549,0.05876596511145886,22.374367360317027,42.01719094172675,31.233677820793964
1.86,-0.06306042465362342,-0.012395039192103788,9.925761904924498,0.03066691845682592,0.011023967946890895,-0.1369063694188694,21.560434605958402,41.27370774640434,30.877188817225086
1.8800000000000001,-0.08342716444382849,-0.09186190910451715,9.727400171488034,-0.07740095300757886,0.1943381957455621,-0.005618831447075359,22.043704333207685,41.78281141507986,30.593204556569685
1.9000000000000001,-0.07237154274481573,0.1412369287527453,9.879874571524347,0.008342720816695372,0.032813891953324764,0.1377981404347005,22.07124189357322,42.047511924915945,31.348811959342807
1.92,0.038434743587884374,-0.14756978799198772,9.802776587776387,0.05234182677288374,-0.14769269275785818,-0.0800459751975853,21.660436488371293,41.754551357122075,30.70137495784194
1.94,0.10117279622249659,0.1664041870765213,9.661925983489246,-0.0813419993130358,-0.03570992287877238,0.011028877907274123,22.333730992881275,41.729195816064326,31.116644091221243
1.96,0.09150361989950287,-0.1003325528390087,9.91062231120896,0.08787479013533109,-0.13992790656218562,0.17024823614433182,21.849668955120887,41.42795812316806,30.99346926225381
1.98,0.17407748735540357,-0.06286528560295523,9.820503828968313,-0.023314836141986886,-0.019734869278437983,0.05241137222680796,21.829070715715588,41.619021890683484,31.07941616847146
2.0,0.051950283781686056,-0.17001777859235156,9.836446275733294,0.09932098344324883,-0.14404826722948214,0.014444286536409136,22.5855969981157,41.907185104866706,31.523517792245865
2.02,0.2680301115735975,-0.025210322032845497,9.678475858487877,-0.03500893343319253,-0.0603692853301321,0.0429977341181752,22.1165591122033,41.61781834652731,31.936942227798724
2.04,0.010301475014306595,0.19629686877169683,10.098710055164421,-0.07199691121631342,-0.10905411472255898,-0.025064900125727672,22.2446307429404,41.127707205942265,30.532582627185363
2.06,0.4580253749884428,0.12734421326659345,9.991507127957918,-0.029360274238128963,0.033812013347560815,0.102472346397758,22.380523222628725,41.34798178964056,31.314788217095685
2.08,0.14385010216475091,0.19676331680420528,9.958834285403963,-0.00213610923079901,-0.20709158215879833,-0.02494975171751589,21.785621077828782,41.82995624211687,30.969591444918322
2.1,-0.3010945674187568,0.4754283731841369,9.335526045436985,-0.11314436659038683,-0.0713615455241453,-0.11968652725956683,22.362112651373366,41.546749677132055,31.327518920911423
2.12,-0.5445176138267249,0.5099147116948686,7.797066840687598,-0.18475360226500676,0.03074798868835287,0.01904064111622133,21.842695231330048,41.46697863517177,31.296886185192815
2.14,-0.5011189395722557,0.7803239460963254,7.703440922739166,-0.21934853451777914,0.060037291689269634,-0.005156109554879405,21.835666728771663,41.24677056542903,31.42902385113792
2.16,-0.7653509002669074,0.7129124603778396,8.651704701724007,-0.3205710457219419,0.2975313624625904,0.06209359733199579,21.922936255443947,41.75105496367936,31.08783205082864
2.18,-0.7438687937886053,0.8750514215802802,9.536088376831431,-0.3603459767073682,0.4472805049881817,0.0756655823591946,21.823090654285007,41.87448666476046,30.731561412161987
2.2,-0.8539422684957919,0.21758869433009986,9.909062471817672,-0.5131631448129241,0.31885594248800125,0.19229953120355042,22.261221431254526,41.73579794488562,31.27267121685037
2.22,-0.960924336898531,0.18405465340836674,10.441073967910334,-0.3656226487992146,0.1851876894071468,0.1571469544998289,22.099291865601927,41.77049065160412,31.02556852769327
2.24,-1.0519469698920842,-0.16316391077773107,11.169236629687989,-0.3916614121996046,-0.0030213196213582233,0.12223770278633711,21.876004564030605,41.210769905294526,30.915660711298255
2.2600000000000002,-1.0781959516052988,-0.30102215571701074,12.599883724895843,-0.23461557362475235,-0.09669436563798972,0.09487598094029728,22.229654999422277,41.14879936847986,30.838443156787733
2.2800000000000002,-0.7988087252780833,-0.7913953186398833,12.991993400913733,-0.3781999805312589,-0.1206316487116963,0.003768797582453437,21.9483681201774,41.23221765790237,31.278560572195712
2.3000000000000003,-0.44502998271021277,-0.6230940058084347,11.776250794505286,-0.38001807038095703,-0.1685334077585321,-0.09623916263905244,21.935808291519553,41.27077020231762,31.452873999190714
2.32,-0.3517696774980276,-0.23321741049359762,10.631702905289524,-0.12219835860227016,-0.2735486998638246,0.05687537476621456,22.051827786510483,41.668390237117,30.608315061224726
2.34,-0.35938175076311313,-0.38975324283410184,10.223739528597115,-0.058018847209050955,-0.2181734523645616,0.08685018366365592,22.178940140662466,41.568548628078865,31.148419386396256
2.36,0.07597713887767718,-0.18025603712985414,9.486435105043162,-0.07063247653983598,-0.15405616605392108,-0.003125041243344175,22.15922151309957,41.35983716125113,30.844886453730044
2.38,0.10779760695932553,-0.23200150508616457,9.837581646025253,-0.10973117162530685,0.04299007935394382,-0.03511407420900252,21.93534304584538,40.74827272485278,30.511046622541777
2.4,-0.08257861543016994,0.1569068043291997,9.6453753197563,0.12030475480132174,-0.044385519644594196,0.03983766239106594,22.300186819088363,40.65037654510762,30.990023506468315
2.42,0.07305876589182919,-0.23247253120878758,9.788516929784972,0.11105827929550864,0.018044263398136435,-0.0012499150468260238,21.980755667888136,41.20790149192554,30.690112401152184
2.44,0.058731307766899984,-0.005847857940688421,9.81517698664562,-0.18155925690295968,-0.05862833529116036,0.1314308143980471,21.852083598698563,41.37864974565168,30.460929192036012
2.46,-0.12144554467459347,0.11559697805584411,9.806263343313875,-0.02936672719423757,0.006307171471857635,0.09745462565512134,21.608961883936395,41.069340676694374,30.693794809735298
2.48,0.1036681040522425,0.07777633052448711,9.777160812183109,0.12981440410879244,0.029814764830018395,0.07696310427674971,22.34479563270734,41.64615741522524,30.61390787062669
2.5,0.13411767895523516,0.11381672962762585,9.695428452555678,-0.030704691833340018,0.1309087855540141,0.06183005856574278,22.0537170228582,40.72526768686587,30.72201934786542
2.52,0.21245768647629154,0.08334347837012811,10.203786690022802,-0.03179591755199895,-0.0932298980775724,-0.09176255608385926,22.113103795960786,40.66565043982723,30.511908783031384
2.54,0.20807030780523544,0.241829871997009,10.140119300624203,-0.016206949572202624,0.04111307232434791,0.05472452765394498,22.363109253276455,40.806873294834084,30.78464482337146
2.56,-0.15665040519356366,-0.09284745711081953,9.685690126961559,-0.07906727303261195,0.11609274437176961,0.03322444682349314,21.905357075801835,40.77331899735234,30.682590239280945
2.58,-0.09067375598726841,-0.05154927076877969,10.097317512695536,-0.12285818081710331,0.06191358243790973,0.050481854629337256,21.635154138669794,41.11959700533159,31.00249358017298
2.6,0.12725529008129896,-0.06589891679062358,9.800080176429072,0.08394104830510615,0.06747090821187811,0.041945711510978936,22.06698766752111,40.8127568028168,31.060982936629596
2.62,0.12706789263683133,0.17452877177939152,9.879378120999757,-0.13322026796857567,0.049077117640085904,0.038957194088604916,22.136706266145318,40.45233690753078,30.95394610950501
2.64,0.12725715294590717,0.18505978825925956,9.850508906015463,0.02354535890815669,0.10237508673315626,0.2075649852162196,21.96341249843823,41.1614444102201,30.79811807544404
2.66,0.6279097235982082,0.11768379789777622,9.715248606590071,0.07149346195682373,-0.2886928969643918,-0.0007139252463939268,22.48202330738545,40.343133849902614,30.782743720093666
2.68,-0.08688735735233935,0.5746310413275357,9.52892060234416,-0.19285034600011264,-0.19802821853431862,0.09747739695783121,21.291372650723613,40.52677285105738,30.602941947737726
2.7,-0.21354889309046826,0.4987590558679668,8.07532725369961,-0.2378736258416536,0.03811428229609816,0.013064138141955579,22.37024639399889,40.33821920168104,30.602631520201214
2.72,-0.43038953733475316,1.0800259464781294,7.339020601882853,-0.15340748161412415,0.002522465186722722,0.12664709897744875,22.26826894650257,40.86393802456244,31.049950771203157
2.74,-0.6341227947721602,1.0584281230022976,8.465180911354818,-0.26776571397018395,0.3513156950818361,0.15363214001423714,22.164334722785966,40.834267705429156,30.303173952283323
2.7600000000000002,-0.8982592545984709,0.7858084855612861,9.51436909417657,-0.4016839751768842,0.39466730263013083,0.12242884257539301,21.02260142357501,41.32992640719626,30.798959029149728
2.7800000000000002,-0.8110825291078335,0.6643768276097055,9.60033521830489,-0.29480248962064165,0.2556637074611708,0.22768631189641986,22.40429530403949,41.00556350073157,30.718087477406414
2.8000000000000003,-1.0659237821806358,-0.19849348115166593,10.267839381972115,-0.30450982074092736,0.18932423960642603,0.038679297272968705,21.70664426826661,41.14022714847982,30.986734686064224
2.82,-0.960450703192825,-0.3757742117334442,10.993194374258149,-0.36479221289655145,0.0986576579502498,0.06595122059306571,21.85740251125348,40.77053011474425,30.37122078210738
2.84,-0.9237734000767847,-0.6857607050767166,12.368263372827156,-0.4228995642514924,-0.024687794048020836,0.11102539324200364,21.95335844769937,40.36698149129018,30.79407967800356
2.86,-0.7195503615600818,-0.6217204311818573,13.035058688177758,-0.33874124574759673,-0.14507157901502932,0.1492436622581197,22.121279155968747,40.67451080076816,30.884724950436823
2.88,-0.2262910168577073,-0.8874634406857808,12.117602908553831,-0.22291691494683918,-0.20714985175261247,0.08080619428299335,22.185091878487114,40.789729756346695,30.201788899728143
2.9,-0.6639735180063204,-0.4618409135738012,10.727929887023054,-0.1826981078330849,-0.3060606394436086,0.14482030165004828,22.255018488553052,40.798981855906,30.442174287774282
2.92,-0.06958190540013792,-0.09152656969454032,10.067046245183677,-0.013586585214912128,-0.2074255013316758,-0.02237464692684245,22.2255193306901,40.42186725398387,30.72808731638788
2.94,-0.19190738067844787,0.15428043501259972,10.17530817202788,-0.10973305600820027,-0.17368595107156656,-0.08054338671164156,22.049933504436108,40.68589699338053,30.90090850726877
2.96,-0.020789779868415015,0.09256265354922516,9.938113418053808,-0.1070697646799679,-0.040522258440447656,0.028109625240237846,22.09182037575203,40.234945554031185,30.792344381468777
2.98,0.21334258954510493,-0.09818100113511237,9.810829031018523,0.018565333361182434,0.1051334500853073,-0.000788520708527223,21.632502974746615,40.17739015526139,30.896552438020084
3.0,0.05964200286431942,-0.07702764491880469,9.646097282431933,-0.031865831035517836,-0.09686927395918651,0.04571477902686649,21.7268049905446,40.13108796821987,30.395318852566664
3.02,-0.11166171668939591,0.23744283579449998,9.919080982724712,-0.042028646102330564,-0.0019124358116107349,0.0029448281850122057,22.21283467709194,40.44859546301113,30.23311428218462
3.04,-0.05729555638899522,0.16690235058579983,9.98439856588743,-0.12760425393807978,0.07751880508066009,-0.020501484296759277,22.187143917804335,40.06317926850423,30.725595729077064
3.06,0.15193966234020137,0.044147072093368385,9.765252271322954,0.006465938359863633,-0.04923048286841085,-0.000620317879279261,22.144607540241076,40.264371487285246,30.321839935069328
3.08,-0.05955499475757049,-0.01268643186488358,9.903680413270706,0.0010433668999425766,0.02821667350753636,0.007163667109488871,21.764332856416267,40.637880425528365,30.421349962487508
3.1,0.08246878843729623,-0.2538711809667065,9.805464005762746,0.05401092364638055,0.045750469774928595,-0.017873597488624778,22.18270061135961,40.03342715370133,30.950831286726224
3.12,0.05683577598557207,-0.1106278628026658,9.83239514012015,0.010167959984072907,-0.05953929009859292,-0.010234903474257108,21.55178107792481,40.16598690768684,30.717980680849745
3.14,-0.047740052140872555,0.3367128630709585,9.486826691365652,-0.0049453058680372555,-0.00043582896955262924,-0.025269500274018256,22.213671637690425,40.313842154692146,30.4808138521951
3.16,0.3715916133987988,-0.14206833565037003,9.82673278944258,0.0932750477592753,-0.006737787265690761,0.06924988399020549,21.802221104868067,40.34145282572805,30.431759436830053
3.18,0.1450878533477017,0.0784219731831621,10.005405395361208,-0.09343504775864124,-0.03638033888742197,0.019551575337934946,22.375463063272182,40.09259923374708,30.817263567319213
3.2,-0.2537713879986411,0.20111659597927978,9.765289616665017,0.04522919141356821,0.1776256139038081,0.17425643541265748,21.403221477312396,40.45341370728517,30.68430484837943
3.22,0.07796814721541415,-0.13823840020034384,9.867878955232298,-0.12033603735965115,-0.052232976508410675,0.01705284134588464,22.3778317169083,40.369434225172945,30.245982920131336
3.24,-0.049267969715258195,0.0777065712171625,9.700818296774377,-0.05787714100006057,-0.13176226230087298,-0.036314310274649625,21.72924354955349,40.5091758939307,30.015550652294554
3.2600000000000002,-0.044655933736880815,0.5377943219206448,9.435409002247154,-0.1749576585292743,-0.12354379485263578,0.2275527465103613,21.712429120823565,40.11764020277759,31.15389934618073
3.2800000000000002,-0.5027618498824632,0.6773400842605115,8.023965794482685,-0.1099078054881294,-0.042908371335403775,0.07941035224033097,21.873034098565586,39.963162457765236,30.211990881950864
3.3000000000000003,-0.5907002680787683,1.2602027880954743,7.269617084263438,-0.24930168826314794,0.17232069119123114,0.1416083392028346,21.59348968624752,39.88709523316307,30.72633596036317
3.3200000000000003,-0.6560833906209612,0.5796524409137297,8.860752048074657,-0.3087453363316852,0.3076992635975478,0.12759087198698987,21.76866880894836,40.158863220208346,31.010445446431643
3.34,-0.7211055887769009,0.834274465457006,9.78774814826427,-0.43839252124067646,0.37215188109789865,0.14182271398757307,21.556558954804412,39.92847570924581,30.590647296045326
3.36,-1.10497237324019,0.37118673068457697,9.755806221055979,-0.40744817706769615,0.40533488239164045,0.14266684506961794,21.55473425309355,39.8457403129578,30.355289098855113
3.38,-1.0001751853761423,0.16578802322550137,10.340674096122505,-0.4522598977481834,0.43802550610109675,0.02234365764179512,21.898054748679556,39.85687916058195,30.096580812225216
3.4,-0.996169708855967,-0.23091091853915957,11.253306013523867,-0.35621203875866325,0.12287228386821994,0.13005746978528826,21.468186202412976,39.76114154700432,30.081292874223852
3.42,-0.948968252788476,-0.6854386155409233,12.504442634956614,-0.42971938231083867,-0.0783212558678964,-0.004267710998526006,21.49459780958264,40.0008516043588,30.61513184029407
3.44,-0.4670133464258656,-0.6955928708765577,12.575405025736941,-0.20799801559683137,-0.12064404844498387,0.07010593551586294,21.299354423467705,39.49228408317881,30.926172237623653
3.46,-0.5127425452145903,-1.008627547455202,12.088698953770487,-0.37006445446530056,-0.2689832310489721,0.012927670943626825,21.545885991268452,39.98189884392717,30.360927946816073
3.48,-0.573016332267815,-0.484978060888715,10.647316576699586,-0.2290424830812654,-0.2236662032290555,0.07519863785041012,22.076159110351547,40.068918611445795,30.301468038871494
3.5,-0.03484164189809852,-0.2523832213954685,10.02643476408896,0.04178166466493123,-0.3754523213199395,0.05231156194599909,21.414253896719003,39.666679332011505,30.665980970319158
3.52,0.36832342955189484,0.14579902529646516,10.289009252453758,-0.027635406097152624,-0.029506943675931513,0.04108594180738902,21.43364399018558,40.392576257998606,30.239440704032894
3.54,0.204869789082672,0.20871774876307253,9.905281007108153,-0.09361589983033089,0.06920360710816346,0.026547242956181535,21.696157381240134,39.79631062887336,30.515995579031184
3.56,-0.17790549489310198,0.10514297603145664,9.802051628682925,0.02143036719032515,-0.12130030133471234,-0.040511900633979914,21.51133793413338,39.297721295389344,30.434556385412634
3.58,-0.022635110929937696,0.07221341296974143,9.529205844086615,-0.030654418166090668,-0.048177167673622914,-0.01457526170137597,22.27537093313894,39.65689610043845,30.287482030826776
3.6,0.24003667237799342,-0.08216025049919383,10.068464620091953,-0.05769026917137293,0.06620607830854541,0.07402971209408636,21.542268096148703,39.73525935004853,30.39391059970086
3.62,-0.0561504198428171,-0.056833114547357635,9.65821854937871,-0.0771903108099038,0.0932258042128591,0.08508925079707999,21.67545052588811,39.826398976903896,30.915712237071382
3.64,0.11657291422193426,0.22801019302659964,9.709484164475075,0.21262802042194573,-0.09041782204239725,-0.08100873239699119,21.841633396912005,39.589782335012714,30.556267861910765
3.66,0.16619510801440052,0.26545031085589677,9.810297155136823,-0.013866392513810225,0.05847693878247116,-0.10981957243844848,21.81925565060722,39.33890366987291,30.69074828922507
3.68,-0.08903957073671244,0.014283434553191893,10.072461768755044,-0.13941755202496578,-0.14105049044964424,-0.0495167037403534,21.595012509183565,39.28930819624071,30.0754303829199
3.7,0.04107119659072999,0.05690041208799112,9.975985997999864,0.11702823192541506,-0.0017001899103284476,0.0833905686524188,21.45959900883702,39.39721847422418,30.667812641226742
3.72,-0.4361901010103609,-0.08569215624906491,9.836324373523961,0.0508303178832928,0.08840351315774048,0.09611630226372758,22.09782661068959,39.40153364762639,30.518685403862417
3.74,-0.10365814620014348,0.22591352679011673,9.906243809545824,-0.052484982326484075,-0.03636367975772353,-0.06435339103008786,21.44314327182429,39.20401798011116,29.86500415829497
3.7600000000000002,0.01211477729102596,0.14981252355376679,9.769942146069335,-0.06498393165146062,-0.108019172435351,0.028048201530225372,21.322792908269154,39.30039007714333,30.46468210522086
3.7800000000000002,-0.1371674772947274,0.34118261546956236,9.880948053434803,0.0555104597118673,0.015966109728316948,0.14258234998550656,21.243551915137406,39.69387903488836,30.13658463077059
3.8000000000000003,0.2948616955897453,-0.08174846157696082,9.871000511716721,-0.013518874561709096,-0.04035391499766086,0.03614836079302504,20.90105325104535,39.966460188419404,29.81460976721297
3.8200000000000003,-0.16452120669409487,-0.006701184852732571,9.959526387130369,-0.13944833638338258,-0.15991515690102653,0.11161274639248202,21.647150341913196,39.674561131769444,30.30503152886109
3.84,-0.23852760696086195,0.4318238796728824,9.52641946916908,0.05003462376282437,-0.16048320100290464,0.10215658615186382,20.677603215738255,39.81576222995949,30.41552540102667
3.86,-0.3642726525246444,0.7724386166332895,8.130540881443958,-0.20110278031322004,-0.019358423892990168,-0.01987652905533749,21.36145465923444,39.69241958310916,30.286976674470385
3.88,-0.3572988084988162,0.7975921841133141,7.356151181733824,-0.1322280405073114,0.013034448888882694,0.05310037342359249,21.282653732857476,39.62640589316673,30.196404069429857
3.9,-0.9472108051449457,0.698998166177404,8.772142672083406,-0.21184997113978332,0.2717631130973464,0.08578973411869158,21.996837537166815,39.25151702643917,30.117593145178603
3.92,-0.6764943050791751,0.8076763153129598,9.634613076303982,-0.43046326299717874,0.29104579259722785,0.10290689089184242,20.755887353967314,39.3716283667157,30.944341916632737
3.94,-0.9233929530288856,0.5052772956758839,9.684255080338236,-0.3074819250454934,0.19903614878700493,0.17121746272607521,21.015388240085365,39.17978229648923,29.83716708828175
3.96,-1.0972262976571927,-0.08744111508455862,10.2055126809232,-0.4438581912397761,0.23166693788849615,0.13565135717065563,21.22503165778472,39.2169664378146,30.44136447691701
3.98,-0.855612391042333,-0.09379057112822209,11.185373260668458,-0.5249737088830251,0.1811139911348606,-0.11772227956517627,21.186551164874288,39.28000036970734,30.171644303208375
4.0,-0.8211099135663986,-0.39993537959493325,12.544629817254648,-0.38723240961262834,-0.04475693858741356,-0.003366133691712528,21.060707127341935,39.45059655932211,29.89818851138754
4.0200000000000005,-0.8218640140418494,-0.7097978551582897,12.802014184312629,-0.27790978035399116,-0.13449710171795268,-0.0808704203764002,21.180849034023886,39.34062865942193,30.127503293148976
4.04,-0.5630194891102307,-0.7180026503890535,11.756328165929654,-0.27910116934321877,-0.2285189160495979,0.08050137323502343,20.80666907959259,39.14231986944083,29.711623230631073
4.0600000000000005,-0.44168077864682226,-0.4923565203070379,10.741282673632968,-0.19158212121640592,-0.3834384000063948,0.0664249476218379,21.27090909667486,39.18490294079018,29.93832335898693
4.08,-0.15549333216862773,-0.42636245183248606,10.097127360113632,0.001759079787119977,-0.12392106253944069,0.048493965291435376,20.446343090845264,39.27579233087575,30.09034706698433
4.1,0.1493196011781569,0.05450472187461213,9.92120263395014,0.01298704852175684,-0.24244577161513559,-0.0669196200785962,21.113922783194816,39.32362626117763,29.626540536149463
4.12,0.2879025224218028,-0.27285753169137705,9.997980727393164,-0.05824737334637142,0.0542087151395203,0.05556080038399919,20.92024225164352,38.64551040155498,30.231232091618647
4.14,-0.13567232482402736,0.18146834682544033,10.012838486013486,0.05765227427504949,0.06269114579217872,0.05871968723513968,21.383765450390005,38.755943107239766,29.777626064595523
4.16,0.36995500619843996,-0.18422398336627888,9.77086836914275,0.019825667521568387,-0.00546963453368138,-0.08913618004038683,21.583839724461516,39.389457109391046,29.61867249055134
4.18,-0.24281316992837526,0.27551297426434984,9.76757848129266,-0.1841203601096532,0.050509626879472594,-0.1049528651086654,20.936139032471477,39.0172639955603,29.71749719683672
4.2,0.027232235744662506,0.000481985905032456,9.70397019335668,0.037126468532858656,0.023436441636229186,0.004990123532979661,21.43072512694586,38.88672300324364,30.68184382866729
4.22,0.13824758097268647,0.018249952710323473,9.964822350542072,0.03438715307870762,-0.10132298179205544,0.13938367052100192,20.896572980141542,38.913480859029924,29.423076707138275
4.24,0.0921487801602549,-0.04416008591267584,10.077323016250658,0.0065090847185645,-0.019920452593756615,0.13248070566489817,20.67932176430425,38.89217081554966,30.134776536590085
4.26,-0.043404927973089064,0.006794168911688547,9.812737710813662,0.07187754358021814,-0.04094131767655464,0.047255327033603925,21.47053752183575,39.11758579000763,29.76589966238312
4.28,0.01878166244640872,0.2627797017722055,9.823785415291251,-0.04542951882448766,-0.02963087810095953,-0.049749750368505735,21.08046446672207,38.59689525614948,29.873812281075967
4.3,-0.023950140198824924,-0.32317129848026194,10.080017383534846,0.030237484161567567,-0.09280023833774784,0.07151319946164389,20.90289013991309,38.91600618858016,30.147501435271785
4.32,-0.03840471354163172,0.2415448079132282,9.935833677982252,-0.11252195283755145,0.08948252875595226,-0.028931819860678106,21.084904404516163,38.9618611183302,30.1202524089573
4.34,0.17744031455315368,0.10070352216525622,9.92543535572016,0.03553177875491238,0.12514944909600595,-0.052563027750535785,20.938077381966377,38.98654259852496,29.737097696617276
4.36,0.1035523228947571,-0.1310532471785823,9.68136252410394,0.15147947716549223,0.07835022319988065,-0.15579751237164954,20.81198151129195,38.91434455131963,29.521476412180363
4.38,-0.05393643928909812,-0.11129685895738568,9.961809210391912,-0.06961422643506558,0.10028969181103571,0.012678664876073968,20.411627742851206,38.98227024145483,30.103002033241122
4.4,0.18493998131498762,0.3014589540812304,9.720629548923537,-0.051985159899083144,-0.020847612775611712,-0.042240051185303135,20.70508808422098,38.635895594125884,30.069630129340393
4.42,0.0960949281314914,-0.09182603199140967,9.689896972109757,-0.048251158216866416,-0.04271926262395273,0.012232278464637831,20.949800384464044,38.50556585969881,29.80600641731145
4.44,0.17192931782584403,-0.12300257658939391,9.807984263484993,0.014749866935119647,-0.053394028510878364,-0.1674518272177796,20.70245441864299,39.50580951990803,30.01168591301924
4.46,0.14444432628854184,0.2205971813547094,9.772131091482697,-0.07472772046402885,0.0533048692217917,0.017737000443776543,20.98633681738509,38.659132619927675,29.73298606819378
4.48,-0.07434925163831084,0.10078293144288714,9.780970948620409,0.036593553401823506,-0.190102305370153,-0.1773340872978721,20.806983726774455,38.67518488459757,29.606284897267518
4.5,-0.2565480899858598,0.2564181548135867,9.1651955056245,-0.020495377672338375,-0.09987534695643206,0.10884761239077285,20.404593093324277,38.91509081659765,29.843276963518562
4.5200000000000005,-0.27178969834906885,0.7079589322851167,8.200266720083262,-0.12847745463798943,0.13572548364564307,0.08753021647188715,20.248331575804436,39.17199446338799,29.985523105580157
4.54,-0.48193426204371376,0.6760794271994174,7.579656259543204,-0.3770270776663488,0.1949802244907517,0.04644912232902927,20.572884974960903,38.51145238864965,29.91034810822395
4.5600000000000005,-0.734966721562652,0.9950655395088497,8.368767956803767,-0.2330950181003165,0.19611793695444135,0.12538713775295893,20.438635336603273,38.35702654958618,29.958118278400097
4.58,-0.8333697604061018,0.8346708307053942,9.795177017084422,-0.2850849910919417,0.25204550078279564,0.021741317090475498,20.6725795554663,38.26610545389907,29.565030889405076
4.6000000000000005,-0.7332781778135599,0.47690792111733804,9.724962941171961,-0.32270906194675664,0.3393144965365712,0.1079209548892993,20.33193847670089,39.09898650718527,30.25564451681221
4.62,-1.0387357083253745,0.10424915918705259,10.394552180257257,-0.36703683135081316,0.29526199830505906,0.16460805288452518,20.338380296320988,38.292151373431004,29.66628401633316
4.64,-0.8428633050063179,-0.03292877256394039,11.162427239200847,-0.36845696630734454,0.14545973600574785,-0.12957890246367182,20.814462437177237,38.578073922987144,29.721286044471967
4.66,-0.8812977657675033,-0.57551223686619,12.412413784317087,-0.2779583423014879,0.11367731325941377,0.06155505981442763,20.51847511043248,38.27614361767155,29.349372708425964
4.68,-0.7644836629521132,-0.9072234485585788,12.80177876272302,-0.163469081416953,-0.0319840855247443,0.08148483848657495,20.23860184140063,38.11804447034434,29.674869843433463
4.7,-0.40867327406065507,-0.662521242820613,12.119527353250618,-0.3158739554958572,-0.21593957215467802,0.05262695885494087,20.430055171791956,38.44829728276838,29.880804674316874
4.72,-0.26007128676935376,-0.26255812854385696,10.54683321925969,-0.08769409096241541,-0.3560072124290854,0.15767101087881122,20.813719490851057,38.2383716083481,29.93804543186385
4.74,-0.050494488556219186,-0.44932091527192514,10.1712850049154,-0.09047465593308494,-0.37641406247239295,-0.05704049097358484,20.463410336872183,38.29615845108579,30.166087165710355
4.76,0.24582182107314926,-0.004219415004098054,10.05852651434816,-0.004725478902145098,-0.2361856652320679,-0.041586943258392156,20.528336421069053,39.089662065468296,29.841843772855743
4.78,0.05315057624491386,0.11246690571521789,9.967451012081062,-0.11023980177865286,0.061491008481211765,-0.13869017697313363,20.099910220411044,38.599729609692645,29.757173138019322
4.8,0.1522929456942446,0.041914272649139134,10.208704837148513,-0.016359205713654627,0.14199853094839535,0.1182714988454859,20.60859228026899,38.736381019817806,29.5285958800936
4.82,0.0034599865109815955,-0.09734553705659717,9.780657985591295,-0.06979487184763115,0.03630852758080999,-0.013471760695659998,20.971143447886103,38.6892689809325,29.4524087185498
4.84,0.09862495287326631,0.2182786784345706,10.00359572338903,-0.029789082212945923,0.09265420956734274,-0.027880666602753023,20.013283136948573,38.39679772547357,29.93051484053832
4.86,0.030478541844847315,0.39800610830258887,9.844086404698787,-0.07736397878336122,-0.013398061464085176,0.0010637988266964478,19.87113420078989,38.28058166657452,29.913335668915888
4.88,0.06454939474890772,0.0794197188535861,10.0450109114529,-0.028668129048475478,0.05170768439206626,0.0527176871322743,20.25331628420641,38.47287731061538,29.293551666788183
4.9,0.13927355381553705,-0.08561024346040004,9.858846650641794,-0.025458276776755242,0.06675176221078795,0.031052255263709354,20.43823255401195,38.434692749559545,29.822293586961116
4.92,-0.07273310248502086,-0.18234407875802122,9.80181863272063,0.012256618882910023,-0.14346957068893962,0.20359131601678157,20.12307173474446,38.19973954079184,29.789259485055254
4.94,0.363858091352819,0.08869639718317712,10.055910830580745,-0.11610623967184981,-0.026007910178238267,0.039045191630283096,19.80941844652707,38.39582439372778,29.248853253840885
4.96,-0.1009026072249553,0.21558160149743866,9.78626570914716,-0.10341386108089924,0.07622752882084023,-0.02989340718768108,20.06768494235256,38.131727376072476,29.734058247848562
4.98,-0.13212829191815983,0.12127516197430724,9.648091136164917,0.032143570304789496,0.02558512517274237,-0.037101755314296034,20.254559761599943,38.279214608572765,29.246058049817503
5.0,0.22371663102501016,0.049639423862171926,9.782472967523926,-0.054807858780257415,-0.08473862861131996,-0.024456921431260683,19.927890451916184,38.21736415007592,28.821212109697953
5.0200000000000005,0.1687494040944404,-0.03839074776839592,9.95285494198828,0.08558973426724484,-0.1772591781795517,-0.10763776934723784,20.207044425559772,37.92485813021658,29.491126244026525
5.04,0.14361797255782327,-0.11382454490771345,10.068805812738065,0.0218952291511285,-0.022433555897650476,0.007989815561868955,20.3491530446853,37.588018633261036,29.60573901588139
5.0600000000000005,0.14425182638964199,0.17521269894873231,9.876669406294477,0.05050716126548055,-0.0003689269670409277,0.06376010796566879,20.046688822391268,37.99977070426595,29.483193366549333
5.08,0.04816298407296281,0.18706574320783786,10.057729560085104,0.1108019240315671,-0.0612942212371259,-0.041002270046742686,19.941127032256972,38.811123928957784,30.367250710913876
5.1000000000000005,-0.08458815572287472,-0.18185946800360997,9.656273761778362,-0.01822831088549294,0.01573137027709958,-0.055553504221308364,20.17322213850926,38.16567194491016,29.610263819527148
5.12,0.061370683729058954,0.2884758467271026,9.74772138305548,-0.038086502906220676,-0.16915302831349713,0.11869588597206752,19.642516140712967,38.4803337642701,29.530328168486186
5.14,-0.27409519068313115,0.4832176744281467,9.338056483230122,-0.018630679662614752,-0.043782180782082666,-0.07973414335095592,19.58788465679064,37.599461238358316,29.60472921845684
5.16,-0.23761577910489545,0.885404382746293,8.039260359992234,-0.13033997835229683,-0.1381045765389318,-0.10669800432404178,19.769304884818876,37.92384675230554,29.3332129955608
5.18,-0.5955484090840543,0.6286231674726916,7.423117473603269,-0.258445693980091,0.06603824061899195,-0.019118665587680335,19.676723393808697,37.80981145712206,29.734301567088348
5.2,-0.8556560619869065,0.6250687064331432,8.764505971533717,-0.20337324546551627,0.23617056114188006,-0.03234930553751923,19.558330940284247,38.145583693796866,29.553701468990756
5.22,-0.8991767441503681,0.6531197895093296,9.581687320508866,-0.37130587039896246,0.3460266477957825,0.12406384159808555,20.323559961130357,38.92326684123222,29.529990906191685
5.24,-0.86298819404048,0.4725246553283257,9.867396538688174,-0.38251314205604586,0.32485755010876294,0.07543995368446435,20.401146784606777,38.32545104096993,29.238338884293906
5.26,-1.0345586829205962,0.3194541234390446,10.259237416161232,-0.39340830118743064,0.25252228044671493,0.08852347162321202,19.61861415693356,38.68705640830644,28.946510013303087
5.28,-1.0482609715167883,-0.1911951542217767,11.033810727517137,-0.45506570699011484,0.07532737293888027,0.18896285449129036,19.72746956697396,38.09333047199419,29.25572759069156
5.3,-0.8144157861786323,-0.6118673774962288,12.391047446342721,-0.34956864294948836,-0.05316185062923937,0.04324677220303369,19.618884524809413,38.57070807168156,29.481369552887863
5.32,-0.6950864968017217,-0.8838977108953425,12.807994480651635,-0.2029755796823252,-0.20923431808623127,0.14131485412772607,19.98282981100663,38.77510829670788,29.253708713369623
5.34,-0.649531278164403,-0.5454422438375864,11.912945887865137,-0.21102329709028028,-0.1914027001605466,0.1806981901261136,20.017679448707906,38.1125041275172,29.465280545360695
5.36,-0.45453948496030666,-0.7201709998370313,10.737535339625664,-0.16622373866710344,-0.3621503220484411,0.01421368656073128,19.068279338494346,37.976019768674846,29.29880382424159
5.38,-0.1377134433526695,-0.05283670807819907,10.091459985197156,-0.09614091966995117,-0.21441226945329261,0.08252880756235502,19.71980524597224,37.73524219422482,29.488543839538536
5.4,-0.16721265122459872,0.007342302559023411,9.828482712748627,0.029815027130476294,-0.19154304149564086,-0.013136343439673496,19.160573823321947,38.030956788831595,29.057289421724043
5.42,-0.16111956615648326,0.28858731089267753,10.05090721009569,0.06123249713668888,0.001621664115863482,0.07430735966305918,20.055798634782793,38.141637449117,29.399280813340436
5.44,-0.0577666331878654,0.15183969350889176,9.684577905619548,0.05069291231673147,-0.044253279983235,-0.11286168906822047,19.63617053802847,38.72005334421313,29.140316610131404
5.46,0.017982927243222917,0.029450676583631263,9.751854483729517,-0.019889864636648436,-0.09666563958730946,-0.11841341838440096,19.232956613551256,37.716280106561285,28.862420300985217
5.48,0.09663613483970068,-0.027909455773918984,10.276994543633533,0.02935861955825859,-0.043573956728353416,-0.024345078618065553,19.383520420464574,38.11698308068475,29.265775935092147
5.5,0.2713034325424328,-0.0011361816019119647,9.704301296751616,0.0409954805861209,-0.019750515146866474,-0.061669360679482796,19.34527283377026,37.549412362115504,29.76775044666802
5.5200000000000005,0.1786489434803029,0.11424750385628563,9.656936798793536,-0.07053962406452337,-0.17267682336859386,-0.0337531832072414,19.56564666325133,37.96060515752796,28.86093260587351
5.54,0.026009220505485937,0.06157347443265751,9.970171511750182,0.017617290588777076,-0.009801636650099818,-0.011464493683535488,19.696934692207268,38.17729154347757,29.326092226738954
5.5600000000000005,0.047147568814596676,-0.03907171121030577,9.54843202193392,-0.15709779147267713,0.07432680260195042,0.059001014887718875,19.016251966059453,38.23319728639041,29.521436663448668
5.58,-0.10037940469567132,0.02515528845235517,9.824708913504134,0.04119002823658888,0.04754134290754043,-0.025574543392445116,19.88880259284713,38.25198984586237,29.96418299313882
5.6000000000000005,0.04722302960114151,0.06178655445787247,10.181873738761475,0.05452572909220112,-0.03221544068061305,-0.0567895982967315,19.795457926976898,38.19067654394008,29.118426647940154
5.62,0.006701204161979259,-0.26931011416222184,9.62825961167699,0.06106595943398445,0.00852022238114208,-0.021363503256917413,19.027844738679086,38.24206676334588,29.06896287065332
5.64,0.09840778405071343,0.1187252172183048,9.562705327139193,-0.02462851391271756,-0.03671234270664997,-0.05268589598549632,19.289093204634288,38.07845975748294,28.900936879682
5.66,-0.07408464153284844,-0.096958183707521,9.635122819706346,0.02817851262680261,0.01615705500017721,-0.06505041265470357,19.75742969180697,37.747489460331295,29.585607105467133
5.68,0.12790197713617585,-0.12299986048086174,9.994753935252048,0.11179653841558752,0.12050808678080237,-0.11597626101827267,19.59112441401668,37.50377754840449,28.97586293603766
5.7,0.27991083695038665,-0.20310165206660657,10.028716507997872,0.11103272362184441,0.0776374101968657,0.010210858716580899,19.097418507855487,37.89300793497983,29.11767186133369
5.72,0.03368597773147136,-0.21908387468018353,9.783111680453224,0.002812047558007954,0.04405957292695646,-0.03765292799477901,19.420070411068497,38.014684011122874,28.66706265269102
5.74,0.11025675831484122,-0.1533171254668434,9.96248186060016,0.015448972304716988,-0.03196636842877887,0.07747090544260038,20.052393055335678,38.4296175625229,29.479959584963392
5.76,0.15352159875666688,-0.056353143644573556,10.068538299126798,0.08831833585508249,0.06124537947086289,-0.10355470690442053,19.162388273312388,38.0219421834328,29.555401425460715
5.78,-0.010183070782875434,0.3429888706289852,10.082312864942638,-0.10756015114466311,-0.3336478057089432,-0.03565626662859091,18.91879766023733,37.992152126312064,29.45494534294143
5.8,-0.13890706168475186,0.31822503990976597,9.34439245862626,-0.1082390542833026,-0.11301022973586691,0.16322013494503762,19.13821860742399,38.166096771102836,28.713038155433377
5.82,-0.3819948790002889,0.7021277019146286,7.711223516462613,-0.06838571148176653,0.08236769931778859,-0.02208233987058289,19.13851094555261,37.96906658720767,29.37033903997904
5.84,-0.5588383870764088,0.8900145377214083,7.287371477004286,-0.17125588011713594,0.22014121400818232,0.04960898627866406,18.885392575028447,38.293180145621804,28.68008668943456
5.86,-0.8477829500463497,0.8496021076778363,8.5968486986846,-0.2800378096634691,0.3092585965346658,-0.008005150465099642,19.153608452781256,38.6440808143616,29.193131057556638
5.88,-0.8472923417635776,0.6638486668655251,9.60956752674768,-0.4683249775607642,0.32522596465869985,-0.006035176668331657,18.62333042215916,38.70809534487276,29.23121146212822
5.9,-0.8502281684950062,0.21781292675415992,9.818363325493896,-0.38871443235081665,0.27348562566121903,0.21854111494975825,18.778686249939405,38.08086652797563,29.256851386201266
5.92,-0.7323284588307437,0.2676391322418819,10.43384003939944,-0.439243654718745,0.2574802320929509,0.11782796194778605,19.1846847393779,38.15403224455779,29.31843555501409
5.94,-0.7810372882690426,-0.02602749474836369,11.363858477103946,-0.3601432471614385,0.032619140542577627,0.11251870408600412,18.40978751156095,38.52814692165835,29.15002353870742
5.96,-0.5279914992756858,-0.8278639900928266,12.38234640161622,-0.4160885485205837,-0.09194013757798605,-0.03212683084347473,19.186412379344922,38.01134214322274,28.558235526645348
5.98,-0.8469336169012376,-0.8835466183784156,12.994316141543976,-0.38466184761030764,-0.14997952222007846,0.11008875235492574,18.291260183443754,38.26224388070011,29.30217404358513
6.0,-0.4426417063506319,-0.7719138811020099,11.991357177610258,-0.39926081656976653,-0.23602743656532915,0.15415562613541028,18.35503212175216,37.72040817035771,29.165736984695723
6.0200000000000005,-0.3563824382568055,-0.7201458552109528,10.742447317067832,-0.07691814427377068,-0.43003480136032124,0.13459915347389556,18.704496410968197,37.970488528993826,28.860629665776074
6.04,0.1559495060263359,-0.22121215827566754,10.216090577671643,-0.1139911619407553,-0.2440290205212965,0.07737708561609356,18.920198557456597,38.41367237611907,28.655702492801336
6.0600000000000005,-0.07124474280327284,-0.05924083036099215,9.904164796850415,0.01678593377769004,-0.1491774060120098,-0.07971141831965528,19.21185985475755,37.85479018290908,29.583780318800347
6.08,-0.0759582763271164,0.3747584101709903,10.168671676564665,0.004832141264436419,-0.0007963928099721474,0.028484256289474374,18.811904106366477,38.03555702699931,29.486562346089908
6.1000000000000005,-0.03990889681660331,0.2285822891515394,9.644238324980817,-0.07505754497203744,0.1830849712462994,0.05506887203574558,18.701185938229823,37.605745032178355,29.324505232700343
6.12,-0.268584358646471,0.08188610459483223,9.782724365136199,-0.0894298683586145,-0.04622013297363896,-0.1295832688816676,18.929762451256554,38.68408535986122,28.90552187073456
6.140000000000001,-0.028863253252114154,0.20404793949795985,9.841022165456907,-0.07039863444979265,-0.022081537254015213,-0.07909596936113385,18.475558842353706,38.46592095207821,28.34915569972343
6.16,-0.06386989923305468,0.21588506365359633,9.925917903568699,-0.04923763291220447,-0.024630017959540697,0.07161179913075813,18.75980081293542,38.14841003908076,29.329649983498506
6.18,0.07255906797143115,-0.034592123208736475,10.050194073065464,0.03249546852603537,-0.0007140708468263146,0.07070343325039465,18.339500506371344,38.24951086299081,29.20639410563555
6.2,0.10126339636657392,-0.07243258668129471,9.856340214914576,-0.054678824764045855,-0.019654360972471828,-0.11114372752160442,18.705682943205247,38.22161162633669,28.98028180974628
6.22,0.3314256258823829,0.061721459445447116,9.646665552574069,0.13598679736959662,-0.10051079084536538,0.06462660944518794,18.62374249061957,38.524028391840176,29.426565995312465
6.24,0.19256357572790755,0.17924541867469163,9.986377084468252,0.08203632769198634,-0.03599112221773565,0.012147754936521336,18.403419683967478,37.95929407316533,29.34011869777004
6.26,-0.03653554834936046,0.07085905979801266,9.973243814921295,0.06562696622492813,-0.0023215521830557053,0.06357567159553636,18.676440836542753,38.34111916114084,29.135295689407627
6.28,-0.0847622007022537,-0.18654947232864955,9.568721201093089,-0.003974417685486259,0.09714290615464981,-0.0425890992575456,18.65694684617208,38.451473156261855,29.089884958326806
6.3,0.12378787572597585,-0.07042366659262633,9.85942937994938,0.11857105517903628,0.1701682455029685,0.053388762236067644,18.94469894885892,38.49995879607879,29.091711412406745
6.32,-0.14803498105309632,0.0389040704608433,9.621478725397957,-0.0113504223340843,0.1051605423387991,0.06828715808642184,18.093283744364815,37.46496488180854,29.27761046253348
6.34,0.324718814878153,0.038650159351125465,9.714513238152856,0.0026553939384315454,-0.2652854615814097,-0.021350120159178376,18.535303036842524,37.97071011825632,28.813747180654573
6.36,0.00439508415187867,0.6929883178125178,9.245921411758818,-0.07126028310133056,-0.14626943938351256,0.028583534358627892,18.31341851861675,37.85275754438319,29.19630120210208
6.38,-0.4542600869332638,0.46756699461457424,8.177833978849408,-0.11591676760627247,0.026639699517791028,-0.000250748301093201,18.78604359542999,38.21170017388114,28.79000015241329
6.4,-0.8304599812223651,0.9057807160208402,7.428027841491567,-0.1966278148182695,0.2984515396186199,0.1912219013373143,18.73514713400606,37.57062695516193,29.464970514455164
6.42,-0.5287506263432179,1.0533092959947024,8.468030677811484,-0.3433669888705572,0.2466104558548432,0.07416275279737054,18.645439350386543,37.57065750192172,29.221624761781676
6.44,-0.8681498446903118,1.0161826477878435,9.78041824067804,-0.3953620761179142,0.20355060117766546,0.02594506240195328,18.266273158305925,38.84457582360895,28.853655958031005
6.46,-0.7392554653858043,0.3364473778164524,9.631471362055944,-0.33697844308632313,0.25057671382103264,0.048805847677576106,18.727660377586357,38.38835025476363,29.082597742771664
6.48,-1.189164148819155,0.12371441790803006,10.31552291828048,-0.3413572562081576,0.2739112344924205,0.11450779508565849,17.98782675163525,38.24913397933453,28.800734222729755
6.5,-1.0148341656248896,-0.21164293771424939,11.050592612707076,-0.41447249923444496,0.15582923935375667,0.15899262910154827,17.911372800172277,38.33201087906649,29.506711955941967
6.5200000000000005,-0.8501823129446917,-0.5461429262414301,12.35324588732536,-0.47442665238685167,-0.04360559281786652,-0.005090126596047212,18.034560198595056,38.27717775901529,29.541105914402795
6.54,-0.7247843934033188,-0.7447691099313547,12.90518402234196,-0.3232813001878304,-0.10335352243759842,0.2217576484674867,18.392892361645075,38.54313395789328,29.262032479814668
6.5600000000000005,-0.6409996225806202,-0.664546021320452,12.015925382474524,-0.19763148583155404,-0.4195051749594976,0.0904996272400446,18.59135752190486,38.065133981931204,29.51924201306953
6.58,-0.29045624926543345,-0.9553020987573768,10.93331678217184,-0.03314723216553975,-0.28532647034052044,0.08337257188446176,17.48213417771286,38.32207363826777,29.097021052236332
6.6000000000000005,-0.3326639983637041,-0.19479656778465262,10.06777089915443,-0.17385522075807563,-0.2136135924898631,0.019962877608873768,18.758166998559908,38.34581922191888,29.279930940053582
6.62,0.028643077246805856,0.06892668554929489,9.939294619059229,-0.026992843962293064,-0.26959677999255444,0.0064444225513344295,18.387344695264147,37.97531898872865,29.417847201877702
6.640000000000001,0.06804434475678484,0.0166287654832602,9.794339401639352,-0.024205267114403243,-0.05772539023722159,-0.006121235344555224,17.864614983335763,38.684532851593644,29.048417285768448
6.66,0.12716582510881236,0.35702932935793363,9.88729848239342,0.10668540045736259,-0.13498361145726065,0.08133469767769703,18.352437256701204,38.18007258773309,29.071339930164065
6.68,0.15674223171333346,-0.051240102818582836,9.925922907201278,0.002379387465602543,0.12424216961080206,0.004405355940997221,18.637390115064473,38.63161395643316,29.33013207215019
6.7,-0.11869631377568036,-0.010461398359754612,9.845253522881844,-0.06304949195291991,-0.049011548276617495,0.06252876638695323,18.47721894450415,38.37374529759043,29.244168706203954
6.72,-0.18011712561034332,0.34873299533071006,9.589437427386127,0.04690214621913644,0.02307824583965838,-0.027538564251442913,18.615139465896284,38.84250109745495,28.823923202228222
6.74,0.24165152328477635,-0.07480919572747849,9.909720634449634,-0.025347889003070976,0.05029377811125309,0.019673039623423684,17.86385311355378,38.05343415589815,28.395012531608387
6.76,0.09984710179693876,-0.03251729244048082,9.914684221603318,-0.08682904550184657,0.11840509618560897,-0.05529402581795659,18.13811558115595,38.05410842386652,28.999060592906016
6.78,-0.06227298048348304,0.027946186485372507,9.757973978547808,-0.061957998045711296,-0.006542333048922645,0.09623961744121527,17.973781827710198,38.121779354503495,28.42346006675337
6.8,0.28267279632837844,0.17611017231943238,9.667341944589124,0.13505314658169643,-0.0354572345333814,-0.05753104305393368,18.755619956581256,38.4476902468869,28.75620193991883
6.82,0.0673511951439288,0.08117037610299702,10.081381872575596,0.03381569162370967,0.017980073642791514,-0.019373458319599468,18.421596911675998,38.88461498835222,28.79235123159414
6.84,0.226894577609574,-0.14389380207283936,9.93371682663416,0.013082004158940723,0.10130602074067152,-0.018622030934105863,19.07362053144546,38.914832495476105,28.885331982781956
6.86,0.06012777221151634,-0.029825284469078422,9.825637845361744,-0.013742030185903458,-0.007762939855058781,-0.021546354075532622,18.069253445243092,37.75889849679603,29.303500452640133
6.88,0.35911218873229805,-0.0411031649818317,9.689445067527878,0.026911163158909915,-0.06661518111880572,0.05918718270822028,17.98244332282639,38.54203825243599,29.370273952877586
6.9,0.31330112636648066,0.038416843216543164,9.7367277757368,0.026017695950187072,-0.11055683562365216,-0.018749332355248276,18.147599036644955,37.51872700219381,29.213349882979177
6.92,0.012655377728138982,0.11387654879447437,10.055388559517935,0.026912662115549456,-0.0865973038453919,0.10954433979058047,18.594849281513543,38.736857113326465,29.25239355380344
6.94,0.1957356426431533,0.11273086338319581,9.880649291130208,0.013613381770831476,0.06982936230549987,-0.05638563145976261,18.062696377879647,38.84977791340736,29.261547307202516
6.96,0.14680639243777213,-0.21640176310726034,9.777411939949895,0.0701598753729162,-0.01904683572301086,0.01770331024570302,18.201350207586355,38.51847582083373,28.31788747076071
6.98,0.2552947336298523,0.20959114813412844,9.936453384683698,0.006732825950054828,-0.04056406824405327,-0.05318394919844499,18.184810600876556,38.572205529703034,29.0723763076919
7.0,-0.09473851908701565,0.08788532689949352,9.737840271883051,-0.06834541266644789,-0.048697541738795674,0.036572958689860005,18.15973599577035,38.58580201692728,28.532914782915192
7.0200000000000005,0.1529077189997659,0.25767980713908595,10.039337357320223,-0.04093171681756512,-0.2007535948409506,0.0038037704767422487,17.94455137236797,38.34531176837894,29.22728409898929
7.04,-0.013757260928876247,0.46373674038764734,9.584262831037746,-0.23243477559425418,-0.1120428506189689,0.01562244004324556,18.091769101592142,38.72732210284526,28.449453705199147
7.0600000000000005,-0.6476946620810253,0.8406636296347882,7.986458163432695,-0.016542211943843838,0.018104432052048418,0.13752399639952012,18.07191387642242,38.54578330757766,29.026252068898984
7.08,-0.7509785787585997,0.899924126462978,7.31620277831111,-0.17968932634704188,0.2658089175404064,0.018273339856740588,18.11696732443106,38.91191513233671,29.24786515608426
7.1000000000000005,-1.037716309132045,1.0318761931758713,8.268149348121046,-0.3699878801219047,0.3743684809081077,0.127171785068153,18.395888723188552,38.616585238617496,28.751510048707452
7.12,-0.8913798930691027,0.7538027813770909,9.426171230501733,-0.37652591086575016,0.18236203749979804,0.03742489333963249,18.634924944558,38.41043305635467,29.3788075258149
7.140000000000001,-0.8172965738124293,0.38241970432761097,9.645621769401542,-0.432736900438212,0.31273445392823207,0.11094418123021041,17.848815825625937,38.226265373337306,29.245886242007053
7.16,-0.7246464421855958,0.39086520806703234,10.286284400857948,-0.27930895914694126,0.15886737695935985,0.015331850383241613,17.977865665427302,38.146305342964254,29.21190483247154
7.18,-0.9138136951188573,-0.16375142295206263,11.123759157434606,-0.4914619521930491,0.08546488504696814,0.05280400524517684,17.84278632570965,39.11798991777254,29.310966118604664
7.2,-0.6066765360667254,-0.4894035228237618,12.20629712659265,-0.3468018427495592,-0.0053934639464902345,0.08893615837227704,18.141555959709304,38.60582198616208,28.99786360343252
7.22,-0.9388467012002638,-0.9213879922262092,12.787368803766519,-0.31587218117957566,-0.17056361672441966,0.21928183579603383,17.919366493688297,38.86385909185398,29.15540640427699
7.24,-0.8289971677620067,-0.9231884723649897,12.013508544762697,-0.18238302344030988,-0.23173276872141274,0.07490927047035642,18.14856716170686,39.31658718999897,29.117201795831768
7.26,-0.39221589395205103,-0.531557863653146,10.811947323625784,-0.17635418772637543,-0.24264089751557893,0.1724884976017588,18.403784583657607,38.63230860291859,29.114924995615937
7.28,-0.11491111661541886,-0.2752788116288112,9.795158411976317,-0.2158740393316836,-0.2560717390519864,0.04377634027245035,17.311327642865315,38.63263554473352,28.921730775541704
7.3,0.04509578778588591,-0.042118384751247614,9.874087467542152,-0.013833837598183112,-0.2556447571685361,-0.024031318335620416,18.213304564251253,38.80115324456865,28.755377213994688
7.32,-0.2601163150059815,0.071147404941809,9.652498883454259,-0.06791216634574937,-0.04218997052277429,0.12045173919505202,17.924721264290618,38.86974550704657,29.03202166637854
7.34,0.03663199407308174,0.28829403920653934,9.995259304571041,0.01096846599174205,-0.10297789724635266,0.037776321655506415,18.198224646432717,39.44748279883841,29.020581914189144
7.36,-0.14567042507572797,0.15431037118254481,9.977621962453025,0.1125632777390245,-0.05904402231405387,-0.043204119541203526,17.788791950388596,39.37144983315345,28.922378094388094
7.38,0.15045088232450576,-0.12115127646291073,9.725295916051332,-0.12545689331742085,0.1521551271423896,0.04029285945502231,18.414560495970836,39.10863387016517,29.4043877925436
7.4,0.10498973691452723,0.03327367592855845,9.74509321963994,-0.05501670515499278,-0.05440026805714333,-0.016944606243070762,18.327930728555543,39.37804103221237,28.802626254403904
7.42,-0.09098196794910328,-0.07074497212788412,9.790809942425254,-0.03645197153376227,-0.08450341093328648,-0.14417756471284718,18.223031731350762,38.9107716277446,29.108493517123577
7.44,-0.027080037600504023,-0.008154987461284166,9.5220809907903,-0.023622332155990848,0.028994589638358,0.07519798694492132,18.28938877006185,39.075178586185075,29.515646753092305
7.46,-0.10888202828334272,-0.01204234984444641,9.910395226016087,0.060509424807893314,-0.0032773569468894873,0.08712005417314467,17.826945481281747,38.916335115248174,29.444421854377207
7.48,0.040598135409024225,-0.021646837390600776,9.81907331804898,-0.008015831317104061,-0.009669492763691905,0.14284565224942064,17.86427078518558,38.64120342149438,29.54264811952834
7.5,0.19327134807518576,-0.13827030579600924,10.00552626238518,0.03618520442903339,0.11067844748090676,0.0366607769146447,18.275730860245243,39.41116242253808,29.006740423003293
7.5200000000000005,-0.09785890695033155,0.030851797772271487,9.695238617305618,-0.04193297827988322,0.04618450066687739,-0.013654256806189938,17.819839168761785,39.23135359552104,29.425612431600822
7.54,0.12560697732767667,-0.034091145527096495,9.76713155776251,0.022244325906345314,-0.03474946987776065,0.06762420705339393,18.484322135430826,39.09926445485071,28.877922024947242
7.5600000000000005,-0.02953864275586611,-0.3894173035003402,9.634021211294133,0.06333482231582861,-0.026835693819383496,0.06873652739891797,17.954343733334515,39.115251483896635,29.120672835548902
7.58,-0.06893092483935162,0.3579458036752494,9.709356415475863,-0.049922466230281626,-0.03269398854292638,0.12787108873523165,18.203094403746153,38.68642429400104,29.15566383973666
7.6000000000000005,0.03394544600681633,0.2133154481325008,9.682702700589768,0.0636018589854886,0.07060547161851928,0.0016529282700168397,18.683721398919985,38.86748704168433,29.0443266956305
7.62,-0.10528634836290611,-0.0064451087387494,10.009396051826968,0.008927957654567636,-0.018111072208985307,-0.007418422942569584,17.84381519325835,39.28415690511983,29.115554267103168
7.640000000000001,-0.0330473958020773,0.052822857461089764,9.755260722687291,0.08340951803616894,-0.12948651268406128,-0.04866583148188956,18.078361306967093,39.047295326606076,29.0832358089447
7.66,-0.12968168388832724,-0.12574815209763424,9.878626352711693,-0.010106492505773012,0.001376024094924177,0.04530965650439013,18.376352915428594,39.163566659910494,28.94380985786813
7.68,0.34470876993745836,0.3043584316716298,9.757096392198894,0.03359334913715741,-0.3224089844405589,-0.11111962511731263,18.348160595622943,39.220464862605674,29.502859607840602
7.7,-0.1672314011605551,0.6817002955100133,9.190922960901316,-0.08705384095841552,0.06973357654506751,0.08545864636032378,17.967426004299238,39.07022819639066,29.198735081113526
7.72,-0.488842565316446,0.6989692452114026,8.031199210637364,-0.17576941530006668,-0.03383575070754996,0.09247600805169004,17.914058017350143,39.007822862551606,29.32156135239565
7.74,-0.5413928152486002,0.9834719263732606,7.500368815145278,-0.22497613862656665,0.15246976555277117,0.11122924537025125,18.002755730760654,38.83783931893859,29.318048329479396
7.76,-0.7486806899216543,0.8562353465855476,8.479705419043386,-0.26747203279534415,0.2783824648710705,0.09355004098444102,18.51098544142967,39.301054405405175,29.293241416889398
7.78,-0.8841143078324025,0.47495637014303455,9.769775264844146,-0.44910491555526805,0.2814643009170305,0.21007025535507326,17.997139574033607,39.55416706039518,29.312695167942156
7.8,-0.8328029071753098,0.335333485949498,9.71908409742355,-0.27744864421138865,0.2664127189825458,0.16789230112519712,18.108860206287662,38.89917646385685,29.201379778338936
7.82,-0.8363738434929042,0.06978919501579366,10.193558260798913,-0.5344747280412349,0.24876908081803004,0.059469210646822535,17.96225395395448,39.40883843311535,29.726794683420376
7.84,-1.0045030843234026,-0.36528914910556304,11.252296681552316,-0.4363320731031467,0.21854991549627106,0.058304362490858866,18.307128322302407,39.52428193819011,29.53788796213283
7.86,-0.9373416039991211,-0.6082631775896792,12.308582026122014,-0.3624577274683352,0.028973838305305,0.029121350784144157,18.147603765701945,39.16704735871114,29.323684961802215
7.88,-0.7730892370407767,-0.7436522633718259,12.835179639036582,-0.27680589530576594,-0.043721082061584995,0.12452939820497208,17.805706390943186,39.91463908933392,29.19267540389484
7.9,-0.9187779765690713,-0.7420741044252781,11.89050434829738,-0.12618298116289006,-0.32751369287549786,-0.00766143890712339,17.82218644353224,39.39644574805794,29.299881067548473
7.92,-0.6111623984473411,-0.5676264123998015,10.752176622144018,-0.30792535726390635,-0.2693114654738207,0.12964278468050724,17.5196550523668,39.50603119624667,29.469662184479805
7.94,0.032510206160363764,-0.45619775125353745,9.722998088276624,-0.12208543321175429,-0.2665215451881394,0.12647509152154723,17.876548234090144,39.51235809857479,29.803317592782413
7.96,0.29674515702519244,-0.057552422369190614,9.618874717333515,-0.15451251158494494,-0.1808001874802092,-0.06092622017128381,18.371140163054903,39.05391372793911,28.95049114846552
7.98,0.012644594066543259,-0.14268763985499539,9.952395050907025,0.007371648043268584,0.10821739779766794,-0.008916140094464026,18.537399071910396,39.912252188010605,29.569516265457395
8.0,0.13648354445836497,0.19667233245293003,10.015577210847358,0.0253762688375023,-0.01155918623440405,0.006246573602181029,18.35355447637485,39.347520987838706,29.718886484674734
8.02,0.09668752318153043,-0.2658470412760487,9.723426994470273,0.12430968066284395,-0.025412752491556573,0.07129873703522507,18.322193050202717,39.58783617893418,28.944245071925405
8.040000000000001,0.5118321212682857,0.22303855149753882,9.823395747174331,0.01404760706700906,0.045048559806399796,0.12570075317074075,18.12606111335568,39.862768125356276,29.34541074963059
8.06,0.21793623671518653,0.2579524095894265,9.904207887935346,0.08330188470817848,-0.12836520456743855,-0.12141192946514329,18.40500665116645,40.14647622359681,29.08999870154153
8.08,0.030812361277885024,0.004672911952606794,9.963982640248807,0.04878778111542942,-0.012763903684163372,-0.018863553814501215,18.267225582011342,39.40901485532676,29.54821222320126
8.1,-0.09333106609006385,-0.3404705631740948,9.555848409249373,-0.027643614775387623,-0.005064826696408972,-0.01495125216702602,18.731781719819637,39.62388886719685,29.321346940015026
8.120000000000001,-0.19096694803863584,-0.004196584295093571,9.727093962953244,-0.10067205600940295,-0.0640268962230194,-0.10005023911649107,18.17031199207806,40.197445071264,29.399707466116272
8.14,0.08051954538008346,0.04037237580667711,9.810113093022519,0.02562517237188581,0.08427942585174329,-0.031383251447804614,18.6124387303891,39.946761392123335,29.32542593404473
8.16,-0.0634526117926455,-0.101589732989337,9.965471029585409,-0.10690765128590228,-0.0746680238007463,0.037082670826295835,18.481751879303523,40.03396465244711,29.67488014160814
8.18,-0.1633380564396511,-0.02728275907123641,10.234764572558225,0.10214053045022331,-0.005190478627284714,-0.015900917712966783,18.450421044491257,39.542274068278395,29.53772278792698
8.2,-0.046985932636378985,0.2795292798295027,9.825799140978543,-0.0071546576527617926,0.026986791899222626,-0.11084658764555601,17.636898497429414,39.76888145435739,29.548564461527466
8.22,-0.11223220054215922,0.14973907434526115,9.648953380684402,0.09463830586335624,0.10650886711070888,0.2205562023507435,18.529946365331572,39.857350835348335,29.537836634696294
8.24,0.3030712452608847,-0.08868461715671498,9.920340211580195,-0.031016082559929953,0.004208267383936003,0.024963339890313522,18.224064758024728,39.67541266017491,29.671849491910802
8.26,0.18224596354241757,-0.18963987543931482,10.058149368431106,0.025163808980074392,0.07521151955961579,0.013377059758000624,18.140549154042446,39.45550833221612,29.43204964715442
8.28,0.048804103802507395,0.0009474023585343411,9.830413020925091,0.02070116430010166,-0.15458737956017968,-0.07734447723002848,17.840543634776722,39.82984233176877,30.031497786716148
8.3,0.049470686877189474,0.3650884743914808,9.245345469030093,-0.08738668243334506,-0.08482440187386443,0.046805055543477095,18.29571049972182,40.41440162010861,29.161534565261316
8.32,-0.3722784929704154,0.7498950640789214,8.200143365335114,-0.20100295915176766,-0.04312416278951679,0.03607234010864375,18.31969796970642,40.0509970748386,29.024986898818916
8.34,-0.702682432057973,0.7496448228603101,7.5100351581405045,-0.21496171935820438,0.0570160583867748,-0.0742902757677821,17.93125258906989,40.470664829982816,29.011027804022053
8.36,-0.5033628708775812,0.9066672660497381,8.506957201295545,-0.3771948377484526,0.2670051648749242,0.0029139902457217814,17.89296263574459,40.137215028006814,28.940703462416995
8.38,-0.7701323613497202,0.9657382919834585,9.705622188864591,-0.44609519683289706,0.26241139742527675,0.15471633811578778,18.49399688044905,39.87922234126806,29.777555419712147
8.4,-1.080514835330792,0.519432144660686,9.996132070794037,-0.29175914787321744,0.3571095809686071,0.24829411496821546,18.622855688314385,40.51703701142792,29.752114274664933
8.42,-0.9785508017125413,0.04278672390038421,10.443289356093674,-0.3404624008330925,0.27307127321335756,0.13253740537822833,18.432028792892442,40.222552571670384,29.960209561841527
8.44,-1.0562706501895371,-0.32457956195204063,11.162726866804391,-0.3800292942275615,0.09023789400377143,0.18522403709018492,18.734058596513684,40.47249261178619,29.292129194849686
8.46,-1.0583888275470694,-0.6289661561014045,12.35438553277804,-0.23050186847018406,-0.1154178121265875,0.08341523864650116,18.377019309437696,39.888507592479144,29.844072760596223
8.48,-0.5929048503382839,-0.552846192877637,13.013634483448392,-0.32781500689157544,-0.1163044567340552,0.0766921861957578,18.40101611624557,40.545672903559435,29.64886304112849
8.5,-0.28707730578821405,-0.8240393466381544,11.756183897168462,-0.14519317924432001,-0.3253634682286215,0.14917240725733324,18.156857602627866,40.57972370919856,29.69323930667096
8.52,-0.5936688751904293,-0.5686817796244267,10.798558314776596,-0.15538543927758666,-0.34999845718778766,0.173096670600216,17.97879343699213,40.37096496719031,29.842461988400565
8.540000000000001,-0.0880755484527293,-0.2894273060118845,9.874604960000484,-0.16086467983825525,-0.35162117945864696,0.12483434540555312,19.018417842862206,40.06689913867676,29.43946476793861
8.56,-0.047596385368274166,-0.025267628921729984,10.053133430453668,0.14360301438281367,-0.2175196110014608,-0.0749772306538614,18.816812850801686,40.3200731610669,30.454158790234366
8.58,-0.023068807564704405,-0.15586983218261513,9.821293172658326,0.07930331349680639,0.09276442505529212,-2.1916773643431732e-05,18.07532162672441,40.54211837183201,30.089241642882413
8.6,-0.038859088635830374,0.09844617554265023,10.050287485347122,-0.004076577325717321,0.004621934733235349,0.02581435133572214,18.555699086797805,40.45390849941316,29.541916166479577
8.620000000000001,-0.0795986154519724,0.04084940422169247,9.93371191345333,0.05953784446504619,-0.028241401932077175,-0.014475847263064681,18.495101084646006,40.58861611119949,29.386011980006607
8.64,0.05727824419172405,0.12503607041548548,9.67651696549071,-0.02527775754984301,-0.1094211197533933,0.03408931575616968,18.45929949657888,40.7366622800499,29.698720772778117
8.66,-0.07464251746165566,-0.030040045965875034,10.073694159811588,0.06718617762946565,0.046409343854738216,0.06654326087517105,18.435412354807152,40.263091251404184,29.791679485126338
8.68,0.09056852386697582,0.23312319482195715,10.09268678996416,-0.17433089239629695,-0.05353034544464706,0.08021073139663554,18.689354509374045,40.13567493203756,30.068645886716574
8.700000000000001,0.042464283582629464,-0.08151606718177672,9.992342973889883,-0.07148510002709452,0.013813821436857247,0.13144026141661425,18.837515402798623,40.495440099809635,29.410351929585033
8.72,0.014157792970038545,0.30680604260268385,9.745761820244567,0.07844448082152221,-0.021566396193748043,-0.0197080828543626,18.730099300932647,40.43221079595702,29.858666821738026
8.74,-0.08613454930623966,-0.21214547647423926,9.814097906846388,-0.013724165366418947,0.06786329146995783,-0.09730248736294854,18.59077313326767,40.7912436943659,29.326412505412783
8.76,-0.0365156995852499,0.11521550968353367,9.881814082610864,0.020565672116655644,-0.006792729402141411,0.031867594551083955,18.597532045334965,40.25741645762791,29.928162392813807
8.78,0.16330868387386338,0.12131460237899352,9.754443440100285,-0.09600892465865758,0.0005805234107711301,0.14628582733886017,18.94373768345119,40.91007308469675,29.777181862053595
8.8,0.1251375781436571,-0.06933356019113233,10.11385198586948,0.14359002467765772,0.04143103605915947,-0.030773189496554432,18.819939269577443,41.03414722675297,30.402653058575073
8.82,-0.09663328671978265,0.11365909067915189,9.881648970758906,0.09428972327882575,0.16302051366973894,0.05651352327977896,18.72114122266858,40.652168871670526,29.370100427571295
8.84,0.06489984581438388,0.24192780046402385,9.454497792933896,-0.01005139137814973,0.07163351977689159,0.05718093443544821,18.707205875851464,40.69421693357094,30.257369890739145
8.86,0.16270806850576836,-0.2825228259031097,9.865114274691598,-0.025352189264749473,-0.21377749233210994,0.01935815355084567,18.840409641377775,40.469552006991904,29.34735634557312
8.88,-0.4229317261245202,0.47251871241766874,9.329119141280641,-0.00678804647604879,-0.0938438692904035,0.02777144747391002,18.615383470293278,40.560734935660555,29.472691272794467
8.9,-0.30237971026056787,0.30147456292491226,8.045205290695344,-0.019868211884353698,-0.0007751166933402387,-0.02086881651734862,19.021613665695085,40.62464309044992,29.38010288574225
8.92,-0.6728833657006105,0.6850926092169778,7.355210410497884,-0.17286390155764186,0.09335994519062382,-0.10377567524566994,18.47185970886724,41.20352691715176,29.970740268705047
8.94,-0.646241682179056,1.0743172844806006,8.78192629041589,-0.14484739293246682,0.21756095073851106,-0.00020565475299916258,18.690843820889388,40.772470665030724,29.555952451933535
8.96,-0.9654577413837966,0.5881978809656161,9.816361513017446,-0.42456389684061147,0.24520249068957706,0.06582407560686447,19.0174712332446,40.42064952649331,29.51601266620599
8.98,-1.1956602272815013,0.2210249966327007,9.889000209984003,-0.4464251771601388,0.33716762787720167,0.1847994927748854,18.51432518987868,40.91705606304223,29.993812868545337
9.0,-1.1941313656824744,0.020309340652297822,10.215109171639115,-0.48417058385400114,0.1367924200157903,0.09726539532364684,18.402526932620205,41.11136032353828,30.081004152494756
9.02,-0.9177151701826163,0.01307895943048637,11.166493632379433,-0.3518391161490185,0.20407451069005347,0.06356586229932124,18.913777895784236,40.878744944236125,29.96993178290755
9.040000000000001,-0.8120104926441969,-0.8502175230553277,12.41103739219158,-0.3422172809256399,0.027814135940419905,0.02827297864373464,18.406524655412547,41.34989538357295,29.921831233385877
9.06,-0.8674789762336914,-0.8876388164913604,12.709178904156477,-0.319128927247611,-0.15307199325202558,0.13244358538501405,18.546607700808067,41.16501128165708,30.53170240870217
9.08,-0.4777009330421275,-0.5053275772685151,12.02454726990128,-0.18370152363424608,-0.2489933639086051,0.16922576766816874,19.18418954208339,40.63950815241594,30.039323515137582
9.1,-0.6331117484579022,-0.2968098344437642,10.801777769717516,-0.07612885025592349,-0.33490976118906424,0.12814605305181528,18.916910832760287,40.8111622265208,30.249831788447477
9.120000000000001,-0.18243290375341242,-0.3126216749375899,10.31117514007165,-0.19843305427903912,-0.25790866824142805,0.07271332087751668,19.385296824990107,41.06665893389524,30.063559307634762
9.14,-0.1316524299643686,-0.13585790537899653,10.081629456657998,-0.03977290209258371,-0.12552509961532013,-0.10567095597872048,18.659676630155754,40.52098343218256,29.703882736654613
9.16,-0.04777541617032387,0.3643765252713738,9.757148762361481,0.0665107695592295,-0.04773673466918603,-0.021375568213282854,19.014567887038794,41.143643072031935,30.210777526615203
9.18,0.057109800697462104,0.2891663587623795,9.983044756176346,-0.03008040128939365,-0.11000440666890478,0.15104781716672563,19.184420682865746,40.536000405283986,29.861638288973836
9.200000000000001,-0.07906200479259286,0.15184204816433494,9.71735699253583,-0.05486545572686155,0.0577413691142558,0.08914628689364186,18.7353381727579,41.39308405541561,30.043646578471588
9.22,-0.0076833316344737945,-0.071860352340613,9.964389815141129,0.0813903070737796,0.029327448068285036,-0.11031274136760437,19.418120707019224,41.379651404529774,30.1751248548691
9.24,0.2009439213821661,0.04264559887429449,9.782507870185984,-0.0917125052292985,-0.07901491010808845,0.0008307107600546461,19.284043943706834,41.28015200105188,29.513634969974863
9.26,-0.0365337804284723,0.025945987843275387,9.706512016493663,-0.017618485584332873,-0.05000435281855885,0.03223238244957791,18.670447441813707,40.947032035143984,29.625758819143577
9.28,0.17535381680977125,0.09962769569233668,9.90200680140461,0.02964830193536064,-0.05943282055376055,-0.05216188472696649,19.164445927835555,41.22176067304035,30.393987019218034
9.3,-0.11945602819864272,0.26765021571970044,9.45881493077688,-0.0380364935432589,-0.049339920177568664,-0.16819030160566364,19.314228437747445,41.03741388911447,29.934553909352633
9.32,0.12947062668729242,0.18191255617061047,9.597353663839217,0.06373667420098811,-0.01927620655308908,0.01241180337623238,19.044231835955014,40.9027296172699,29.961296608761717
9.34,0.26623529309868504,-0.11160641154771374,9.833376217433859,-0.03766577313980267,-0.014991047821056046,-0.054081869321532944,18.800227656920033,41.13071487291326,30.208624896845432
9.36,-0.3207466750190934,0.2564744675029307,9.872366264995227,0.11064646200844395,-0.04380952413013452,-0.053788130431351305,19.350790303159815,41.46199430849108,30.05547460669309
9.38,-0.06953428832057151,0.0969698210019733,9.804602184476272,-0.004430972312182946,-0.051862286462494606,-0.021601026994806854,19.953814694041167,41.285645885488904,30.308916773361908
9.4,0.136560819077081,0.15305986937883742,9.62308455519236,0.05534526025290151,-0.012158825793953613,-0.0050256935991108784,19.197655664883335,41.72750853779694,30.1807464919425
9.42,0.019543192093551102,0.26998112889179043,9.737316223679224,0.060951796473711226,0.017576865114467093,0.004318790442823518,19.807948596958912,41.54162748244778,30.268083615106228
9.44,0.10567188100569633,-0.11673703742703266,9.872892301863775,-0.04206550020580545,-0.23085427458332758,-0.06129924241915009,19.135027507122526,41.5288990572388,30.010339885050602
9.46,-0.26311871196368747,0.3917331544880771,9.468610016397491,-0.23801986473171738,-0.007183691835952508,0.010736378673075638,19.449024601457015,40.86781000986637,30.29134353449784
9.48,-0.3708952709966231,0.5957470032705416,8.05401080647372,-0.14149681404723566,0.07669592141255134,-0.0834183788684508,19.63956953964842,41.28393121515947,30.577130559272682
9.5,-0.5968413871675454,0.5947634159406405,7.5840283825212875,-0.23897429470912818,0.04529618369019878,0.09067691008847922,19.429441911458696,41.06894948958745,30.0875872259835
9.52,-0.5566641732190587,0.881948826386197,8.720478881443773,-0.2660456409190774,0.29829684217452423,-0.1310375077537838,19.36659614218156,41.351931460383106,30.54478220682895
9.540000000000001,-0.812805741407237,1.0521986687120877,9.536289998140708,-0.3723771075896805,0.34852946166189147,0.07338513075772045,19.69779973146516,41.21720633909298,30.266958877144987
9.56,-0.8742875128705433,0.1210953296181837,9.804466927633463,-0.41725324228278315,0.2555598764831959,0.1714317527439539,20.071532663546115,41.330047384039574,30.514975022416287
9.58,-1.01178154491837,0.04515790834257955,10.055575926128661,-0.24436452417637256,0.1049922153082276,0.025549448454388016,19.618493064811947,41.77959736057559,30.345426844114122
9.6,-0.9980688457926976,-0.20102555103283043,11.156473364542096,-0.49539771948603784,0.10468872554238537,0.15622505649248736,19.397802172711184,41.621520337967354,30.308896544585888
9.620000000000001,-0.9158525960753623,-0.5570034557259966,12.574912542588137,-0.3003412612836498,-0.029167491692160624,0.18177684019930884,19.520076538774646,41.798550859325175,30.435920631688163
9.64,-0.6726636611112856,-0.7469115376228198,12.932336922842849,-0.3508277323509664,-0.2387330906945903,-0.16490934819050113,20.35737077179485,41.033454363353385,30.707118528775734
9.66,-0.6366374739817731,-0.9248247842623326,12.148009371503463,-0.2695793170740251,-0.3578587009879804,0.05599676241769269,19.66645791505733,41.54806334170025,30.4258597070732
9.68,-0.3404175105830963,-0.5405471745333995,10.687338634568597,-0.19233620809007074,-0.29968017895198074,-0.1672946331603648,19.472255929397793,41.83746024868715,30.510532858949873
9.700000000000001,0.13878918584050087,-0.41062158784643626,10.282023923282287,-0.14426594414537025,-0.295645788496322,0.01838645997781054,19.33171699588379,42.01587888576966,30.268321172665576
9.72,0.18066870551475372,-0.2784882557467832,9.864331355647531,0.047841815767717906,-0.23842693675514384,0.004462159176400502,19.152183553815668,41.115865874841795,30.86197369414246
9.74,0.0010964701748238312,0.22918883307705962,10.080737762385485,0.1092982696962468,-0.0012558051059921018,-0.1811907989433129,19.83380095176409,41.490907930438865,30.59459618872458
9.76,0.23018208832459175,0.19375787297630637,9.856721487883682,0.04025102459349961,-0.07770822803652393,0.14936287715598992,19.945941419605834,41.922437465958346,30.4375392338994
9.78,-0.011211305953232706,0.05774914652766197,9.966084706070642,0.012753649715907135,-0.027611545964958562,0.026451185572596868,19.655410564641162,41.570055727715626,30.389104719044187
9.8,-0.2557186802766781,0.08436120323085539,10.08126685464648,-0.06898303743244348,0.04499937729607606,-0.05867675740615265,19.79484240746211,41.36993453379747,30.730888067234037
9.82,-0.10121294663761062,0.21114770190733423,9.83098585571282,0.043761894936833814,-0.021247756026346657,0.11490345706238887,19.47314871746645,41.193129134373464,30.26720793586672
9.84,-0.23061878815387837,0.0836509485167124,9.892758348131627,0.1667262223796974,-0.12039793538444138,-0.12967099154817374,19.88915510974582,41.38833353720376,29.92569720898073
9.86,-0.002727022606196297,0.18560263321419718,10.053329513780946,-0.023552096784631934,-0.030451920829267873,-0.08718782751387379,20.01874620306865,41.18083232504306,30.49370531643312
9.88,0.05276275687843276,0.005377669868922484,9.84004952541049,-0.023198768451389958,-0.07526188476301453,-0.16745916427524238,19.738797108793843,41.71934120999316,30.84034589489149
9.9,0.30146559684129237,0.246797560786092,9.661866157624077,-0.037081684823574795,0.025035222234629808,0.14007838974045003,20.431554761817125,41.984735537153796,30.97202782254033
9.92,0.0990391060646244,0.09811785888990258,10.181451058187736,-0.03170606758708153,0.0289128052535319,0.02992597786040026,19.698379465616387,41.35132640638598,30.473667439333337
9.94,0.017134920678670368,0.0791077915408811,9.78953533034943,-0.20089746652542884,-0.1194080968814523,0.054455134238637126,20.059662615865825,41.82044887777559,30.530080379837393
9.96,0.17441083717752337,-0.1405091633068048,9.883813407640632,0.03537765393917846,0.06192597279366417,0.02757509254388568,20.25423497502471,42.0099550207524,30.68393792334298
9.98,-0.2816702963511828,0.09304337814525632,10.033401000417669,-0.05841641322659602,-0.07841397259589188,0.04803258208584385,20.00168107018848,41.76853551418047,30.459773186678827
10.0,0.0853421837162849,-0.07479323762416766,9.76872591444032,-0.115769733909385,0.12193867178617634,0.010855828542199209,19.993456954331652,41.2988425190937,30.704921784517346
10.02,0.16562977908304502,-0.04574240897927412,9.708819813016682,0.06148924622994116,0.0013417801624537361,0.025319100703058102,19.64647223463181,41.910343558400434,30.53522250654538
10.040000000000001,-0.17178793686697624,-0.07230634424741815,9.85227149729439,-0.0761513338781452,-0.3006115467464014,0.013070257716721307,20.50746263960156,41.79023981937597,30.875015872852163
10.06,-0.0009578274752750082,0.2371717515091628,9.11238129111638,-0.10940855262380758,-0.17973267388850123,-0.01839229202206444,20.074412404839588,41.771558926171885,30.79917954591508
10.08,-0.333109277993396,0.994180896426968,8.013258362582922,-0.058570316307879774,0.06469648971504321,0.044891516520655636,20.311698263839986,41.66605629668996,30.83594968393325
10.1,-0.6357829889438537,1.0296431890437194,7.4472591150130505,-0.3500871055953319,0.13526213121222264,0.08786857318049918,20.37739718541667,41.867459748361036,30.54179625580272
10.120000000000001,-0.6369142025520871,1.1179974550670981,8.620376543401113,-0.4226774605820441,0.25176821654712467,0.0914743322132128,20.01216406345054,42.00540205653291,31.191592573454106
10.14,-0.5103649392317597,0.4920309330410896,9.416890704756577,-0.3351895829437923,0.4240721804202507,-0.015736021291256855,20.166443811814126,42.580399659014425,30.769321755251234
10.16,-0.8976479739230494,0.4077950537806805,10.085668929075807,-0.2987596125719518,0.2357216942753296,0.0016187910725516813,20.65106813492548,41.90736704782131,30.708579519165223
10.18,-0.9127669120549495,-0.14402614378061424,10.281536572802215,-0.5130756288298972,0.22162924868314227,0.18621310754372933,19.94055347002483,42.33718400567303,30.41625925736962
10.200000000000001,-0.9938320471128602,-0.401461222873606,11.38736703076507,-0.3543944346099412,0.21057205513952915,0.07946823777692724,20.93904188955579,42.00105282820506,30.625477568817807
10.22,-0.9784455233221379,-0.7131842334869101,12.369092012177871,-0.31181258166384074,-0.008300832171012306,0.13895128781793745,20.102118745786395,41.87346130463402,30.698874533186853
10.24,-0.6072811099863933,-0.5440047287792245,12.697541612882588,-0.4621696292641361,-0.27510482810645115,0.0012741550176232908,19.99659594124936,41.95718490031182,30.438121859918727
10.26,-0.7019023757450636,-0.7893767814607229,11.978085110653868,-0.18450832040045195,-0.21111308388857497,-0.04313696056261638,20.414967036596327,41.55510644076922,30.59649574503146
10.28,-0.37314880353464935,-0.41520828592032155,10.700403352189213,-0.10280805465885984,-0.38033887730173105,-0.01488137202812264,21.062550597252514,42.02209659092571,30.644116577154353
10.3,-0.24416955097108245,-0.20648885785576962,9.903444735406445,-0.10739229157672783,-0.17265443443753797,0.010559713087775504,19.85147284849379,41.34113322102855,30.720196802267072
10.32,0.12184697386195865,0.3955458128157181,10.113794628432851,0.09892597717235056,-0.26884710473081264,-0.044885522446330914,20.407115245481904,41.68806880793043,30.184069345694414
10.34,0.10004931579304224,-0.1719166334709586,9.766659466565901,0.0902341680743634,0.22771321308092485,0.10204501423292854,20.61689372502108,41.987638080499806,30.68165644254824
10.36,0.20563099163868487,0.23888498596801983,9.583960042280665,0.012733844428790365,0.11505319912457587,0.01846424761530962,20.50863650945942,42.320395499910596,30.61828375777754
10.38,-0.026502459828212047,0.22196613056010916,10.0592249080936,-0.02885840427437002,-0.0547459427220984,0.14367039639213938,20.637574495048355,42.39860184377765,30.734364760961956
10.4,0.009518759705994313,-0.09600682570405518,9.784355297628107,-0.06796209194372177,0.006501035375120787,0.03533061155535629,20.33196984967803,41.90536115970303,31.060246310367443
10.42,-0.09681455736734611,0.20107000047097395,9.768826416107657,0.002182736797535659,0.06152332112250976,-0.1759413113439858,20.39176645880038,42.02964674930236,31.374304837861448
10.44,-0.016643989011416727,0.10042174445393431,9.595191861945505,0.047731918977813426,0.06377453556700308,0.08420312048439159,20.55137707688689,42.28454148186622,30.970910305856567
10.46,0.10659507395672782,0.01587856100698884,10.121141222989548,-0.019313264578048092,0.038175219498214785,-0.1082163716852466,20.28107209856913,41.59637962955201,30.405768164755692
10.48,0.16354829249680278,-0.07359032304579993,9.666577911918548,-0.15981257539465224,0.09891192777245825,0.022290025040850436,20.63067724272201,42.122339739019,30.681055742449583
10.5,-0.08832479862664382,-0.05786641771737788,9.868767422105847,0.10015354209324277,-0.004222670997577713,-0.053101304324788365,20.551410400648443,41.75792734125787,30.971933818126722
10.52,0.180440888015849,0.3574718143678889,9.996893048381066,0.019266741638367033,-0.022503825143202486,0.165703327584814,20.550873664067957,41.959818480417454,30.9464816207014
10.540000000000001,0.25334567882074266,0.050102422843622395,9.923257539950464,-0.023471837250762535,-0.021014799094345792,0.11296984455726015,20.811791012825566,41.87842008859773,31.10592316901523
10.56,0.11201523548355513,0.16731950022971886,9.851051853201172,0.06928687913174664,0.06937799239790954,-0.05063654812763187,20.19308799838924,42.1511850975306,30.788631157243422
10.58,0.3315193718837099,-0.06863490725013296,9.604750121256888,0.11934789473620672,0.032388578022698455,-0.004551825109083382,20.69409672641156,42.18980818023293,30.71677613909487
10.6,-0.06606837986553594,-0.06697794193324581,9.738541274634908,-0.20514336771159186,0.026846274926769227,0.023344855223691306,21.48145523505381,42.29586826914519,31.35942065850065
10.620000000000001,-0.13669820549671252,0.2122977213874913,9.888170050706378,0.03756977374415536,0.06464256869428865,0.06975605536712079,20.483725285145916,42.136519467222314,30.85903812897628
10.64,-0.2168080373356418,-0.1524364317327298,9.741923889501951,-0.10199869081077603,-0.14882893058903912,0.007186393424375952,21.21839748261973,42.08675811220853,30.544053148729887
10.66,0.27440664672337745,-0.012282065185790725,9.890503918999816,0.04243328800992059,0.02825516179063628,-0.07186711745356501,20.872209707701135,42.59435778800359,31.29908789209661
10.68,0.14815484845310867,0.05510411166083481,9.916472414100436,0.014594540178093444,-0.19073936769043554,-0.04881689794000396,20.69786381932214,41.583417641432334,30.415084117772285
10.700000000000001,-0.18085863459288265,0.4138128815700544,9.525718183673252,-0.036328884099484524,0.031076887511002765,0.026915958667372092,20.505366085271206,42.55166867653777,29.822635642387123
10.72,-0.34188844516958505,0.6486011932220005,7.872517370441209,-0.2059970667341224,-0.07605475583878266,0.14097264731910764,20.966136122887438,41.95798478629764,31.10907201150888
10.74,-0.7423131589534899,0.8893152969098475,7.740000223612583,-0.3848889291299298,0.2813986203828578,0.09943681972607665,21.382785563924468,42.21782945254023,31.15844225914756
10.76,-0.3649686855255059,0.9338706931181306,8.775991229608008,-0.34151020733146203,0.2646729444378352,0.025177028750676803,20.852396377683945,41.95017940984226,31.0162799413561
10.78,-0.831585690606135,0.7856608177933236,9.64815122318408,-0.32487397452548394,0.3397878777674761,0.14372484511847616,20.967119436909634,41.83811467455743,30.50805035093627
10.8,-0.9085186929910897,0.24923641999387258,10.009972723106701,-0.3088167402220877,0.41385890816321347,0.07346892830232038,21.316618603260533,42.19493452478796,30.88770330358781
10.82,-0.8411350064151962,0.007376735310680526,10.620817015509836,-0.4828873475354394,0.25918912945638223,0.1717806003890131,21.137715920500465,42.362568309141295,30.82835570018859
10.84,-0.8527765274213166,-0.11789256201250575,10.956886197942278,-0.3079416328572532,0.13411134029624222,0.29201857259282776,20.58556366935415,42.1918848405525,30.756925491880523
10.86,-0.8173862642605494,-0.44126810783834297,12.374308053331234,-0.40397796888445675,-0.010417503895818438,0.06818490896947571,21.108545232319567,41.887084535148695,31.347901862305417
10.88,-0.8504026507848269,-0.9358712474676183,12.472778661155203,-0.2805488518676226,-0.19087048307917898,0.14330353522628084,21.55401973312227,43.132545328235146,30.616311994277414
10.9,-0.5027695482883342,-0.6772203446926287,11.966605702512798,-0.28263796720841594,-0.25115394410676467,0.01144448028304363,21.110571234017744,42.40781776145759,31.031034915163136
10.92,-0.1015800646463032,-0.8721989733806456,10.787580557427217,-0.15489069856861568,-0.3467771204271789,0.039968591372408505,20.320341864625327,42.32703815611301,31.300169499875924
10.94,0.029292072966931704,-0.2900667559849919,10.074234636788734,-0.017117550989755398,-0.2815075165494215,0.029469264911039093,21.280215730453698,41.93962064523103,31.06199883782051
10.96,0.28897799399590945,0.3346650525118963,9.79514695396498,-0.08702605579664023,-0.38232683663509653,-0.009526274503328528,21.125000966390303,41.85611951342166,31.3253711312847
10.98,-0.02668235146467776,-0.09218390759034793,9.552572822571753,-0.04599294225601236,0.03717796756756615,0.1897260266581268,20.65641708266817,41.957562039124255,31.12747667578341
11.0,-0.09844072303878713,-0.07514845682373732,9.916030052511767,0.018872194050656495,-0.00413029403377191,-0.017994480600878677,20.721808077568813,42.36346575405429,31.09235035879021
11.02,0.031131961985052782,0.16460446723592892,10.078315172587299,0.1851187745772764,-0.02021528025000732,0.0490138654088651,21.53834210910168,41.73907842540092,31.078634857462202
11.040000000000001,0.05835873684330419,-0.18142022728144686,9.771347231639986,-0.0597392284125121,0.021481856295510738,-0.13975651519925741,21.046145771710687,41.71270085943822,31.15751126085273
11.06,0.2141287277706423,-0.04491325448275585,9.926008989353472,0.1580100414497689,-0.10251729422240805,0.037399742252720775,21.013470311959875,42.19161538696294,30.862564607753285
11.08,-0.20386969445722292,0.1394661706372629,9.624778352986993,0.15533174777563782,0.14969524974659618,0.0906540944264185,21.2946911543019,42.121786552774424,30.592265659835462
11.1,0.27943254791909206,-0.04514287715341046,9.928581959553878,-0.0022983363026193356,-0.0027075596115699744,-0.03456980069342881,21.131587080001395,41.790898012773745,31.273495012930884
11.120000000000001,0.02629881521315159,0.01460450191835426,9.800992655338302,-0.01736143946499252,-0.0059383324729142175,-0.18326666057803095,21.374126511472213,41.6902840549671,31.34011084604676
11.14,-0.014032160492113005,0.1616278565472552,9.745637307409563,-0.04690488989985188,-0.06740471575996916,0.0021011173379506184,21.302355502674914,42.44435656687739,31.07133927788493
11.16,-0.10181565628902513,0.11323191253048419,9.745945453817582,-0.0001151897749501812,0.006795978683694594,0.0062887887789146064,21.022025060840413,42.115121158354924,30.835241083241755
11.18,-0.19822850077986537,0.09002275944431029,9.80095826269505,-0.10050395744196684,0.10902199177049604,0.05930562880582281,21.247306276673633,41.59368223951547,30.536296791562087
11.200000000000001,0.17347558759428716,-0.0008683418905058096,9.91736499735388,-0.0007179262990448182,0.08269371570740255,0.15581772765600754,21.551920208250113,41.60907014492163,31.033061627509085
11.22,0.06099769507826058,0.1055091672903433,9.663175519820673,0.11726602053881421,0.0690828313355417,-0.023504023795023005,21.4498820236972,41.88281154233391,30.606190793281506
11.24,-0.1434941349611581,0.03144009798503651,9.800432700264823,-0.04083137968575383,0.04597992137504536,-0.059221609274521025,21.43071719488015,42.20491845622254,30.56758431162744
11.26,-0.1442618158095424,0.11867084148886771,9.853779233300129,-0.013054322799178807,-0.02189068956719573,-0.08251883510285823,22.054286626772388,42.15706376547011,31.01131349865692
11.28,-0.0003677048935192273,-0.024539803767696725,9.695144116320222,-0.12258553557004312,-0.10376223752775264,0.01985589627736995,21.709929307391477,42.31125535449416,30.791501716678123
11.3,0.3003532287934089,0.022614653843068835,10.083710683029418,0.033054656609828266,-0.22220994224596186,0.04095156941138764,21.76366963428923,41.51753405282589,31.127171769722594
11.32,-0.2114596366608551,0.24861332241124445,9.253318428794037,-0.06417224721117272,-0.11177407842657591,-0.013672061181562393,21.47523571237787,42.02437785997585,30.978582818548382
11.34,-0.6093551820852741,0.6702140444734885,7.956028737068087,-0.16377581866459046,0.11724892580633543,0.10678957984119003,21.607925847953744,42.37728063796054,30.84701954551575
11.36,-0.6103512614716251,0.7082922002011323,7.263757122892365,-0.26065794951015414,0.18781390613908747,0.10225278594731152,21.4291727646145,42.34133178836906,30.52001921021474
11.38,-0.7727400179301803,0.66283536222116,8.930641340995606,-0.32968943689514607,0.3799406243612513,0.08642552497016977,21.808149951680136,42.040849306213865,30.77795612649673
11.4,-1.2555018643436548,0.7142643581527324,9.731344130524361,-0.3177450296334173,0.3929253034708359,0.027415782734432514,21.557906514321868,42.62896953157994,30.79115509005518
11.42,-0.9330721421594954,0.4290179576726957,9.706053434708659,-0.3871324099918762,0.25392782837970307,0.06635296755682814,21.673637927813214,42.09844116571935,30.670421507636405
11.44,-0.9846401795313017,0.167431060242286,10.431940583538834,-0.37137710963335013,0.08249734460947414,-0.07723164732619087,21.670760254919788,42.219276663806326,30.941162274904602
11.46,-0.8204969574598109,-0.3617758267303113,11.202799017244141,-0.3688474535636384,0.20800186113216124,0.1201768210330349,21.632530732874034,41.910290937348016,30.697405407084865
11.48,-0.5736254536606173,-0.5142572589489105,12.446685462871663,-0.2711305006287855,0.0733645489113135,0.09707248344629955,22.534590389888482,41.65287620577182,30.99400703907447
11.5,-0.5628467280358666,-0.6473226939044092,12.777871828823335,-0.256958035684083,-0.25707549227226767,0.09731907257851449,21.46804820550148,41.61452815505158,31.11664525946887
11.52,-0.6138231054419582,-0.6632262585707197,11.825295574572047,-0.22993128250722916,-0.13582425828142267,0.10517290635321538,21.47996504238676,41.92120908254778,30.797905894621817
11.540000000000001,-0.5498626254288088,-0.6993132383947454,10.783436335996637,-0.054671843348109816,-0.26445487517353394,0.07732498539417254,21.90529421930038,41.79262063701711,31.17445721377976
11.56,0.21348303653116407,-0.274702468953369,9.99834586960581,-0.052488233903283874,-0.2661135867330864,0.018973354847178853,21.532641098669075,41.31455705947555,30.639347595852534
11.58,0.058882765102173114,0.10462104440819901,10.165840334050992,0.10287220165928136,-0.08602329028741476,0.008650103237206446,21.637634171679615,41.526172734076574,30.714864512906534
11.6,0.05208939378694193,0.051076770036191294,9.669606334213535,0.05052069562899783,0.10585138799229611,-0.10032373125221271,21.412732564997345,41.726886086246196,31.015157640811427
11.620000000000001,0.04638123693349951,-0.2629716487556627,10.090423515928242,-0.1331439309198657,0.053849821399640285,-0.03877904842670693,21.899456339410158,42.02880743651499,31.255682482261815
11.64,0.07971271411517825,0.07407344359602201,9.84330217268033,0.10286260724894972,0.040491279935898725,0.008785329026259605,21.91633048573255,41.79373990027664,31.31007949802356
11.66,0.02834593821140863,0.3818796559095863,9.904862860103167,0.015138218100700183,0.051229571789776926,-0.05018901819342704,21.683289216408635,41.76460512714632,31.533708413678408
11.68,-0.036049301032035436,-0.004005890313547401,9.984973664994415,0.001103392182441655,-0.02500430754118944,0.06951130969044098,22.004812515883074,41.47753875640851,30.93698824583323
11.700000000000001,-0.03202884118605881,-0.05921156467829816,9.765462605749335,0.02610112606171828,0.0008673912700759298,-0.04439740607162729,21.245175855967652,41.767678344339636,31.011530287871356
11.72,0.04508700946760025,0.10600228395670973,9.989637257704796,-0.020873737146780053,-0.06267378659459069,0.021222905843623723,21.602526432415605,42.143304660501556,30.739635923006066
11.74,-0.03151371567006474,0.09685673156998575,9.453868421692825,0.022027164529170896,-0.019977983180418907,0.013742424261150191,21.77527914176381,41.78082465137295,30.672808757412866
11.76,-0.056926867401574655,0.22891027481246218,9.75200157001671,-0.039390704975731924,-0.022497540900169977,0.06097081952078072,21.485998099231644,41.26826986123578,31.11685261421313
11.78,0.06596453415378453,-0.13868022338633318,9.721390578898841,0.10057041940507776,-0.042647902721624845,0.07255933805212265,21.324196591907125,41.33105512990385,30.814704229645205
11.8,0.01175341738687171,0.15970703788624885,9.671974098144236,-0.0035191085215787715,0.015255987698634734,0.05705244582259546,21.767285315420505,41.86893508143435,31.41620661925469
11.82,0.2755989482874033,0.13856330918771953,9.827756774288158,-0.02369378820418251,-0.019298563802543287,-0.152950465103735,22.078417967488214,41.61053088781445,30.606646961685527
11.84,-0.3476454712589518,0.028678019458918087,9.917862495227254,-0.06436943617894554,0.04266760402639805,0.0945611111009845,22.265114862669787,41.640721520942414,31.189981285683416
11.86,0.21372602778836924,0.10080309768825349,9.965398999774896,0.02515818418614811,-0.11667404599703239,0.11954811681459485,21.726277329770127,41.46429067056801,30.74090921896382
11.88,0.23691277887464435,0.2044186222397536,9.896131513580062,0.019033032509381896,-0.0035016095580474756,-0.031159321324110204,22.120119164955398,41.78389755959075,30.794895369309867
11.9,-0.26100853486122244,0.18084730700426754,9.714356883044132,0.034131846025812984,-0.19726566134265205,0.022748518450463735,22.100515583199204,41.52711160067807,31.2010059525386
11.92,-0.2239240730683667,0.22565409448298723,9.436695216477013,-0.16105226514541043,-0.11738091157431617,-0.0395602826141772,22.28424033721357,41.54566845829046,30.83459440818273
11.94,-0.4395998690169268,0.7984889139877466,8.075087128340739,-0.2886420855578912,0.02565989034530001,-0.09774001409315553,21.82241040620155,41.330305893562254,30.88055360945211
11.96,-0.7846165560664067,0.8202390389905811,7.550911740556142,-0.19747657305550143,0.045716172149861664,0.011945335270194375,21.396430923230326,41.84595828620144,30.789416022807544
11.98,-0.8485039856066611,0.8408734444477862,8.777409833364615,-0.19638445334647386,0.2857530426186971,0.042672720287032215,21.965252365716314,41.48664910606046,31.56619193439427
12.0,-1.0175552447222933,0.6864447346246783,9.652979808322534,-0.43236406884020984,0.35168411166050306,0.06848308193885576,21.647974910299393,41.71865375089072,30.842901707409805
12.02,-0.6620873456682803,0.3745705429743076,9.711954284721017,-0.2657630686056021,0.32518029615779276,0.03057423446773329,21.742677556774684,41.16127818678847,31.040923408942003
12.040000000000001,-0.8096482410278809,0.22875612456605987,10.168063326335027,-0.3737066705947715,0.29503656381412796,0.049993112488707095,21.876677834818796,42.02235457426477,30.962039770520622
12.06,-0.7341946479326997,-0.3096646852714282,11.090225809155104,-0.3855008827140417,0.1191984390202378,0.1016673170960518,21.87237705376743,41.86800650348032,31.086041489013084
12.08,-0.7427180582959338,-0.7433971052318991,12.360807499617499,-0.385203699401901,0.007311745717827965,0.03732986305698127,22.023231057735284,40.894233079552485,30.832044692631836
12.1,-0.9011892481506145,-0.788971808140918,12.869750974274666,-0.4115714444440868,-0.1429028175703368,0.1239474731880551,22.19811321718315,41.20874543850761,30.952917396435165
12.120000000000001,-0.6521678418006996,-0.7031381222238876,12.044984131134802,-0.17031628204914848,-0.19745095579904814,0.11847352904068131,21.882942790846556,41.5745503290018,31.127892865037246
12.14,-0.31047755493337054,-0.39108296832986644,10.72510361718614,-0.22672397275484352,-0.4114058856778819,0.22691745487409254,22.117762997555555,41.017056628558336,30.747198267577573
12.16,-0.35584010529010673,-0.2066427885517223,10.08252767229022,-0.142493874262846,-0.34518357169086117,0.11167808830489116,22.008981050115537,41.354996984870034,31.32913898326828
12.18,0.1569497645258581,-0.07758029181205676,9.914822935364727,0.07939447324152155,-0.08811456007848248,0.023232729374631094,22.290358423532027,41.503752421206826,31.354078513360985
12.200000000000001,0.013951190276279751,0.4227784875018337,9.78261420303015,-0.1362237585003795,-0.1795326866572154,-0.0415198222500759,21.957996946125483,41.30142343438636,31.176324158085105
12.22,-0.00622312113243962,0.08971629664669695,9.721191161353557,-0.10926983580011249,-0.005513344736900794,0.02703105137554991,21.995450666326043,41.49936477623164,31.011132169929
12.24,0.15664399523052372,0.2413086106998522,9.596684315403394,0.0036399317368938683,0.09292062197060512,0.029494696993726706,21.911051754016068,41.11038280614382,30.08863324137713
12.26,0.11663949672290597,0.027242834963415632,9.75572759628847,0.026996332175363905,-0.001994549915632346,-0.03349848167542456,21.97862892748828,40.6255956350416,31.10859766079556
12.280000000000001,-0.004144924872861985,0.13000388670581742,9.93097181799017,0.04135509859766928,-0.02537583035880231,0.06377985475646582,21.79587641288954,41.57375580360164,30.859260779895514
12.3,0.2238994705046372,0.1759202756777607,9.754563284294065,-0.01763488700471896,0.01470662576114753,-0.09985735110114065,21.769450216785902,41.5519426258055,30.897980828163238
12.32,-0.11215949913998459,0.2327292067631384,9.82432894438611,0.19477772514812672,-0.021484013500183488,-0.013329987665313289,22.269952236624835,41.99017529576592,30.39770762967777
12.34,0.14239034104163956,0.20860524580673373,9.929964693111849,-0.012091941907437554,0.007313711956770438,0.04668938444880551,21.71494152900722,40.55662665085805,31.109910259414836
12.36,0.13896518869525756,0.1808295500109467,9.938103424463401,-0.012308961407704159,-0.04625357773900972,-0.016568811069407274,21.946531791376973,41.423545977878824,30.522028295308754
12.38,0.003568034102901463,0.00273699032088371,9.698070072175094,-0.05477400016104081,0.08815058149667931,-0.010506580257195341,22.348920636402525,40.58702411318183,30.986755705796828
12.4,0.0989199533363177,-0.035761906293409196,10.009558903468047,0.014293011239080331,0.11174486907992458,-0.005333939589421032,21.940243218355462,41.68373108298928,31.217109004812368
12.42,-0.13766703645779543,0.09989112654862964,10.029102513403323,0.051122092403508096,-0.00500427415837169,-0.05767009305158091,22.296096049317708,41.28212271859383,30.79925528081379
12.44,0.18860405288103516,0.18996921085116042,9.690522521417217,0.0952683540900095,-0.09898670655184323,0.09304256986806561,21.871265229063127,40.82899212966859,31.299070677944602
12.46,0.02226467953355165,0.01659189488350895,9.736424469553828,-0.10669631983301635,-0.034288237773504635,-0.07135282539421112,21.734019296661543,41.32727753377064,30.704219837940503
12.48,-0.028408453077855916,0.20977579485715797,10.03866360247193,-0.013449650376677558,-0.008799149507722315,0.028861949555741388,21.571394331937388,40.90577256141664,31.102369969020145
12.5,0.20735138387553337,0.2678925118229269,9.837971971811706,0.038502770810685816,0.042915415767740606,0.03602359237117801,22.4438172207818,41.14012482986538,30.52458967834688
12.52,-0.05565155358141388,-0.08744813786101295,9.527033307882222,0.04902931509459017,-0.07060099173780084,-0.0661466425906725,21.70878073391731,41.08994423953863,31.21901313652165
12.540000000000001,-0.16126919445453392,-0.07553810556944197,9.604258677068263,0.005491149335340447,-0.2648192082541255,0.01048281907855575,22.27352435560413,41.52940802802057,31.16598397073311
12.56,-0.40601530998489993,0.37605073245824605,9.343937307027366,-0.043326575867618136,-0.05578300824713958,-0.04097031956022121,21.748594837243164,41.52848593433566,31.037072354595256
12.58,-0.2929822464157122,0.7216070862028033,7.88198787657042,-0.2292257876164583,0.10900750523395919,0.1527165595409517,22.44268908859398,40.78253163274495,30.77182417604514
12.6,-0.7655542047331759,0.7512572776804013,7.348489749770273,-0.12755301331961666,0.11799006956679965,-0.018059740087342617,22.708088274241074,41.25670204376866,30.462321053681666
12.620000000000001,-0.46861235517037514,1.0327727315755306,8.665728759977425,-0.23328548526375475,0.1590259807221605,0.03414086617940566,21.538358782614125,41.023141092585455,30.75870944190564
12.64,-1.1632582790849773,0.7390752152021918,9.867746536839649,-0.4562571311908556,0.549422528064564,0.0032800111635733764,21.7168402880387,40.47016625310949,31.20184356553053
12.66,-0.670459456938318,0.4030240485301575,9.802974148211037,-0.4656038934814861,0.34691281687416375,0.0006653867031159721,22.27184159310357,40.662250913612596,30.900460560272098
12.68,-0.9183473799196072,-0.16538642858027902,10.426887119645754,-0.473519131258018,0.19710675222343688,0.224341146816172,22.191135498049764,41.548982147840476,30.3881533651074
12.700000000000001,-0.9394348789623824,-0.4944793637581725,11.387008237406326,-0.33412341705548987,0.16926106425136314,0.14320089176162454,22.267305959057012,40.9323874932356,30.509111626198212
12.72,-0.9327067309237616,-0.5333137984321529,12.623243900107749,-0.45174212964227767,-0.03792359005957398,0.10561889371778271,21.85879618627199,41.10173551529643,31.21481503103522
12.74,-0.6719610653152195,-1.0498316736686841,12.872256599144038,-0.3325594180528181,-0.08957285627208673,0.033939875995783894,22.623563737782842,40.714840098073694,30.977458557516833
12.76,-0.5791350072224608,-0.5780467182988482,11.643214600439748,-0.21029309101223537,-0.23706276993526854,0.135419866014381,22.05878672842267,40.593007536475554,30.452976474421632
12.780000000000001,-0.21838845681508,-0.599188262630272,10.801895150949026,-0.1735159407380059,-0.2862682706054048,-0.013428309040803145,21.654039896005354,40.739594856178236,30.285396747022396
12.8,-0.155386786657009,0.18935695414516263,10.23736893727718,-0.06459180990407305,-0.2866836392098195,0.08677504047038923,21.938629951444494,40.6279020769033,30.619482415271737
12.82,0.07254526421928152,0.39618743759241637,9.881166923799414,-0.07493520335115691,-0.315685634365696,-0.0604383457454227,21.648640035899845,40.23597134004522,30.243316764737113
12.84,-0.004541831832078375,0.022782639612872493,10.121687580511288,0.04961407800479335,0.1503571174544855,-0.04333807764067539,22.48181865470262,40.359063400381146,30.743585119355682
12.86,0.04145815644183989,0.03404944962030276,9.98897503422012,-0.04099089193569974,-0.06561504402008075,0.061871178958844086,21.80095436673312,40.84844387449378,31.517317259579983
12.88,0.09617026533380887,0.19933722710030444,9.945241006572918,-0.019346475579845594,-0.09700176822329458,0.06978705081168253,22.141008511252736,40.49779624739977,30.294121442605594
12.9,-0.20652525889849382,0.30547589148770565,10.022957106680876,0.022829879592948958,-0.010964491206727545,0.04981047004225708,21.84596437876261,40.5955511058389,30.70866498067094
12.92,-0.15222781331585694,-0.19570435861540253,9.910005477689133,0.012730866614813614,-0.06711038601328799,-0.0737255586817596,21.796147084737797,40.63406781236554,31.149202243031095
12.94,0.16148961410340723,-0.217956319803203,9.486078425090698,0.006798501426169473,0.0011215407079796739,-0.028504514929212157,21.400979088787857,40.633176065891426,30.971390792468508
12.96,0.07562981571919128,-0.0433052208331572,9.785129157279446,-0.051297011648256674,0.05658228864213265,0.016767405589888505,22.146495958931922,40.85882766367817,30.692972373695227
12.98,0.022402499547098133,0.13741063747607965,10.039575204087178,-0.017466205839939408,0.07964771753969173,-0.05869607214325687,22.34948346528204,40.160764688974034,30.68451156108468
13.0,0.052765089959808976,0.12453103857613956,9.738861298985256,0.0051637693127776964,0.06610480412162613,0.10782220700969698,21.67732275818076,40.6368991986986,30.372357671631487
13.02,0.10213725580425065,0.21046571824757754,9.82647912421446,-0.09813139248753136,-0.01792240410892602,-0.17514602079629094,21.480627875489887,40.66771600449999,30.62944265610136
13.040000000000001,-0.030963952046404217,-0.12995462925479623,9.70327455291454,-0.02968997247350341,0.008719387074618942,-0.05340546365268646,22.176975884607078,40.71228570872756,30.77327620162207
13.06,-0.06674570881034689,-0.2974215794453315,10.127588389280266,0.03407599092746348,0.03559092881731182,-0.03321748771523737,21.433595310575875,39.967919524422086,31.022179969515793
13.08,0.07937678826465223,0.1787021292953218,10.112223868612702,-0.09080774528840069,-0.12683405679565543,-0.20829577485788256,22.2845177656977,40.44345122560828,30.49489397324742
13.1,-0.09675591664225479,-0.07422944094478517,9.727419665728892,0.09174362386956798,0.04779385250898947,-0.09971718476771431,21.638234434890116,40.85698884104438,30.614197241859273
13.120000000000001,0.11123791335717077,-0.2527731796582957,9.836305602836529,0.10022099469498821,-0.3164294809247516,0.051896713440655134,21.56916659082153,40.28754436199115,30.376486769592688
