time,accel_x,accel_y,accel_z,gyro_x,gyro_y,gyro_z,mag_x,mag_y,mag_z
0.0,-1.0743772983551025,-9.67657470703125,1.521835207939148,0.012675453908741474,-0.018478674814105034,-0.0024434609804302454,-14.235603332519531,82.41741943359375,-23.136510848999023
0.009,-1.1150553226470947,-9.672985076904297,1.521835207939148,0.011759155429899693,-0.01817324012517929,-0.0032070425804704428,-14.513299942016602,82.41741943359375,-22.66880989074707
0.019,-1.1892328262329102,-9.693324089050293,1.5134602785110474,0.00931569468230009,-0.007941247895359993,-0.006108652334660292,-14.688687324523926,82.607421875,-23.487285614013672
0.029,-1.1700901985168457,-9.735198020935059,1.4691929817199707,0.007941247895359993,0.005803219974040985,-0.012828170321881771,-15.024847030639648,82.41741943359375,-22.5518856048584
0.039,-1.1509475708007812,-9.657431602478027,1.4871392250061035,0.009621127508580685,0.010079275816679,-0.014355332590639591,-14.893306732177734,82.63665771484375,-22.82958221435547
0.059,-1.0719845294952393,-9.66102123260498,1.4213366508483887,0.010079275816679,0.0073303827084600925,-0.01664607785642147,-14.703303337097168,82.05203247070312,-22.975738525390625
0.063,-0.9738787412643433,-9.717252731323242,1.4775679111480713,0.010231993161141872,-0.008399397134780884,-0.01572977937757969,-15.01023006439209,82.32972717285156,-22.274188995361328
0.07,-1.1425727605819702,-9.66819953918457,1.408176064491272,0.01237002108246088,-0.014508049935102463,-0.018325956538319588,-14.688687324523926,82.4028091430664,-22.318035125732422
0.08,-1.2741780281066895,-9.753144264221191,1.3663017749786377,0.016798794269561768,0.001527163083665073,-0.023976460099220276,-14.39637565612793,82.4905014038086,-22.420345306396484
0.09,-1.073180913925171,-9.696913719177246,1.4488540887832642,0.019547687843441963,0.013744467869400978,-0.02672535367310047,-15.14177131652832,82.12510681152344,-22.712656021118164
0.1,-1.0217353105545044,-9.681360244750977,1.4883357286453247,0.022907447069883347,0.009010262787342072,-0.02580905519425869,-14.63022518157959,82.35896301269531,-22.464191436767578
0.12,-1.0755738019943237,-9.647860527038574,1.4380862712860107,0.023976460099220276,0.003817907767370343,-0.0277943667024374,-15.024847030639648,82.16895294189453,-22.084184646606445
0.124,-1.164108157157898,-9.639486312866211,1.4931212663650513,0.02367102913558483,0.006108652334660292,-0.030543262138962746,-15.361004829406738,82.25665283203125,-22.244956970214844
0.13,-1.1186444759368896,-9.640682220458984,1.4847464561462402,0.021838432177901268,0.008246680721640587,-0.03405573591589928,-14.790996551513672,81.59895324707031,-23.2095890045166
0.14,-1.015753149986267,-9.667003631591797,1.534995675086975,0.021991148591041565,0.003359758760780096,-0.03390302136540413,-14.966383934020996,82.09587860107422,-22.785736083984375
0.149,-1.1234301328659058,-9.723234176635742,1.4931212663650513,0.01664607785642147,-0.008704829961061478,-0.038179077208042145,-14.674072265625,81.87664031982422,-22.888044357299805
0.16,-1.1341978311538696,-9.726823806762695,1.573280930519104,0.018325956538319588,0.001527163083665073,-0.039248090237379074,-14.95176887512207,82.00818634033203,-22.11341667175293
0.179,-0.9834501147270203,-9.720841407775879,1.557727575302124,0.01817324012517929,0.006872233934700489,-0.041691552847623825,-14.966383934020996,82.19818115234375,-23.355743408203125
0.183,-0.9176474213600159,-9.700502395629883,1.4009976387023926,0.020005837082862854,-0.0003054326225537807,-0.032681290060281754,-15.039462089538574,81.97895050048828,-22.332651138305664
0.19,-0.937986433506012,-9.664609909057617,1.4237295389175415,0.021380282938480377,-0.010231993161141872,-0.0277943667024374,-15.083308219909668,81.99356842041016,-23.268049240112305
0.2,-0.9427720904350281,-9.693324089050293,1.3986047506332397,0.021991148591041565,-0.011453723534941673,-0.021991148591041565,-15.054078102111816,82.57819366455078,-22.215726852416992
0.21,-0.9511469602584839,-9.759126663208008,1.5481561422348022,0.02519819140434265,-0.01237002108246088,-0.013744467869400978,-15.097925186157227,82.607421875,-22.244956970214844
0.22,-1.0432707071304321,-9.728019714355469,1.5421741008758545,0.02519819140434265,-0.009468411095440388,-0.010995574295520782,-15.171003341674805,82.54896545410156,-23.078046798706055
0.239,-0.989432156085968,-9.7124662399292,1.4560325145721436,0.029168814420700073,-0.004886921960860491,-0.005955935921519995,-14.834843635559082,82.62203979492188,-23.063430786132812
0.243,-0.9846464395523071,-9.686145782470703,1.514656662940979,0.026572639122605324,-0.012064589187502861,-0.0010690141934901476,-15.024847030639648,82.70973205566406,-22.75650405883789
0.25,-0.9942178130149841,-9.651450157165527,1.5457634925842285,0.02535090781748295,-0.012980885803699493,0.0013744467869400978,-15.28792667388916,82.50511169433594,-23.28266716003418
0.26,-1.0289136171340942,-9.65384292602539,1.6115659475326538,0.022449297830462456,-0.015118913725018501,0.0039706239476799965,-14.922536849975586,82.9435806274414,-22.624963760375977
0.269,-1.0911270380020142,-9.738787651062012,1.588834285736084,0.018936822190880775,-0.01664607785642147,0.004123340360820293,-14.95176887512207,82.54896545410156,-22.595731735229492
0.28,-1.1521440744400024,-9.704092025756836,1.5421741008758545,0.02076941914856434,0.0012217304902151227,0.0022907445672899485,-15.083308219909668,82.54896545410156,-22.318035125732422
0.299,-1.0863415002822876,-9.69212818145752,1.4883357286453247,0.02229658141732216,0.012064589187502861,0.0013744467869400978,-14.90792179107666,82.31510925292969,-22.09880256652832
0.304,-1.038485050201416,-9.69930648803711,1.4632110595703125,0.02535090781748295,0.01572977937757969,0.0013744467869400978,-14.980999946594238,82.21280670166016,-22.493423461914062
0.31,-1.015753149986267,-9.69093132019043,1.439282774925232,0.02519819140434265,0.01160643994808197,0.00015271631127689034,-15.200233459472656,82.30049896240234,-22.873428344726562
0.32,-0.9930213689804077,-9.665806770324707,1.4691929817199707,0.027030786499381065,0.0025961773935705423,0.0019853119738399982,-14.86407470703125,82.51973724365234,-22.493423461914062
0.33,-1.0277173519134521,-9.67537784576416,1.514656662940979,0.028710665181279182,-0.006872233934700489,0.0039706239476799965,-15.273311614990234,82.2274169921875,-22.683425903320312
0.339,-1.0707881450653076,-9.664609909057617,1.5230315923690796,0.027641652151942253,-0.01114829070866108,0.0064140851609408855,-14.995615005493164,81.94972229003906,-21.426483154296875
0.359,-1.0229315757751465,-9.665806770324707,1.4715858697891235,0.024587325751781464,-0.005192354787141085,0.012522736564278603,-15.039462089538574,81.74510955810547,-21.938030242919922
0.362,-1.046859860420227,-9.656235694885254,1.5828521251678467,0.022143863141536713,-0.008399397134780884,0.012217304669320583,-14.937153816223145,81.92049407958984,-22.902660369873047
0.37,-1.0145567655563354,-9.650253295898438,1.5457634925842285,0.024129178375005722,-0.00855211354792118,0.012675453908741474,-15.551008224487305,82.31510925292969,-22.610347747802734
0.379,-1.2179466485977173,-9.774680137634277,1.4943177700042725,0.01878410577774048,0.004123340360820293,0.013744467869400978,-15.083308219909668,82.1104965209961,-22.361881256103516
0.389,-1.231107234954834,-9.66102123260498,1.506281852722168,0.01618792861700058,0.017562376335263252,0.013286319561302662,-15.024847030639648,82.16895294189453,-22.186494827270508
0.4,-1.054038405418396,-9.564111709594727,1.5589239597320557,0.010842857882380486,0.026419920846819878,0.018936822190880775,-14.513299942016602,82.41741943359375,-22.493423461914062
0.419,-0.8267201781272888,-9.570094108581543,1.5326027870178223,-0.013591751456260681,-0.019547687843441963,0.06139195337891579,-15.28792667388916,82.1835708618164,-22.84419822692871
0.422,-0.8482555747032166,-9.571290016174316,1.550549030303955,-0.01863138936460018,-0.024892758578062057,0.0682641938328743,-15.039462089538574,82.47588348388672,-22.215726852416992
0.43,-0.8530412316322327,-9.601200103759766,1.5708880424499512,-0.028099801391363144,-0.03298672288656235,0.09224064648151398,-14.761765480041504,81.81818389892578,-22.361881256103516
0.439,-0.7668996453285217,-9.7998046875,1.710868239402771,-0.03894266113638878,-0.02932153083384037,0.11545352637767792,-14.557147026062012,81.78894805908203,-21.996492385864258
0.45,-0.7262216210365295,-9.968499183654785,1.9010975360870361,-0.044287726283073425,-0.03390302136540413,0.13545936346054077,-14.90792179107666,82.4028091430664,-22.698041915893555
0.46,-0.6448656916618347,-10.000802040100098,1.9238293170928955,-0.049785517156124115,-0.04917465150356293,0.14019358158111572,-14.513299942016602,82.19818115234375,-22.420345306396484
0.479,-0.47258248925209045,-9.891928672790527,1.9968103170394897,-0.06734789162874222,-0.12446378916501999,0.18341228365898132,-14.323297500610352,82.066650390625,-22.47880744934082
0.483,-0.7525426745414734,-9.572486877441406,1.9238293170928955,-0.07177666574716568,-0.13041973114013672,0.19624045491218567,-13.811750411987305,81.78894805908203,-22.566499710083008
0.49,-0.8697909712791443,-9.538987159729004,1.9166508913040161,-0.07727444916963577,-0.11698068678379059,0.21563541889190674,-14.39637565612793,82.16895294189453,-22.858814239501953
0.5,-1.101894736289978,-9.607182502746582,1.6713865995407104,-0.07406741380691528,-0.08720101416110992,0.22418753802776337,-13.884828567504883,81.55509948730469,-21.894182205200195
0.51,-1.2323036193847656,-9.69930648803711,1.2382856607437134,-0.06719517707824707,-0.0861319974064827,0.22250765562057495,-14.11867904663086,81.99356842041016,-22.37649917602539
0.52,-1.330409288406372,-9.600004196166992,0.9260223507881165,-0.05360342189669609,-0.10186177492141724,0.21594086289405823,-13.329436302185059,81.8035659790039,-22.698041915893555
0.539,-1.2406784296035767,-9.644271850585938,0.98703932762146,-0.009773843921720982,-0.1823432743549347,0.1644754558801651,-13.227126121520996,81.78894805908203,-22.624963760375977
0.543,-1.2598210573196411,-9.730413436889648,0.9906285405158997,0.0013744467869400978,-0.21410825848579407,0.14905111491680145,-13.022507667541504,81.94972229003906,-23.38497543334961
0.55,-1.4117653369903564,-9.716055870056152,0.9798608422279358,0.016035212203860283,-0.2554943859577179,0.13377948105335236,-12.876352310180664,81.37971496582031,-22.961122512817383
0.56,-1.6654045581817627,-9.700502395629883,1.0085747241973877,0.03176499158143997,-0.28298333287239075,0.11575896292924881,-12.744811058044434,81.55509948730469,-23.414207458496094
0.57,-1.6845470666885376,-9.7064847946167,0.9655039310455322,0.03497203439474106,-0.30940327048301697,0.07483098655939102,-12.364805221557617,81.81818389892578,-23.472667694091797
0.579,-1.7790635824203491,-9.385847091674805,0.6604190468788147,0.05864306166768074,-0.26160305738449097,0.07376197725534439,-12.788658142089844,81.75971984863281,-22.902660369873047
0.599,-1.746760368347168,-9.54377269744873,1.0588239431381226,0.09483683109283447,-0.14752395451068878,0.0985020250082016,-12.204033851623535,81.77433776855469,-22.873428344726562
0.603,-1.561316728591919,-9.601200103759766,1.2299107313156128,0.10415252298116684,-0.1267545372247696,0.10247264802455902,-12.218649864196777,81.99356842041016,-23.2095890045166
0.61,-1.3124631643295288,-9.615557670593262,1.3830513954162598,0.11759155988693237,-0.10766499489545822,0.11163561791181564,-11.926337242126465,81.93510437011719,-22.917274475097656
0.62,-1.1030912399291992,-9.596414566040039,1.557727575302124,0.13484850525856018,-0.09315694868564606,0.12186761200428009,-11.590178489685059,81.30663299560547,-22.961122512817383
0.63,-1.1617152690887451,-9.524630546569824,1.53858482837677,0.14294245839118958,-0.07238753139972687,0.13179416954517365,-11.312481880187988,82.00818634033203,-22.522653579711914
0.639,-1.7216358184814453,-9.585646629333496,1.2502497434616089,0.1359175145626068,-0.03878994286060333,0.1359175145626068,-11.23940372467041,81.65740966796875,-22.537269592285156
0.657,-1.9286149740219116,-9.451648712158203,0.9702895283699036,0.15790866315364838,0.048258356750011444,0.13607022166252136,-10.903244018554688,81.86203002929688,-23.092662811279297
0.661,-1.8029918670654297,-9.422935485839844,1.0001999139785767,0.17211127281188965,0.06734789162874222,0.13255774974822998,-10.947091102600098,81.4674072265625,-23.472667694091797
0.67,-1.1868400573730469,-9.430113792419434,1.1042876243591309,0.19165895879268646,0.06276640295982361,0.13148874044418335,-10.96170711517334,81.7304916381836,-23.136510848999023
0.68,-0.9762716293334961,-9.578468322753906,1.176072359085083,0.2148718386888504,-0.0064140851609408855,0.1437060534954071,-10.874013900756836,82.31510925292969,-22.639577865600586
0.69,-1.408176064491272,-9.622735977172852,1.1784651279449463,0.22647827863693237,-0.08704829961061478,0.15332716703414917,-11.210172653198242,82.16895294189453,-23.428821563720703
0.708,-2.0853447914123535,-9.556933403015137,0.9260223507881165,0.24129176139831543,-0.09911288321018219,0.15042555332183838,-10.859397888183594,81.92049407958984,-23.881906509399414
0.712,-1.956132411956787,-9.495916366577148,1.2610174417495728,0.2736676335334778,-0.07192938029766083,0.1518000215291977,-10.64016342163086,81.77433776855469,-23.823442459106445
0.72,-1.399801254272461,-9.475577354431152,1.5230315923690796,0.29184088110923767,-0.04505131021142006,0.13927727937698364,-10.143233299255371,81.83279418945312,-23.998830795288086
0.73,-0.6556333899497986,-9.456435203552246,1.6067804098129272,0.3211624026298523,-0.050854530185461044,0.13698652386665344,-10.084770202636719,81.52587127685547,-23.911136627197266
0.74,-0.696311354637146,-9.578468322753906,2.366501569747925,0.3439171314239502,-0.07467827200889587,0.14813482761383057,-10.157849311828613,81.67202758789062,-24.042678833007812
0.749,-1.6773686408996582,-9.56770133972168,1.956132411956787,0.3254384398460388,-0.08491026610136032,0.12370020896196365,-9.997076988220215,81.8035659790039,-24.188833236694336
0.759,-1.7228323221206665,-9.395418167114258,1.8113667964935303,0.3426953852176666,-0.0354301817715168,0.12339477986097336,-10.128617286682129,81.78894805908203,-25.358083724975586
0.775,-0.94037926197052,-9.468399047851562,2.420340061187744,0.3326161205768585,-0.012064589187502861,0.12003502249717712,-9.324758529663086,82.31510925292969,-25.007307052612305
0.78,-0.7429714202880859,-9.486345291137695,2.2133607864379883,0.3292563557624817,-0.0503963828086853,0.12721268832683563,-9.719380378723145,82.13972473144531,-25.021923065185547
0.79,-0.4893321990966797,-9.481559753417969,2.1786649227142334,0.3428480923175812,-0.14217887818813324,0.1472185254096985,-9.719380378723145,82.2274169921875,-25.723472595214844
0.8,-0.6029912829399109,-9.621540069580078,2.530409812927246,0.3228422701358795,-0.25076019763946533,0.17592918872833252,-9.748611450195312,82.12510681152344,-26.147327423095703
0.81,-1.3208380937576294,-9.713663101196289,2.6021945476531982,0.30283644795417786,-0.29138270020484924,0.1774563491344452,-9.207834243774414,82.4028091430664,-25.591930389404297
0.829,-1.6199408769607544,-9.704092025756836,2.5639095306396484,0.2765692174434662,-0.26572638750076294,0.18509215116500854,-9.31014347076416,82.53434753417969,-26.118093490600586
0.833,-1.5457634925842285,-9.724431037902832,2.8079774379730225,0.22937989234924316,-0.18600846827030182,0.19517144560813904,-8.389359474182129,81.92049407958984,-26.61502456665039
0.84,-1.4021941423416138,-9.761519432067871,2.6560330390930176,0.2177734524011612,-0.17516560852527618,0.19792033731937408,-9.237065315246582,82.1104965209961,-26.907337188720703
0.85,-1.164108157157898,-9.731609344482422,2.502892255783081,0.18035796284675598,-0.18249599635601044,0.2102903574705124,-8.827827453613281,82.24203491210938,-26.89272117614746
0.86,-1.1700901985168457,-9.65503978729248,2.757727861404419,0.1437060534954071,-0.21105393767356873,0.2232712358236313,-8.155509948730469,82.15434265136719,-26.264249801635742
0.87,-1.5469597578048706,-9.796216011047363,2.667997121810913,0.10537425428628922,-0.25641068816185,0.2307543307542801,-8.360128402709961,82.30049896240234,-27.126571655273438
0.888,-1.576870083808899,-9.616753578186035,2.6668004989624023,0.0708603635430336,-0.25366178154945374,0.23671028017997742,-8.03858470916748,82.47588348388672,-26.278865814208984
0.892,-1.4536396265029907,-9.511469841003418,2.585444688796997,0.06276640295982361,-0.26022857427597046,0.2515237629413605,-7.717041492462158,82.50511169433594,-27.126571655273438
0.9,-1.7395819425582886,-9.547362327575684,2.510071039199829,0.04505131021142006,-0.27229318022727966,0.2565633952617645,-7.556270122528076,82.08126068115234,-27.199649810791016
0.909,-3.3607192039489746,-9.942177772521973,2.031506299972534,-0.008246680721640587,-0.20815233886241913,0.2594650089740753,-6.796258926391602,82.35896301269531,-27.41888427734375
0.92,-3.421736478805542,-9.559326171875,1.95852530002594,-0.005497787147760391,0.009468411095440388,0.22876903414726257,-6.679333686828613,82.2274169921875,-27.287343978881836
0.93,-1.769492268562317,-9.45045280456543,2.275574207305908,0.0029016099870204926,0.16600261628627777,0.22800545394420624,-6.547792911529541,82.21280670166016,-27.404266357421875
0.949,-0.8135596513748169,-9.541379928588867,2.066202163696289,-0.0013744467869400978,0.14798210561275482,0.2402227520942688,-6.430868148803711,82.54896545410156,-27.24349594116211
0.953,-1.2514461278915405,-9.481559753417969,2.242074728012085,0.020005837082862854,-0.010842857882380486,0.2747366428375244,-6.255480766296387,82.1104965209961,-27.214263916015625
0.96,-1.95852530002594,-9.337989807128906,2.2205393314361572,0.025503622367978096,-0.04046982154250145,0.2811506986618042,-6.240865230560303,82.50511169433594,-27.24349594116211
0.97,-2.531606435775757,-9.30209732055664,2.1068801879882812,0.03436116874217987,-0.001527163083665073,0.2744311988353729,-6.211634159088135,82.12510681152344,-27.55042266845703
0.979,-2.352144718170166,-9.31047248840332,2.2193429470062256,0.03680463135242462,0.040164388716220856,0.2652682065963745,-6.606255531311035,81.97895050048828,-27.535808563232422
0.99,-1.8065810203552246,-9.192028045654297,2.073380708694458,0.03878994286060333,0.05513058975338936,0.25366178154945374,-6.0800933837890625,81.94972229003906,-28.968137741088867
1.009,-1.9489539861679077,-9.480362892150879,2.100898265838623,0.044745877385139465,-0.002138028386980295,0.2474004179239273,-5.817012310028076,82.00818634033203,-28.310436248779297
1.013,-2.5746772289276123,-9.523433685302734,1.8017953634262085,0.05100724473595619,0.0064140851609408855,0.22647827863693237,-6.123940467834473,81.05816650390625,-27.740427017211914
1.02,-2.283949136734009,-9.406185150146484,1.9645073413848877,0.049785517156124115,0.03756821155548096,0.21639901399612427,-5.685472011566162,81.71586608886719,-27.886581420898438
1.029,-1.714457392692566,-9.406185150146484,2.0997018814086914,0.053908854722976685,0.032070424407720566,0.21624629199504852,-5.32008171081543,82.05203247070312,-27.375036239624023
1.04,-1.956132411956787,-9.553343772888184,2.045863151550293,0.06169738993048668,0.004581489134579897,0.21899518370628357,-5.305466175079346,81.77433776855469,-27.477344512939453
1.05,-2.5639095306396484,-9.677770614624023,2.2157537937164307,0.04444044828414917,0.027030786499381065,0.21930061280727386,-5.232388019561768,81.52587127685547,-28.07658576965332
1.069,-2.6763720512390137,-9.534201622009277,2.4095723628997803,0.046731188893318176,0.13271047174930573,0.22418753802776337,-4.355451583862305,81.99356842041016,-27.959659576416016
1.073,-1.8185451030731201,-9.546165466308594,2.2301106452941895,0.04444044828414917,0.19944749772548676,0.21945331990718842,-4.253142356872559,81.93510437011719,-27.50657844543457
1.08,-1.5050853490829468,-9.556933403015137,2.4358932971954346,0.039706241339445114,0.17776179313659668,0.23625212907791138,-4.092370510101318,81.86203002929688,-27.375036239624023
1.09,-1.6785650253295898,-9.458827018737793,2.480160713195801,0.0354301817715168,0.12522737681865692,0.2574796974658966,-4.106986045837402,81.97895050048828,-27.959659576416016
1.1,-2.11405873298645,-9.443273544311523,2.496910333633423,0.024587325751781464,0.10781770944595337,0.27611106634140015,-4.048523902893066,81.78894805908203,-27.886581420898438
1.109,-2.069791555404663,-9.537790298461914,2.6249263286590576,-0.0004581489192787558,0.12522737681865692,0.31383201479911804,-3.887752056121826,81.4674072265625,-28.105815887451172
1.129,-1.7419748306274414,-9.422935485839844,2.6321046352386475,-0.02382374368607998,0.1339322030544281,0.3543018102645874,-3.0985093116760254,81.30663299560547,-27.57965660095215
1.133,-1.769492268562317,-9.586843490600586,2.825923442840576,-0.05864306166768074,0.13576479256153107,0.39675697684288025,-3.2300498485565186,81.59895324707031,-28.07658576965332
1.14,-1.7958134412765503,-9.4660062789917,2.6177480220794678,-0.06734789162874222,0.13225232064723969,0.42699480056762695,-2.850043773651123,80.95586395263672,-26.99502944946289
1.15,-2.018345832824707,-9.527023315429688,2.2815563678741455,-0.08521570265293121,0.13377948105335236,0.47250425815582275,-2.76235032081604,80.97047424316406,-26.805028915405273
1.159,-1.9489539861679077,-9.65503978729248,2.3234305381774902,-0.1036943718791008,0.15042555332183838,0.5413792729377747,-2.0754165649414062,81.4235610961914,-27.72580909729004
1.17,-1.9453648328781128,-9.393025398254395,2.335394859313965,-0.1088867262005806,0.16371189057826996,0.5845980048179626,-2.1338791847229004,80.80970764160156,-27.988893508911133
1.189,-2.0506489276885986,-9.643074989318848,2.416750907897949,-0.1235474944114685,0.17058412730693817,0.6191118955612183,-1.2715580463409424,80.54662322998047,-27.696578979492188
1.193,-2.3162522315979004,-9.456435203552246,2.1020946502685547,-0.12339477986097336,0.1365283876657486,0.6670648455619812,-0.7600116729736328,79.91815185546875,-27.57965660095215
1.2,-2.421536445617676,-9.558130264282227,1.8735800981521606,-0.13484850525856018,0.13087788224220276,0.6782131195068359,-0.42385268211364746,80.13738250732422,-27.4481143951416
1.21,-2.77447772026062,-9.860821723937988,1.810170292854309,-0.14966197311878204,0.128434419631958,0.6942483186721802,0.13154049217700958,80.35662078857422,-27.798887252807617
1.22,-3.0652055740356445,-9.82971477508545,2.1343977451324463,-0.15515977144241333,0.16401731967926025,0.7060074806213379,0.8330897688865662,80.12277221679688,-27.755043029785156
1.229,-2.5878376960754395,-9.786643981933594,2.550748825073242,-0.1722639948129654,0.21380282938480377,0.7182247638702393,1.0961706638336182,79.7281494140625,-27.228879928588867
1.249,-2.4981067180633545,-9.763912200927734,2.4526431560516357,-0.2050980031490326,0.14996741712093353,0.764345109462738,1.6077170372009277,79.37738037109375,-26.556564331054688
1.252,-3.187239646911621,-9.696913719177246,2.3078773021698,-0.2073887437582016,0.15470163524150848,0.7719809412956238,2.1046478748321533,79.15814208984375,-26.4104061126709
1.26,-3.462414264678955,-9.718448638916016,2.3808584213256836,-0.2272418737411499,0.1921171098947525,0.8019133806228638,1.943876028060913,78.74890899658203,-26.907337188720703
1.27,-5.581258773803711,-10.082158088684082,2.7182462215423584,-0.2600758671760559,0.10690141469240189,0.9169087409973145,3.1131248474121094,78.01811981201172,-26.39579200744629
1.28,-1.2574282884597778,-9.906285285949707,2.6225335597991943,-0.270766019821167,0.6435465216636658,0.7339546084403992,3.829289674758911,77.87196350097656,-25.97193717956543
1.29,-1.4632110595703125,-10.030712127685547,2.218146562576294,-0.2716823220252991,0.30115655064582825,0.8520042896270752,4.472376346588135,77.44811248779297,-25.986553192138672
1.31,-3.1094729900360107,-10.462616920471191,1.506281852722168,-0.3098613917827606,0.44516804814338684,0.925613522529602,4.486992359161377,76.98041534423828,-25.694242477416992
1.314,-3.10109806060791,-10.376474380493164,1.7623138427734375,-0.3153591752052307,0.4470006227493286,0.9352346658706665,5.159310340881348,76.95117950439453,-25.065771102905273
1.32,-3.424129009246826,-10.63968563079834,1.4608181715011597,-0.3355177044868469,0.4628831148147583,0.9561567902565002,5.466238021850586,77.14118957519531,-25.358083724975586
1.329,-3.3583264350891113,-11.050054550170898,1.2849457263946533,-0.3649919927120209,0.5375614166259766,0.9836457371711731,6.0654778480529785,76.42501831054688,-24.144987106323242
1.339,-3.084348201751709,-11.349157333374023,1.1150553226470947,-0.3995058536529541,0.5830708742141724,1.0118982791900635,6.489330291748047,76.00116729736328,-24.656532287597656
1.349,-2.9132614135742188,-12.07059383392334,1.3674980401992798,-0.44196099042892456,0.5868887901306152,1.0558805465698242,7.015492916107178,74.96346282958984,-23.750364303588867
1.369,-2.987438917160034,-12.360124588012695,1.6151552200317383,-0.4778493344783783,0.62964928150177,1.1424707174301147,7.7316575050354,74.11575317382812,-22.318035125732422
1.373,-3.772284984588623,-12.032307624816895,1.7180465459823608,-0.4775438904762268,0.6743952035903931,1.1583532094955444,7.965507507324219,74.0865249633789,-22.961122512817383
1.38,-3.8811581134796143,-11.839686393737793,1.557727575302124,-0.4801400899887085,0.7739662528038025,1.1792752742767334,7.585501670837402,74.0134506225586,-22.800350189208984
1.39,-3.366701364517212,-11.911470413208008,1.4608181715011597,-0.4999931752681732,0.902553379535675,1.2055425643920898,8.199357032775879,73.04882049560547,-22.04033851623535
1.4,-2.851048231124878,-12.041879653930664,1.4919248819351196,-0.5372559428215027,0.9689849615097046,1.2521209716796875,9.35399055480957,72.52265167236328,-21.76264190673828
1.41,-2.970689058303833,-12.117253303527832,1.5996018648147583,-0.5910121202468872,1.05099356174469,1.3075571060180664,9.514761924743652,71.49956512451172,-20.37415885925293
1.429,-2.495713949203491,-12.703495025634766,2.045863151550293,-0.6817256212234497,1.3994922637939453,1.4706579446792603,10.289388656616211,70.19877624511719,-19.26337242126465
1.433,-1.9609181880950928,-12.930813789367676,2.1858434677124023,-0.6959282159805298,1.4408783912658691,1.4978415966033936,10.143233299255371,69.38029479980469,-19.657995223999023
1.44,-1.1437692642211914,-13.240684509277344,2.3198413848876953,-0.7336491346359253,1.5238033533096313,1.5822937488555908,10.347851753234863,69.42414855957031,-18.517976760864258
1.45,-0.1423729509115219,-13.746766090393066,2.4705893993377686,-0.7941247820854187,1.5879441499710083,1.7050775289535522,10.172464370727539,68.44490051269531,-17.962583541870117
1.46,0.4570291042327881,-14.102100372314453,2.3270199298858643,-0.8352054357528687,1.601230502128601,1.8403842449188232,11.32709789276123,67.84565734863281,-17.62642478942871
1.469,0.8087739944458008,-14.196616172790527,2.025524377822876,-0.8546004891395569,1.7021758556365967,2.01035737991333,11.487869262695312,66.29640197753906,-16.296403884887695
1.489,2.0925233364105225,-14.702698707580566,1.506281852722168,-0.8677340149879456,2.0648770332336426,2.2432498931884766,11.809412002563477,64.35253143310547,-15.024847030639648
1.492,2.9694929122924805,-14.752946853637695,1.3028918504714966,-0.8674286603927612,2.10198712348938,2.2708916664123535,11.838644027709961,64.35253143310547,-14.045600891113281
1.5,4.500899314880371,-14.6727876663208,0.9308079481124878,-0.8497135639190674,2.130239725112915,2.356718063354492,12.510961532592773,63.460975646972656,-13.899443626403809
1.51,5.7439703941345215,-14.30907917022705,0.37926235795021057,-0.8307766914367676,1.940260648727417,2.476752996444702,12.554807662963867,61.98480224609375,-12.876352310180664
1.52,4.151546955108643,-13.678570747375488,-0.8111668825149536,-0.8539896011352539,1.4515684843063354,2.598620653152466,13.285589218139648,60.50862121582031,-11.838644027709961
1.529,-0.09930214285850525,-14.141581535339355,-1.636690616607666,-1.0877982378005981,1.0038042068481445,2.685363531112671,13.431745529174805,60.27477264404297,-11.32709789276123
1.547,-1.286142110824585,-14.796018600463867,1.0851449966430664,-1.0798569917678833,-0.6479753255844116,2.850602626800537,14.966383934020996,57.117801666259766,-10.830166816711426
1.551,-0.4977070689201355,-13.86521053314209,1.7754743099212646,-1.0323622226715088,-1.027475357055664,2.7699685096740723,15.770242691040039,57.103187561035156,-11.341712951660156
1.56,0.8374878764152527,-11.560921669006348,3.4025938510894775,-0.8538368940353394,-1.5224288702011108,2.6444356441497803,16.837182998657227,55.48085403442383,-12.116340637207031
1.569,0.08733802288770676,-7.469195365905762,5.234299182891846,-0.5151121020317078,-2.115579128265381,2.5952608585357666,18.225666046142578,54.6185302734375,-12.072493553161621
1.58,-4.49132776260376,-4.034298896789551,6.32542610168457,-0.20005835592746735,-1.9685131311416626,2.509587287902832,19.774919509887695,53.77082824707031,-13.519438743591309
1.59,-7.971688270568848,-4.12642240524292,5.08235502243042,-0.07223481684923172,-1.2754865884780884,1.94713294506073,21.046478271484375,52.908504486083984,-14.703303337097168
1.602,-6.539583683013916,-3.7902309894561768,3.9840495586395264,0.14523321390151978,-0.4608978033065796,1.011745572090149,21.57263946533203,51.72464370727539,-15.85793685913086
1.61,-3.8907296657562256,-4.187439441680908,3.678964614868164,0.28939738869667053,-0.12629638612270355,0.5111414790153503,21.938030242919922,52.104644775390625,-16.910259246826172
1.62,-0.7956134676933289,-4.132404327392578,2.7661027908325195,0.47769662737846375,0.2845104932785034,-0.24358251690864563,21.353404998779297,52.17772674560547,-17.670272827148438
1.63,1.164108157157898,-2.915654182434082,2.135594129562378,0.6247624158859253,0.40805795788764954,-0.7399104833602905,20.344928741455078,53.01081466674805,-17.88950538635254
1.64,1.9764714241027832,-2.4335005283355713,1.5996018648147583,0.741284966468811,0.4075998365879059,-1.221577763557434,19.701841354370117,53.741600036621094,-18.225666046142578
1.65,2.297109603881836,-2.344965934753418,1.2059825658798218,0.8416195511817932,0.3052798807621002,-1.6730071306228638,17.553346633911133,54.85238265991211,-19.17568016052246
1.666,1.23589289188385,-2.5351955890655518,0.592223584651947,0.9758571982383728,0.13057243824005127,-2.3936755657196045,15.302543640136719,57.24934387207031,-20.169540405273438
1.67,1.046859860420227,-2.6081764698028564,0.49172505736351013,0.9996809363365173,0.10644327104091644,-2.618015766143799,14.703303337097168,57.45396041870117,-20.213388442993164
1.68,0.8638089299201965,-2.985046148300171,0.12203395366668701,1.0369436740875244,0.07620543986558914,-3.059518575668335,13.110200881958008,59.13475799560547,-21.28032684326172
1.69,1.124626636505127,-3.2781667709350586,-0.17108681797981262,1.094059705734253,0.009926560334861279,-3.475517988204956,10.786319732666016,61.049400329589844,-22.244956970214844
1.7,1.2442678213119507,-3.9397823810577393,-0.17706885933876038,1.162629246711731,-0.15913039445877075,-3.8428006172180176,7.64396333694458,63.06635665893555,-23.487285614013672
1.718,0.6209374666213989,-4.9184465408325195,0.07058826088905334,1.1992812156677246,-0.3298672139644623,-4.165184497833252,4.589301109313965,65.4779281616211,-24.305757522583008
1.722,-1.439282774925232,-6.394818305969238,0.696311354637146,1.2021827697753906,-0.3712533414363861,-4.503756999969482,1.344636082649231,66.88102722167969,-25.621164321899414
1.73,-2.6835503578186035,-7.267002105712891,0.8267201781272888,1.1919506788253784,-0.2232712358236313,-4.65952730178833,-2.630809783935547,68.7518310546875,-27.038877487182617
1.739,-2.7972095012664795,-8.228917121887207,0.6687938570976257,1.2296717166900635,-0.02672535367310047,-4.859738349914551,-5.860859394073486,70.34493255615234,-29.333528518676758
1.75,-1.7443677186965942,-9.253045082092285,0.8769694566726685,1.2880094051361084,0.04138611629605293,-5.000237464904785,-9.77784252166748,71.57263946533203,-30.28354263305664
1.76,-1.2514461278915405,-10.76411247253418,0.8075776100158691,1.3046554327011108,-0.08597928285598755,-5.003597259521484,-13.694826126098633,71.86495208740234,-31.45279312133789
1.77,-1.8999011516571045,-12.196216583251953,0.5754737854003906,1.3292428255081177,-0.3669773042201996,-5.003597259521484,-17.670272827148438,72.96112060546875,-32.95820236206055
1.782,-3.8703906536102295,-13.613964080810547,0.11246266216039658,1.347263216972351,-0.578489363193512,-5.003597259521484,-23.01958465576172,72.66880798339844,-34.02513885498047
1.79,-4.328616142272949,-14.139188766479492,-0.10289137810468674,1.3194688558578491,-0.5109887719154358,-5.003597259521484,-26.074249267578125,72.58111572265625,-36.01285934448242
1.8,-4.680360794067383,-14.738590240478516,-0.2309073656797409,1.2521209716796875,-0.33139437437057495,-5.003597259521484,-30.37123680114746,72.3472671508789,-37.474422454833984
1.81,-4.859822750091553,-15.235100746154785,-0.4283152222633362,1.1745411157608032,-0.16691893339157104,-5.003597259521484,-33.84975051879883,71.61648559570312,-39.16983413696289
1.819,-4.821537494659424,-15.675379753112793,-0.43908295035362244,1.142012596130371,-0.08155050873756409,-5.003597259521484,-37.708274841308594,71.00263214111328,-40.73370361328125
1.839,-4.840680122375488,-15.87159252166748,-0.17587246000766754,1.1036808490753174,-0.04642575979232788,-4.973053932189941,-41.21601867675781,69.19029235839844,-41.43525314331055
1.843,-4.9052863121032715,-15.702898025512695,-0.3361915946006775,1.0144944190979004,-0.0009162978385575116,-4.821253776550293,-44.811458587646484,67.15872192382812,-42.91142654418945
1.85,-4.387239933013916,-15.44088363647461,-0.47617167234420776,0.9645562171936035,-0.013286319561302662,-4.7393975257873535,-46.4191780090332,65.71177673339844,-43.78836441040039
1.859,-3.7914273738861084,-15.195619583129883,-0.3122633397579193,0.9361509680747986,-0.12003502249717712,-4.619668483734131,-48.5384407043457,64.19175720214844,-44.89915466308594
1.869,-3.8907296657562256,-15.804593086242676,-0.22731813788414001,0.8845328688621521,-0.26251932978630066,-4.4121270179748535,-50.81847381591797,61.86787414550781,-46.667640686035156
1.88,-5.096712112426758,-15.468401908874512,-0.26440688967704773,0.831234872341156,-0.39645153284072876,-4.048356533050537,-52.58695983886719,60.406314849853516,-46.726104736328125
1.898,-6.6999030113220215,-13.971691131591797,-0.46779680252075195,0.8251261711120605,-0.4199698567390442,-3.7505598068237305,-54.22391128540039,58.681671142578125,-47.77842712402344
1.903,-7.731209754943848,-13.112667083740234,-0.27397817373275757,0.8294023275375366,-0.30466902256011963,-3.3325753211975098,-55.32008361816406,55.89009094238281,-48.6407470703125
1.91,-7.972884654998779,-13.196416854858398,-0.41874393820762634,0.8162686824798584,-0.19578230381011963,-3.05631160736084,-55.84624481201172,54.867000579833984,-49.780765533447266
1.919,-8.317450523376465,-13.473983764648438,-0.5790630578994751,0.7687739133834839,-0.06322455406188965,-2.6332874298095703,-56.85471725463867,53.88775634765625,-50.570011138916016
1.929,-8.845067977905273,-13.551751136779785,-1.0205388069152832,0.6279694437980652,0.043676864355802536,-2.0109684467315674,-57.07395553588867,52.47003936767578,-50.39461898803711
1.94,-9.267401695251465,-13.334004402160645,-1.2634103298187256,0.47219884395599365,0.11423180252313614,-1.461800456047058,-57.717044830322266,51.154632568359375,-51.76848602294922
1.959,-8.560322761535645,-13.105489730834961,-1.31365966796875,0.2869539260864258,0.1495092660188675,-0.9024006724357605,-57.86320114135742,50.11692810058594,-52.104644775390625
1.963,-6.711866855621338,-12.982258796691895,-1.0348957777023315,0.07467827200889587,0.0731511116027832,-0.07406741380691528,-57.20549774169922,49.605377197265625,-53.653900146484375
1.97,-6.0023956298828125,-12.585049629211426,-0.8171489238739014,-0.03222314268350601,-0.04459316283464432,0.18799376487731934,-57.16164779663086,49.54691696166992,-52.937740325927734
1.979,-5.78225564956665,-12.037094116210938,-0.5682953596115112,-0.1725694239139557,-0.2525927722454071,0.7687739133834839,-56.401634216308594,49.035369873046875,-52.66004180908203
1.989,-5.120640754699707,-11.84447193145752,-0.27397817373275757,-0.24862214922904968,-0.33429598808288574,1.1464413404464722,-56.34317398071289,49.31306457519531,-53.244667053222656
2.0,-4.281955718994141,-11.519047737121582,-0.06699903309345245,-0.3029891550540924,-0.39248090982437134,1.461800456047058,-55.363929748535156,49.4007568359375,-53.0985107421875
2.019,-3.2554352283477783,-11.158927917480469,-0.13998012244701385,-0.3556762933731079,-0.4485277831554413,1.7151567935943604,-53.71236038208008,50.07307434082031,-52.689273834228516
2.023,-3.095116138458252,-10.582257270812988,1.384247899055481,-0.3197879493236542,-0.7231117486953735,2.1261165142059326,-52.58695983886719,50.5992431640625,-52.80619812011719
2.03,-3.5150563716888428,-11.276176452636719,4.335794448852539,-0.2854267954826355,-0.7530441284179688,2.2153027057647705,-51.95848846435547,50.67231750488281,-51.85618591308594
2.039,-1.9692928791046143,-14.498111724853516,6.879364967346191,-0.3940081000328064,-0.21639901399612427,2.034639358520508,-50.93539810180664,51.06694030761719,-52.0169563293457
2.05,5.763113021850586,-14.981461524963379,0.3349951505661011,-0.5482515692710876,0.5207626223564148,1.7763960361480713,-49.50307083129883,51.154632568359375,-51.43233108520508
2.059,9.896714210510254,-8.756534576416016,-1.8436697721481323,-0.2776382565498352,0.32528576254844666,1.888489842414856,-48.30459213256836,51.3592529296875,-51.49079132080078
2.079,8.023134231567383,-6.9068827629089355,0.4486542344093323,-0.16019940376281738,-0.4057672321796417,1.9787452220916748,-47.529964447021484,51.66618347167969,-51.24232864379883
2.083,-1.8113667964935303,-7.143772125244141,1.4333007335662842,-0.22082778811454773,-1.4077389240264893,2.0054705142974854,-46.33148193359375,52.22157287597656,-51.973106384277344
2.09,-4.974678039550781,-7.607979774475098,2.1020946502685547,-0.18051066994667053,-1.4013248682022095,1.8891007900238037,-45.67377853393555,52.528499603271484,-50.67231750488281
2.1,-8.49571704864502,-9.293722152709961,2.361715793609619,-0.1823432743549347,-0.8868235945701599,1.649794340133667,-44.76761245727539,53.025428771972656,-50.67231750488281
2.11,-7.046862602233887,-10.386046409606934,1.557727575302124,-0.22602012753486633,-0.17409659922122955,1.4237741231918335,-43.52528381347656,53.17158508300781,-49.91230773925781
2.12,-3.1764719486236572,-9.424131393432617,1.3890334367752075,-0.1644754558801651,0.29993483424186707,1.2495248317718506,-43.23297119140625,52.85004425048828,-50.40924072265625
2.14,-1.1629117727279663,-9.28893756866455,3.263810157775879,0.038637224584817886,0.23777928948402405,1.264796495437622,-41.9029541015625,53.741600036621094,-50.979244232177734
2.144,-4.05703067779541,-11.726027488708496,2.1882362365722656,-0.013591751456260681,0.40882155299186707,1.3074043989181519,-41.508331298828125,53.34697341918945,-50.84770202636719
2.15,-3.796213150024414,-9.67537784576416,0.8925228118896484,0.024434609338641167,0.5923865437507629,1.2735012769699097,-41.23063278198242,53.71236038208008,-51.0815544128418
2.16,-0.9523433446884155,-9.22313404083252,1.4656038284301758,0.0959058403968811,0.6120869517326355,1.2582296133041382,-40.79216766357422,53.80005645751953,-50.83308792114258
2.17,1.9489539861679077,-9.707681655883789,2.1846470832824707,0.1437060534954071,0.3399465084075928,1.2324206829071045,-40.309852600097656,53.7562141418457,-50.24846649169922
2.18,2.5914268493652344,-9.658628463745117,2.623729705810547,0.1137736514210701,0.05421429127454758,1.2559388875961304,-39.35983657836914,54.39929962158203,-50.950016021728516
2.2,1.6019947528839111,-9.500701904296875,3.1238298416137695,0.07208210229873657,-0.22128592431545258,1.3237450122833252,-38.35136032104492,54.09237289428711,-51.695411682128906
2.204,0.906879723072052,-9.475577354431152,3.153740167617798,0.08185594528913498,-0.37079522013664246,1.363603949546814,-37.021339416503906,53.61005783081055,-51.76848602294922
2.21,1.2430713176727295,-9.643074989318848,4.54636287689209,0.04703662171959877,-0.37690383195877075,1.3669637441635132,-37.3867301940918,53.56621170043945,-51.154632568359375
2.22,1.1078768968582153,-9.011369705200195,3.218346357345581,-0.04902193322777748,-0.5401575565338135,1.327562928199768,-36.21747970581055,54.22391128540039,-50.73078155517578
2.23,-0.038285162299871445,-9.20877742767334,2.9718856811523438,-0.04337143152952194,-0.6809620261192322,1.3614658117294312,-36.12978744506836,54.12160110473633,-51.3592529296875
2.24,-1.4009976387023926,-9.67657470703125,2.7326035499572754,-0.09040804952383041,-0.7060074806213379,1.3257302045822144,-34.88745880126953,54.004676818847656,-51.12540054321289
2.259,-2.115255117416382,-10.216156005859375,1.624726414680481,-0.13820825517177582,-0.59803706407547,1.3254249095916748,-33.557437896728516,54.15083312988281,-51.27155685424805
2.263,-2.3772692680358887,-9.729216575622559,1.2095718383789062,-0.12308934330940247,-0.5028948187828064,1.2736539840698242,-33.70359420776367,54.09237289428711,-51.33001708984375
2.27,-2.0853447914123535,-9.414560317993164,1.2323036193847656,-0.10812314599752426,-0.42302414774894714,1.2479976415634155,-33.060508728027344,54.32621765136719,-51.24232864379883
2.28,-2.8582265377044678,-10.110871315002441,0.7022933959960938,-0.13240504264831543,-0.4444044530391693,1.2515101432800293,-32.30049514770508,53.639286041259766,-51.22771453857422
2.289,-4.115654468536377,-9.790233612060547,0.13160523772239685,-0.10735956579446793,-0.4312708377838135,1.1870638132095337,-30.91201400756836,53.59543991088867,-51.695411682128906
2.3,-3.792623519897461,-9.44207763671875,0.5527420043945312,-0.06108652427792549,-0.2353358417749405,1.1537716388702393,-30.99970817565918,53.90237045288086,-50.86231994628906
2.319,-1.0755738019943237,-9.69810962677002,1.452443242073059,-0.009621127508580685,0.007941247895359993,1.1042916774749756,-29.698917388916016,54.31160354614258,-50.71616744995117
2.322,-0.5575276613235474,-9.671788215637207,2.0554347038269043,-0.020922133699059486,-0.020005837082862854,1.107040524482727,-29.070446014404297,54.60391616821289,-50.67231750488281
2.33,-0.7405785322189331,-9.385847091674805,2.0135602951049805,-0.04153883829712868,-0.1716531366109848,1.1340713500976562,-28.851213455200195,54.004676818847656,-50.760013580322266
2.34,-1.7491532564163208,-9.031708717346191,2.035095691680908,-0.031154125928878784,-0.26343563199043274,1.1522445678710938,-28.354280471801758,53.814674377441406,-51.65156173706055
2.35,-3.1716861724853516,-8.872586250305176,2.0578272342681885,-0.01878410577774048,-0.20357082784175873,1.1107057332992554,-27.842735290527344,53.59543991088867,-51.344635009765625
2.36,-3.950549840927124,-9.125028610229492,1.6378871202468872,-0.04001167416572571,-0.06841690838336945,1.0793988704681396,-26.95118522644043,54.18006134033203,-50.83308792114258
2.379,-2.7768707275390625,-9.203991889953613,1.621137261390686,-0.03084869496524334,0.09376781433820724,1.027475357055664,-26.045015335083008,54.048526763916016,-50.92078399658203
2.382,-1.1617152690887451,-9.509077072143555,1.688136339187622,-0.03756821155548096,0.07452555745840073,1.034194827079773,-25.40192985534668,54.18006134033203,-50.83308792114258
2.39,-0.7525426745414734,-9.644271850585938,1.9441683292388916,-0.04092797264456749,-0.01817324012517929,1.0812314748764038,-26.074249267578125,54.019290924072266,-51.25694274902344
2.4,-1.4560325145721436,-9.713663101196289,2.194218397140503,-0.06872233748435974,-0.13897183537483215,1.1508700847625732,-25.50423812866211,54.033905029296875,-50.89155578613281
2.41,-2.1678972244262695,-9.631111145019531,2.1822540760040283,-0.06612616032361984,-0.11652254313230515,1.1882855892181396,-24.96346092224121,53.97544479370117,-50.570011138916016
2.42,-2.0865414142608643,-9.395418167114258,2.3330020904541016,-0.057879481464624405,-0.05146539583802223,1.1914926767349243,-23.823442459106445,54.29698944091797,-50.979244232177734
2.44,-2.493321180343628,-9.156135559082031,2.062613010406494,-0.08521570265293121,-0.2571742534637451,1.161407470703125,-23.00497055053711,53.96083068847656,-51.7392578125
2.444,-2.3545374870300293,-8.591429710388184,2.664407968521118,-0.05314527824521065,-0.2724458873271942,1.1323914527893066,-22.508039474487305,53.88775634765625,-50.49692916870117
2.45,-2.9072792530059814,-8.055437088012695,2.719442844390869,-0.020922133699059486,-0.299018532037735,1.0881036520004272,-22.420345306396484,53.624671936035156,-51.3592529296875
2.459,-4.945964336395264,-7.8137617111206055,2.0279171466827393,-0.07452555745840073,-0.2513710558414459,1.0532844066619873,-21.674949645996094,53.08388900756836,-51.403099060058594
2.47,-7.082754611968994,-9.09152889251709,-0.4929214417934418,-0.14508049190044403,-0.266184538602829,1.102611780166626,-21.148786544799805,53.40544128417969,-51.11078643798828
2.48,-4.955535411834717,-9.245866775512695,-0.7597211599349976,-0.14553864300251007,0.09285151958465576,1.1386528015136719,-20.724933624267578,53.37620544433594,-51.94387435913086
2.499,-0.0011964113218709826,-9.651450157165527,2.5435705184936523,-0.12828169763088226,-0.08017606288194656,1.3574951887130737,-19.26337242126465,53.36158752441406,-51.02309036254883
2.504,-1.2179466485977173,-9.282955169677734,2.647658109664917,-0.11468994617462158,-0.1944078654050827,1.425148606300354,-19.014907836914062,52.99620056152344,-50.65769958496094
2.51,-3.7435710430145264,-8.260024070739746,2.47896409034729,-0.08399397134780884,-0.25564709305763245,1.4837915897369385,-19.044137954711914,52.83543014526367,-51.02309036254883
2.52,-5.113461494445801,-6.999006271362305,1.3591231107711792,-0.02321287989616394,-0.07024950534105301,1.5254831314086914,-18.00642967224121,52.689273834228516,-51.43233108520508
2.529,-4.417150497436523,-7.171289443969727,1.8221343755722046,-0.006872233934700489,0.18341228365898132,1.4998267889022827,-16.9541072845459,52.47003936767578,-51.476173400878906
2.54,-4.485345840454102,-8.249256134033203,1.6199408769607544,0.00015271631127689034,0.037110064178705215,1.5210545063018799,-16.895645141601562,52.42618942260742,-51.65156173706055
2.559,-5.114657878875732,-9.693324089050293,1.4775679111480713,0.0073303827084600925,0.16844607889652252,1.5401439666748047,-14.761765480041504,52.17772674560547,-51.63694763183594
2.562,-4.985445499420166,-10.441081047058105,1.1988041400909424,-0.023976460099220276,0.22876903414726257,1.5755741596221924,-14.849458694458008,52.23618698120117,-51.344635009765625
2.57,-4.338187217712402,-10.844271659851074,0.9391828775405884,-0.02474004216492176,0.3604104816913605,1.6111570596694946,-14.089447021484375,51.62232971191406,-51.505409240722656
2.579,-1.8819550275802612,-9.189635276794434,0.11964112520217896,0.031001411378383636,0.4538728594779968,1.6798794269561768,-13.460975646972656,51.03771209716797,-51.710025787353516
2.59,-2.4358932971954346,-9.476773262023926,2.0997018814086914,0.02580905519425869,0.30634891986846924,1.8535178899765015,-12.642502784729004,50.64308547973633,-51.60771560668945
2.6,-4.689931869506836,-10.468598365783691,1.8149559497833252,0.007024950347840786,0.2396118938922882,1.9643898010253906,-11.531715393066406,50.789241790771484,-51.973106384277344
2.612,-5.5274200439453125,-9.927821159362793,1.9692928791046143,-0.023518310859799385,0.4178318381309509,2.017688035964966,-10.815550804138184,50.01461410522461,-51.44694519042969
2.62,-4.874179840087891,-8.853443145751953,2.0099709033966064,-0.026572639122605324,0.5032002329826355,2.0079140663146973,-9.573224067687988,49.91230773925781,-51.0815544128418
2.63,-5.3694939613342285,-6.634100437164307,2.24566388130188,-0.036651913076639175,0.4560109078884125,1.9555323123931885,-9.061677932739258,49.19614028930664,-51.30078887939453
2.64,-7.542176723480225,-7.331608772277832,2.063809394836426,-0.03451388329267502,0.4306599795818329,1.954005241394043,-8.082432746887207,48.72844314575195,-51.213096618652344
2.65,-7.17368221282959,-10.698309898376465,1.4584254026412964,-0.07681629806756973,0.6244570016860962,1.9660696983337402,-7.161648750305176,48.31920623779297,-51.63694763183594
2.66,-5.5692949295043945,-14.108081817626953,1.7778671979904175,-0.17119498550891876,0.6013968586921692,2.118633270263672,-6.284712314605713,47.98304748535156,-51.31540298461914
2.676,-3.9529428482055664,-16.183855056762695,0.8003991842269897,-0.37690383195877075,0.5334380269050598,2.456900119781494,-4.735457420349121,47.13534164428711,-50.65769958496094
2.68,-3.8943188190460205,-15.944573402404785,0.9547362327575684,-0.38667771220207214,0.4928155243396759,2.509281873703003,-4.560070037841797,47.106109619140625,-50.964630126953125
2.69,-5.43290376663208,-15.62991714477539,1.530210018157959,-0.43829578161239624,0.39996400475502014,2.6955955028533936,-3.0254311561584473,46.05378341674805,-50.13154220581055
2.7,-5.174479007720947,-11.073983192443848,0.9930213689804077,-0.4294382631778717,0.46410486102104187,2.73301100730896,-1.9731072187423706,45.14761734008789,-49.86845779418945
2.71,-4.990231513977051,-6.332605361938477,0.9738787412643433,-0.33017265796661377,0.4586070775985718,2.694373846054077,-0.7600116729736328,44.29991149902344,-48.93306350708008
2.728,-6.976274490356445,-0.21176479756832123,0.592223584651947,-0.2099849283695221,0.4853324294090271,2.5663974285125732,0.4092370569705963,43.53989791870117,-48.23151397705078
2.732,-8.880961418151855,1.4895319938659668,0.4211367666721344,-0.0529925599694252,0.6265950202941895,2.350762128829956,1.5784857273101807,42.41449737548828,-49.020755767822266
2.74,-8.519644737243652,0.4378865361213684,0.5790630578994751,-0.00809396430850029,0.7469354271888733,2.2284364700317383,2.4115755558013916,41.53756332397461,-48.216896057128906
2.75,-8.118846893310547,-2.1954145431518555,0.5539384484291077,0.012217304669320583,0.8229882121086121,2.1000020503997803,3.1569714546203613,40.99678421020508,-48.43613052368164
2.759,-8.045866012573242,-7.838886737823486,1.1772687435150146,-0.04718933627009392,0.8176431059837341,2.0615174770355225,3.3469743728637695,40.48523712158203,-48.43613052368164
2.77,-6.579065322875977,-10.326226234436035,1.714457392692566,-0.17623461782932281,0.7869471311569214,2.0835087299346924,4.296989440917969,39.418296813964844,-47.77842712402344
2.78,-7.77188777923584,-12.45583724975586,1.5457634925842285,-0.25366178154945374,0.5523748993873596,2.1817052364349365,5.349313259124756,39.389068603515625,-46.95995330810547
2.792,-7.354340076446533,-15.554543495178223,2.0518453121185303,-0.469449907541275,0.6411030292510986,2.2568414211273193,6.445483684539795,37.94212341308594,-46.53609848022461
2.8,-5.814558506011963,-11.656635284423828,1.6067804098129272,-0.5021312236785889,0.6690501570701599,2.300060272216797,6.8839521408081055,36.87518310546875,-47.33995819091797
2.809,-7.633103847503662,-8.214560508728027,1.696511149406433,-0.4492913782596588,0.4271475076675415,2.269822597503662,8.053200721740723,36.12978744506836,-46.8430290222168
2.82,-9.664609909057617,-9.93260669708252,1.3411771059036255,-0.4141666293144226,0.6149886250495911,2.169029712677002,8.94475269317627,35.6474723815918,-46.185325622558594
2.83,-7.542176723480225,-11.150553703308105,0.8159525394439697,-0.36850446462631226,0.7822129726409912,2.068695068359375,9.470914840698242,34.185909271240234,-45.1037712097168
2.849,-5.942574977874756,-12.77049446105957,0.7824530005455017,-0.38896840810775757,0.7968736886978149,2.0668625831604004,9.646302223205566,33.630516052246094,-44.738380432128906
2.853,-6.428317546844482,-14.95274829864502,1.3962119817733765,-0.4208861291408539,0.7260133028030396,1.9581284523010254,10.859397888183594,32.052032470703125,-44.31452941894531
2.86,-6.08614444732666,-15.765110969543457,1.2813564538955688,-0.42210787534713745,0.7828238010406494,1.7989981174468994,11.137094497680664,31.55510139465332,-43.53989791870117
2.869,-4.132404327392578,-14.312667846679688,0.9236294627189636,-0.40485095977783203,0.6386595964431763,1.4978415966033936,11.634024620056152,30.63431739807129,-43.393741607666016
2.88,-3.1106693744659424,-11.288141250610352,-0.6197410225868225,-0.4283692538738251,0.2719877362251282,1.1701123714447021,11.6047945022583,29.932767868041992,-43.10143280029297
2.89,-4.84187650680542,-7.867600917816162,-0.4989035129547119,-0.3805690407752991,-0.35017848014831543,1.0474811792373657,11.487869262695312,29.15814208984375,-42.41449737548828
2.91,-9.45763111114502,-4.486542224884033,-1.8125630617141724,-0.1953241527080536,-0.9382889866828918,1.0361801385879517,12.671732902526855,28.28120231628418,-42.10757064819336
2.913,-13.112667083740234,-0.24526430666446686,1.330409288406372,0.29413163661956787,-1.0031933784484863,1.0983357429504395,12.934814453125,27.375036239624023,-42.706809997558594
2.92,-12.338589668273926,-0.09810572117567062,4.281955718994141,0.4499022364616394,-0.5511531829833984,0.9185885787010193,12.774043083190918,27.199649810791016,-42.53142547607422
2.93,-7.830511569976807,1.8556338548660278,5.373082637786865,0.493731826543808,0.1774563491344452,0.3404046595096588,13.460975646972656,26.673486709594727,-42.3414192199707
2.94,-0.9272187352180481,3.5018956661224365,3.3367910385131836,0.5493205189704895,1.2021827697753906,-0.42241328954696655,14.11867904663086,26.79041290283203,-41.74217987060547
2.949,6.910471439361572,6.720242023468018,-2.062613010406494,0.4925100803375244,2.6364943981170654,-1.4294246435165405,13.124817848205566,26.848873138427734,-41.56679153442383
2.97,15.464812278747559,7.945367336273193,-1.6462620496749878,0.839786946773529,2.451402187347412,-2.4271202087402344,12.42326831817627,27.740427017211914,-39.769073486328125
2.973,19.902301788330078,0.10289137810468674,2.1367905139923096,0.8585711121559143,0.7547240257263184,-3.194366931915283,11.210172653198242,28.500438690185547,-40.339080810546875
2.98,17.594425201416016,-2.6632113456726074,2.0997018814086914,0.8874344229698181,-0.17318028211593628,-3.715435028076172,11.034785270690918,29.421222686767578,-39.28675842285156
2.99,11.645867347717285,-4.412364959716797,0.1663011610507965,0.8866708874702454,-1.0154106616973877,-4.144415378570557,10.026308059692383,30.795087814331055,-39.66676330566406
3.0,5.212764263153076,-3.779463291168213,-1.168893814086914,0.9080511927604675,-1.3257302045822144,-4.409988880157471,9.017830848693848,32.183570861816406,-41.37678909301758
3.01,1.322034478187561,-3.201596736907959,-1.3160523176193237,0.9266825914382935,-1.3410018682479858,-4.782922267913818,7.293189525604248,33.060508728027344,-41.36217498779297
3.029,0.20578275620937347,-3.5676984786987305,-0.259621262550354,0.96883225440979,-1.1494957208633423,-5.003597259521484,4.647763729095459,35.7059326171875,-42.79450607299805
3.033,-0.08853442966938019,-4.610969066619873,1.2897313833236694,0.9695958495140076,-0.9381362795829773,-5.003597259521484,4.004676818847656,36.34901809692383,-43.3206672668457
3.04,-0.8901299834251404,-4.528416633605957,1.4883357286453247,0.9914342761039734,-0.8538368940353394,-5.003597259521484,2.9669687747955322,37.664424896240234,-44.022212982177734
3.05,-2.623729705810547,-4.682753562927246,1.4895319938659668,0.9915869832038879,-0.8127562403678894,-5.003597259521484,1.4177141189575195,38.08827590942383,-44.79684066772461
3.06,-4.526023864746094,-5.577669143676758,1.3232309818267822,0.9520334601402283,-0.7348708510398865,-5.003597259521484,-0.7015492916107178,39.330604553222656,-44.46068572998047
3.069,-6.007181167602539,-6.794419765472412,1.0707881450653076,0.8281804919242859,-0.28099802136421204,-5.003597259521484,-2.689272165298462,40.36831283569336,-45.60070037841797
3.09,-6.441478729248047,-7.375875473022461,0.11485548317432404,0.8051204085350037,0.043676864355802536,-5.003597259521484,-4.706226348876953,42.063724517822266,-46.24378967285156
3.093,-7.875975608825684,-8.541180610656738,-0.3517449200153351,0.7160868048667908,0.26740625500679016,-5.003597259521484,-8.31628131866455,42.58988571166992,-46.550716400146484
3.1,-9.355936050415039,-8.837889671325684,-0.41515469551086426,0.7066183686256409,0.24648413062095642,-5.003597259521484,-9.50014591217041,43.65682601928711,-46.4191780090332
3.11,-12.100502967834473,-9.022137641906738,-0.1663011610507965,0.6514877676963806,0.17989981174468994,-5.001612186431885,-11.867875099182129,43.90529251098633,-46.78456497192383
3.12,-14.404791831970215,-8.822336196899414,-0.30628129839897156,0.6229298114776611,0.22571469843387604,-4.884783744812012,-13.607131958007812,44.32914352416992,-47.74919891357422
3.13,-14.877374649047852,-8.849854469299316,0.15314064919948578,0.5955936312675476,0.3920227587223053,-4.7053422927856445,-15.404851913452148,44.32914352416992,-48.17304992675781
3.149,-13.457233428955078,-9.463613510131836,1.0109676122665405,0.5175555348396301,0.4036291837692261,-4.384485244750977,-18.941829681396484,45.07453918457031,-47.909969329833984
3.153,-11.685348510742188,-10.846664428710938,0.6161518096923828,0.33948835730552673,0.01970040239393711,-3.9119808673858643,-19.044137954711914,44.84069061279297,-48.07073974609375
3.16,-11.723634719848633,-12.031111717224121,-0.12801600992679596,0.27611106634140015,-0.2695443034172058,-3.606395721435547,-20.09646224975586,44.65068435668945,-48.17304992675781
3.17,-12.965509414672852,-13.066007614135742,-0.9750751852989197,0.25854870676994324,-0.6337726712226868,-3.0689868927001953,-21.221864700317383,45.27915573120117,-48.421512603759766
3.18,-15.127424240112305,-12.33141040802002,-1.470389485359192,0.29626965522766113,-0.6409503817558289,-2.73606538772583,-22.20111083984375,45.22069549560547,-48.655364990234375
3.19,-16.091732025146484,-11.44128131866455,-0.8721838593482971,0.24174991250038147,-0.24449880421161652,-2.425593137741089,-23.414207458496094,45.01607894897461,-48.90382766723633
3.208,-15.005390167236328,-11.511869430541992,0.5156532526016235,0.039706241339445114,0.9100365042686462,-1.8243489265441895,-24.802688598632812,44.75299835205078,-49.576148986816406
3.212,-14.078170776367188,-12.059825897216797,1.2167502641677856,0.014355332590639591,1.0186177492141724,-1.7438675165176392,-25.12423324584961,44.97222900390625,-48.78690719604492
3.22,-12.226126670837402,-12.964313507080078,2.204986095428467,-0.05100724473595619,1.288162112236023,-1.3782646656036377,-25.723472595214844,45.03069305419922,-49.07921600341797
3.23,-9.762716293334961,-13.414163589477539,3.8117663860321045,-0.07101307809352875,1.2211195230484009,-0.9034696817398071,-26.103479385375977,45.1037712097168,-49.06460189819336
3.24,-9.830911636352539,-11.578868865966797,3.544966459274292,-0.017562376335263252,1.2250901460647583,-0.40515637397766113,-25.591930389404297,45.191463470458984,-49.82461166381836
3.25,-9.359525680541992,-9.647860527038574,3.5270204544067383,0.11316278576850891,1.4924964904785156,-0.19746218621730804,-26.001171112060547,45.03069305419922,-49.86845779418945
3.269,-6.764509677886963,-9.361918449401855,3.008974552154541,0.16844607889652252,2.5384504795074463,-0.026572639122605324,-25.78193473815918,43.992984771728516,-50.760013580322266
3.272,-1.6797614097595215,-10.563116073608398,0.6424728631973267,0.16279558837413788,2.529592990875244,0.06505714356899261,-25.78193473815918,44.13914108276367,-49.95615005493164
3.28,1.836491346359253,-11.01296615600586,-1.5074782371520996,0.17669276893138885,2.0839667320251465,0.27519479393959045,-25.445777893066406,44.10990905761719,-50.745399475097656
3.29,3.538984537124634,-10.969895362854004,-2.011167287826538,0.15424346923828125,0.919963002204895,0.6881397366523743,-25.109615325927734,44.007598876953125,-51.84156799316406
3.3,-3.5641093254089355,-12.66042423248291,3.0819554328918457,0.14828753471374512,-0.40683624148368835,1.4451543092727661,-24.802688598632812,43.90529251098633,-52.484657287597656
3.31,-12.702299118041992,-12.766904830932617,6.4319071769714355,0.17241671681404114,-0.7997753024101257,1.931708574295044,-24.13037109375,43.466819763183594,-52.090030670166016
3.329,-6.228517055511475,-22.041484832763672,-0.5264209508895874,-0.2977968156337738,1.2426526546478271,0.963792622089386,-21.748027801513672,42.96989059448242,-52.96696853637695
3.333,8.082954406738281,-23.62074851989746,-1.0193424224853516,-0.13820825517177582,1.733788251876831,0.4599815011024475,-21.879568099975586,42.838348388671875,-53.37620544433594
3.34,27.194429397583008,-23.83251190185547,-1.0516455173492432,0.06123923882842064,1.335962176322937,0.611934244632721,-21.36802101135254,43.21835708618164,-52.543113708496094
3.35,34.94477844238281,-16.346567153930664,7.671389579772949,0.3113885521888733,-0.01542434748262167,1.7050775289535522,-20.724933624267578,42.516807556152344,-52.25080108642578
3.36,22.991436004638672,-4.782055854797363,7.383053779602051,0.5291619896888733,-2.423149585723877,2.0920608043670654,-20.169540405273438,42.95527648925781,-53.127742767333984
3.369,6.123232841491699,-6.756134510040283,7.136592864990234,0.48915034532546997,-4.518723011016846,2.1458168029785156,-18.927213668823242,42.12218475341797,-54.18006134033203
3.389,-31.14497947692871,-15.284154891967773,-1.8281164169311523,0.7044803500175476,-2.928029775619507,1.703092336654663,-17.670272827148438,41.683719635009766,-54.004676818847656
3.392,-29.532215118408203,-13.87119197845459,-1.0289136171340942,0.8109236359596252,-1.179580807685852,1.0877982378005981,-18.123355865478516,42.03449249267578,-54.3408317565918
3.4,-15.254243850708008,-11.607583045959473,-1.765903115272522,0.5004513263702393,0.7837400436401367,0.8365799188613892,-17.392576217651367,41.698333740234375,-54.85238265991211
3.409,0.6317051649093628,-18.9320125579834,2.713460922241211,-0.080634206533432,1.2716686725616455,1.226922869682312,-17.290266036987305,41.28909683227539,-55.46623992919922
3.42,11.484352111816406,-36.69512939453125,0.24047866463661194,-0.2817615866661072,1.2959506511688232,1.3581061363220215,-16.413330078125,41.47909927368164,-54.633148193359375
3.43,21.76032829284668,-31.326831817626953,2.6835503578186035,0.5926920175552368,0.05497787147760391,1.83992600440979,-15.79947280883789,41.37678909301758,-53.66851806640625
3.448,-14.539986610412598,4.7126641273498535,-0.9272187352180481,0.7078401446342468,-2.79119610786438,2.577240228652954,-14.440221786499023,40.8652458190918,-55.597774505615234
3.451,-18.477375030517578,4.576272964477539,-0.39003005623817444,0.6354525089263916,-2.2800543308258057,1.9697349071502686,-14.367143630981445,40.99678421020508,-55.1593132019043
3.46,-24.5718936920166,-0.5132604241371155,4.096512317657471,0.49266281723976135,-0.5674937963485718,1.430493712425232,-13.782519340515137,40.967552185058594,-56.313941955566406
3.47,-13.198809623718262,-8.767301559448242,7.2634124755859375,0.3549126982688904,1.0447322130203247,1.0065531730651855,-13.110200881958008,41.02601623535156,-55.91931915283203
3.48,0.22372892498970032,-9.713663101196289,6.168696403503418,0.2408336102962494,0.9779952168464661,0.531758189201355,-13.358667373657227,40.67523956298828,-55.62701416015625
3.489,3.3954150676727295,-12.118450164794922,3.8668015003204346,0.08048149198293686,0.20173825323581696,0.5073235630989075,-12.876352310180664,40.70447540283203,-55.583160400390625
3.502,-6.5419769287109375,-10.676774024963379,0.6484549045562744,-0.11255192011594772,-0.49495354294776917,0.6200282573699951,-12.788658142089844,40.45600509643555,-55.40777587890625
3.51,-10.813164710998535,-9.640682220458984,0.24406790733337402,-0.14996741712093353,-0.3326161205768585,0.5201517343521118,-12.277112007141113,40.572933197021484,-55.553932189941406
3.519,-4.852643966674805,-10.138389587402344,0.02153540402650833,-0.13087788224220276,0.2587014436721802,0.4069889783859253,-12.1455717086792,40.397544860839844,-55.62701416015625
3.53,0.787238597869873,-10.30469036102295,2.2360928058624268,-0.09315694868564606,0.05253440886735916,0.4772384762763977,-12.481730461120605,40.572933197021484,-55.70008850097656
3.54,-2.1882362365722656,-8.155935287475586,3.7674992084503174,-0.047800205647945404,-0.21639901399612427,0.5458080768585205,-12.174802780151367,40.42677688598633,-55.14469909667969
3.55,-7.688138484954834,-7.587640285491943,2.638087034225464,-0.04489859566092491,-0.19792033731937408,0.4338670074939728,-11.56094741821289,40.61677932739258,-54.8962287902832
3.566,-6.6412787437438965,-9.159724235534668,0.8853443264961243,-0.07177666574716568,0.38179075717926025,0.1319468915462494,-11.444022178649902,39.82753372192383,-54.18006134033203
3.57,-4.3477582931518555,-9.013762474060059,1.0049854516983032,-0.0685696229338646,0.39156460762023926,0.12232576310634613,-11.356328010559082,40.002925872802734,-54.48699188232422
3.58,-1.7264214754104614,-9.30329418182373,1.3830513954162598,-0.049785517156124115,0.16050483286380768,0.14065171778202057,-11.79479694366455,39.8859977722168,-54.77930450439453
3.589,-3.0867412090301514,-9.789037704467773,2.4909281730651855,-0.04718933627009392,0.07513642311096191,0.19394971430301666,-11.692487716674805,39.82753372192383,-54.867000579833984
3.6,-4.3657050132751465,-9.072386741638184,2.5292134284973145,-0.031612277030944824,0.18448129296302795,0.194713294506073,-12.028646469116211,40.587547302246094,-54.80853271484375
3.618,-3.655036449432373,-9.007781028747559,1.9669002294540405,-0.03237585723400116,0.3003929853439331,0.1970040500164032,-11.721718788146973,40.03215408325195,-54.79391860961914
3.622,-2.730210542678833,-8.94556713104248,1.782652735710144,-0.018020525574684143,0.290313720703125,0.2480112910270691,-11.926337242126465,40.04676818847656,-54.77930450439453
3.63,-2.9551358222961426,-8.98385238647461,1.7312071323394775,-0.013439035043120384,0.2554943859577179,0.29657506942749023,-11.531715393066406,39.75445556640625,-54.13621520996094
3.64,-2.583051919937134,-8.12961483001709,1.97407865524292,-0.005345070734620094,0.1898263692855835,0.308181494474411,-11.107863426208496,39.85676574707031,-54.457759857177734
3.65,-4.9639105796813965,-7.850851058959961,1.6175479888916016,-0.04077525436878204,0.08765916526317596,0.33108893036842346,-11.195556640625,39.85676574707031,-54.16544723510742
3.659,-5.174479007720947,-8.635696411132812,1.2227323055267334,-0.06688974052667618,0.17180584371089935,0.3168863356113434,-10.91786003112793,39.944461822509766,-54.53084182739258
3.67,-2.675175428390503,-8.37009334564209,1.416550874710083,-0.06536258012056351,0.20311269164085388,0.31963521242141724,-10.91786003112793,39.43291473388672,-54.676998138427734
3.682,-2.884547472000122,-8.819944381713867,1.9884356260299683,-0.09407324343919754,0.0012217304902151227,0.4050036370754242,-10.420929908752441,39.5059928894043,-54.676998138427734
3.691,-3.6981072425842285,-8.409575462341309,2.6321046352386475,-0.09453140199184418,-0.03145955875515938,0.4509712755680084,-10.260157585144043,39.75445556640625,-54.867000579833984
3.7,-3.8763725757598877,-8.569893836975098,2.888136863708496,-0.12079859524965286,0.0039706239476799965,0.48838675022125244,-10.464776039123535,39.4621467590332,-54.9400749206543
3.71,-3.9349966049194336,-9.494720458984375,2.544766664505005,-0.16264288127422333,0.09086620807647705,0.5354233980178833,-10.040924072265625,39.65214920043945,-54.004676818847656
3.72,-2.816352128982544,-9.06281566619873,2.7290141582489014,-0.1371392458677292,0.1560760736465454,0.5923865437507629,-10.187079429626465,38.87752151489258,-53.99005889892578
3.739,-3.3966116905212402,-10.121639251708984,2.014756679534912,-0.14645493030548096,0.15714508295059204,0.7061601877212524,-9.982461929321289,39.27214050292969,-53.99005889892578
3.743,-3.060420036315918,-10.25922679901123,1.8867405652999878,-0.14737124741077423,0.24068090319633484,0.8428412675857544,-9.163987159729004,38.7459831237793,-52.96696853637695
3.75,-2.2121644020080566,-9.54377269744873,2.043470621109009,-0.13988813757896423,0.24648413062095642,0.9228646755218506,-8.915521621704102,38.99444580078125,-53.50774383544922
3.759,-2.6811578273773193,-8.811569213867188,2.3748762607574463,-0.13545936346054077,0.17959438264369965,1.0155634880065918,-8.959368705749512,39.06752395629883,-53.18620300292969
3.77,-5.662614822387695,-9.828518867492676,1.994417667388916,-0.16310101747512817,0.17669276893138885,1.1038334369659424,-8.900906562805176,38.68751907348633,-53.36158752441406
3.78,-5.6099724769592285,-11.68774127960205,1.5314065217971802,-0.22098049521446228,0.4086688458919525,1.175152063369751,-8.6670560836792,38.599822998046875,-53.34697341918945
3.798,-2.1882362365722656,-11.514262199401855,1.3184452056884766,-0.2793181240558624,0.46731188893318176,1.306182622909546,-7.8047356605529785,38.05904769897461,-53.1569709777832
3.803,-3.0819554328918457,-10.553544044494629,1.5720844268798828,-0.3445279896259308,0.23105978965759277,1.5236506462097168,-7.395498275756836,38.45366668701172,-52.923118591308594
3.81,-3.988835334777832,-9.284152030944824,2.069791555404663,-0.337044894695282,0.23777928948402405,1.5558736324310303,-7.249342441558838,37.839813232421875,-52.41157531738281
3.82,-5.413760662078857,-9.285347938537598,2.7146570682525635,-0.32070425152778625,0.2805398404598236,1.634827971458435,-6.328558921813965,37.57673263549805,-53.04004669189453
3.83,-4.868197441101074,-10.66720199584961,2.63449764251709,-0.34544429183006287,0.42791110277175903,1.6647604703903198,-6.138556003570557,37.41596221923828,-52.075416564941406
3.84,-2.788834571838379,-7.551748275756836,2.723031997680664,-0.3039054572582245,0.44257184863090515,1.6838500499725342,-5.539316177368164,37.24057388305664,-52.35311508178711
3.859,-7.310072898864746,-8.909674644470215,2.170289993286133,-0.3149010241031647,0.36880987882614136,1.7618881464004517,-5.0862321853637695,36.78749084472656,-52.104644775390625
3.863,-6.8889360427856445,-11.861222267150879,0.6556333899497986,-0.4207334518432617,0.6417139768600464,1.7983872890472412,-4.1800642013549805,36.75825881958008,-51.7392578125
3.87,-4.073780536651611,-13.211969375610352,0.5312066078186035,-0.5102251768112183,0.6769914031028748,1.8945984840393066,-4.267758369445801,36.64133071899414,-51.900028228759766
3.88,-1.5553346872329712,-12.90090274810791,0.5802595019340515,-0.5969680547714233,0.531758189201355,2.0558669567108154,-3.4054369926452637,35.63285446166992,-50.43846893310547
3.89,-1.956132411956787,-7.721638202667236,0.9942178130149841,-0.5561928153038025,0.3045163154602051,2.1956024169921875,-2.616194009780884,35.369773864746094,-50.570011138916016
3.9,-8.189435005187988,-6.0538411140441895,1.7096717357635498,-0.498924195766449,0.28191429376602173,2.2076668739318848,-2.2946505546569824,35.179771423339844,-50.21923065185547
3.919,-9.845268249511719,-7.566104888916016,1.34476637840271,-0.4830417037010193,0.5581781268119812,2.1503982543945312,-1.4323296546936035,34.741302490234375,-49.95615005493164
3.923,-4.177868366241455,-7.204788684844971,0.6245266795158386,-0.4908302128314972,0.8345946073532104,2.0891590118408203,-0.9061678051948547,34.40514373779297,-49.34230041503906
3.93,-2.7672994136810303,-6.04546594619751,1.1629117727279663,-0.4967861771583557,0.7218900322914124,2.1265745162963867,-0.1607716977596283,34.185909271240234,-48.713829040527344
3.94,-6.6759748458862305,-7.112664699554443,1.098305583000183,-0.4738787114620209,0.4433354437351227,2.252871036529541,0.7600116729736328,33.572052001953125,-48.01227569580078
3.95,-9.095118522644043,-9.69810962677002,0.7226324677467346,-0.5051855444908142,0.7122688889503479,2.2296581268310547,1.4323296546936035,32.797428131103516,-48.07073974609375
3.959,-4.163511276245117,-9.30209732055664,0.865005373954773,-0.5444336533546448,0.8831583857536316,2.2316434383392334,1.3300204277038574,32.31510925292969,-47.80765914916992
3.979,-3.0831520557403564,-7.420142650604248,1.3052847385406494,-0.5372559428215027,0.6475171446800232,2.305558204650879,2.016954183578491,32.11049270629883,-47.1207275390625
3.983,-7.791029930114746,-4.49132776260376,1.062413215637207,-0.479834645986557,0.3813326060771942,2.3183863162994385,2.674656629562378,31.13124656677246,-46.65302658081055
3.99,-9.817750930786133,-5.164907455444336,0.574277400970459,-0.4896084666252136,0.48349982500076294,2.267073631286621,2.9961998462677,30.54662322998047,-46.8430290222168
4.0,-7.627121925354004,-4.599005222320557,0.380458801984787,-0.5222897529602051,0.7174611687660217,2.0835087299346924,3.843905448913574,30.809703826904297,-45.001461029052734
4.01,-7.28973388671875,-5.194817543029785,0.11485548317432404,-0.5403103232383728,0.5549710988998413,2.05769944190979,4.457760810852051,29.684301376342773,-45.62993240356445
4.02,-8.428717613220215,-6.92482852935791,0.4127618968486786,-0.5963572263717651,0.5294674634933472,2.007455825805664,4.852382659912109,29.216602325439453,-45.52762222290039
4.04,-8.413164138793945,-7.312465667724609,0.5647060871124268,-0.6313292384147644,0.582001805305481,1.9546160697937012,5.685472011566162,28.52967071533203,-43.992984771728516
4.044,-8.889335632324219,-11.703295707702637,1.1437692642211914,-0.7327328324317932,0.6068946123123169,1.9132299423217773,5.437006950378418,28.105815887451172,-44.51914596557617
4.05,-8.6967134475708,-13.166505813598633,1.290927767753601,-0.8068002462387085,0.727998673915863,1.8551976680755615,5.846243858337402,27.491960525512695,-43.48143768310547
4.059,-7.75633430480957,-15.663415908813477,2.194218397140503,-0.9236282110214233,0.8174903988838196,1.780824899673462,6.0800933837890625,27.50657844543457,-42.41449737548828
4.07,-6.3529438972473145,-16.403995513916016,2.115255117416382,-1.0228937864303589,0.8390233516693115,1.6476562023162842,6.445483684539795,27.360422134399414,-42.516807556152344
4.08,-4.625326156616211,-15.791433334350586,2.6177480220794678,-1.0801624059677124,0.7136432528495789,1.5027284622192383,6.533177375793457,26.805028915405273,-41.128326416015625
4.1,-3.3032915592193604,-13.843674659729004,2.956332206726074,-1.073595643043518,0.43478330969810486,1.300837516784668,6.547792911529541,26.015785217285156,-40.29523468017578
4.104,-3.016152858734131,-7.941778182983398,2.9276182651519775,-0.8597928285598755,-0.2054034322500229,0.898735523223877,6.562408924102783,26.33732795715332,-39.62291717529297
4.11,-3.9014973640441895,-5.085944175720215,2.8211376667022705,-0.7031058669090271,-0.4870122969150543,0.7336491346359253,7.0301079750061035,26.42502212524414,-39.213680267333984
4.119,-6.171089172363281,-2.4610180854797363,2.922832727432251,-0.3753766715526581,-0.8825475573539734,0.47998735308647156,7.0447235107421875,26.30809783935547,-39.023677825927734
4.13,-7.560122966766357,0.35772696137428284,3.049652338027954,-0.15027284622192383,-0.872315526008606,0.30695977807044983,6.913183689117432,25.855012893676758,-38.658287048339844
4.14,-9.176474571228027,2.2648065090179443,2.190629005432129,0.05451972037553787,-0.8151996731758118,0.313373863697052,7.600116729736328,25.13884925842285,-38.278282165527344
4.159,-10.116853713989258,3.8763725757598877,0.7094718813896179,0.22311851382255554,-0.18371771275997162,0.055283304303884506,7.351651668548584,26.045015335083008,-38.89213943481445
4.163,-5.30967378616333,3.834498167037964,-3.376272678375244,0.02229658141732216,0.8005388975143433,-0.8993463516235352,6.767026901245117,25.7088565826416,-39.05290985107422
4.17,3.5030922889709473,4.423132419586182,-5.07397985458374,0.2025018185377121,1.1488847732543945,-1.7400496006011963,6.8401055335998535,26.454252243041992,-38.819061279296875
4.18,13.550553321838379,1.3148560523986816,-0.05742774158716202,0.49006664752960205,1.173624873161316,-2.3454172611236572,6.489330291748047,27.24349594116211,-37.94212341308594
4.19,18.112470626831055,-1.6558332443237305,0.7525426745414734,0.6117815375328064,0.07238753139972687,-2.648864507675171,5.1154632568359375,28.383514404296875,-37.15288162231445
4.2,15.51266860961914,-3.352344274520874,2.5770697593688965,0.8735372424125671,-1.912160873413086,-2.842355966567993,4.866997718811035,28.71967315673828,-37.635196685791016
4.219,-0.9738787412643433,-1.164108157157898,1.8771692514419556,0.9715811610221863,-2.8678596019744873,-3.450014114379883,4.048523902893066,30.94124412536621,-39.24291229248047
4.222,-4.033102512359619,-1.077966570854187,1.5206387042999268,0.9744827747344971,-2.5670084953308105,-3.7007744312286377,3.3762056827545166,31.02893829345703,-39.769073486328125
4.23,-6.948756694793701,-1.4189437627792358,1.0444670915603638,0.991892397403717,-1.7684547901153564,-4.073401927947998,2.689272165298462,32.052032470703125,-40.894474029541016
4.239,-7.974081039428711,-2.4394824504852295,0.8243273496627808,1.042594313621521,-0.46334129571914673,-4.519944667816162,1.6515638828277588,33.64513397216797,-41.05524826049805
4.249,-4.9184465408325195,-2.2719850540161133,0.7262216210365295,1.0687086582183838,0.7124215364456177,-4.914563179016113,0.6138556003570557,34.726688385009766,-41.756797790527344
4.26,-1.3531410694122314,-2.049452543258667,0.04905286058783531,1.0693196058273315,1.3222178220748901,-5.003597259521484,-2.4115755558013916,35.95439910888672,-42.049110412597656
4.279,0.9523433446884155,-2.874976396560669,-0.8386843204498291,0.967915952205658,0.7388415336608887,-5.003597259521484,-5.1446943283081055,37.95673751831055,-42.16603469848633
4.282,0.9439685344696045,-4.534398555755615,-2.132004976272583,0.9586002826690674,0.5896376371383667,-5.003597259521484,-5.787781238555908,38.33674621582031,-42.12218475341797
4.29,-0.25363919138908386,-5.552545070648193,-2.100898265838623,0.9616546034812927,0.08292495459318161,-5.003597259521484,-7.410114288330078,39.43291473388672,-42.6045036315918
4.3,-3.080759048461914,-7.225127696990967,-1.820937991142273,0.8413141369819641,-0.3654501140117645,-5.003139019012451,-9.17860221862793,40.71908950805664,-43.15989685058594
4.31,-5.666203498840332,-8.307880401611328,-1.7730815410614014,0.6876814961433411,-0.6684393286705017,-4.871955394744873,-11.064016342163086,40.74831771850586,-42.64834976196289
4.32,-8.965906143188477,-9.346364974975586,-0.8075776100158691,0.6339254379272461,-0.7353289723396301,-4.689001560211182,-12.569424629211426,41.39140701293945,-42.706809997558594
4.339,-12.902099609375,-9.577272415161133,0.7190431356430054,0.5957463383674622,-0.530536413192749,-4.399604320526123,-16.121017456054688,42.45834732055664,-44.03683090209961
4.343,-13.081561088562012,-9.485148429870605,0.8410770893096924,0.5798638463020325,-0.49128836393356323,-4.3759331703186035,-16.997953414916992,42.56065368652344,-44.3437614440918
4.35,-12.396017074584961,-8.96829891204834,0.7597211599349976,0.5711589455604553,-0.4537201523780823,-4.32507848739624,-17.87489128112793,42.95527648925781,-44.182987213134766
4.36,-10.63250732421875,-8.660820960998535,0.6496513485908508,0.5673410296440125,-0.5561928153038025,-3.9927680492401123,-18.766441345214844,43.072200775146484,-44.76761245727539
4.37,-9.65982437133789,-9.34157943725586,-0.0933200791478157,0.5499314665794373,-0.8020660877227783,-3.6728272438049316,-20.02338409423828,43.466819763183594,-44.51914596557617
4.38,-10.60977554321289,-10.77248764038086,-0.3888336718082428,0.5239696502685547,-1.0196868181228638,-3.4636058807373047,-21.4703311920166,43.55451583862305,-45.04530715942383
4.399,-13.63908863067627,-13.143774032592773,-1.6271193027496338,0.37827828526496887,-0.6792821288108826,-3.213761806488037,-24.174217224121094,43.7445182800293,-45.206077575683594
4.403,-13.932209968566895,-13.451251983642578,-1.7407783269882202,0.3585779070854187,-0.45433101058006287,-3.1148016452789307,-24.144987106323242,43.7445182800293,-45.68839645385742
4.41,-14.148759841918945,-13.797015190124512,-1.550549030303955,0.30604347586631775,-0.07452555745840073,-2.9097037315368652,-24.86115074157715,43.94913864135742,-44.89915466308594
4.42,-13.956137657165527,-14.24447250366211,-0.12681959569454193,0.17592918872833252,0.41401392221450806,-2.6065618991851807,-26.52733039855957,43.817596435546875,-44.7822265625
4.43,-12.713067054748535,-14.305489540100098,1.2550355195999146,0.018936822190880775,0.7664831280708313,-2.238363027572632,-26.79041290283203,43.27682113647461,-45.42531204223633
4.44,-11.006983757019043,-13.777872085571289,2.0985054969787598,-0.08918632566928864,0.9494373202323914,-1.819920301437378,-28.13504981994629,43.67144012451172,-45.45454788208008
4.458,-7.805387020111084,-10.202995300292969,2.1858434677124023,-0.042302414774894714,1.2649492025375366,-1.0268644094467163,-29.304296493530273,43.23297119140625,-46.08301544189453
4.461,-6.56829833984375,-9.182456970214844,2.0470597743988037,-0.013286319561302662,1.2820534706115723,-0.9334020614624023,-28.982751846313477,43.057586669921875,-45.83454895019531
4.469,-4.448256969451904,-8.663214683532715,2.2205393314361572,0.05772676318883896,1.1720976829528809,-0.5251913666725159,-29.37737464904785,43.10143280029297,-45.805320739746094
4.479,-3.7495527267456055,-9.513862609863281,2.548356056213379,0.05772676318883896,0.9305005073547363,-0.0786488950252533,-29.479684829711914,42.96989059448242,-45.95147705078125
4.49,-2.964707136154175,-10.677969932556152,2.6739792823791504,0.018020525574684143,0.5842925906181335,0.2646573483943939,-29.15814208984375,43.452205657958984,-46.477638244628906
4.508,-2.008774518966675,-11.117053985595703,1.6546367406845093,-0.12797626852989197,0.1976149082183838,0.4657847285270691,-28.982751846313477,42.35603332519531,-46.69687271118164
4.512,0.07776673883199692,-10.138389587402344,0.10049854964017868,-0.199294775724411,0.10247264802455902,0.6401867866516113,-28.83659553527832,42.57527160644531,-46.81379699707031
4.52,2.9587249755859375,-8.678768157958984,0.35413771867752075,-0.09392052888870239,0.08200865983963013,0.6950119137763977,-28.661209106445312,42.633731842041016,-46.477638244628906
4.53,-4.356133460998535,-12.415160179138184,4.844269275665283,-0.023060161620378494,-0.4115704298019409,1.7284431457519531,-28.17889404296875,42.75065612792969,-45.90762710571289
4.539,-11.676973342895508,-11.529815673828125,1.4763715267181396,-0.30955594778060913,-0.055894169956445694,1.8681786060333252,-27.331188201904297,43.14527893066406,-46.44840621948242
4.55,-15.351152420043945,-11.582457542419434,8.919245719909668,0.3127630054950714,-0.4521929919719696,2.545628070831299,-26.556564331054688,42.867584228515625,-46.872257232666016
4.56,-29.809782028198242,-19.415363311767578,9.564111709594727,-0.37171149253845215,0.07070764899253845,2.9863674640655518,-25.29962158203125,42.633731842041016,-46.76995086669922
4.575,18.95354652404785,-22.2149658203125,-4.1312079429626465,0.0679587572813034,3.9284744262695312,0.27458393573760986,-24.378835678100586,42.56065368652344,-47.80765914916992
4.58,32.96232604980469,-20.550756454467773,-2.63449764251709,0.3199406564235687,3.520569086074829,0.517861008644104,-24.437299728393555,42.838348388671875,-47.14995574951172
4.59,39.180076599121094,-13.73240852355957,9.643074989318848,0.35185837745666504,1.9585866928100586,1.9016234874725342,-24.305757522583008,42.92604446411133,-47.281497955322266
4.6,25.50150489807129,-4.96630334854126,7.210770606994629,0.23335051536560059,-1.6696473360061646,2.099849224090576,-23.867290496826172,42.6045036315918,-47.529964447021484
4.61,9.402596473693848,-10.643274307250977,3.781856060028076,0.07406741380691528,-4.6966376304626465,2.0873265266418457,-22.186494827270508,42.12218475341797,-47.57380676269531
4.629,-8.48734188079834,-15.323636054992676,2.906083106994629,0.030543262138962746,-5.003597259521484,2.3496930599212646,-21.455713272094727,42.429115295410156,-47.26688003540039
4.633,-30.89971351623535,-11.351550102233887,-0.6412764191627502,0.6890559792518616,-2.794097423553467,1.422399640083313,-20.403390884399414,41.9029541015625,-48.31920623779297
4.64,-22.585851669311523,-5.56450891494751,-0.20578275620937347,0.6313292384147644,-0.43249258399009705,1.013425350189209,-19.90645980834961,41.99064636230469,-48.611515045166016
4.649,-5.905486106872559,-6.1770710945129395,-0.8985048532485962,0.4239404797554016,1.2864822149276733,1.1273517608642578,-19.234142303466797,41.99064636230469,-48.655364990234375
4.66,3.2590243816375732,-13.704891204833984,3.803391456604004,0.3182607889175415,1.476919412612915,0.9799805283546448,-19.204912185668945,41.99064636230469,-49.69307327270508
4.67,8.787640571594238,-20.770896911621094,4.797609329223633,0.182648703455925,0.18371771275997162,0.9677632451057434,-18.63490104675293,41.82987594604492,-49.18152618408203
4.688,4.90408992767334,-19.50748634338379,1.3603196144104004,0.14645493030548096,-1.0129672288894653,1.3051135540008545,-18.137971878051758,41.449867248535156,-50.10231018066406
4.692,-6.281159400939941,-13.801799774169922,-0.36251261830329895,0.15103644132614136,-1.2574660778045654,1.4689781665802002,-17.31949806213379,41.27448272705078,-49.54691696166992
4.7,-10.18026351928711,-11.380264282226562,-0.7322037220001221,0.20128010213375092,-0.7388415336608887,1.4340060949325562,-16.837182998657227,41.449867248535156,-49.12306213378906
4.71,-11.088339805603027,-9.428916931152344,-0.6520441174507141,0.25961771607398987,0.1036943718791008,1.236849308013916,-16.32563591003418,41.318328857421875,-49.780765533447266
4.72,-7.342375755310059,-8.469395637512207,-0.11365906894207001,0.29474249482154846,0.5899431109428406,0.9456194043159485,-16.457176208496094,40.67523956298828,-49.37152862548828
4.729,-3.0819554328918457,-8.469395637512207,1.5433706045150757,0.2730567753314972,0.5380195379257202,0.8527678847312927,-15.85793685913086,40.6021614074707,-49.4007568359375
4.749,-2.6703901290893555,-9.254240989685059,2.3126630783081055,0.22540926933288574,0.3770565688610077,0.7554876208305359,-16.106401443481445,40.80678176879883,-50.11692810058594
4.753,-5.198407173156738,-9.242277145385742,2.891726016998291,0.16951508820056915,0.1437060534954071,0.5958990454673767,-15.653318405151367,40.572933197021484,-49.473838806152344
4.76,-6.358925819396973,-9.097511291503906,1.3866406679153442,0.15913039445877075,0.16462817788124084,0.5337435007095337,-15.434082984924316,40.777549743652344,-49.576148986816406
4.769,-5.079962253570557,-9.555736541748047,1.5565310716629028,0.11362093687057495,0.3878994286060333,0.4046982228755951,-15.214850425720215,40.11984634399414,-49.50307083129883
4.78,-1.550549030303955,-9.355936050415039,2.4741785526275635,0.062460970133543015,0.2018909603357315,0.38011088967323303,-14.761765480041504,40.587547302246094,-50.02922821044922
4.79,-1.683350682258606,-9.18724250793457,3.042473793029785,0.026572639122605324,-0.11972958594560623,0.4082106947898865,-14.688687324523926,40.29523468017578,-50.39461898803711
4.809,-3.4612178802490234,-9.328418731689453,3.720839262008667,-0.050243668258190155,-0.25244006514549255,0.4358523488044739,-15.01023006439209,40.514469146728516,-49.54691696166992
4.813,-4.116851329803467,-9.053244590759277,3.427718162536621,-0.18799376487731934,-0.18112152814865112,0.3868303894996643,-14.717918395996094,40.17831039428711,-49.91230773925781
4.82,-3.166900634765625,-7.905885696411133,3.8261232376098633,-0.23594669997692108,-0.21135936677455902,0.37262779474258423,-14.440221786499023,40.499855041503906,-49.649227142333984
4.83,-4.7988057136535645,-9.304490089416504,2.54117751121521,-0.389426589012146,-0.40286561846733093,0.35353827476501465,-13.987138748168945,40.10523223876953,-49.88307571411133
4.84,-6.978667259216309,-10.470992088317871,1.231107234954834,-0.4792237877845764,-0.3217732608318329,0.289244681596756,-14.016368865966797,40.777549743652344,-49.4007568359375
4.85,-4.968696117401123,-9.859625816345215,1.1222338676452637,-0.48884493112564087,-0.0786488950252533,0.25076019763946533,-13.987138748168945,40.48523712158203,-48.88921356201172
4.869,-1.6319050788879395,-9.081957817077637,1.164108157157898,-0.5204571485519409,-0.11285734921693802,0.2971859276294708,-13.665594100952148,40.397544860839844,-48.1584358215332
4.873,-2.097308874130249,-8.615358352661133,1.9130616188049316,-0.4992296099662781,-0.49953505396842957,0.43676862120628357,-13.227126121520996,40.1636962890625,-48.07073974609375
4.88,-2.904886484146118,-8.439485549926758,2.1583259105682373,-0.4789183437824249,-0.6001750826835632,0.47571131587028503,-13.022507667541504,40.19292449951172,-48.31920623779297
4.89,-5.5692949295043945,-8.282755851745605,1.6342978477478027,-0.4801400899887085,-0.5180137157440186,0.5268712639808655,-13.373282432556152,40.06138610839844,-48.041507720947266
4.9,-6.5527448654174805,-8.47178840637207,0.8997012972831726,-0.46242499351501465,-0.26114487648010254,0.5196936130523682,-13.154048919677734,40.06138610839844,-48.114585876464844
4.91,-4.658825397491455,-8.551947593688965,1.1964112520217896,-0.4437935948371887,0.0003054326225537807,0.5210680365562439,-13.080970764160156,39.82753372192383,-47.58842468261719
4.929,-2.304288148880005,-8.729016304016113,1.6187443733215332,-0.4427245557308197,-0.019089538604021072,0.5766568183898926,-13.285589218139648,39.81291961669922,-47.866119384765625
4.933,-2.135594129562378,-8.160720825195312,2.472982168197632,-0.39354991912841797,-0.3197879493236542,0.6638578176498413,-12.744811058044434,39.593685150146484,-46.8430290222168
4.94,-3.3343982696533203,-7.883154392242432,2.472982168197632,-0.38988474011421204,-0.4291328191757202,0.725860595703125,-12.028646469116211,39.54983901977539,-47.32534408569336
4.95,-5.441278457641602,-8.33898639678955,1.7611173391342163,-0.4127922058105469,-0.3998112976551056,0.7912232279777527,-11.867875099182129,38.93598175048828,-47.61765670776367
4.96,-6.118447303771973,-9.730413436889648,0.7298108339309692,-0.4593706429004669,-0.1774563491344452,0.8443684577941895,-11.385560035705566,39.447532653808594,-47.44226837158203
4.97,-4.167100429534912,-10.139585494995117,0.1459621787071228,-0.4265366494655609,0.07437284290790558,0.8976664543151855,-11.020169258117676,38.775211334228516,-47.74919891357422
4.989,-2.4670000076293945,-9.580862045288086,0.714257538318634,-0.4043927788734436,0.0708603635430336,1.047023057937622,-10.362466812133789,38.70213317871094,-47.77842712402344
4.993,-2.748156785964966,-9.06161880493164,0.9020940661430359,-0.3721696436405182,-0.08048149198293686,1.2431107759475708,-10.64016342163086,39.05290985107422,-47.296112060546875
5.0,-3.308077335357666,-8.903693199157715,1.1150553226470947,-0.3677408695220947,-0.11942415684461594,1.3339769840240479,-10.304004669189453,38.819061279296875,-46.740718841552734
5.009,-3.651447057723999,-8.827122688293457,0.9367900490760803,-0.34177911281585693,-0.10247264802455902,1.4556918144226074,-9.54399299621582,38.62905502319336,-46.930721282958984
5.02,-4.725824356079102,-8.974281311035156,1.0863415002822876,-0.3240639865398407,-0.04932736977934837,1.5667166709899902,-8.433206558227539,38.015201568603516,-47.67612075805664
5.03,-6.26321268081665,-10.086943626403809,1.0181459188461304,-0.3419318199157715,0.043218713253736496,1.6978999376296997,-8.433206558227539,37.94212341308594,-46.98918533325195
5.049,-6.215356349945068,-12.973883628845215,0.6616154909133911,-0.47219884395599365,0.251676470041275,2.013259172439575,-6.8547210693359375,37.41596221923828,-46.112247467041016
5.052,-4.443471431732178,-12.742976188659668,0.8506484627723694,-0.5001459121704102,0.251218318939209,2.0251710414886475,-7.0008769035339355,37.53288269042969,-46.287635803222656
5.06,-2.311466693878174,-13.086346626281738,1.3280165195465088,-0.5545129179954529,0.3017674386501312,2.1259636878967285,-6.270096302032471,36.919029235839844,-46.08301544189453
5.07,-1.868794322013855,-11.632707595825195,2.4251255989074707,-0.584750771522522,0.25534167885780334,2.235461473464966,-5.87547492980957,36.71440887451172,-45.39608383178711
5.08,-5.68773889541626,-9.948159217834473,3.019742250442505,-0.5519167184829712,0.15271630883216858,2.3944389820098877,-5.159310340881348,35.88132095336914,-44.94300079345703
5.089,-8.601000785827637,-8.677571296691895,3.016152858734131,-0.49953505396842957,0.48319438099861145,2.431549072265625,-4.501607418060303,36.14440155029297,-44.48991394042969
5.109,-6.519245147705078,-10.29631519317627,2.341376781463623,-0.43997567892074585,0.8448265790939331,2.499049663543701,-3.1569714546203613,34.93130874633789,-44.3437614440918
5.112,-5.490331649780273,-9.911070823669434,2.227717876434326,-0.44348815083503723,0.8765915632247925,2.500882148742676,-2.952353000640869,34.741302490234375,-44.0806770324707
5.12,-3.9218363761901855,-7.822136878967285,1.7001004219055176,-0.44394633173942566,0.9002626538276672,2.473087787628174,-2.630809783935547,33.64513397216797,-43.437591552734375
5.13,-5.376672267913818,-7.830511569976807,0.989432156085968,-0.45753806829452515,0.5907067060470581,2.598773241043091,-1.783104419708252,33.07512283325195,-43.978370666503906
5.14,-8.349754333496094,-8.593822479248047,0.5946164131164551,-0.5057964324951172,0.6342307925224304,2.6007587909698486,-1.2569423913955688,33.045894622802734,-43.14527893066406
5.15,-6.8518476486206055,-9.480362892150879,0.37447673082351685,-0.5352706909179688,0.7527386546134949,2.5928173065185547,-0.8330897688865662,32.57819366455078,-43.08681869506836
5.169,-5.123033046722412,-10.206583976745605,0.9427720904350281,-0.5677992701530457,0.7215845584869385,2.563190460205078,1.344636082649231,31.13124656677246,-41.756797790527344
5.173,-6.114858150482178,-2.0817556381225586,0.6771687865257263,-0.5300782918930054,0.6411030292510986,2.506838321685791,1.3007892370224,31.05817222595215,-41.66910171508789
5.18,-8.073383331298828,-1.4177473783493042,0.42711883783340454,-0.4896084666252136,0.5742133259773254,2.445446252822876,1.6807950735092163,30.210464477539062,-41.65448760986328
5.19,-10.892127990722656,-3.1453652381896973,0.49531427025794983,-0.44119739532470703,0.7475463151931763,2.289828300476074,2.2654194831848145,29.567378997802734,-40.48523712158203
5.2,-9.428916931152344,-7.2059855461120605,-0.696311354637146,-0.46334129571914673,0.954018771648407,2.1569650173187256,2.5285003185272217,29.011985778808594,-40.41215896606445
5.209,-7.055237293243408,-11.909078598022461,-0.592223584651947,-0.517861008644104,0.903775155544281,2.1293234825134277,2.981584310531616,28.558900833129883,-40.03215408325195
5.229,-7.928617477416992,-13.511072158813477,-0.7298108339309692,-0.594524621963501,0.531758189201355,2.1560487747192383,3.66851806640625,27.097341537475586,-39.11137008666992
5.233,-8.569893836975098,-14.35334587097168,-0.7010970711708069,-0.6207917928695679,0.5174028873443604,2.144595146179199,3.4492838382720947,26.921951293945312,-38.93598175048828
5.239,-8.513663291931152,-15.013765335083008,-0.8243273496627808,-0.6519458889961243,0.6316346526145935,2.1203131675720215,4.238526821136475,26.731950759887695,-38.599822998046875
5.25,-6.850651264190674,-16.11924934387207,0.6520441174507141,-0.7073819041252136,0.7564038634300232,2.0199787616729736,4.545454502105713,25.81116485595703,-38.73136520385742
5.26,-6.120840072631836,-15.925430297851562,1.1318050622940063,-0.7709118723869324,0.6382014751434326,1.8191567659378052,4.603917121887207,25.021923065185547,-37.854427337646484
5.27,-6.635296821594238,-13.543375968933105,0.3672982454299927,-0.81581050157547,0.5451971888542175,1.5781702995300293,4.662379264831543,24.77345848083496,-37.45980453491211
5.288,-8.126025199890137,-5.437689304351807,-0.7657032608985901,-0.7011205554008484,0.02321287989616394,1.0723739862442017,5.1154632568359375,24.247295379638672,-37.62057876586914
5.292,-7.8795647621154785,-3.610769271850586,-0.17347964644432068,-0.5740606188774109,-0.20922134816646576,1.0516045093536377,5.378544330596924,24.203449249267578,-36.729026794433594
5.3,-6.790830135345459,-2.032702684402466,1.5684951543807983,-0.38240164518356323,-0.664315938949585,1.0115928649902344,5.612394332885742,23.83806037902832,-36.480560302734375
5.31,-5.98444938659668,0.11485548317432404,1.5864413976669312,-0.14278973639011383,-0.7852672338485718,0.9024006724357605,6.123940467834473,23.487285614013672,-36.495174407958984
5.32,-3.7770702838897705,3.2267210483551025,2.654836893081665,0.17699819803237915,-0.5801692605018616,0.7118107080459595,6.197018623352051,23.472667694091797,-37.035953521728516
5.33,-1.9884356260299683,6.557530403137207,4.426721572875977,0.4343251883983612,-0.44364088773727417,0.375071257352829,6.474714756011963,23.370359420776367,-36.495174407958984
5.348,6.463013648986816,9.043672561645508,-2.0578272342681885,0.4092797338962555,1.377806544303894,-1.4640913009643555,5.9193220138549805,23.545745849609375,-35.6036262512207
5.351,6.346961975097656,8.390432357788086,-2.372483730316162,0.4121812880039215,1.4037683010101318,-1.8767306804656982,5.860859394073486,24.334989547729492,-35.6036262512207
5.36,13.192828178405762,5.684150218963623,-1.5206387042999268,0.47342056035995483,0.9628763198852539,-2.4138340950012207,5.0862321853637695,25.021923065185547,-34.799766540527344
5.369,13.457233428955078,-0.9810572266578674,0.08853442966938019,0.5387831330299377,0.1310305893421173,-2.8315131664276123,4.340836048126221,25.78193473815918,-34.81438064575195
5.38,10.734201431274414,-3.322434186935425,0.6915256977081299,0.5859724879264832,-0.7739662528038025,-3.2009336948394775,3.814674139022827,26.805028915405273,-34.755916595458984
5.39,5.911468029022217,-2.691925287246704,-0.14715859293937683,0.70692378282547,-1.4969252347946167,-3.4516940116882324,2.820812463760376,27.331188201904297,-35.895938873291016
5.403,-0.7824530005455017,-2.0446667671203613,0.5479563474655151,0.7667886018753052,-1.6055065393447876,-3.8574612140655518,1.9292603731155396,28.99736976623535,-36.55363845825195
5.41,-2.079362630844116,-2.1894326210021973,0.714257538318634,0.7619016766548157,-1.4396566152572632,-4.131587028503418,2.0900321006774902,29.231218338012695,-36.451332092285156
5.42,-2.785245418548584,-3.1058835983276367,1.0516455173492432,0.76846843957901,-1.0416779518127441,-4.422053337097168,1.2423267364501953,30.312772750854492,-37.035953521728516
5.43,-3.208775043487549,-3.834498167037964,1.3232309818267822,0.782365620136261,-0.6772968769073486,-4.647462844848633,-0.5407775044441223,31.774335861206055,-37.19672393798828
5.44,-3.1034910678863525,-4.157529354095459,1.0133603811264038,0.8176431059837341,-0.4178318381309509,-4.860196590423584,-1.6807950735092163,32.69511795043945,-38.17597198486328
5.45,-3.538984537124634,-5.032105922698975,0.8303093910217285,0.8121453523635864,-0.39385536313056946,-4.942510604858398,-2.820812463760376,33.74744415283203,-38.40982437133789
5.466,-5.940181732177734,-7.0959153175354,1.4859428405761719,0.7635815143585205,-0.526107668876648,-4.971220970153809,-5.583162784576416,35.472084045410156,-38.68751907348633
5.47,-7.142575740814209,-7.922635555267334,1.5684951543807983,0.7238752841949463,-0.5222897529602051,-4.971526622772217,-5.8900909423828125,35.735164642333984,-38.68751907348633
5.48,-9.41934585571289,-9.358328819274902,1.490728497505188,0.6339254379272461,-0.36743542551994324,-4.952131271362305,-7.410114288330078,36.99210739135742,-38.205204010009766
5.489,-10.425528526306152,-9.670592308044434,0.8566304445266724,0.593913733959198,-0.10644327104091644,-4.889517784118652,-8.506284713745117,37.69365692138672,-39.228294372558594
5.5,-10.246066093444824,-9.146564483642578,0.607776939868927,0.5940664410591125,0.19135352969169617,-4.81911563873291,-11.034785270690918,38.71674728393555,-38.93598175048828
5.518,-9.144170761108398,-8.458627700805664,0.09810572117567062,0.5890268087387085,0.2886338233947754,-4.7085490226745605,-12.174802780151367,39.47676086425781,-39.4621467590332
5.522,-8.863015174865723,-8.931209564208984,0.5240281224250793,0.6446155309677124,0.21105393767356873,-4.501771450042725,-14.250219345092773,40.07600402832031,-39.27214050292969
5.53,-9.004191398620605,-9.501898765563965,0.7310072779655457,0.668744683265686,0.13759739696979523,-4.373947620391846,-15.404851913452148,40.11984634399414,-39.155216217041016
5.54,-8.997013092041016,-10.427921295166016,1.164108157157898,0.7133378982543945,0.005650503095239401,-4.178012847900391,-17.056415557861328,40.952938079833984,-39.579071044921875
5.55,-8.8438720703125,-11.252248764038086,1.215553879737854,0.6864597797393799,-0.27458393573760986,-3.9203803539276123,-18.488744735717773,41.157554626464844,-40.17831039428711
5.559,-8.689535140991211,-12.262019157409668,0.8446664214134216,0.6774495244026184,-0.5416847467422485,-3.699094533920288,-20.330312728881836,41.39140701293945,-40.1636962890625
5.57,-8.678768157958984,-13.365111351013184,0.7680960297584534,0.6690501570701599,-0.739757776260376,-3.4214563369750977,-21.20724868774414,41.712947845458984,-39.08213806152344
5.582,-9.304490089416504,-13.84128189086914,0.08255238085985184,0.6195700168609619,-0.8254316449165344,-3.124575614929199,-23.03420066833496,41.55217742919922,-39.54983901977539
5.59,-9.804591178894043,-13.60080337524414,0.008374879136681557,0.56810462474823,-0.750142514705658,-2.9807169437408447,-23.341127395629883,42.049110412597656,-39.769073486328125
5.6,-10.413564682006836,-12.960722923278809,-0.005982056725770235,0.41859540343284607,-0.3865249752998352,-2.7203357219696045,-24.56884002685547,42.45834732055664,-39.900611877441406
5.61,-10.386046409606934,-11.483156204223633,-0.24526430666446686,0.30466902256011963,0.07422012835741043,-2.512946844100952,-24.97807502746582,41.99064636230469,-40.324466705322266
5.62,-9.433703422546387,-10.073782920837402,-0.38285163044929504,0.26343563199043274,0.5056437253952026,-2.286926746368408,-26.556564331054688,42.078338623046875,-37.474422454833984
5.639,-8.33898639678955,-9.328418731689453,-0.08853442966938019,0.2704605758190155,0.8083274364471436,-2.0370829105377197,-27.05349349975586,41.946800231933594,-41.17217254638672
5.643,-7.262216091156006,-9.371489524841309,0.50129634141922,0.30375272035598755,1.1018481254577637,-1.6931657791137695,-28.208127975463867,41.683719635009766,-41.02601623535156
5.65,-6.55992317199707,-9.729216575622559,0.9595218300819397,0.2967277765274048,1.247844934463501,-1.5334244966506958,-28.69044303894043,41.80064392089844,-41.55217742919922
5.66,-4.8813581466674805,-9.329615592956543,1.1916255950927734,0.3335324227809906,1.3107640743255615,-1.3417655229568481,-29.421222686767578,41.508331298828125,-41.683719635009766
5.67,-3.8285160064697266,-9.129814147949219,1.4787644147872925,0.3972151279449463,1.2321151494979858,-1.1175779104232788,-29.830459594726562,41.66910171508789,-41.449867248535156
5.679,-3.7196426391601562,-9.643074989318848,1.5493526458740234,0.4138611853122711,1.0340421199798584,-0.8275696635246277,-30.400466918945312,42.01987838745117,-41.727561950683594
5.698,-4.054637908935547,-10.596613883972168,1.2897313833236694,0.3572034239768982,0.767857551574707,-0.4518875777721405,-30.73662757873535,41.49371337890625,-41.93218231201172
5.703,-5.119443893432617,-11.186446189880371,0.6675975322723389,0.1745547503232956,0.17608189582824707,0.2971859276294708,-30.605087280273438,41.85910415649414,-42.268341064453125
5.71,-5.124229431152344,-11.25942611694336,0.24287149310112,0.09636398404836655,-0.01542434748262167,0.5716171860694885,-30.122772216796875,41.5814094543457,-42.41449737548828
5.72,-4.185046672821045,-11.295318603515625,0.010767702013254166,0.015577062964439392,-0.13240504264831543,0.7875579595565796,-30.093538284301758,41.77141189575195,-41.639869689941406
5.73,-2.0362918376922607,-11.481958389282227,0.6879364848136902,-0.027488935738801956,-0.1696678102016449,0.9471465945243835,-29.538145065307617,41.93218231201172,-42.633731842041016
5.74,-0.07896314561367035,-11.113465309143066,1.1306086778640747,-0.06490442901849747,-0.3245221674442291,1.0881036520004272,-29.421222686767578,42.03449249267578,-42.37065124511719
5.759,0.6891329288482666,-10.356135368347168,1.483549952507019,-0.03741549327969551,-0.6388123035430908,1.2809842824935913,-29.28968048095703,41.80064392089844,-42.18064880371094
5.763,-6.392425537109375,-10.622936248779297,4.7294135093688965,0.11575896292924881,-1.1330022811889648,1.9266688823699951,-27.959659576416016,41.6252555847168,-43.072200775146484
5.77,-12.914063453674316,-10.936395645141602,4.29033088684082,-0.03405573591589928,-0.6994407176971436,1.9729419946670532,-27.828121185302734,41.77141189575195,-43.58374786376953
5.779,-15.166905403137207,-10.886146545410156,4.470988750457764,0.08567384630441666,0.7226535677909851,1.5073100328445435,-26.54194450378418,41.97603225708008,-42.73604202270508
5.79,-8.737391471862793,-11.371889114379883,3.0029923915863037,0.14126259088516235,2.023796558380127,0.963181734085083,-26.381174087524414,42.29757308959961,-42.73604202270508
5.8,3.8775689601898193,-15.609578132629395,0.8901299834251404,0.2565633952617645,2.573575258255005,0.7780895829200745,-26.366558074951172,41.82987594604492,-42.54603958129883
5.819,13.951351165771484,-21.610776901245117,-0.6412764191627502,-0.002138028386980295,1.7745635509490967,1.0085384845733643,-25.168079376220703,42.57527160644531,-43.72990417480469
5.823,18.500106811523438,-16.658830642700195,2.0410776138305664,0.0138971833512187,0.5720753073692322,1.4899002313613892,-25.32884979248047,42.29757308959961,-43.84682846069336
5.83,16.60020637512207,-10.579865455627441,1.5529417991638184,0.2054034322500229,-0.6485861539840698,1.5728251934051514,-25.21192741394043,42.443729400634766,-43.61297607421875
5.839,10.527222633361816,-8.831908226013184,1.428515076637268,0.4427245557308197,-2.1760547161102295,1.6435329914093018,-24.071908950805664,42.41449737548828,-43.189125061035156
5.85,3.5437703132629395,-11.172087669372559,0.6867400407791138,0.25014930963516235,-2.914438009262085,1.9448422193527222,-23.151124954223633,42.22449493408203,-43.17451095581055
5.86,-4.801198482513428,-12.088539123535156,3.5569305419921875,0.36254850029945374,-3.0995302200317383,2.0621283054351807,-22.347267150878906,41.9614143371582,-43.262203216552734
5.879,-9.786643981933594,-11.513065338134766,2.3437697887420654,0.37598752975463867,-2.4769058227539062,1.6496416330337524,-21.309558868408203,42.239112854003906,-43.48143768310547
5.883,-8.685946464538574,-10.271190643310547,5.960521221160889,0.28267788887023926,-1.154382586479187,1.4935654401779175,-19.877227783203125,41.36217498779297,-43.91990661621094
5.89,-7.214360237121582,-10.642078399658203,3.379861831665039,0.11331550031900406,-0.6290384531021118,1.3252722024917603,-20.08184814453125,42.01987838745117,-44.548377990722656
5.9,-4.19581413269043,-15.102299690246582,3.5569305419921875,0.08292495459318161,0.08735372871160507,1.2009609937667847,-19.321834564208984,41.23063278198242,-44.46068572998047
5.91,0.01196411345154047,-20.987445831298828,0.5982056260108948,-0.14278973639011383,0.33276882767677307,1.2568551301956177,-19.19029426574707,41.59602355957031,-43.55451583862305
5.92,5.050052165985107,-21.546171188354492,-1.7527425289154053,-0.06352998316287994,-0.08460482954978943,1.4869987964630127,-18.591054916381836,41.698333740234375,-44.0806770324707
5.939,4.264009952545166,-13.050454139709473,-0.039481572806835175,0.1287398487329483,-0.9150761365890503,1.6607898473739624,-17.684886932373047,41.55217742919922,-45.08915710449219
5.943,-4.926821708679199,-5.90787935256958,1.5182459354400635,0.03527746722102165,-1.8168659210205078,1.6910276412963867,-17.670272827148438,41.508331298828125,-44.16836929321289
5.95,-10.707880973815918,-4.925625324249268,2.3018951416015625,-0.049785517156124115,-1.677894115447998,1.5569428205490112,-16.515640258789062,40.93832015991211,-44.10990905761719
5.96,-14.779269218444824,-5.745166778564453,3.104687213897705,-0.1892155110836029,-0.611934244632721,1.142012596130371,-16.60333251953125,40.83601379394531,-44.22683334350586
5.97,-11.066803932189941,-7.682156562805176,1.8891334533691406,-0.20861048996448517,0.2796235680580139,0.7728971838951111,-16.164865493774414,41.02601623535156,-44.50453186035156
5.98,-5.095515727996826,-8.657232284545898,2.251646041870117,-0.2073887437582016,0.6275113224983215,0.49327367544174194,-16.04793930053711,41.128326416015625,-43.817596435546875
5.999,-2.9144580364227295,-9.4660062789917,1.5529417991638184,-0.24159719049930573,0.37629297375679016,0.3709478974342346,-15.624086380004883,41.21601867675781,-44.27068328857422
6.004,-3.3714869022369385,-10.005587577819824,0.5000999569892883,-0.2428189367055893,0.012980885803699493,0.32421672344207764,-15.594855308532715,41.28909683227539,-44.29991149902344
6.01,-3.181257724761963,-10.115657806396484,0.647258460521698,-0.2223549336194992,-0.0074830991216003895,0.3338378667831421,-15.682548522949219,40.83601379394531,-43.83221435546875
6.02,-2.524427890777588,-9.687341690063477,1.9680966138839722,-0.18524488806724548,-0.06887505203485489,0.3295617997646332,-15.434082984924316,41.186790466308594,-43.52528381347656
6.03,-2.785245418548584,-9.287740707397461,2.2923240661621094,-0.16462817788124084,-0.17623461782932281,0.337503045797348,-15.200233459472656,41.099090576171875,-44.372989654541016
6.04,-5.0392842292785645,-9.854839324951172,2.4059829711914062,-0.20357082784175873,-0.2200642079114914,0.3474296033382416,-15.346389770507812,40.952938079833984,-44.27068328857422
6.059,-6.519245147705078,-9.282955169677734,0.6556333899497986,-0.17516560852527618,0.28619036078453064,0.27641651034355164,-14.688687324523926,41.05524826049805,-43.83221435546875
6.062,-3.524627685546875,-8.907281875610352,1.7491532564163208,-0.17531833052635193,0.3315471112728119,0.25595253705978394,-14.937153816223145,40.587547302246094,-43.496055603027344
6.07,-0.7860422134399414,-9.43489933013916,1.5194423198699951,-0.17180584371089935,0.21532998979091644,0.2791654169559479,-14.688687324523926,40.71908950805664,-43.96375274658203
6.08,-1.4069796800613403,-9.267401695251465,2.0817556381225586,-0.16814064979553223,-0.04932736977934837,0.35292738676071167,-15.054078102111816,40.74831771850586,-43.29143524169922
6.089,-3.4540393352508545,-8.484949111938477,2.2468602657318115,-0.1722639948129654,-0.1791362315416336,0.40194934606552124,-14.147910118103027,40.762935638427734,-42.896812438964844
6.1,-4.485345840454102,-8.550751686096191,1.8939191102981567,-0.17760907113552094,-0.11438451707363129,0.42241328954696655,-14.410990715026855,40.499855041503906,-43.61297607421875
6.119,-2.9012973308563232,-9.424131393432617,1.8281164169311523,-0.16722436249256134,0.04749477282166481,0.4873177409172058,-13.914060592651367,40.309852600097656,-42.896812438964844
6.122,-2.744567632675171,-9.517451286315918,1.8305093050003052,-0.16523903608322144,0.051312681287527084,0.5125159025192261,-14.060215950012207,40.19292449951172,-43.11604690551758
6.13,-2.74337100982666,-9.259027481079102,1.9310078620910645,-0.1618792861700058,0.05146539583802223,0.5668829083442688,-13.7240571975708,39.87138366699219,-43.496055603027344
6.139,-2.77447772026062,-8.963513374328613,2.0757734775543213,-0.15073098242282867,0.038179077208042145,0.666454017162323,-13.694826126098633,40.149078369140625,-43.61297607421875
6.15,-2.9659035205841064,-9.361918449401855,2.0362918376922607,-0.16844607889652252,0.027641652151942253,0.7675521969795227,-13.534053802490234,40.10523223876953,-43.379127502441406
6.16,-3.067598581314087,-9.66939640045166,1.2514461278915405,-0.19364428520202637,0.02580905519425869,0.883005678653717,-13.694826126098633,40.1636962890625,-42.896812438964844
6.179,-2.833101749420166,-9.768697738647461,1.0660024881362915,-0.19196438789367676,0.024129178375005722,1.1421653032302856,-12.540192604064941,39.447532653808594,-43.15989685058594
6.183,-2.943171739578247,-9.102296829223633,1.5194423198699951,-0.18280142545700073,0.023365594446659088,1.1658363342285156,-12.306343078613281,39.1259880065918,-42.502193450927734
6.19,-3.5880372524261475,-8.648857116699219,1.765903115272522,-0.1621847152709961,0.017867807298898697,1.2217304706573486,-11.297865867614746,39.403682708740234,-42.268341064453125
6.2,-4.882554531097412,-8.70389175415039,1.439282774925232,-0.1267545372247696,0.04795292019844055,1.2991576194763184,-11.32709789276123,39.228294372558594,-41.84449005126953
6.209,-5.206782341003418,-9.134600639343262,0.8087739944458008,-0.11270463466644287,0.18127425014972687,1.3614658117294312,-11.195556640625,39.09675598144531,-42.882198333740234
6.22,-4.505684852600098,-9.20040225982666,0.5347958207130432,-0.11743884533643723,0.26160305738449097,1.437366008758545,-11.107863426208496,38.848289489746094,-43.20374298095703
6.239,-4.475774765014648,-11.298907279968262,1.0217353105545044,-0.20693059265613556,0.1589776873588562,1.7745635509490967,-9.997076988220215,38.33674621582031,-42.54603958129883
6.243,-5.136193752288818,-12.51565933227539,1.5314065217971802,-0.21319197118282318,0.1592831164598465,1.8377881050109863,-9.456298828125,38.45366668701172,-42.516807556152344
6.25,-5.5166521072387695,-13.294522285461426,1.659422516822815,-0.2848159074783325,0.1973094791173935,1.9958494901657104,-9.061677932739258,38.54136276245117,-42.09295654296875
6.26,-1.1772687435150146,-11.133803367614746,2.4837498664855957,-0.29428431391716003,0.45952337980270386,2.010510206222534,-8.535516738891602,38.219818115234375,-41.49371337890625
6.27,-0.5479563474655151,-7.42133903503418,3.2374887466430664,-0.2428189367055893,0.16829337179660797,2.054950714111328,-8.155509948730469,37.26980209350586,-41.21601867675781
6.28,-9.001798629760742,-7.183253765106201,3.3511481285095215,-0.18157969415187836,0.07696902006864548,2.1488711833953857,-7.600116729736328,37.4451904296875,-40.397544860839844
6.299,-7.966902732849121,-11.082358360290527,2.1068801879882812,-0.1976149082183838,0.8999572396278381,2.1925480365753174,-5.80239725112915,36.43671417236328,-41.449867248535156
6.303,-5.255834579467773,-12.367303848266602,2.1367905139923096,-0.22937989234924316,0.9367618560791016,2.244777202606201,-5.700087547302246,36.31978988647461,-41.17217254638672
6.31,-3.056830644607544,-13.006186485290527,1.9010975360870361,-0.2594650089740753,0.8764389157295227,2.3180809020996094,-5.1446943283081055,35.74978256225586,-41.05524826049805
6.32,-4.770091533660889,-14.535200119018555,1.3902299404144287,-0.3338378667831421,0.6571382284164429,2.5980098247528076,-4.384682655334473,35.69131851196289,-40.61677932739258
6.33,-3.94815731048584,-15.081960678100586,1.4368900060653687,-0.42012259364128113,0.7919867634773254,2.7491989135742188,-4.1946797370910645,34.84361267089844,-40.587547302246094
6.34,-1.4500504732131958,-9.584450721740723,0.9367900490760803,-0.43478330969810486,0.797179102897644,2.797762870788574,-3.566208839416504,34.03975296020508,-39.75445556640625
6.358,-8.644071578979492,-1.3818550109863281,0.9284151792526245,-0.28725937008857727,0.6096435189247131,2.749809980392456,-2.2215726375579834,33.367435455322266,-38.61444091796875
6.362,-9.10110092163086,-0.4331009089946747,0.9355936050415039,-0.25732696056365967,0.6698136925697327,2.7145323753356934,-1.6807950735092163,33.045894622802734,-38.61444091796875
6.369,-9.291330337524414,1.561316728591919,0.4450649917125702,-0.12996158003807068,0.9111055135726929,2.5392141342163086,-1.7977200746536255,32.34434509277344,-39.1259880065918
6.38,-8.63330364227295,-0.2560320198535919,0.605384111404419,-0.09208793193101883,0.9584475755691528,2.34816575050354,-1.2569423913955688,32.00818634033203,-38.234432220458984
6.39,-9.937392234802246,-3.720839262008667,0.48574298620224,-0.10155634582042694,0.9439395070075989,2.235766887664795,-1.0084770917892456,31.584331512451172,-37.605960845947266
6.408,-9.553343772888184,-9.56770133972168,0.5144568085670471,-0.16371189057826996,1.0546588897705078,2.17742919921875,-0.46769949793815613,30.83893585205078,-37.24057388305664
6.412,-4.862215518951416,-14.322239875793457,0.7465606331825256,-0.30573806166648865,1.0419833660125732,2.2230913639068604,0.08769366145133972,30.45893096923828,-37.211341857910156
6.42,-4.746163368225098,-14.464612007141113,0.3074776828289032,-0.41584649682044983,0.6884450912475586,2.3356430530548096,0.029231218621134758,30.225080490112305,-37.094417572021484
6.429,-8.578269004821777,-16.116857528686523,0.12442676723003387,-0.49495354294776917,0.4870122969150543,2.4391849040985107,1.0669395923614502,29.552762985229492,-37.22595977783203
6.44,-8.092525482177734,-17.16132354736328,-0.15553347766399384,-0.5771149396896362,0.5850561857223511,2.4352142810821533,1.4615609645843506,28.588130950927734,-35.58900833129883
6.45,-5.2151570320129395,-16.443477630615234,-0.12323036044836044,-0.7105889916419983,0.6927211284637451,2.4138340950012207,1.2130956649780273,27.988893508911133,-34.989768981933594
6.459,-4.112065315246582,-15.464812278747559,1.432104229927063,-0.8226827383041382,0.5862779021263123,2.3941335678100586,2.4846534729003906,27.214263916015625,-34.49283981323242
6.475,-5.209174633026123,-13.293325424194336,2.3988046646118164,-0.8956811428070068,0.3675881624221802,1.9089539051055908,2.850043773651123,26.54194450378418,-34.49283981323242
6.48,-6.330212116241455,-10.9962158203125,2.4634108543395996,-0.8917105197906494,0.33689215779304504,1.71989107131958,3.0985093116760254,26.42502212524414,-34.142066955566406
6.49,-7.313662052154541,-8.048258781433105,1.990828275680542,-0.8768970370292664,0.2580905556678772,1.3458887338638306,3.1715874671936035,25.796550750732422,-34.37591552734375
6.5,-8.288737297058105,-5.207978248596191,1.109073281288147,-0.8206974267959595,0.16019940376281738,0.9793696999549866,3.3177430629730225,25.84039878845215,-33.38205337524414
6.509,-7.95733118057251,-1.0815558433532715,0.6867400407791138,-0.6661485433578491,-0.04795292019844055,0.9301950335502625,2.820812463760376,24.77345848083496,-33.352821350097656
6.528,-6.7752766609191895,0.8889335989952087,2.091326951980591,-0.4311181306838989,-0.18448129296302795,1.0155634880065918,3.2738964557647705,25.25577163696289,-32.25665283203125
6.532,-1.9178473949432373,3.6095728874206543,2.7278177738189697,-0.14324790239334106,0.1918116807937622,0.4812090992927551,3.1862027645111084,24.510377883911133,-33.33820343017578
6.54,-0.45104703307151794,4.900500774383545,0.7752745151519775,-0.006566801108419895,0.3856086730957031,0.17608189582824707,3.697749137878418,24.992692947387695,-32.5051155090332
6.549,1.4309078454971313,6.423532009124756,-2.4921247959136963,-0.01313360221683979,0.7742716670036316,-0.2991712689399719,3.4200527667999268,25.007307052612305,-33.07512283325195
6.56,5.263012886047363,9.06999397277832,-4.697110652923584,0.04245513305068016,0.6279694437980652,-1.0793988704681396,3.2885122299194336,25.24115753173828,-31.964338302612305
6.57,10.393224716186523,7.048058986663818,-0.8973084688186646,0.17821994423866272,-0.01237002108246088,-1.920865774154663,2.4992692470550537,26.001171112060547,-31.832796096801758
6.58,13.337593078613281,1.8699908256530762,1.6319050788879395,0.20922134816646576,-0.9358454942703247,-2.7840182781219482,2.2215726375579834,26.468870162963867,-32.1689567565918
6.592,11.34676456451416,-3.410968542098999,2.1990039348602295,0.2590068578720093,-1.8008307218551636,-3.14626145362854,1.2861735820770264,27.842735290527344,-32.446651458740234
6.6,7.791029930114746,-3.940978765487671,1.3591231107711792,0.26939156651496887,-2.227367401123047,-3.2197179794311523,0.9353989958763123,28.573516845703125,-32.63665771484375
6.609,2.445464611053467,-3.218346357345581,1.0564311742782593,0.3533855378627777,-2.5340216159820557,-3.3954944610595703,0.6430867910385132,29.611223220825195,-32.47588348388672
6.62,-1.7084753513336182,-3.838087320327759,1.148554801940918,0.36132678389549255,-2.3912320137023926,-3.7201690673828125,0.24846535921096802,30.44431495666504,-35.0043830871582
6.63,-2.4059829711914062,-3.4923245906829834,1.200000524520874,0.2820670008659363,-1.9704985618591309,-4.234823226928711,-0.9353989958763123,31.306636810302734,-33.84975051879883
6.649,-2.0482561588287354,-4.18983268737793,1.2263215780258179,0.2997821271419525,-1.6250542402267456,-4.54453182220459,-1.5638701915740967,32.91435241699219,-34.50745391845703
6.653,-1.9417754411697388,-5.344368934631348,1.9812570810317993,0.3168863356113434,-1.4327844381332397,-4.840190887451172,-2.981584310531616,34.2443733215332,-36.05670928955078
6.66,-2.620140552520752,-6.236892223358154,2.334198474884033,0.30314186215400696,-1.3558154106140137,-4.959920406341553,-4.077754974365234,35.06284713745117,-35.51593017578125
6.669,-4.108476161956787,-7.4045891761779785,2.4765713214874268,0.28955012559890747,-1.1731666326522827,-5.003597259521484,-5.568547248840332,36.845951080322266,-36.69979476928711
6.68,-6.144768238067627,-8.58664321899414,2.544766664505005,0.29046642780303955,-0.7156286239624023,-5.003597259521484,-7.278573513031006,37.75211715698242,-37.035953521728516
6.69,-8.742177963256836,-9.19322395324707,2.8426733016967773,0.29016098380088806,-0.2148718386888504,-5.003597259521484,-8.330897331237793,38.68751907348633,-37.13826370239258
