time,accel_x,accel_y,accel_z,gyro_x,gyro_y,gyro_z,mag_x,mag_y,mag_z
0.0,75.15878295898438,-9.959878921508789,19.613300323486328,-2.531393527984619,4.263399600982666,-5.329249382019043,-67.80000305175781,-25.500001907348633,-20.55000114440918
0.009,76.61445617675781,-10.457873344421387,11.070788383483887,1.0658499002456665,6.9280242919921875,-2.398162364959717,-69.0,-23.55000114440918,-20.100000381469727
0.019,76.80599212646484,-11.109095573425293,10.649409294128418,-2.398162364959717,3.4640121459960938,-9.72588062286377,-68.4000015258789,-22.5,-19.950000762939453
0.029,77.34229278564453,-10.72602367401123,11.262324333190918,5.728943347930908,-2.131699800491333,3.4640121459960938,-68.4000015258789,-22.5,-19.950000762939453
0.039,78.03182220458984,-10.496180534362793,9.959878921508789,-7.9938740730285645,3.9969370365142822,-8.526799201965332,-69.75,-25.05000114440918,-20.55000114440918
0.059,76.69107055664062,-10.113107681274414,9.653421401977539,-7.194486618041992,5.196018218994141,-6.261868000030518,-69.1500015258789,-24.450000762939453,-21.450000762939453
0.063,76.537841796875,-9.730035781860352,10.266336441040039,-3.197549819946289,3.4640121459960938,-11.724349021911621,-69.0,-25.05000114440918,-19.80000114440918
0.07,77.49552154541016,-10.074800491333008,9.921571731567383,0.1332312375307083,-0.7993874549865723,-1.7320060729980469,-69.1500015258789,-24.150001525878906,-21.450000762939453
0.08,77.7253646850586,-11.070788383483887,8.734047889709473,-6.661561965942383,5.595712184906006,-8.127105712890625,-69.1500015258789,-24.150001525878906,-21.450000762939453
0.09,77.03583526611328,-11.530475616455078,9.768342971801758,-11.324655532836914,2.131699800491333,0.6661561727523804,-68.4000015258789,-24.900001525878906,-21.150001525878906
0.1,77.22737121582031,-9.002198219299316,10.342951774597168,-9.059723854064941,5.995405673980713,3.0643184185028076,-68.70000457763672,-25.200000762939453,-19.650001525878906
0.12,77.1124496459961,-9.921571731567383,10.457873344421387,-4.130168437957764,7.327718257904053,-7.860642910003662,-68.25,-24.30000114440918,-20.55000114440918
0.124,77.68705749511719,-10.72602367401123,10.342951774597168,-2.9310872554779053,1.8652373552322388,-8.793261528015137,-69.9000015258789,-24.450000762939453,-19.650001525878906
0.13,76.42292022705078,-10.113107681274414,9.883264541625977,-7.327718257904053,5.995405673980713,-14.655436515808105,-69.9000015258789,-24.450000762939453,-19.650001525878906
0.14,77.1890640258789,-10.649409294128418,9.385271072387695,2.797856092453003,-1.3323123455047607,-7.327718257904053,-68.25,-24.30000114440918,-20.55000114440918
0.149,77.87859344482422,-10.304644584655762,10.802638053894043,-7.860642910003662,3.0643184185028076,-10.525267601013184,-67.80000305175781,-24.30000114440918,-20.850000381469727
0.16,76.72937774658203,-11.338939666748047,10.228029251098633,-3.4640121459960938,3.7304747104644775,-13.323123931884766,-69.45000457763672,-24.150001525878906,-19.650001525878906
0.179,78.4148941040039,-10.955866813659668,11.03248119354248,3.197549819946289,-7.594180583953857,-7.594180583953857,-69.75,-25.500001907348633,-19.05000114440918
0.183,77.95520782470703,-9.423578262329102,10.802638053894043,0.1332312375307083,0.6661561727523804,-4.529861927032471,-69.75,-25.500001907348633,-19.05000114440918
0.19,78.07012939453125,-8.312667846679688,9.768342971801758,-10.125574111938477,1.0658499002456665,-7.327718257904053,-69.30000305175781,-24.750001907348633,-20.850000381469727
0.2,76.26969146728516,-8.65743350982666,10.15141487121582,-1.4655436277389526,2.398162364959717,-9.059723854064941,-69.0,-24.750001907348633,-20.100000381469727
0.21,78.68304443359375,-9.078812599182129,9.998186111450195,4.929555892944336,-0.6661561727523804,-0.2664624750614166,-67.20000457763672,-24.150001525878906,-18.900001525878906
0.22,76.42292022705078,-9.53849983215332,10.457873344421387,-2.131699800491333,10.392036437988281,-8.39356803894043,-68.55000305175781,-24.30000114440918,-19.05000114440918
0.239,77.1124496459961,-10.074800491333008,11.1474027633667,-7.860642910003662,7.594180583953857,-5.8621745109558105,-68.55000305175781,-24.30000114440918,-19.05000114440918
0.243,77.1124496459961,-9.423578262329102,10.266336441040039,-3.3307809829711914,7.460949420928955,-3.9969370365142822,-68.4000015258789,-24.150001525878906,-19.200000762939453
0.25,78.29997253417969,-8.389283180236816,10.572794914245605,-5.995405673980713,7.460949420928955,-1.5987749099731445,-68.25,-24.30000114440918,-20.100000381469727
0.26,76.99752807617188,-9.232041358947754,11.875240325927734,-2.531393527984619,10.258805274963379,-3.86370587348938,-69.0,-26.250001907348633,-20.100000381469727
0.269,76.80599212646484,-9.461885452270508,11.453861236572266,-1.3323123455047607,-3.4640121459960938,1.8652373552322388,-67.95000457763672,-26.100000381469727,-21.450000762939453
0.28,78.07012939453125,-10.994174003601074,10.994174003601074,0.5329249501228333,-3.7304747104644775,3.3307809829711914,-67.95000457763672,-26.100000381469727,-21.450000762939453
0.299,78.03182220458984,-11.109095573425293,10.228029251098633,-4.796324729919434,4.263399600982666,-4.929555892944336,-66.75,-25.500001907348633,-20.100000381469727
0.304,78.56812286376953,-9.346963882446289,11.568782806396484,-6.9280242919921875,9.326186180114746,-9.72588062286377,-67.80000305175781,-25.05000114440918,-20.55000114440918
0.31,76.19307708740234,-9.500192642211914,8.810662269592285,1.1990811824798584,3.9969370365142822,0.5329249501228333,-67.80000305175781,-25.05000114440918,-20.55000114440918
0.32,77.34229278564453,-9.768342971801758,10.189722061157227,-5.995405673980713,5.062787055969238,-0.39969372749328613,-67.80000305175781,-25.05000114440918,-20.55000114440918
0.33,76.61445617675781,-8.887276649475098,10.5344877243042,-5.462480545043945,5.595712184906006,-7.327718257904053,-67.80000305175781,-25.05000114440918,-20.55000114440918
0.339,77.64875030517578,-10.41956615447998,10.879252433776855,3.7304747104644775,-1.0658499002456665,-6.261868000030518,-67.80000305175781,-23.850000381469727,-22.05000114440918
0.359,76.76768493652344,-9.998186111450195,10.342951774597168,-1.0658499002456665,0.6661561727523804,5.995405673980713,-68.55000305175781,-25.05000114440918,-20.100000381469727
0.362,76.76768493652344,-9.998186111450195,9.615114212036133,3.597243309020996,-6.395099639892578,6.794793128967285,-69.1500015258789,-25.650001525878906,-19.200000762939453
0.37,76.03984832763672,-10.457873344421387,10.5344877243042,-1.9984685182571411,7.327718257904053,-3.4640121459960938,-69.1500015258789,-25.650001525878906,-19.200000762939453
0.379,77.45721435546875,-10.15141487121582,11.760318756103516,1.7320060729980469,3.0643184185028076,5.595712184906006,-68.4000015258789,-24.900001525878906,-19.950000762939453
0.389,76.76768493652344,-10.649409294128418,9.806650161743164,-3.3307809829711914,-4.130168437957764,3.0643184185028076,-69.1500015258789,-23.700000762939453,-21.150001525878906
0.4,77.45721435546875,-11.798625946044922,10.074800491333008,-3.7304747104644775,-5.728943347930908,9.059723854064941,-69.9000015258789,-24.150001525878906,-21.75
0.419,76.92091369628906,-9.806650161743164,11.338939666748047,2.6646246910095215,-7.327718257904053,1.8652373552322388,-68.55000305175781,-25.05000114440918,-20.55000114440918
0.422,76.5761489868164,-7.010222434997559,11.1474027633667,4.529861927032471,-8.39356803894043,20.517610549926758,-68.55000305175781,-25.05000114440918,-20.55000114440918
0.43,75.8866195678711,-7.967903137207031,11.760318756103516,0.39969372749328613,2.6646246910095215,5.995405673980713,-69.75,-25.500001907348633,-19.5
0.439,76.76768493652344,-8.389283180236816,11.60708999633789,0.0,-1.8652373552322388,14.655436515808105,-68.55000305175781,-23.850000381469727,-21.30000114440918
0.45,79.06611633300781,-6.703764915466309,12.526463508605957,1.5987749099731445,-6.5283308029174805,17.32006072998047,-69.0,-26.250001907348633,-20.100000381469727
0.46,79.44918823242188,-7.967903137207031,13.943830490112305,9.72588062286377,-11.857580184936523,17.986217498779297,-69.1500015258789,-25.200000762939453,-20.400001525878906
0.479,79.6407241821289,-8.389283180236816,13.828908920288086,7.06125545501709,-1.3323123455047607,16.520673751831055,-69.1500015258789,-25.200000762939453,-20.400001525878906
0.483,78.03182220458984,-5.1331682205200195,14.173673629760742,11.990811347961426,-5.062787055969238,15.188361167907715,-68.4000015258789,-24.900001525878906,-21.150001525878906
0.49,75.23539733886719,-8.465897560119629,13.637372970581055,13.189892768859863,-7.860642910003662,29.84379768371582,-68.4000015258789,-24.900001525878906,-21.150001525878906
0.5,75.73339080810547,-7.814674377441406,14.288596153259277,8.526799201965332,-5.8621745109558105,21.583459854125977,-68.70000457763672,-25.200000762939453,-20.700000762939453
0.51,76.5761489868164,-10.802638053894043,11.224017143249512,5.462480545043945,-4.529861927032471,22.782541275024414,-69.30000305175781,-25.80000114440918,-20.850000381469727
0.52,77.30398559570312,-12.373234748840332,7.201758861541748,11.324655532836914,-9.326186180114746,32.5084228515625,-69.30000305175781,-25.80000114440918,-20.850000381469727
0.539,76.72937774658203,-13.292608261108398,6.244078159332275,19.052066802978516,-8.127105712890625,23.98162269592285,-67.95000457763672,-27.150001525878906,-21.450000762939453
0.543,76.84429931640625,-12.756306648254395,5.363011837005615,29.444103240966797,0.0,10.791729927062988,-69.45000457763672,-25.650001525878906,-20.700000762939453
0.55,76.88260650634766,-12.411541938781738,6.167463779449463,33.30780792236328,-2.531393527984619,17.586523056030273,-69.45000457763672,-25.650001525878906,-20.700000762939453
0.56,77.87859344482422,-14.250288963317871,7.010222434997559,37.70444107055664,5.8621745109558105,16.65390396118164,-67.95000457763672,-27.900001525878906,-21.150001525878906
0.57,77.68705749511719,-16.05072784423828,6.473921298980713,31.44257164001465,7.9938740730285645,5.995405673980713,-67.95000457763672,-27.900001525878906,-21.150001525878906
0.579,76.65276336669922,-14.633360862731934,4.8267107009887695,28.111791610717773,7.194486618041992,5.995405673980713,-67.6500015258789,-27.150001525878906,-21.150001525878906
0.599,74.96724700927734,-15.820884704589844,3.600879430770874,24.781009674072266,5.196018218994141,9.992342948913574,-67.95000457763672,-27.150001525878906,-19.650001525878906
0.603,76.65276336669922,-14.36521053314209,7.546523571014404,16.78713607788086,7.860642910003662,15.055130004882812,-68.4000015258789,-26.100000381469727,-21.150001525878906
0.61,77.1124496459961,-13.292608261108398,8.504204750061035,9.992342948913574,19.185298919677734,8.660030364990234,-68.4000015258789,-26.100000381469727,-21.150001525878906
0.62,77.53382873535156,-10.764330863952637,10.611102104187012,10.525267601013184,14.255742073059082,21.050535202026367,-68.4000015258789,-26.100000381469727,-21.150001525878906
0.63,76.38461303710938,-9.078812599182129,9.155426979064941,7.9938740730285645,15.055130004882812,28.77794647216797,-68.4000015258789,-27.150001525878906,-19.950000762939453
0.639,75.19709014892578,-12.143390655517578,10.572794914245605,-0.7993874549865723,21.716691970825195,7.594180583953857,-69.1500015258789,-26.400001525878906,-20.700000762939453
0.657,76.65276336669922,-15.782577514648438,8.121131896972656,-0.9326186776161194,22.249616622924805,15.721285820007324,-67.80000305175781,-27.750001907348633,-19.05000114440918
0.661,75.81000518798828,-15.667655944824219,6.665457725524902,-4.263399600982666,13.722817420959473,16.387441635131836,-67.80000305175781,-27.750001907348633,-19.05000114440918
0.67,75.15878295898438,-14.250288963317871,6.205770969390869,-20.117916107177734,27.978559494018555,16.65390396118164,-67.80000305175781,-27.750001907348633,-19.05000114440918
0.68,75.9632339477539,-10.84094524383545,7.967903137207031,3.3307809829711914,28.77794647216797,20.784072875976562,-68.25,-27.750001907348633,-19.5
0.69,77.30398559570312,-11.377246856689453,9.27034854888916,5.8621745109558105,32.24195861816406,11.857580184936523,-69.0,-28.500001907348633,-19.05000114440918
0.708,77.1124496459961,-15.514427185058594,7.546523571014404,10.125574111938477,32.37519073486328,11.058192253112793,-68.25,-27.750001907348633,-19.80000114440918
0.712,76.42292022705078,-18.04270362854004,4.788403511047363,3.0643184185028076,36.63859176635742,16.12097930908203,-68.25,-27.750001907348633,-19.80000114440918
0.72,77.84028625488281,-15.437812805175781,8.465897560119629,3.3307809829711914,40.102603912353516,10.525267601013184,-67.5,-28.500001907348633,-18.75
0.73,75.8866195678711,-11.377246856689453,10.572794914245605,11.058192253112793,36.63859176635742,17.586523056030273,-67.95000457763672,-29.100000381469727,-18.150001525878906
0.74,76.11646270751953,-6.052541732788086,12.7946138381958,8.260336875915527,33.04134750366211,14.255742073059082,-68.4000015258789,-28.80000114440918,-17.400001525878906
0.749,76.42292022705078,-9.730035781860352,17.697938919067383,4.796324729919434,42.90045928955078,8.793261528015137,-69.0,-30.450000762939453,-18.75
0.759,76.46122741699219,-15.667655944824219,14.250288963317871,-2.2649309635162354,47.9632453918457,14.655436515808105,-69.0,-30.450000762939453,-18.75
0.775,74.62248229980469,-13.330915451049805,14.556746482849121,-1.9984685182571411,43.43338394165039,12.124042510986328,-69.30000305175781,-30.900001525878906,-16.80000114440918
0.78,76.99752807617188,-9.155426979064941,16.855180740356445,5.462480545043945,45.69831466674805,12.656967163085938,-69.75,-28.500001907348633,-17.55000114440918
0.79,76.88260650634766,-7.814674377441406,15.935806274414062,12.790199279785156,43.96630859375,11.591117858886719,-69.30000305175781,-28.950000762939453,-17.55000114440918
0.8,75.61846923828125,-6.320692539215088,17.73624610900879,36.238895416259766,37.304744720458984,26.912710189819336,-69.0,-29.250001907348633,-16.80000114440918
0.81,77.34229278564453,-8.389283180236816,19.574993133544922,35.972434997558594,36.5053596496582,23.182235717773438,-69.0,-29.250001907348633,-16.80000114440918
0.829,76.95922088623047,-11.492168426513672,19.536685943603516,27.045940399169922,36.372127532958984,18.385910034179688,-69.75,-31.950000762939453,-17.25
0.833,76.88260650634766,-13.48414421081543,19.843143463134766,16.920366287231445,27.71209716796875,15.321592330932617,-70.05000305175781,-29.250001907348633,-17.25
0.84,77.53382873535156,-13.21599292755127,20.83913230895996,19.98468589782715,24.381317138671875,21.050535202026367,-68.4000015258789,-31.05000114440918,-16.350000381469727
0.85,77.8019790649414,-12.832921028137207,19.80483627319336,20.650842666625977,23.715160369873047,19.85145378112793,-69.30000305175781,-31.200000762939453,-17.25
0.86,76.61445617675781,-8.542511940002441,19.766529083251953,21.050535202026367,19.85145378112793,22.915773391723633,-69.30000305175781,-31.200000762939453,-17.25
0.87,76.46122741699219,-11.338939666748047,19.230228424072266,35.705970764160156,8.660030364990234,27.84532928466797,-69.0,-31.650001525878906,-15.450000762939453
0.888,77.68705749511719,-14.288596153259277,20.149600982666016,27.71209716796875,3.197549819946289,31.709033966064453,-68.55000305175781,-31.950000762939453,-17.25
0.892,75.58016204833984,-14.36521053314209,18.693927764892578,29.177640914916992,7.860642910003662,24.381317138671875,-69.9000015258789,-32.25,-16.350000381469727
0.9,76.95922088623047,-14.09705924987793,20.226215362548828,32.37519073486328,9.859111785888672,22.782541275024414,-69.30000305175781,-31.950000762939453,-15.000000953674316
0.909,75.73339080810547,-18.464082717895508,17.468095779418945,25.04747200012207,1.3323123455047607,31.042879104614258,-69.30000305175781,-31.950000762939453,-15.000000953674316
0.92,78.83627319335938,-27.427974700927734,13.943830490112305,-7.327718257904053,1.1990811824798584,27.978559494018555,-69.0,-34.80000305175781,-16.05000114440918
0.93,75.50354766845703,-24.36339569091797,14.97812557220459,-37.57120895385742,6.661561965942383,-6.661561965942383,-70.6500015258789,-31.500001907348633,-17.400001525878906
0.949,76.19307708740234,-11.798625946044922,17.50640296936035,-14.788667678833008,2.531393527984619,24.381317138671875,-69.45000457763672,-31.80000114440918,-15.90000057220459
0.953,76.34630584716797,-8.772355079650879,14.441824913024902,5.196018218994141,1.5987749099731445,29.444103240966797,-69.45000457763672,-32.25,-16.350000381469727
0.96,74.81401824951172,-13.982137680053711,16.970102310180664,1.3323123455047607,5.728943347930908,32.90811538696289,-69.45000457763672,-32.25,-16.350000381469727
0.97,74.12448120117188,-17.62132453918457,16.625335693359375,-5.062787055969238,10.392036437988281,24.51454734802246,-69.1500015258789,-34.5,-15.600000381469727
0.979,73.97125244140625,-21.605276107788086,16.433799743652344,-7.06125545501709,3.9969370365142822,34.50688934326172,-68.4000015258789,-33.75,-15.600000381469727
0.99,74.12448120117188,-19.919757843017578,16.203956604003906,-9.192955017089844,10.125574111938477,24.11485481262207,-67.6500015258789,-35.25,-16.350000381469727
1.009,73.81802368164062,-15.093047142028809,15.744270324707031,-3.0643184185028076,7.72741174697876,25.980091094970703,-68.55000305175781,-33.900001525878906,-16.5
1.013,75.3503189086914,-18.808849334716797,14.36521053314209,-8.39356803894043,13.989279747009277,23.715160369873047,-68.55000305175781,-33.900001525878906,-16.5
1.02,75.46524047851562,-21.796812057495117,13.369222640991211,-6.794793128967285,2.9310872554779053,29.444103240966797,-67.6500015258789,-34.5,-15.90000057220459
1.029,74.85232543945312,-19.19192123413086,14.36521053314209,-11.058192253112793,8.526799201965332,20.650842666625977,-68.70000457763672,-33.75,-15.15000057220459
1.04,75.2737045288086,-15.476119995117188,15.054739952087402,-5.8621745109558105,10.125574111938477,24.11485481262207,-68.70000457763672,-34.20000076293945,-15.15000057220459
1.05,76.46122741699219,-18.502389907836914,14.518439292907715,-4.929555892944336,2.131699800491333,28.644716262817383,-68.4000015258789,-35.25,-15.15000057220459
1.069,76.38461303710938,-22.141576766967773,15.054739952087402,-18.2526798248291,-1.4655436277389526,28.511484146118164,-68.4000015258789,-35.25,-15.15000057220459
1.073,77.30398559570312,-21.75850486755371,17.62132453918457,-22.782541275024414,0.0,33.57427215576172,-69.30000305175781,-36.60000228881836,-16.80000114440918
1.08,75.04386138916016,-14.556746482849121,16.740259170532227,-19.718223571777344,0.6661561727523804,33.04134750366211,-68.25,-35.10000228881836,-16.05000114440918
1.09,76.80599212646484,-13.369222640991211,18.34916114807129,-10.258805274963379,1.0658499002456665,32.24195861816406,-69.1500015258789,-35.25,-16.350000381469727
1.1,76.00154113769531,-16.548721313476562,19.153614044189453,-19.052066802978516,8.260336875915527,27.31240463256836,-68.25,-36.30000305175781,-14.700000762939453
1.109,76.30799865722656,-18.310853958129883,18.808849334716797,-27.17917251586914,6.395099639892578,37.304744720458984,-68.25,-36.30000305175781,-14.700000762939453
1.129,75.61846923828125,-17.00840950012207,20.609289169311523,-13.989279747009277,-6.261868000030518,46.231239318847656,-67.95000457763672,-36.900001525878906,-16.650001525878906
1.133,75.00555419921875,-14.824896812438965,20.76251792907715,-17.986217498779297,-6.395099639892578,45.298622131347656,-67.95000457763672,-36.150001525878906,-15.15000057220459
1.14,75.9632339477539,-16.05072784423828,20.83913230895996,-21.84992218017578,-3.86370587348938,53.159263610839844,-67.20000457763672,-35.70000076293945,-15.90000057220459
1.15,74.43093872070312,-14.939818382263184,19.038692474365234,-16.65390396118164,-14.92189884185791,65.15007781982422,-69.9000015258789,-37.20000076293945,-15.15000057220459
1.159,76.15476989746094,-16.970102310180664,16.1656494140625,-17.586523056030273,-15.721285820007324,73.67687225341797,-69.9000015258789,-37.20000076293945,-15.15000057220459
1.17,75.8866195678711,-16.242263793945312,17.00840950012207,-27.84532928466797,-6.128636837005615,65.81623077392578,-68.70000457763672,-36.900001525878906,-15.90000057220459
1.189,74.2394027709961,-16.66364288330078,16.35718536376953,-27.84532928466797,-11.990811347961426,70.07962799072266,-67.05000305175781,-37.80000305175781,-17.55000114440918
1.193,76.65276336669922,-17.544710159301758,17.12333106994629,-12.390504837036133,-19.31852912902832,81.67074584960938,-67.80000305175781,-39.0,-16.05000114440918
1.2,75.31201171875,-19.613300323486328,15.054739952087402,-13.056661605834961,-20.38437843322754,81.27105712890625,-67.80000305175781,-37.80000305175781,-17.25
1.21,76.95922088623047,-21.490354537963867,14.020444869995117,-23.848390579223633,-14.92189884185791,81.93721008300781,-67.80000305175781,-37.80000305175781,-17.25
1.22,79.37257385253906,-24.89969825744629,14.595053672790527,-21.316997528076172,-24.381317138671875,90.33078002929688,-67.20000457763672,-39.150001525878906,-17.100000381469727
1.229,76.95922088623047,-25.014619827270508,16.1656494140625,-26.779478073120117,-25.7136287689209,81.8039779663086,-66.75,-39.0,-16.80000114440918
1.249,77.1507568359375,-21.528661727905273,19.19192123413086,-33.04134750366211,-19.052066802978516,77.94027709960938,-66.9000015258789,-42.60000228881836,-16.350000381469727
1.252,78.29997253417969,-22.37141990661621,18.387468338012695,-24.248085021972656,-27.84532928466797,94.19448852539062,-66.75,-41.25,-16.05000114440918
1.26,76.84429931640625,-27.351360321044922,18.004396438598633,-25.04747200012207,-30.509952545166016,101.9218978881836,-66.75,-41.25,-16.05000114440918
1.27,76.23138427734375,-29.95625114440918,16.740259170532227,-22.782541275024414,-27.17917251586914,107.78407287597656,-65.25,-40.95000076293945,-17.25
1.28,80.98147583007812,-33.40390396118164,13.369222640991211,-79.0061264038086,-32.5084228515625,85.93415069580078,-65.70000457763672,-41.55000305175781,-17.100000381469727
1.29,78.10843658447266,-15.054739952087402,23.903709411621094,-41.168453216552734,-34.50688934326172,113.51301574707031,-65.4000015258789,-44.55000305175781,-18.450000762939453
1.31,82.5137710571289,-21.6818904876709,16.35718536376953,-44.36600112915039,-38.37059783935547,117.50994873046875,-65.4000015258789,-44.55000305175781,-18.450000762939453
1.314,83.50975799560547,-25.70414924621582,11.951854705810547,-62.35221862792969,-36.238895416259766,109.24961853027344,-63.30000305175781,-45.150001525878906,-19.5
1.32,83.6629867553711,-26.393678665161133,11.760318756103516,-61.28636932373047,-35.972434997558594,114.44563293457031,-63.30000305175781,-45.150001525878906,-19.5
1.329,85.76988220214844,-27.351360321044922,9.959878921508789,-68.34762573242188,-42.76722717285156,122.03981018066406,-63.900001525878906,-45.75,-20.700000762939453
1.339,87.91508483886719,-27.88766098022461,8.619126319885254,-71.54517364501953,-55.69065856933594,129.10107421875,-62.55000305175781,-46.650001525878906,-19.80000114440918
1.349,91.4393539428711,-25.550920486450195,8.695740699768066,-80.07197570800781,-51.560489654541016,130.30015563964844,-62.55000305175781,-46.650001525878906,-19.80000114440918
1.369,97.79834747314453,-25.474306106567383,10.687716484069824,-79.0061264038086,-53.026031494140625,132.29861450195312,-63.750003814697266,-47.10000228881836,-20.100000381469727
1.373,97.98988342285156,-26.2021427154541,12.48815631866455,-84.60183715820312,-59.55436325073242,147.0872802734375,-62.55000305175781,-47.85000228881836,-20.100000381469727
1.38,95.7297592163086,-29.95625114440918,12.334927558898926,-103.12097930908203,-54.35834503173828,143.3568115234375,-62.55000305175781,-47.85000228881836,-20.100000381469727
1.39,93.77609252929688,-31.29700469970703,10.879252433776855,-124.43797302246094,-54.22511291503906,148.8192901611328,-61.05000305175781,-48.30000305175781,-21.30000114440918
1.4,95.34668731689453,-27.044902801513672,11.453861236572266,-120.04134368896484,-66.34915924072266,147.22052001953125,-61.05000305175781,-48.30000305175781,-21.30000114440918
1.41,95.65314483642578,-23.75048065185547,10.917559623718262,-134.03062438964844,-78.20673370361328,168.9372100830078,-60.150001525878906,-48.45000076293945,-22.5
1.429,96.03621673583984,-23.63555908203125,10.72602367401123,-162.6753387451172,-71.81163787841797,167.87135314941406,-58.650001525878906,-48.0,-24.0
1.433,102.58675384521484,-16.625335693359375,16.05072784423828,-191.71975708007812,-80.8713607788086,198.24807739257812,-57.000003814697266,-47.55000305175781,-24.900001525878906
1.44,102.70167541503906,-13.177685737609863,15.399505615234375,-196.1163787841797,-91.66309356689453,202.64471435546875,-57.000003814697266,-47.55000305175781,-24.900001525878906
1.45,105.45979309082031,-7.929595947265625,16.855180740356445,-207.97396850585938,-92.99540710449219,219.16539001464844,-57.000003814697266,-47.55000305175781,-24.900001525878906
1.46,111.32080078125,-0.4596867263317108,16.931795120239258,-208.5068817138672,-92.59571075439453,232.0888214111328,-55.95000076293945,-50.400001525878906,-26.250001907348633
1.469,113.1978530883789,4.098873138427734,16.28057098388672,-213.4364471435547,-102.8545150756836,254.60488891601562,-54.750003814697266,-51.000003814697266,-26.400001525878906
1.489,113.88739013671875,7.738059997558594,13.062764167785645,-236.3522186279297,-104.98621368408203,272.9908142089844,-55.650001525878906,-48.900001525878906,-26.55000114440918
1.492,118.21610260009766,20.64759635925293,8.197746276855469,-266.9953918457031,-92.06278228759766,283.78253173828125,-53.70000076293945,-51.150001525878906,-28.500001907348633
1.5,117.64149475097656,26.85336685180664,6.435614109039307,-265.52984619140625,-94.9938735961914,289.64471435546875,-53.70000076293945,-51.150001525878906,-28.500001907348633
1.51,116.87535095214844,37.73262023925781,3.1028854846954346,-223.82847595214844,-100.85604858398438,322.6860656738281,-51.000003814697266,-52.20000076293945,-30.450000762939453
1.52,111.16757202148438,38.613685607910156,-2.2601263523101807,-170.93568420410156,-101.78866577148438,331.74578857421875,-49.95000076293945,-51.900001525878906,-32.10000228881836
1.529,107.26023864746094,17.085023880004883,-11.530475616455078,-120.17457580566406,-130.83306884765625,336.9418029785156,-49.80000305175781,-50.250003814697266,-31.200000762939453
1.547,110.47804260253906,-15.629348754882812,-15.437812805175781,99.3905029296875,-124.03828430175781,342.27105712890625,-48.750003814697266,-52.20000076293945,-32.25
1.551,117.94795227050781,-20.11129379272461,9.500192642211914,130.96630859375,-119.24195861816406,337.8744201660156,-43.80000305175781,-54.45000076293945,-33.0
1.56,111.2824935913086,-13.369222640991211,13.79060173034668,207.4410400390625,-91.26339721679688,316.9571228027344,-43.80000305175781,-54.45000076293945,-33.0
1.569,86.49771881103516,-1.8387469053268433,30.26270866394043,259.00152587890625,-53.159263610839844,315.8912658691406,-43.650001525878906,-55.80000305175781,-32.55000305175781
1.58,53.32366180419922,-7.623138427734375,41.639957427978516,231.4226531982422,-22.649311065673828,310.42877197265625,-42.45000076293945,-56.250003814697266,-30.600000381469727
1.59,34.284969329833984,-36.621707916259766,48.42033386230469,138.8269500732422,-10.258805274963379,215.03521728515625,-40.80000305175781,-60.30000305175781,-30.450000762939453
1.602,32.676063537597656,-59.644351959228516,36.88985824584961,44.63246536254883,27.045940399169922,100.72281646728516,-38.25,-59.85000228881836,-29.400001525878906
1.61,33.82528305053711,-44.091617584228516,29.190107345581055,4.529861927032471,40.76875686645508,39.30321502685547,-38.25,-59.85000228881836,-29.400001525878906
1.62,36.2003288269043,-20.915746688842773,26.66183090209961,-34.64012145996094,62.618682861328125,-40.36906433105469,-38.55000305175781,-59.55000305175781,-26.400001525878906
1.63,32.75267791748047,-1.800439715385437,18.310853958129883,-60.08728790283203,84.20214080810547,-109.38284301757812,-40.20000076293945,-59.250003814697266,-26.250001907348633
1.64,24.13355255126953,7.010222434997559,14.211980819702148,-54.22511291503906,100.18988800048828,-175.9984588623047,-40.20000076293945,-59.250003814697266,-26.250001907348633
1.65,21.0689754486084,13.139378547668457,11.070788383483887,-27.978559494018555,106.58499145507812,-218.0995330810547,-41.25,-56.400001525878906,-26.250001907348633
1.666,20.609289169311523,14.518439292907715,7.393294811248779,-17.986217498779297,120.04134368896484,-310.8284912109375,-44.55000305175781,-56.400001525878906,-23.55000114440918
1.67,21.298818588256836,4.865017890930176,2.5282769203186035,-15.987748146057129,126.83613586425781,-338.0076599121094,-44.400001525878906,-53.85000228881836,-23.25
1.68,22.83110809326172,4.022258758544922,1.4173674583435059,0.5329249501228333,119.5084228515625,-396.2297058105469,-45.900001525878906,-52.650001525878906,-23.700000762939453
1.69,24.938005447387695,4.290409564971924,-1.9153614044189453,3.0643184185028076,128.96783447265625,-443.6600341796875,-45.900001525878906,-52.650001525878906,-23.700000762939453
1.7,28.117504119873047,3.869029998779297,-2.9879636764526367,25.846860885620117,139.09341430664062,-501.4823913574219,-49.500003814697266,-46.650001525878906,-21.600000381469727
1.718,33.59543991088867,4.596867084503174,-2.604891538619995,43.16691970825195,148.4196014404297,-530.5267944335938,-51.150001525878906,-43.80000305175781,-20.700000762939453
1.722,40.107666015625,-1.9153614044189453,0.26815059781074524,44.89892578125,140.6921844482422,-567.298583984375,-53.70000076293945,-41.55000305175781,-17.400001525878906
1.73,53.09381866455078,-16.89348793029785,5.5545477867126465,26.113323211669922,132.56507873535156,-582.353759765625,-54.45000076293945,-37.650001525878906,-17.700000762939453
1.739,60.1806526184082,-23.558944702148438,4.060565948486328,-2.797856092453003,148.8192901611328,-608.3338012695312,-54.45000076293945,-37.650001525878906,-17.700000762939453
1.75,66.9610366821289,-22.562957763671875,3.4093432426452637,1.8652373552322388,155.6140899658203,-627.3859252929688,-57.45000076293945,-30.30000114440918,-14.850000381469727
1.76,75.73339080810547,-16.58702850341797,6.244078159332275,23.04900360107422,148.55282592773438,-646.837646484375,-58.80000305175781,-27.450000762939453,-13.200000762939453
1.77,88.94937896728516,-16.1656494140625,3.754108190536499,51.4272575378418,159.21133422851562,-654.4318237304688,-58.20000076293945,-23.25,-13.350000381469727
1.782,99.40725708007812,-23.75048065185547,2.145204782485962,78.47319793701172,160.6768798828125,-649.3690795898438,-57.750003814697266,-18.450000762939453,-10.950000762939453
1.79,108.44776153564453,-32.63775634765625,-1.8387469053268433,62.8851432800293,152.81622314453125,-645.1056518554688,-57.750003814697266,-18.450000762939453,-10.950000762939453
1.8,112.47001647949219,-35.54910659790039,-2.911349296569824,32.90811538696289,141.6248016357422,-645.6385498046875,-58.95000076293945,-10.200000762939453,-9.0
1.81,116.99027252197266,-38.15399932861328,-3.4093432426452637,11.990811347961426,144.68911743164062,-650.4348754882812,-57.150001525878906,-7.050000190734863,-7.800000190734863
1.819,121.31898498535156,-39.18829345703125,-5.5545477867126465,4.929555892944336,139.2266387939453,-643.107177734375,-55.05000305175781,-3.750000238418579,-5.400000095367432
1.839,125.57109069824219,-40.03105163574219,-4.252102375030518,6.5283308029174805,125.50382232666016,-629.517578125,-54.45000076293945,0.15000000596046448,-4.200000286102295
1.843,124.61341094970703,-41.5250358581543,-1.1109095811843872,-3.86370587348938,124.03828430175781,-594.477783203125,-54.45000076293945,0.15000000596046448,-4.200000286102295
1.85,121.97021484375,-40.41412353515625,-3.600879430770874,0.6661561727523804,118.8422622680664,-591.9464111328125,-52.05000305175781,6.900000095367432,-1.8000000715255737
1.859,121.31898498535156,-37.08139419555664,-6.320692539215088,25.18070411682129,107.91730499267578,-565.03369140625,-49.650001525878906,8.25,0.15000000596046448
1.869,120.13146209716797,-34.170047760009766,-3.754108190536499,39.16998291015625,102.45481872558594,-538.6538696289062,-48.150001525878906,11.700000762939453,-0.9000000357627869
1.88,124.84325408935547,-36.69832229614258,-3.294421434402466,45.56508255004883,100.85604858398438,-505.47930908203125,-45.150001525878906,14.40000057220459,1.2000000476837158
1.898,119.7100830078125,-47.615882873535156,-3.2561142444610596,47.430320739746094,102.98774719238281,-467.6416320800781,-45.150001525878906,14.40000057220459,1.2000000476837158
1.903,108.71591186523438,-55.622093200683594,-4.558559894561768,27.71209716796875,103.25421142578125,-406.35528564453125,-41.55000305175781,15.450000762939453,3.3000001907348633
1.91,103.23797607421875,-61.78955841064453,-3.026270866394043,9.859111785888672,99.65696716308594,-367.98468017578125,-39.0,16.950000762939453,4.350000381469727
1.919,104.54042053222656,-62.93877410888672,-5.094861030578613,-3.9969370365142822,93.39509582519531,-313.7595520019531,-39.0,17.700000762939453,2.5500001907348633
1.929,106.83885955810547,-66.69288635253906,-6.3973069190979,-3.9969370365142822,67.41500854492188,-240.48239135742188,-36.75,18.150001525878906,5.400000095367432
1.94,105.19164276123047,-71.55789947509766,-10.15141487121582,-19.185298919677734,48.76263427734375,-169.73660278320312,-36.75,18.150001525878906,5.400000095367432
1.959,102.3569107055664,-73.24341583251953,-11.03248119354248,-22.915773391723633,33.97396469116211,-85.93415069580078,-35.25,20.100000381469727,6.900000095367432
1.963,101.51415252685547,-66.4630355834961,-11.530475616455078,0.1332312375307083,-2.398162364959717,1.3323123455047607,-34.650001525878906,19.80000114440918,6.750000476837158
1.97,100.28832244873047,-52.67243576049805,-8.848969459533691,15.055130004882812,-8.39356803894043,42.633995056152344,-33.0,18.450000762939453,6.900000095367432
1.979,96.15113830566406,-48.80340576171875,-6.3973069190979,27.578866958618164,-17.719755172729492,95.39356231689453,-33.0,19.200000762939453,7.950000286102295
1.989,93.23979187011719,-47.2711181640625,-4.6734819412231445,34.906585693359375,-25.04747200012207,143.4900360107422,-33.0,19.200000762939453,7.950000286102295
2.0,93.2780990600586,-40.49073791503906,-3.485957622528076,44.63246536254883,-35.839202880859375,190.25421142578125,-35.70000076293945,16.350000381469727,7.050000190734863
2.019,89.37075805664062,-34.24666213989258,-1.3407529592514038,58.222049713134766,-49.02909469604492,218.63246154785156,-34.650001525878906,15.90000057220459,8.25
2.023,87.68524169921875,-28.347347259521484,-2.604891538619995,93.79479217529297,-37.83767318725586,270.9923400878906,-35.400001525878906,15.15000057220459,7.800000190734863
2.03,87.45539855957031,-29.803022384643555,20.64759635925293,87.79938507080078,-21.84992218017578,271.2587890625,-35.25,13.800000190734863,7.350000381469727
2.039,96.76405334472656,-25.742456436157227,44.819454193115234,8.660030364990234,-55.15773391723633,251.27410888671875,-35.25,13.800000190734863,7.350000381469727
2.05,123.1577377319336,6.358999729156494,45.85375213623047,-76.07503509521484,-55.29096221923828,220.36447143554688,-37.05000305175781,13.050000190734863,6.600000381469727
2.059,115.26644897460938,54.93256378173828,-9.078812599182129,-23.182235717773438,-22.382848739624023,238.2174530029297,-34.95000076293945,10.5,6.300000190734863
2.079,65.50535583496094,70.6385269165039,-14.058752059936523,78.60643005371094,-31.309341430664062,249.40887451171875,-37.20000076293945,10.950000762939453,6.300000190734863
2.083,55.392250061035156,42.29117965698242,4.596867084503174,170.8024444580078,-24.51454734802246,238.75038146972656,-37.20000076293945,10.950000762939453,6.300000190734863
2.09,58.418521881103516,-26.66183090209961,10.84094524383545,162.40887451171875,-15.588054656982422,224.3614044189453,-37.20000076293945,10.950000762939453,6.300000190734863
2.1,65.3138198852539,-51.44660568237305,17.92778205871582,85.80091857910156,-19.45176124572754,199.04747009277344,-37.5,7.650000095367432,5.850000381469727
2.11,75.31201171875,-61.023414611816406,17.583017349243164,6.9280242919921875,-26.64624786376953,173.6002960205078,-37.95000076293945,5.850000381469727,4.200000286102295
2.12,83.77790832519531,-45.777137756347656,9.193734169006348,-50.62786865234375,-12.25727367401123,150.151611328125,-38.400001525878906,4.350000381469727,4.950000286102295
2.14,75.42693328857422,-20.456058502197266,13.21599292755127,-28.378253936767578,13.323123931884766,149.48544311523438,-38.400001525878906,4.350000381469727,4.950000286102295
2.144,80.1770248413086,-13.560758590698242,27.27474594116211,-57.02296829223633,-5.329249382019043,160.41041564941406,-39.0,2.25,4.650000095367432
2.15,87.22555541992188,-31.258697509765625,9.53849983215332,-80.20520782470703,-0.2664624750614166,163.34149169921875,-39.150001525878906,4.050000190734863,4.5
2.16,75.81000518798828,-27.964275360107422,5.975927352905273,-74.47626495361328,22.649311065673828,152.68299865722656,-38.400001525878906,1.350000023841858,5.25
2.17,75.9632339477539,-7.201758861541748,10.802638053894043,-37.57120895385742,24.11485481262207,148.95252990722656,-37.650001525878906,3.1500000953674316,7.050000190734863
2.18,77.64875030517578,15.093047142028809,17.046716690063477,5.995405673980713,7.860642910003662,160.6768798828125,-37.650001525878906,3.1500000953674316,7.050000190734863
2.2,78.07012939453125,14.709975242614746,22.026655197143555,33.04134750366211,4.263399600982666,176.7978515625,-39.0,-0.75,6.900000095367432
2.204,77.30398559570312,4.941632270812988,23.3291015625,42.101070404052734,15.721285820007324,172.2679901123047,-38.55000305175781,-1.5,5.850000381469727
2.21,74.2394027709961,9.461885452270508,26.85336685180664,46.364471435546875,7.460949420928955,167.73812866210938,-38.55000305175781,-1.5,5.850000381469727
2.22,73.24341583251953,7.508216381072998,34.43819808959961,73.9433364868164,-10.392036437988281,162.80857849121094,-38.55000305175781,-0.75,6.600000381469727
2.23,71.67282104492188,5.286397457122803,21.6818904876709,76.07503509521484,-1.1990811824798584,164.5405731201172,-38.55000305175781,-0.75,6.600000381469727
2.24,75.81000518798828,-7.508216381072998,23.175872802734375,79.9387435913086,-8.926492691040039,159.07809448242188,-40.650001525878906,-3.1500000953674316,7.500000476837158
2.259,75.31201171875,-12.717999458312988,14.863204002380371,75.40888214111328,-21.183767318725586,167.0719757080078,-39.75,-1.8000000715255737,6.900000095367432
2.263,82.66699981689453,-18.732234954833984,11.109095573425293,57.15620040893555,-21.183767318725586,154.814697265625,-39.75,-4.5,4.350000381469727
2.27,76.99752807617188,-17.851167678833008,6.473921298980713,41.035221099853516,-7.194486618041992,149.08575439453125,-39.75,-4.5,4.350000381469727
2.28,77.41890716552734,-17.12333106994629,7.201758861541748,57.689125061035156,-21.316997528076172,152.949462890625,-39.75,-4.5,4.350000381469727
2.289,77.49552154541016,-28.117504119873047,1.0342950820922852,51.960182189941406,-12.25727367401123,150.2848358154297,-39.45000076293945,-7.500000476837158,6.0
2.3,75.08216857910156,-34.09343338012695,-1.1109095811843872,28.24502182006836,-13.58958625793457,152.54977416992188,-40.5,-8.100000381469727,6.600000381469727
2.319,74.2394027709961,-27.504589080810547,2.030282974243164,1.0658499002456665,1.1990811824798584,135.62939453125,-39.75,-6.900000095367432,5.850000381469727
2.322,77.763671875,-8.772355079650879,15.437812805175781,11.857580184936523,0.7993874549865723,135.0964813232422,-41.25,-8.100000381469727,6.600000381469727
2.33,76.23138427734375,-9.232041358947754,16.203956604003906,30.643184661865234,-7.9938740730285645,132.83154296875,-41.25,-8.100000381469727,6.600000381469727
2.34,76.07815551757812,-10.266336441040039,14.824896812438965,25.313934326171875,2.131699800491333,139.49310302734375,-39.900001525878906,-9.75,6.750000476837158
2.35,73.20510864257812,-19.345149993896484,17.276559829711914,26.113323211669922,-9.459418296813965,138.02755737304688,-39.0,-11.550000190734863,5.400000095367432
2.36,73.24341583251953,-30.224401473999023,15.514427185058594,4.529861927032471,-7.460949420928955,134.16384887695312,-39.900001525878906,-10.5,5.25
2.379,72.93695831298828,-29.95625114440918,11.530475616455078,-19.185298919677734,4.929555892944336,126.83613586425781,-39.900001525878906,-11.40000057220459,5.700000286102295
2.382,73.20510864257812,-22.409727096557617,12.947842597961426,-12.390504837036133,6.128636837005615,123.50535583496094,-38.70000076293945,-11.700000762939453,5.25
2.39,76.72937774658203,-9.27034854888916,13.713987350463867,2.9310872554779053,-6.5283308029174805,139.2266387939453,-38.70000076293945,-11.700000762939453,5.25
2.4,77.61044311523438,-9.193734169006348,15.24627685546875,9.72588062286377,-4.529861927032471,140.1592559814453,-40.05000305175781,-12.300000190734863,7.350000381469727
2.41,77.84028625488281,-15.054739952087402,16.1656494140625,9.326186180114746,-4.929555892944336,145.0888214111328,-39.150001525878906,-12.15000057220459,4.5
2.42,78.03182220458984,-18.655620574951172,17.00840950012207,3.597243309020996,-6.261868000030518,146.5543670654297,-39.75,-13.500000953674316,6.900000095367432
2.44,73.58818054199219,-18.808849334716797,19.99637222290039,24.11485481262207,-17.719755172729492,142.29095458984375,-39.0,-14.250000953674316,5.100000381469727
2.444,71.40467071533203,-23.21417999267578,16.58702850341797,43.16691970825195,-12.923430442810059,132.83154296875,-37.95000076293945,-14.40000057220459,5.700000286102295
2.45,68.99131774902344,-21.183897018432617,18.962078094482422,36.905052185058594,4.130168437957764,123.63858795166016,-37.95000076293945,-14.40000057220459,5.700000286102295
2.459,60.60203170776367,-26.815059661865234,24.66985511779785,35.972434997558594,-9.992342948913574,129.2342987060547,-39.30000305175781,-16.5,6.150000095367432
2.47,61.10002899169922,-47.117889404296875,12.947842597961426,23.98162269592285,-24.11485481262207,141.35833740234375,-40.05000305175781,-18.150001525878906,6.900000095367432
2.48,72.55388641357422,-53.63011932373047,-9.768342971801758,-29.044410705566406,-13.323123931884766,139.6263427734375,-40.05000305175781,-18.150001525878906,6.900000095367432
2.499,72.93695831298828,-31.41192626953125,-3.44765043258667,-20.251148223876953,-18.385910034179688,148.28636169433594,-38.400001525878906,-17.100000381469727,6.0
2.504,75.50354766845703,-4.290409564971924,11.760318756103516,31.709033966064453,-12.790199279785156,180.26187133789062,-38.55000305175781,-18.150001525878906,6.900000095367432
2.51,71.28974914550781,-19.651607513427734,18.464082717895508,24.248085021972656,0.0,179.86216735839844,-38.55000305175781,-18.150001525878906,6.900000095367432
2.52,64.73921203613281,-33.978511810302734,17.50640296936035,-4.929555892944336,5.196018218994141,187.05665588378906,-39.45000076293945,-18.75,6.0
2.529,56.38823699951172,-36.54509353637695,12.22000503540039,-19.718223571777344,-6.261868000030518,185.5911102294922,-39.45000076293945,-18.75,6.0
2.54,58.68667221069336,-36.88985824584961,9.615114212036133,1.3323123455047607,-3.86370587348938,192.7855987548828,-37.650001525878906,-21.75,5.25
2.559,66.61626434326172,-39.762901306152344,8.619126319885254,-23.715160369873047,-5.062787055969238,191.0535888671875,-38.25,-22.80000114440918,6.150000095367432
2.562,79.6024169921875,-40.260894775390625,10.994174003601074,-27.978559494018555,-4.529861927032471,198.38131713867188,-38.25,-24.750001907348633,6.150000095367432
2.57,83.77790832519531,-37.77092742919922,6.090848922729492,-48.22970962524414,-2.398162364959717,207.70750427246094,-38.25,-24.750001907348633,6.150000095367432
2.579,85.5783462524414,-31.7183837890625,7.508216381072998,-59.95405578613281,13.989279747009277,218.23277282714844,-38.25,-24.750001907348633,6.150000095367432
2.59,72.4772720336914,-13.369222640991211,4.213795185089111,-34.906585693359375,7.594180583953857,229.69065856933594,-37.95000076293945,-24.900001525878906,6.750000476837158
2.6,78.29997253417969,-27.044902801513672,13.062764167785645,-37.97090148925781,6.261868000030518,244.34608459472656,-34.5,-27.450000762939453,6.600000381469727
2.612,83.50975799560547,-43.172245025634766,14.288596153259277,-57.955589294433594,-2.2649309635162354,251.4073486328125,-34.5,-27.450000762939453,6.600000381469727
2.62,76.34630584716797,-41.5633430480957,12.7946138381958,-67.814697265625,-0.5329249501228333,247.94332885742188,-34.5,-27.450000762939453,6.600000381469727
2.63,67.53564453125,-40.03105163574219,16.855180740356445,-57.15620040893555,0.0,237.01837158203125,-35.400001525878906,-27.600000381469727,5.25
2.64,49.9143180847168,-48.57356262207031,17.276559829711914,-61.9525260925293,-10.125574111938477,245.9448699951172,-36.0,-28.950000762939453,5.400000095367432
2.65,64.12629699707031,-61.138336181640625,14.326903343200684,-85.93415069580078,-10.125574111938477,239.81622314453125,-34.80000305175781,-30.900001525878906,3.9000000953674316
2.66,91.24781799316406,-53.783348083496094,10.994174003601074,-78.60643005371094,-19.45176124572754,260.4670715332031,-34.80000305175781,-30.900001525878906,3.9000000953674316
2.676,123.50250244140625,-42.94240188598633,12.258312225341797,-64.75038146972656,-44.36600112915039,309.0964660644531,-34.650001525878906,-32.25,5.25
2.68,126.8352279663086,-33.90189743041992,5.746084213256836,-54.22511291503906,-41.967838287353516,326.949462890625,-33.30000305175781,-32.400001525878906,5.400000095367432
2.69,127.29491424560547,-36.39186477661133,8.887276649475098,-58.62174606323242,-47.163856506347656,334.8100891113281,-33.0,-33.900001525878906,4.350000381469727
2.7,117.06688690185547,-45.96867370605469,10.496180534362793,-60.48698043823242,-39.16998291015625,339.20672607421875,-32.55000305175781,-35.85000228881836,3.9000000953674316
2.71,76.88260650634766,-41.25688552856445,4.6734819412231445,-56.756507873535156,-38.90352249145508,340.40582275390625,-32.55000305175781,-35.85000228881836,3.9000000953674316
2.728,34.01681900024414,-44.704532623291016,6.627150535583496,-56.756507873535156,-17.986217498779297,321.353759765625,-31.05000114440918,-38.25,4.350000381469727
2.732,-1.9919757843017578,-60.41049575805664,3.6391866207122803,-80.8713607788086,-5.8621745109558105,290.1776428222656,-29.55000114440918,-39.75,2.8500001430511475
2.74,-10.228029251098633,-70.71514129638672,2.6431987285614014,-93.12863159179688,1.3323123455047607,276.98773193359375,-28.80000114440918,-40.95000076293945,2.1000001430511475
2.75,0.727837324142456,-66.9610366821289,4.6734819412231445,-100.05665588378906,1.0658499002456665,261.0,-27.150001525878906,-40.35000228881836,2.700000047683716
2.759,27.811046600341797,-67.34410858154297,4.596867084503174,-103.52066802978516,-4.396630764007568,259.5344543457031,-27.150001525878906,-40.35000228881836,2.700000047683716
2.77,72.74542236328125,-61.329872131347656,12.143390655517578,-101.12251281738281,-16.25421142578125,255.40428161621094,-26.700000762939453,-41.55000305175781,1.2000000476837158
2.78,80.56009674072266,-55.813629150390625,12.717999458312988,-63.018375396728516,-30.776416778564453,279.6523742675781,-26.700000762939453,-43.5,0.9000000357627869
2.792,105.26825714111328,-68.07194519042969,12.258312225341797,-96.05972290039062,-47.56355285644531,276.4548034667969,-26.250001907348633,-42.900001525878906,0.30000001192092896
2.8,115.76444244384766,-52.3659782409668,12.641385078430176,-82.86982727050781,-51.160797119140625,286.0474548339844,-23.700000762939453,-45.0,1.6500000953674316
2.809,80.10041046142578,-52.67243576049805,11.262324333190918,-54.4915771484375,-52.493106842041016,273.25726318359375,-23.700000762939453,-45.0,1.6500000953674316
2.82,67.4973373413086,-70.21714782714844,10.84094524383545,-79.2725830078125,-51.693721771240234,271.5252685546875,-22.650001525878906,-45.0,0.45000001788139343
2.83,80.36856079101562,-75.84831237792969,10.036493301391602,-100.45635223388672,-37.70444107055664,261.3996887207031,-21.75,-47.10000228881836,-0.30000001192092896
2.849,91.59258270263672,-57.65237808227539,5.363011837005615,-101.9218978881836,-37.4379768371582,254.47166442871094,-21.150001525878906,-47.25,-0.15000000596046448
2.853,104.8085708618164,-49.26309585571289,4.8267107009887695,-82.20367431640625,-45.03215789794922,235.55282592773438,-20.55000114440918,-47.55000305175781,-0.6000000238418579
2.86,123.54080963134766,-53.361968994140625,8.312667846679688,-97.39203643798828,-54.62480926513672,226.09341430664062,-20.55000114440918,-47.55000305175781,-0.6000000238418579
2.869,125.0730972290039,-47.69249725341797,7.661445617675781,-77.27411651611328,-42.90045928955078,164.94027709960938,-18.150001525878906,-47.70000076293945,-1.6500000953674316
2.88,110.7078857421875,-38.80522155761719,4.558559894561768,-20.784072875976562,-53.026031494140625,140.6921844482422,-16.80000114440918,-47.85000228881836,-1.8000000715255737
2.89,83.20330047607422,-33.63374710083008,-8.35097599029541,64.084228515625,-43.43338394165039,128.43490600585938,-15.750000953674316,-48.30000305175781,-2.1000001430511475
2.91,57.88222122192383,-55.85193634033203,-8.734047889709473,122.9724349975586,-3.0643184185028076,117.24349212646484,-15.300000190734863,-50.250003814697266,-3.3000001907348633
2.913,32.905906677246094,-92.01396179199219,-13.024456977844238,100.45635223388672,54.89126968383789,118.17610931396484,-15.300000190734863,-50.250003814697266,-3.3000001907348633
2.92,4.060565948486328,-99.33064270019531,18.464082717895508,59.02143859863281,56.09035110473633,104.18682861328125,-14.250000953674316,-50.250003814697266,-3.3000001907348633
2.93,0.38307225704193115,-88.45138549804688,37.46446990966797,-42.90045928955078,66.48238372802734,25.580398559570312,-13.950000762939453,-49.95000076293945,-2.25
2.94,-15.782577514648438,-44.398075103759766,43.172245025634766,-196.51608276367188,75.00918579101562,-84.86830139160156,-13.200000762939453,-51.150001525878906,-1.9500000476837158
2.949,-28.8453426361084,18.88546371459961,15.897499084472656,-347.6003112792969,70.21286010742188,-217.03369140625,-13.500000953674316,-51.30000305175781,-3.9000000953674316
2.97,-57.03946304321289,74.96724700927734,-31.948226928710938,-256.20367431640625,103.25421142578125,-302.4349060058594,-13.500000953674316,-51.30000305175781,-3.9000000953674316
2.973,-49.45463180541992,125.53278350830078,-2.604891538619995,-50.76110076904297,107.91730499267578,-435.1332092285156,-14.550000190734863,-49.500003814697266,-6.150000095367432
2.98,9.768342971801758,135.7608184814453,14.518439292907715,46.63093185424805,108.58345794677734,-484.0290832519531,-13.950000762939453,-47.70000076293945,-4.950000286102295
2.99,26.278757095336914,118.75240325927734,13.139378547668457,141.0918731689453,102.72128295898438,-526.2633666992188,-15.90000057220459,-45.75,-4.5
3.0,34.43819808959961,73.93294525146484,-5.784391403198242,168.80397033691406,99.52373504638672,-559.7044067382812,-16.5,-46.35000228881836,-6.150000095367432
3.01,27.351360321044922,26.2021427154541,-13.828908920288086,158.81163024902344,109.915771484375,-619.7916870117188,-16.5,-46.35000228881836,-6.150000095367432
3.029,25.359384536743164,3.869029998779297,-10.955866813659668,143.09034729003906,108.3169937133789,-654.83154296875,-19.5,-45.60000228881836,-3.6000001430511475
3.033,30.760704040527344,0.727837324142456,0.15322890877723694,115.64471435546875,110.98162078857422,-694.534423828125,-20.25,-42.900001525878906,-3.6000001430511475
3.04,35.5874137878418,-3.332728862762451,9.385271072387695,99.92343139648438,120.4410400390625,-707.9907836914062,-22.5,-42.150001525878906,-2.5500001907348633
3.05,35.28095626831055,-11.875240325927734,10.304644584655762,93.79479217529297,118.70903015136719,-715.7182006835938,-23.400001525878906,-39.900001525878906,-3.0
3.06,35.85556411743164,-26.163835525512695,9.959878921508789,81.53751373291016,97.5252685546875,-723.3123779296875,-23.400001525878906,-39.900001525878906,-3.0
3.069,44.819454193115234,-38.95845031738281,8.848969459533691,28.511484146118164,89.39816284179688,-723.3123779296875,-25.500001907348633,-36.30000305175781,-1.0500000715255737
3.09,53.40027618408203,-46.42835998535156,4.022258758544922,-13.056661605834961,98.72434997558594,-712.6538696289062,-28.200000762939453,-33.45000076293945,-0.45000001788139343
3.093,58.76328659057617,-50.79538345336914,-0.15322890877723694,-36.771820068359375,88.19908142089844,-679.612548828125,-28.80000114440918,-32.85000228881836,-1.0500000715255737
3.1,66.9227294921875,-69.87238311767578,-4.711789131164551,-33.70750427246094,84.86830139160156,-650.8345947265625,-28.950000762939453,-29.100000381469727,-0.15000000596046448
3.11,69.25946807861328,-81.90084838867188,-2.2601263523101807,-25.980091094970703,76.74119567871094,-630.983154296875,-28.950000762939453,-29.100000381469727,-0.15000000596046448
3.12,70.33206939697266,-104.7319564819336,-2.0685901641845703,-31.709033966064453,71.67840576171875,-612.3307495117188,-30.30000114440918,-26.250001907348633,1.0500000715255737
3.13,67.99533081054688,-118.21610260009766,-1.2258312702178955,-45.96477508544922,63.950992584228516,-571.9617309570312,-30.30000114440918,-23.850000381469727,0.30000001192092896
3.149,69.02962493896484,-118.10118103027344,1.8387469053268433,-43.16691970825195,56.889739990234375,-536.1224975585938,-30.900001525878906,-22.5,1.2000000476837158
3.153,73.6264877319336,-107.22193145751953,10.15141487121582,17.586523056030273,32.90811538696289,-463.9111633300781,-30.900001525878906,-22.5,1.2000000476837158
3.16,87.57032012939453,-98.18142700195312,2.7964274883270264,41.83460998535156,31.44257164001465,-433.93414306640625,-30.750001907348633,-17.700000762939453,0.6000000238418579
3.17,98.83264923095703,-99.48387145996094,-3.1028854846954346,85.80091857910156,24.381317138671875,-374.2465515136719,-31.200000762939453,-19.05000114440918,1.2000000476837158
3.18,103.85089111328125,-111.16757202148438,-11.41555404663086,71.01225280761719,29.577335357666016,-334.27716064453125,-31.500001907348633,-15.750000953674316,1.0500000715255737
3.19,95.84468078613281,-118.94393920898438,-10.994174003601074,11.857580184936523,20.38437843322754,-287.3797912597656,-30.30000114440918,-16.5,1.8000000715255737
3.208,87.9533920288086,-122.23836517333984,-5.822698593139648,-65.949462890625,4.796324729919434,-261.3996887207031,-30.30000114440918,-16.5,1.8000000715255737
3.212,93.00994873046875,-109.94174194335938,9.193734169006348,-144.55589294433594,0.2664624750614166,-208.10719299316406,-31.05000114440918,-15.000000953674316,2.1000001430511475
3.22,98.6028060913086,-104.00411987304688,13.713987350463867,-162.6753387451172,-4.796324729919434,-173.86676025390625,-31.200000762939453,-12.15000057220459,2.25
3.23,105.3448715209961,-89.75382995605469,21.0689754486084,-155.34762573242188,-12.390504837036133,-100.85604858398438,-28.950000762939453,-14.40000057220459,3.450000047683716
3.24,105.76625061035156,-78.29997253417969,30.415939331054688,-151.75038146972656,-3.86370587348938,-42.101070404052734,-31.500001907348633,-13.050000190734863,2.8500001430511475
3.25,90.2901382446289,-78.03182220458984,27.006595611572266,-207.4410400390625,21.983154296875,-25.980091094970703,-31.500001907348633,-13.050000190734863,2.8500001430511475
3.269,75.3503189086914,-65.19889831542969,26.31706428527832,-285.1148376464844,24.914241790771484,-25.846860885620117,-27.750001907348633,-12.750000953674316,4.350000381469727
3.272,74.92893981933594,-40.567352294921875,19.881450653076172,-308.4303283691406,20.38437843322754,18.652372360229492,-29.400001525878906,-12.450000762939453,5.100000381469727
3.28,86.61264038085938,-4.9799394607543945,-5.631162166595459,-240.48239135742188,22.51607894897461,34.906585693359375,-29.400001525878906,-12.450000762939453,6.0
3.29,88.14492797851562,11.185709953308105,-14.901511192321777,-87.66615295410156,23.315465927124023,101.38896942138672,-28.950000762939453,-13.65000057220459,4.950000286102295
3.3,87.30216979980469,9.500192642211914,-17.12333106994629,70.74578857421875,5.062787055969238,205.7090301513672,-28.950000762939453,-13.65000057220459,4.950000286102295
3.31,99.56048583984375,-54.281341552734375,26.700138092041016,114.17916870117188,19.584991455078125,267.1286315917969,-29.250001907348633,-13.050000190734863,6.150000095367432
3.329,110.24819946289062,-128.29090881347656,84.08436584472656,-0.2664624750614166,-52.093414306640625,227.02603149414062,-29.700000762939453,-15.15000057220459,5.700000286102295
3.333,189.6207733154297,15.169661521911621,-6.090848922729492,-215.03521728515625,-4.929555892944336,49.16232681274414,-30.450000762939453,-15.15000057220459,6.300000190734863
3.34,195.59669494628906,100.86293029785156,-21.528661727905273,-145.2220458984375,19.718223571777344,109.38284301757812,-30.450000762939453,-15.15000057220459,6.300000190734863
3.35,194.86886596679688,238.15603637695312,2.2601263523101807,75.5421142578125,44.09954071044922,246.21133422851562,-30.450000762939453,-15.15000057220459,6.300000190734863
3.36,110.20989227294922,238.46249389648438,61.90447998046875,381.30780029296875,72.74425506591797,244.34608459472656,-28.650001525878906,-17.850000381469727,6.300000190734863
3.369,30.454246520996094,124.53679656982422,59.031436920166016,596.4762573242188,44.09954071044922,270.8591003417969,-28.500001907348633,-16.950000762939453,5.850000381469727
3.389,65.2755126953125,-4.6734819412231445,60.33388137817383,531.5926513671875,39.83613967895508,280.8514404296875,-28.650001525878906,-19.80000114440918,6.750000476837158
3.392,121.28067779541016,-217.01043701171875,-13.943830490112305,54.62480926513672,89.26493072509766,112.71363067626953,-28.650001525878906,-19.5,6.300000190734863
3.4,96.4192886352539,-170.62039184570312,-7.086836814880371,-152.54977416992188,48.62940216064453,117.50994873046875,-28.650001525878906,-19.5,6.300000190734863
3.409,77.1890640258789,-72.13250732421875,-24.89969825744629,-154.14854431152344,-37.83767318725586,154.28176879882812,-27.750001907348633,-21.900001525878906,8.700000762939453
3.42,182.3424072265625,24.286781311035156,21.950040817260742,-152.41653442382812,3.3307809829711914,169.8698272705078,-28.650001525878906,-21.0,7.500000476837158
3.43,341.5089416503906,122.5831298828125,1.2258312702178955,25.18070411682129,80.20520782470703,242.48085021972656,-26.55000114440918,-21.900001525878906,8.700000762939453
3.448,159.39637756347656,132.96438598632812,-18.157625198364258,327.4823913574219,79.40581512451172,292.9754943847656,-27.450000762939453,-21.75,7.800000190734863
3.451,-29.879636764526367,-137.25479125976562,-9.998186111450195,245.27870178222656,73.0107192993164,231.82235717773438,-26.700000762939453,-24.450000762939453,7.800000190734863
3.46,-39.456443786621094,-165.8319854736328,4.443638324737549,-1.9984685182571411,50.89433288574219,166.93873596191406,-26.700000762939453,-24.450000762939453,7.800000190734863
3.47,25.129541397094727,-161.50326538085938,43.24885940551758,-153.7488555908203,44.36600112915039,100.18988800048828,-29.400001525878906,-25.200000762939453,8.550000190734863
3.48,77.61044311523438,-71.90266418457031,57.307613372802734,-111.38131713867188,25.04747200012207,51.693721771240234,-26.55000114440918,-24.750001907348633,9.15000057220459
3.489,97.18543243408203,1.072602391242981,42.71255874633789,-8.926492691040039,4.929555892944336,70.74578857421875,-26.55000114440918,-25.05000114440918,9.15000057220459
3.502,94.84869384765625,12.48815631866455,26.43198585510254,52.89280319213867,-10.258805274963379,66.882080078125,-26.250001907348633,-25.500001907348633,9.450000762939453
3.51,79.67903137207031,-68.1868667602539,1.3407529592514038,15.055130004882812,-22.782541275024414,57.55589294433594,-26.250001907348633,-25.500001907348633,9.450000762939453
3.519,76.88260650634766,-77.38059997558594,-1.072602391242981,-41.434913635253906,-16.520673751831055,53.95865249633789,-25.650001525878906,-26.400001525878906,9.0
3.53,82.62869262695312,-19.268535614013672,4.443638324737549,2.531393527984619,-14.788667678833008,66.61561584472656,-27.750001907348633,-26.250001907348633,8.40000057220459
3.54,80.7899398803711,1.072602391242981,20.264522552490234,23.98162269592285,-5.995405673980713,60.48698043823242,-27.750001907348633,-26.250001907348633,8.40000057220459
3.55,62.977081298828125,-25.167848587036133,30.301015853881836,19.85145378112793,-8.39356803894043,52.493106842041016,-27.30000114440918,-26.250001907348633,8.40000057220459
3.566,60.946800231933594,-66.9610366821289,16.433799743652344,-52.3598747253418,-1.5987749099731445,9.859111785888672,-27.900001525878906,-26.400001525878906,8.25
3.57,72.32404327392578,-40.758888244628906,7.086836814880371,-45.831546783447266,-7.194486618041992,9.992342948913574,-27.450000762939453,-26.100000381469727,7.800000190734863
3.58,71.44297790527344,-28.577192306518555,6.588842868804932,-27.31240463256836,-4.663093090057373,10.658498764038086,-25.80000114440918,-27.000001907348633,7.950000286102295
3.589,76.26969146728516,-16.931795120239258,13.522451400756836,-7.860642910003662,-6.794793128967285,25.580398559570312,-25.80000114440918,-27.000001907348633,7.950000286102295
3.6,76.11646270751953,-30.530860900878906,18.77054214477539,-25.580398559570312,-5.595712184906006,19.052066802978516,-27.30000114440918,-26.55000114440918,7.350000381469727
3.618,72.24742889404297,-34.09343338012695,17.468095779418945,-43.83307647705078,1.1990811824798584,20.91730499267578,-27.000001907348633,-24.750001907348633,7.650000095367432
3.622,70.98329162597656,-27.849353790283203,13.828908920288086,-34.10719680786133,-2.398162364959717,44.49923324584961,-27.750001907348633,-26.250001907348633,8.40000057220459
3.63,71.36636352539062,-24.325088500976562,12.258312225341797,-29.177640914916992,-2.531393527984619,37.03828430175781,-27.750001907348633,-26.250001907348633,8.40000057220459
3.64,71.63451385498047,-25.70414924621582,12.29662036895752,-24.51454734802246,2.9310872554779053,31.44257164001465,-27.000001907348633,-26.55000114440918,8.700000762939453
3.65,58.76328659057617,-25.244462966918945,15.935806274414062,-12.523736000061035,-5.728943347930908,33.04134750366211,-27.450000762939453,-26.400001525878906,9.0
3.659,63.475074768066406,-43.172245025634766,10.113107681274414,-23.848390579223633,-13.456355094909668,40.23583221435547,-25.650001525878906,-28.350000381469727,7.500000476837158
3.67,69.91069030761719,-37.96246337890625,8.96389102935791,-18.385910034179688,-9.992342948913574,42.76722717285156,-26.400001525878906,-27.150001525878906,7.800000190734863
3.682,64.77751922607422,-22.677879333496094,12.756306648254395,-1.0658499002456665,-10.525267601013184,51.82695007324219,-26.400001525878906,-27.150001525878906,7.800000190734863
3.691,69.3360824584961,-27.77273941040039,14.863204002380371,2.398162364959717,-10.125574111938477,53.29249572753906,-27.000001907348633,-27.450000762939453,8.40000057220459
3.7,65.8501205444336,-30.722396850585938,20.072986602783203,-0.5329249501228333,-19.45176124572754,51.29402542114258,-25.200000762939453,-28.350000381469727,8.25
3.71,69.48931121826172,-32.75267791748047,22.17988395690918,-18.91883659362793,-17.852985382080078,57.55589294433594,-25.650001525878906,-27.600000381469727,6.750000476837158
3.72,75.38862609863281,-29.075185775756836,17.50640296936035,-20.650842666625977,-14.655436515808105,74.8759536743164,-25.500001907348633,-27.450000762939453,7.650000095367432
3.739,73.35833740234375,-23.21417999267578,19.268535614013672,-16.25421142578125,-14.522205352783203,93.2618637084961,-25.500001907348633,-27.450000762939453,7.650000095367432
3.743,83.31822204589844,-28.960264205932617,14.595053672790527,-35.03981399536133,-11.324655532836914,105.78560638427734,-27.450000762939453,-27.900001525878906,7.500000476837158
3.75,81.32624053955078,-23.75048065185547,13.407529830932617,-35.57273864746094,-13.856048583984375,117.24349212646484,-25.950000762939453,-28.80000114440918,6.300000190734863
3.759,75.54185485839844,-19.49837875366211,14.67166805267334,-24.781009674072266,-13.189892768859863,120.57427215576172,-26.250001907348633,-28.950000762939453,6.600000381469727
3.77,69.9873046875,-27.27474594116211,18.617311477661133,-24.64777946472168,-19.718223571777344,141.75804138183594,-27.150001525878906,-29.55000114440918,6.0
3.78,82.36053466796875,-48.228797912597656,13.254301071166992,-61.01990509033203,-25.447166442871094,141.75804138183594,-27.150001525878906,-29.55000114440918,6.0
3.798,93.73778533935547,-36.58340072631836,9.308655738830566,-62.21898651123047,-28.511484146118164,154.54823303222656,-24.900001525878906,-31.500001907348633,6.750000476837158
3.803,90.02198028564453,-15.24627685546875,12.181697845458984,-24.781009674072266,-49.42878723144531,193.3185272216797,-26.55000114440918,-29.700000762939453,7.350000381469727
3.81,81.32624053955078,-30.454246520996094,13.48414421081543,-27.84532928466797,-44.89892578125,193.7182159423828,-24.450000762939453,-31.80000114440918,5.25
3.82,71.36636352539062,-34.782962799072266,16.05072784423828,-46.497703552246094,-36.372127532958984,200.646240234375,-25.200000762939453,-32.25,6.0
3.83,77.38059997558594,-46.16020965576172,21.413740158081055,-63.28483963012695,-31.975496292114258,207.70750427246094,-25.200000762939453,-32.25,6.0
3.84,80.71332550048828,-33.212364196777344,20.226215362548828,-50.62786865234375,-36.771820068359375,207.4410400390625,-23.55000114440918,-33.150001525878906,4.650000095367432
3.859,55.813629150390625,-29.15180015563965,19.306842803955078,-45.96477508544922,-43.16691970825195,228.75804138183594,-23.700000762939453,-33.45000076293945,3.750000238418579
3.863,73.20510864257812,-62.249244689941406,15.897499084472656,-88.46553802490234,-49.69525146484375,218.63246154785156,-22.80000114440918,-33.900001525878906,3.9000000953674316
3.87,96.84066772460938,-46.58158874511719,4.098873138427734,-81.27105712890625,-63.551300048828125,240.34915161132812,-24.0,-32.85000228881836,3.6000001430511475
3.88,107.6050033569336,-29.573179244995117,2.5665841102600098,-55.82388687133789,-73.27718353271484,259.2679748535156,-24.0,-32.85000228881836,3.6000001430511475
3.89,92.090576171875,-13.982137680053711,4.6734819412231445,-40.102603912353516,-61.28636932373047,269.3935546875,-22.200000762939453,-35.25,3.0
3.9,51.561527252197266,-28.270732879638672,9.117119789123535,-41.83460998535156,-56.756507873535156,286.0474548339844,-22.05000114440918,-35.55000305175781,3.6000001430511475
3.919,52.09782791137695,-69.22116088867188,13.10107135772705,-75.8085708618164,-60.08728790283203,264.59722900390625,-21.75,-35.85000228881836,0.0
3.923,59.759273529052734,-73.35833740234375,8.159439086914062,-100.05665588378906,-58.355281829833984,268.0612487792969,-21.150001525878906,-36.900001525878906,2.25
3.93,54.01319122314453,-28.53888511657715,5.477933406829834,-83.00305938720703,-56.49004364013672,264.59722900390625,-21.150001525878906,-36.900001525878906,2.25
3.94,47.04127502441406,-30.60747528076172,7.7763671875,-65.28330993652344,-54.89126968383789,269.3935546875,-21.450000762939453,-38.400001525878906,1.2000000476837158
3.95,63.896453857421875,-66.34811401367188,8.197746276855469,-93.39509582519531,-65.81623077392578,277.5206604003906,-18.450000762939453,-38.400001525878906,1.2000000476837158
3.959,77.95520782470703,-62.28755187988281,5.477933406829834,-110.98162078857422,-63.551300048828125,273.9234313964844,-19.950000762939453,-39.150001525878906,1.2000000476837158
3.979,71.8260498046875,-31.41192626953125,6.473921298980713,-73.0107192993164,-58.754974365234375,285.2480773925781,-19.200000762939453,-41.10000228881836,1.2000000476837158
3.983,53.59181213378906,-34.01681900024414,8.925583839416504,-53.159263610839844,-51.160797119140625,280.185302734375,-19.200000762939453,-41.10000228881836,1.2000000476837158
3.99,36.88985824584961,-73.97125244140625,5.439626216888428,-74.34303283691406,-61.01990509033203,273.1240234375,-18.0,-41.25,1.0500000715255737
4.0,40.49073791503906,-74.43093872070312,2.9496564865112305,-84.86830139160156,-67.41500854492188,265.6630859375,-16.650001525878906,-40.35000228881836,-0.15000000596046448
4.01,33.51882553100586,-58.3036003112793,1.1492167711257935,-64.61714935302734,-67.28177642822266,261.79937744140625,-16.650001525878906,-41.10000228881836,-0.15000000596046448
4.02,43.21055221557617,-64.0496826171875,1.7621324062347412,-70.07962799072266,-74.07656860351562,247.94332885742188,-16.650001525878906,-41.10000228881836,-0.15000000596046448
4.04,53.668426513671875,-68.26348114013672,1.723825216293335,-74.47626495361328,-74.47626495361328,236.61868286132812,-16.5,-40.5,-0.6000000238418579
4.044,60.065731048583984,-70.17884063720703,4.9799394607543945,-83.80245208740234,-90.73047637939453,231.1562042236328,-15.000000953674316,-43.20000076293945,-1.8000000715255737
4.05,99.67540740966797,-69.56592559814453,9.768342971801758,-96.8591079711914,-93.12863159179688,222.62939453125,-15.000000953674316,-42.150001525878906,-1.8000000715255737
4.059,111.24418640136719,-68.1868667602539,10.84094524383545,-102.45481872558594,-118.04287719726562,217.43338012695312,-13.800000190734863,-42.150001525878906,-3.9000000953674316
4.07,125.11140441894531,-61.942787170410156,17.8128604888916,-107.11791229248047,-120.17457580566406,199.5803985595703,-13.800000190734863,-42.150001525878906,-3.9000000953674316
4.08,130.8957977294922,-51.59983444213867,17.583017349243164,-81.27105712890625,-136.56201171875,181.99386596679688,-12.90000057220459,-44.25,-4.5
4.1,124.84325408935547,-40.29920196533203,21.643583297729492,-45.831546783447266,-128.03521728515625,140.95864868164062,-14.550000190734863,-44.85000228881836,-4.650000095367432
4.104,103.39120483398438,-32.40791320800781,20.494365692138672,39.9693717956543,-108.71669006347656,100.72281646728516,-12.90000057220459,-43.5,-4.950000286102295
4.11,56.38823699951172,-32.369606018066406,21.950040817260742,61.552833557128906,-75.40888214111328,84.20214080810547,-12.90000057220459,-43.5,-4.950000286102295
4.119,39.68628692626953,-40.7205810546875,19.421764373779297,112.58039855957031,-38.63705825805664,48.8958625793457,-12.90000057220459,-43.5,-4.950000286102295
4.13,19.536685943603516,-57.03946304321289,22.7161865234375,103.7871322631836,-15.987748146057129,33.30780792236328,-13.050000190734863,-45.900001525878906,-7.350000381469727
4.14,-4.865017890930176,-62.74723815917969,22.48634147644043,81.00459289550781,13.189892768859863,28.511484146118164,-12.90000057220459,-44.55000305175781,-8.25
4.159,-22.2948055267334,-73.85633087158203,14.135366439819336,14.12251091003418,21.84992218017578,1.5987749099731445,-12.0,-45.900001525878906,-8.40000057220459
4.163,-34.74465560913086,-79.10442352294922,-2.2218191623687744,-118.57579803466797,-0.39969372749328613,-142.5574188232422,-12.0,-44.85000228881836,-7.650000095367432
4.17,-29.688100814819336,-22.524648666381836,-37.656005859375,-151.48391723632812,35.972434997558594,-240.74884033203125,-12.0,-44.85000228881836,-7.650000095367432
4.18,-28.73042106628418,45.04929733276367,-39.60967254638672,-131.63246154785156,63.551300048828125,-307.2312316894531,-11.700000762939453,-43.80000305175781,-7.800000190734863
4.19,-0.9959878921508789,108.56268310546875,0.0,54.89126968383789,73.9433364868164,-336.40887451171875,-14.250000953674316,-43.650001525878906,-7.950000286102295
4.2,21.337125778198242,123.1577377319336,6.818686485290527,253.4058074951172,101.9218978881836,-357.0597229003906,-14.40000057220459,-42.60000228881836,-8.550000190734863
4.219,27.925968170166016,86.88079071044922,17.161638259887695,356.3935546875,114.3124008178711,-404.22357177734375,-16.05000114440918,-42.45000076293945,-7.650000095367432
4.222,7.814674377441406,-16.58702850341797,11.798625946044922,290.9770202636719,119.90811157226562,-480.96478271484375,-16.05000114440918,-42.45000076293945,-7.650000095367432
4.23,6.933608055114746,-31.028854370117188,8.08282470703125,181.59417724609375,117.9096450805664,-520.534423828125,-17.25,-42.150001525878906,-6.900000095367432
4.239,12.22000503540039,-46.658203125,5.631162166595459,0.6661561727523804,129.50076293945312,-583.286376953125,-18.150001525878906,-40.35000228881836,-6.0
4.249,19.728221893310547,-46.12190246582031,3.2178070545196533,-122.83920288085938,130.43338012695312,-631.1163940429688,-19.950000762939453,-40.35000228881836,-4.200000286102295
4.26,17.353174209594727,-24.286781311035156,2.6815059185028076,-158.14547729492188,126.7029037475586,-654.9647827148438,-22.200000762939453,-37.20000076293945,-4.950000286102295
4.279,16.395492553710938,-4.8267107009887695,-4.060565948486328,-134.29708862304688,120.97396087646484,-669.353759765625,-22.200000762939453,-37.20000076293945,-4.950000286102295
4.282,24.401702880859375,1.1492167711257935,-9.155426979064941,-50.89433288574219,115.91117858886719,-664.690673828125,-24.450000762939453,-34.20000076293945,-4.200000286102295
4.29,37.234622955322266,-4.213795185089111,-18.732234954833984,5.8621745109558105,111.24808502197266,-658.029052734375,-24.450000762939453,-34.20000076293945,-4.200000286102295
4.3,46.35174560546875,-15.322891235351562,-16.970102310180664,52.75957107543945,97.7917251586914,-648.702880859375,-24.150001525878906,-29.850000381469727,-6.0
4.31,57.001155853271484,-37.42616271972656,-14.211980819702148,77.80704498291016,76.87442779541016,-604.8698120117188,-26.55000114440918,-28.950000762939453,-5.850000381469727
4.32,66.99934387207031,-55.77532196044922,-13.943830490112305,85.00152587890625,77.67381286621094,-583.8192749023438,-26.55000114440918,-28.950000762939453,-5.850000381469727
4.339,73.47325897216797,-75.46524047851562,-6.052541732788086,77.67381286621094,62.21898651123047,-551.444091796875,-27.150001525878906,-23.700000762939453,-3.750000238418579
4.343,74.89063262939453,-105.00010681152344,7.316680431365967,55.29096221923828,63.81776428222656,-548.2465209960938,-28.500001907348633,-21.150001525878906,-4.350000381469727
4.35,72.70711517333984,-104.770263671875,7.086836814880371,51.693721771240234,74.47626495361328,-535.589599609375,-28.500001907348633,-21.150001525878906,-4.350000381469727
4.36,68.41670989990234,-97.10881805419922,6.588842868804932,69.01377868652344,70.07962799072266,-490.5574035644531,-28.500001907348633,-21.150001525878906,-4.350000381469727
4.37,68.7231674194336,-85.19527435302734,3.064578056335449,107.51760864257812,57.822357177734375,-454.8514404296875,-28.80000114440918,-18.450000762939453,-1.350000023841858
4.38,74.00955963134766,-81.4794692993164,-2.2601263523101807,122.9724349975586,55.29096221923828,-429.00457763671875,-28.950000762939453,-19.05000114440918,-1.6500000953674316
4.399,86.68925476074219,-89.14091491699219,-4.520252704620361,110.31546783447266,48.22970962524414,-424.8744201660156,-29.700000762939453,-16.80000114440918,-0.15000000596046448
4.403,103.81258392333984,-105.76625061035156,-13.982137680053711,54.62480926513672,34.64012145996094,-372.91424560546875,-29.250001907348633,-16.200000762939453,-0.6000000238418579
4.41,105.99610137939453,-106.64732360839844,-13.905523300170898,0.9326186776161194,28.77794647216797,-361.3231201171875,-29.250001907348633,-16.200000762939453,-0.6000000238418579
4.42,109.4820556640625,-109.06067657470703,-9.921571731567383,-65.68299865722656,20.251148223876953,-317.09033203125,-30.000001907348633,-13.050000190734863,0.30000001192092896
4.43,111.43572235107422,-105.84286499023438,0.38307225704193115,-105.5191421508789,-4.929555892944336,-280.185302734375,-28.05000114440918,-12.750000953674316,-0.6000000238418579
4.44,111.55064392089844,-96.91728210449219,10.802638053894043,-124.8376693725586,-16.920366287231445,-206.24195861816406,-29.250001907348633,-10.800000190734863,1.0500000715255737
4.458,107.41346740722656,-82.5137710571289,17.31486701965332,-158.9448699951172,-0.7993874549865723,-125.37059783935547,-30.450000762939453,-10.950000762939453,0.45000001788139343
4.461,76.42292022705078,-55.27732849121094,15.169661521911621,-159.07809448242188,-0.2664624750614166,-102.32159423828125,-28.80000114440918,-9.600000381469727,1.8000000715255737
4.469,70.90667724609375,-48.26710510253906,14.939818382263184,-143.2235870361328,4.663093090057373,-54.22511291503906,-28.80000114440918,-9.600000381469727,1.8000000715255737
4.479,69.60423278808594,-35.85556411743164,16.28057098388672,-106.58499145507812,3.4640121459960938,-0.39969372749328613,-26.700000762939453,-8.700000762939453,-0.15000000596046448
4.49,76.61445617675781,-34.24666213989258,19.919757843017578,-56.756507873535156,3.86370587348938,33.57427215576172,-28.500001907348633,-9.600000381469727,1.0500000715255737
4.508,84.58235931396484,-29.190107345581055,21.14558982849121,-16.387441635131836,-25.580398559570312,62.8851432800293,-28.500001907348633,-9.600000381469727,1.0500000715255737
4.512,86.61264038085938,-15.667655944824219,7.8529815673828125,-14.522205352783203,-20.784072875976562,101.9218978881836,-27.30000114440918,-9.15000057220459,1.8000000715255737
4.52,78.49150848388672,6.320692539215088,-0.38307225704193115,-10.258805274963379,-1.5987749099731445,99.25727081298828,-27.750001907348633,-10.050000190734863,1.0500000715255737
4.53,74.62248229980469,21.796812057495117,1.647210717201233,53.29249572753906,-14.12251091003418,240.21592712402344,-25.80000114440918,-10.350000381469727,1.0500000715255737
4.539,96.53421020507812,-51.90629196166992,42.7891731262207,-0.9326186776161194,-29.577335357666016,226.09341430664062,-28.650001525878906,-12.15000057220459,1.6500000953674316
4.55,93.77609252929688,-90.51998138427734,0.2298433631658554,84.20214080810547,18.385910034179688,361.8560485839844,-28.650001525878906,-12.15000057220459,1.6500000953674316
4.56,96.61082458496094,-160.2391357421875,100.17340087890625,-163.0750274658203,-59.55436325073242,313.7595520019531,-28.80000114440918,-13.050000190734863,1.350000023841858
4.575,173.22528076171875,-191.91920471191406,39.30321502685547,-467.7748718261719,22.249616622924805,33.84073257446289,-26.55000114440918,-15.450000762939453,1.350000023841858
4.58,183.26177978515625,190.310302734375,-45.010990142822266,-418.47930908203125,57.422664642333984,84.20214080810547,-27.750001907348633,-15.000000953674316,2.8500001430511475
4.59,168.32196044921875,292.2841491699219,-6.971915245056152,-148.68606567382812,31.842266082763672,290.31085205078125,-28.200000762939453,-14.40000057220459,2.700000047683716
4.6,84.39082336425781,266.6182861328125,78.52981567382812,322.9525146484375,40.23583221435547,237.95098876953125,-28.200000762939453,-14.40000057220459,2.700000047683716
4.61,39.341522216796875,128.13768005371094,47.99895477294922,665.4900512695312,-17.719755172729492,273.7901916503906,-28.200000762939453,-15.90000057220459,3.0
4.629,98.14311981201172,11.990161895751953,25.244462966918945,675.4823608398438,4.929555892944336,292.1761169433594,-27.000001907348633,-16.5,2.8500001430511475
4.633,137.13987731933594,-106.49409484863281,10.955866813659668,247.94332885742188,84.73506927490234,154.28176879882812,-28.650001525878906,-18.75,3.0
4.64,70.94498443603516,-195.7116241455078,-5.861005783081055,-40.502296447753906,76.74119567871094,134.43031311035156,-28.200000762939453,-19.05000114440918,4.200000286102295
4.649,33.63374710083008,-113.61923217773438,-3.6391866207122803,-175.0658416748047,46.09800720214844,145.48851013183594,-28.200000762939453,-19.05000114440918,4.200000286102295
4.66,61.023414611816406,-23.21417999267578,-0.1149216815829277,-162.40887451171875,35.839202880859375,112.71363067626953,-28.650001525878906,-19.05000114440918,2.700000047683716
4.67,131.20225524902344,32.369606018066406,40.91211700439453,-6.794793128967285,23.715160369873047,116.71056365966797,-26.55000114440918,-20.100000381469727,3.6000001430511475
4.688,174.52772521972656,57.26930618286133,31.83330535888672,141.6248016357422,13.856048583984375,166.2725830078125,-28.80000114440918,-18.450000762939453,2.1000001430511475
4.692,150.43247985839844,17.12333106994629,7.010222434997559,141.22511291503906,14.788667678833008,185.99081420898438,-28.80000114440918,-18.450000762939453,2.1000001430511475
4.7,104.1190414428711,-55.73701477050781,-6.473921298980713,57.422664642333984,32.77488327026367,167.33843994140625,-28.80000114440918,-18.450000762939453,2.1000001430511475
4.71,85.46342468261719,-80.44517517089844,-6.627150535583496,-31.44257164001465,37.17151641845703,151.35069274902344,-27.900001525878906,-21.75,3.750000238418579
4.72,71.90266418457031,-79.87056732177734,-5.631162166595459,-75.94180297851562,41.701377868652344,123.10566711425781,-26.400001525878906,-21.450000762939453,3.0
4.729,63.97306823730469,-46.313438415527344,1.647210717201233,-57.689125061035156,31.842266082763672,112.18070220947266,-28.200000762939453,-21.0,4.200000286102295
4.749,67.68887329101562,-28.07919692993164,12.986149787902832,-47.430320739746094,31.44257164001465,85.00152587890625,-28.200000762939453,-21.0,4.200000286102295
4.753,72.43896484375,-27.121517181396484,20.992361068725586,-27.578866958618164,26.912710189819336,63.551300048828125,-27.30000114440918,-22.350000381469727,3.3000001907348633
4.76,72.32404327392578,-49.60786056518555,15.820884704589844,-21.983154296875,15.45482349395752,59.15467071533203,-27.900001525878906,-23.700000762939453,2.700000047683716
4.769,72.93695831298828,-50.06754684448242,10.572794914245605,-59.15467071533203,21.050535202026367,40.635528564453125,-28.650001525878906,-23.700000762939453,3.450000047683716
4.78,76.11646270751953,-33.02082824707031,13.445837020874023,-19.718223571777344,8.793261528015137,48.22970962524414,-26.700000762939453,-24.450000762939453,4.5
4.79,74.35432434082031,-17.851167678833008,19.460071563720703,17.852985382080078,-3.9969370365142822,46.63093185424805,-26.700000762939453,-24.450000762939453,4.5
4.809,72.05589294433594,-18.34916114807129,22.48634147644043,35.439510345458984,-17.852985382080078,50.22817611694336,-26.700000762939453,-22.5,2.700000047683716
4.813,73.51156616210938,-33.63374710083008,26.929981231689453,20.650842666625977,-27.978559494018555,58.222049713134766,-25.950000762939453,-22.5,2.700000047683716
4.82,67.19087982177734,-29.879636764526367,28.61549949645996,27.445634841918945,-32.90811538696289,39.70290756225586,-27.750001907348633,-24.30000114440918,2.8500001430511475
4.83,62.172630310058594,-28.002582550048828,30.37763023376465,51.29402542114258,-50.76110076904297,34.373661041259766,-25.500001907348633,-23.100000381469727,2.5500001907348633
4.84,75.19709014892578,-43.9766960144043,18.272546768188477,27.17917251586914,-56.356815338134766,27.045940399169922,-25.500001907348633,-23.100000381469727,2.5500001907348633
4.85,81.82423400878906,-54.35795593261719,7.163451671600342,-0.39969372749328613,-59.02143859863281,37.03828430175781,-27.30000114440918,-25.05000114440918,3.6000001430511475
4.869,77.99351501464844,-34.170047760009766,9.53849983215332,24.51454734802246,-67.814697265625,44.63246536254883,-26.55000114440918,-24.30000114440918,2.8500001430511475
4.873,70.98329162597656,-12.641385078430176,8.006210327148438,61.552833557128906,-56.62327575683594,52.626338958740234,-25.80000114440918,-23.850000381469727,1.350000023841858
4.88,68.1868667602539,-22.984336853027344,15.897499084472656,67.94792938232422,-55.4241943359375,56.22358322143555,-25.950000762939453,-24.900001525878906,3.0
4.89,66.42472839355469,-28.998571395874023,15.974113464355469,53.69218826293945,-64.084228515625,62.8851432800293,-25.950000762939453,-24.900001525878906,3.0
4.9,66.23319244384766,-46.23682403564453,9.385271072387695,25.980091094970703,-64.21745300292969,74.07656860351562,-25.950000762939453,-26.850000381469727,1.6500000953674316
4.91,68.34009552001953,-49.49293899536133,5.669469833374023,-11.857580184936523,-47.0306282043457,61.28636932373047,-26.250001907348633,-25.80000114440918,2.5500001907348633
4.929,68.26348114013672,-33.672054290771484,10.5344877243042,2.797856092453003,-55.95711898803711,71.94486999511719,-25.950000762939453,-26.100000381469727,0.15000000596046448
4.933,69.25946807861328,-18.693927764892578,12.60307788848877,48.49617004394531,-50.89433288574219,88.06584930419922,-27.150001525878906,-26.400001525878906,1.2000000476837158
4.94,65.73519897460938,-23.060951232910156,19.421764373779297,52.493106842041016,-50.36140823364258,94.46094512939453,-27.150001525878906,-26.400001525878906,1.2000000476837158
4.95,62.09601593017578,-31.565155029296875,18.808849334716797,36.63859176635742,-44.49923324584961,105.78560638427734,-25.500001907348633,-26.55000114440918,1.0500000715255737
4.96,67.65056610107422,-45.24083709716797,10.687716484069824,0.6661561727523804,-55.29096221923828,95.66002655029297,-25.950000762939453,-26.400001525878906,1.9500000476837158
4.97,80.2536392211914,-44.819454193115234,0.038307227194309235,-11.058192253112793,-56.62327575683594,124.57120513916016,-24.900001525878906,-27.600000381469727,1.9500000476837158
4.989,79.6407241821289,-28.73042106628418,2.3750481605529785,-14.522205352783203,-39.70290756225586,130.83306884765625,-26.250001907348633,-27.000001907348633,0.6000000238418579
4.993,75.23539733886719,-19.843143463134766,4.32871675491333,1.1990811824798584,-47.163856506347656,155.08116149902344,-26.250001907348633,-27.000001907348633,0.6000000238418579
5.0,71.51959228515625,-25.39769172668457,5.477933406829834,18.519142150878906,-51.160797119140625,174.1332244873047,-25.200000762939453,-28.350000381469727,0.45000001788139343
5.009,70.94498443603516,-29.266721725463867,7.967903137207031,10.258805274963379,-40.102603912353516,195.5834503173828,-25.05000114440918,-28.200000762939453,1.350000023841858
5.02,70.37037658691406,-30.37763023376465,7.738059997558594,5.196018218994141,-37.57120895385742,196.24961853027344,-23.400001525878906,-28.80000114440918,0.15000000596046448
5.03,71.67282104492188,-42.40610122680664,7.086836814880371,-14.788667678833008,-35.839202880859375,218.63246154785156,-24.750001907348633,-28.500001907348633,0.0
5.049,85.00373840332031,-52.63412857055664,5.861005783081055,-34.373661041259766,-48.09647750854492,235.28636169433594,-24.750001907348633,-28.500001907348633,0.0
5.052,103.81258392333984,-49.722782135009766,6.473921298980713,-30.37672233581543,-63.81776428222656,246.61102294921875,-22.80000114440918,-30.450000762939453,0.0
5.06,101.6673812866211,-29.113492965698242,4.865017890930176,-43.30015182495117,-60.88667678833008,266.9953918457031,-23.400001525878906,-31.05000114440918,-1.6500000953674316
5.07,103.31459045410156,-17.42978858947754,11.224017143249512,-20.784072875976562,-75.00918579101562,287.77947998046875,-23.700000762939453,-33.0,-1.2000000476837158
5.08,87.22555541992188,-22.984336853027344,20.877439498901367,-19.185298919677734,-64.3506851196289,298.30474853515625,-22.650001525878906,-31.80000114440918,-1.6500000953674316
5.089,78.3765869140625,-56.77130889892578,22.83110809326172,-74.47626495361328,-55.82388687133789,294.0413513183594,-22.650001525878906,-31.80000114440918,-1.6500000953674316
5.109,66.11827087402344,-64.77751922607422,23.099258422851562,-95.66002655029297,-45.831546783447266,290.7105712890625,-21.75,-33.900001525878906,-2.5500001907348633
5.112,81.24962615966797,-47.76911163330078,18.081010818481445,-107.65084075927734,-48.09647750854492,311.49462890625,-22.200000762939453,-34.5,-1.9500000476837158
5.12,72.20912170410156,-38.69029998779297,13.867216110229492,-98.4578857421875,-59.95405578613281,317.09033203125,-19.5,-35.10000228881836,-2.1000001430511475
5.13,57.307613372802734,-33.94020462036133,7.163451671600342,-77.67381286621094,-46.764163970947266,315.7580261230469,-19.950000762939453,-37.95000076293945,-2.700000047683716
5.14,64.77751922607422,-56.618080139160156,7.1251444816589355,-79.53904724121094,-63.950992584228516,329.0811462402344,-19.950000762939453,-37.95000076293945,-2.700000047683716
5.15,67.53564453125,-65.96504211425781,4.481945514678955,-90.99693298339844,-66.48238372802734,331.2128601074219,-20.55000114440918,-39.0,-3.3000001907348633
5.169,77.87859344482422,-53.247047424316406,2.9879636764526367,-96.8591079711914,-67.28177642822266,324.8177490234375,-18.150001525878906,-38.85000228881836,-4.200000286102295
5.173,75.23539733886719,-40.18428039550781,5.51624059677124,-86.60030364990234,-56.22358322143555,307.3644714355469,-18.0,-38.55000305175781,-3.6000001430511475
5.18,14.441824913024902,-57.76729965209961,3.064578056335449,-72.21133422851562,-55.69065856933594,304.83306884765625,-18.0,-38.55000305175781,-3.6000001430511475
5.19,13.407529830932617,-75.9632339477539,2.6815059185028076,-101.2557373046875,-56.356815338134766,284.5819091796875,-18.0,-38.55000305175781,-3.6000001430511475
5.2,31.182083129882812,-86.34449005126953,0.038307227194309235,-123.37212371826172,-57.15620040893555,273.9234313964844,-15.000000953674316,-38.25,-5.400000095367432
5.209,63.896453857421875,-73.20510864257812,-6.282385349273682,-108.84992218017578,-66.08269500732422,268.8606262207031,-15.90000057220459,-41.10000228881836,-5.700000286102295
5.229,99.17741394042969,-56.57977294921875,-5.784391403198242,-82.7365951538086,-72.0781021118164,272.32464599609375,-14.700000762939453,-41.10000228881836,-7.500000476837158
5.233,109.4820556640625,-69.06793212890625,-6.090848922729492,-60.35375213623047,-77.80704498291016,273.25726318359375,-12.90000057220459,-40.650001525878906,-5.25
5.239,115.76444244384766,-69.83407592773438,-7.048529624938965,-84.86830139160156,-68.61408996582031,257.6692199707031,-12.90000057220459,-40.650001525878906,-5.25
5.25,121.16575622558594,-64.96905517578125,-5.1331682205200195,-93.12863159179688,-86.73353576660156,245.67840576171875,-12.15000057220459,-41.85000228881836,-7.500000476837158
5.26,128.520751953125,-56.426544189453125,5.094861030578613,-75.67534637451172,-99.25727081298828,230.88973999023438,-10.800000190734863,-40.95000076293945,-6.600000381469727
5.27,124.72833251953125,-52.595821380615234,8.08282470703125,-67.68146514892578,-90.19754791259766,179.86216735839844,-12.450000762939453,-43.05000305175781,-8.550000190734863
5.288,100.40324401855469,-61.636329650878906,-0.3447650372982025,-33.4410400390625,-95.12710571289062,142.95712280273438,-12.450000762939453,-43.05000305175781,-8.550000190734863
5.292,39.30321502685547,-72.20912170410156,-6.588842868804932,36.771820068359375,-65.54976654052734,132.9647674560547,-9.75,-43.20000076293945,-8.700000762939453
5.3,28.500577926635742,-70.5619125366211,-0.6129156351089478,89.93108367919922,-39.16998291015625,117.37671661376953,-9.75,-43.20000076293945,-8.700000762939453
5.31,15.399505615234375,-57.805606842041016,12.449849128723145,86.3338394165039,-4.929555892944336,100.3231201171875,-9.450000762939453,-43.05000305175781,-9.75
5.32,-1.4173674583435059,-44.32146072387695,9.883264541625977,74.20980072021484,34.24042892456055,82.7365951538086,-10.200000762939453,-43.80000305175781,-10.350000381469727
5.33,-29.53487205505371,-26.776752471923828,22.333112716674805,32.5084228515625,54.75803756713867,11.591117858886719,-10.200000762939453,-43.80000305175781,-10.350000381469727
5.348,-53.361968994140625,-4.481945514678955,36.35355758666992,-152.016845703125,53.558956146240234,-213.30320739746094,-9.450000762939453,-42.60000228881836,-9.75
5.351,-72.97526550292969,49.64616775512695,-15.820884704589844,-176.9310760498047,59.02143859863281,-246.477783203125,-11.25,-42.45000076293945,-11.40000057220459
5.36,-60.52541732788086,68.7231674194336,-20.456058502197266,-110.71515655517578,65.28330993652344,-349.06585693359375,-11.25,-42.45000076293945,-11.40000057220459
5.369,-36.69832229614258,94.69546508789062,1.3024457693099976,11.857580184936523,71.81163787841797,-369.84991455078125,-10.5,-43.20000076293945,-12.450000762939453
5.38,19.038692474365234,89.71552276611328,-1.455674648284912,118.57579803466797,73.81010437011719,-420.8774719238281,-10.5,-43.20000076293945,-12.450000762939453
5.39,28.653806686401367,66.38642120361328,1.4173674583435059,189.1883544921875,76.74119567871094,-429.1378173828125,-12.15000057220459,-39.900001525878906,-11.550000190734863
5.403,16.89348793029785,25.39769172668457,-2.9496564865112305,197.31546020507812,82.7365951538086,-486.42724609375,-15.15000057220459,-39.900001525878906,-11.100000381469727
5.41,13.637372970581055,-8.695740699768066,3.907337188720703,166.40582275390625,92.72894287109375,-513.073486328125,-15.15000057220459,-39.900001525878906,-11.100000381469727
5.42,17.42978858947754,-16.1656494140625,3.9839515686035156,111.24808502197266,90.4640121459961,-565.1669311523438,-16.05000114440918,-40.5,-10.65000057220459
5.43,25.28277015686035,-20.992361068725586,8.35097599029541,71.01225280761719,89.5313949584961,-582.353759765625,-16.05000114440918,-40.5,-10.65000057220459
5.44,30.645782470703125,-24.095245361328125,8.274360656738281,48.76263427734375,99.65696716308594,-611.7978515625,-17.55000114440918,-38.25,-8.700000762939453
5.45,34.897884368896484,-26.776752471923828,6.971915245056152,45.69831466674805,96.8591079711914,-621.2572631835938,-19.200000762939453,-36.30000305175781,-8.40000057220459
5.466,40.18428039550781,-32.82929229736328,5.784391403198242,60.08728790283203,86.60030364990234,-624.3215942382812,-21.450000762939453,-33.45000076293945,-7.800000190734863
5.47,58.64836502075195,-54.894256591796875,11.453861236572266,67.01531219482422,73.67687225341797,-622.589599609375,-21.450000762939453,-33.45000076293945,-7.800000190734863
5.48,63.24523162841797,-62.74723815917969,12.717999458312988,34.24042892456055,68.61408996582031,-629.9172973632812,-22.650001525878906,-33.45000076293945,-7.800000190734863
5.489,76.03984832763672,-77.8019790649414,9.768342971801758,-2.797856092453003,72.0781021118164,-618.326171875,-24.150001525878906,-29.100000381469727,-8.550000190734863
5.5,74.3160171508789,-82.55207824707031,5.20978307723999,-24.914241790771484,65.81623077392578,-602.4716796875,-24.30000114440918,-28.200000762939453,-7.350000381469727
5.518,69.14454650878906,-78.68304443359375,4.060565948486328,-42.76722717285156,69.94640350341797,-579.02294921875,-25.650001525878906,-25.200000762939453,-7.800000190734863
5.522,67.72718048095703,-75.08216857910156,-0.1149216815829277,-27.578866958618164,75.94180297851562,-558.7717895507812,-25.650001525878906,-25.200000762939453,-7.800000190734863
5.53,72.43896484375,-73.35833740234375,4.558559894561768,-6.261868000030518,79.80551147460938,-536.1224975585938,-25.650001525878906,-23.25,-6.750000476837158
5.54,77.34229278564453,-75.46524047851562,5.784391403198242,10.791729927062988,81.93721008300781,-518.4027709960938,-27.450000762939453,-22.5,-6.0
5.55,84.2759017944336,-75.84831237792969,10.572794914245605,31.842266082763672,82.86982727050781,-493.6217346191406,-26.55000114440918,-20.400001525878906,-6.900000095367432
5.559,91.4393539428711,-75.9249267578125,7.6997528076171875,69.4134750366211,75.5421142578125,-445.7917175292969,-26.700000762939453,-18.75,-5.700000286102295
5.57,98.79434204101562,-72.20912170410156,5.70777702331543,96.99234008789062,76.07503509521484,-418.3460998535156,-26.700000762939453,-18.75,-5.700000286102295
5.582,106.80055236816406,-71.97927856445312,4.098873138427734,94.19448852539062,67.28177642822266,-399.8269348144531,-26.400001525878906,-16.80000114440918,-3.750000238418579
5.59,108.869140625,-75.9249267578125,0.3447650372982025,79.9387435913086,71.01225280761719,-367.185302734375,-26.700000762939453,-14.40000057220459,-4.950000286102295
5.6,104.96179962158203,-78.87458038330078,-0.07661445438861847,42.633995056152344,41.83460998535156,-336.1424255371094,-28.650001525878906,-15.15000057220459,-4.5
5.61,98.6794204711914,-80.02379608154297,-1.072602391242981,-17.986217498779297,28.111791610717773,-300.83612060546875,-28.650001525878906,-15.15000057220459,-4.5
5.62,88.37477111816406,-77.38059997558594,-3.7158010005950928,-75.40888214111328,33.57427215576172,-279.7856140136719,-28.650001525878906,-15.15000057220459,-4.5
5.639,77.68705749511719,-70.48529815673828,-4.137180328369141,-113.91270446777344,34.373661041259766,-245.0122528076172,-26.400001525878906,-10.950000762939453,-5.700000286102295
5.643,73.6264877319336,-63.168617248535156,0.038307227194309235,-141.22511291503906,33.4410400390625,-199.44715881347656,-27.750001907348633,-9.600000381469727,-3.9000000953674316
5.65,76.4995346069336,-53.93657684326172,4.941632270812988,-162.80857849121094,39.9693717956543,-187.1898956298828,-27.450000762939453,-9.75,-3.750000238418579
5.66,77.45721435546875,-48.99494171142578,7.929595947265625,-168.40428161621094,45.96477508544922,-169.8698272705078,-27.450000762939453,-9.75,-3.750000238418579
5.67,75.15878295898438,-39.07337188720703,7.469909191131592,-147.0872802734375,47.9632453918457,-134.29708862304688,-28.200000762939453,-9.0,-4.950000286102295
5.679,73.97125244140625,-33.32728576660156,10.955866813659668,-115.37825012207031,45.96477508544922,-90.73047637939453,-26.55000114440918,-7.200000286102295,-3.6000001430511475
5.698,77.57213592529297,-33.863590240478516,10.72602367401123,-82.7365951538086,43.96630859375,-36.372127532958984,-27.30000114440918,-8.850000381469727,-2.5500001907348633
5.703,84.12267303466797,-38.49876403808594,8.542511940002441,-27.445634841918945,19.052066802978516,30.90964698791504,-26.55000114440918,-8.40000057220459,-2.8500001430511475
5.71,87.57032012939453,-44.512996673583984,3.5625722408294678,7.460949420928955,8.926492691040039,78.3399658203125,-26.55000114440918,-8.40000057220459,-2.8500001430511475
5.72,88.18323516845703,-43.4020881652832,1.6089035272598267,6.261868000030518,7.194486618041992,90.4640121459961,-27.900001525878906,-7.800000190734863,-1.9500000476837158
5.73,90.13690185546875,-31.948226928710938,-1.4939818382263184,15.721285820007324,-2.531393527984619,115.2450180053711,-27.30000114440918,-8.40000057220459,-2.5500001907348633
5.74,91.4393539428711,-14.288596153259277,5.861005783081055,50.62786865234375,-15.055130004882812,149.3522186279297,-26.250001907348633,-8.40000057220459,-4.350000381469727
5.759,86.91909790039062,-0.7661445140838623,7.929595947265625,83.5359878540039,-3.197549819946289,164.80703735351562,-27.150001525878906,-8.700000762939453,-2.25
5.763,80.8665542602539,-1.1109095811843872,9.002198219299316,132.0321502685547,18.519142150878906,242.747314453125,-27.150001525878906,-8.700000762939453,-2.25
5.77,84.69728088378906,-64.27952575683594,40.107666015625,48.62940216064453,-7.9938740730285645,230.22357177734375,-25.950000762939453,-8.700000762939453,-3.0
5.779,86.53602600097656,-97.30035400390625,31.52684783935547,-136.29556274414062,7.72741174697876,175.865234375,-27.750001907348633,-9.600000381469727,-1.350000023841858
5.79,86.34449005126953,-103.69766235351562,33.02082824707031,-279.11944580078125,23.848390579223633,106.85145568847656,-27.150001525878906,-12.450000762939453,-2.25
5.8,98.41127014160156,-34.09343338012695,13.330915451049805,-311.7611083984375,31.709033966064453,104.05359649658203,-26.700000762939453,-11.700000762939453,-2.700000047683716
5.819,140.93228149414062,55.58378601074219,8.619126319885254,-198.51454162597656,-2.531393527984619,124.30474090576172,-26.700000762939453,-11.700000762939453,-2.700000047683716
5.823,179.85243225097656,124.00049591064453,-10.687716484069824,-21.716691970825195,10.791729927062988,185.4578857421875,-27.150001525878906,-12.450000762939453,-1.2000000476837158
5.83,119.82500457763672,123.73234558105469,11.109095573425293,128.43490600585938,38.50382614135742,186.5237274169922,-26.55000114440918,-14.250000953674316,-2.1000001430511475
5.839,79.18103790283203,102.81659698486328,10.304644584655762,299.37060546875,50.76110076904297,214.7687530517578,-27.30000114440918,-11.850000381469727,-2.1000001430511475
5.85,73.7031021118164,58.99312973022461,7.891288757324219,381.0413513183594,21.050535202026367,253.4058074951172,-28.200000762939453,-13.65000057220459,-0.9000000357627869
5.86,93.69947814941406,2.030282974243164,5.2480902671813965,382.3736572265625,41.434913635253906,255.80397033691406,-28.200000762939453,-13.65000057220459,-0.9000000357627869
5.879,100.4798583984375,-56.80961608886719,35.0128059387207,281.2511291503906,52.226646423339844,190.25421142578125,-27.150001525878906,-15.600000381469727,-1.9500000476837158
5.883,90.44336700439453,-67.76548767089844,17.50640296936035,108.18376159667969,24.248085021972656,166.1393585205078,-27.900001525878906,-16.350000381469727,-1.9500000476837158
5.89,80.10041046142578,-59.60604476928711,40.60565948486328,58.355281829833984,12.390504837036133,166.67227172851562,-27.000001907348633,-16.5,-1.8000000715255737
5.9,91.20951080322266,-43.9766960144043,23.52063751220703,-33.30780792236328,-1.8652373552322388,149.3522186279297,-28.200000762939453,-18.75,-1.6500000953674316
5.91,134.91806030273438,-21.183897018432617,21.605276107788086,-39.70290756225586,-10.392036437988281,158.4119415283203,-28.200000762939453,-18.75,-1.6500000953674316
5.92,179.5459747314453,10.036493301391602,-7.354987621307373,28.77794647216797,-0.39969372749328613,184.92495727539062,-27.150001525878906,-19.5,-1.2000000476837158
5.939,167.0578155517578,32.86759948730469,-16.1656494140625,139.89280700683594,12.923430442810059,221.16384887695312,-27.30000114440918,-19.200000762939453,-1.350000023841858
5.943,90.44336700439453,13.330915451049805,0.6129156351089478,217.96630859375,8.660030364990234,201.0459442138672,-28.950000762939453,-18.30000114440918,-1.2000000476837158
5.95,40.22258758544922,-62.364166259765625,14.901511192321777,185.5911102294922,-14.655436515808105,184.92495727539062,-25.200000762939453,-19.05000114440918,-1.2000000476837158
5.96,35.85556411743164,-92.58856964111328,14.441824913024902,57.15620040893555,-27.978559494018555,134.16384887695312,-25.200000762939453,-19.05000114440918,-1.2000000476837158
5.97,49.64616775512695,-109.98004913330078,21.56696891784668,-55.29096221923828,-20.650842666625977,80.33843994140625,-27.750001907348633,-21.150001525878906,-0.30000001192092896
5.98,62.555702209472656,-76.26969146728516,14.863204002380371,-78.87289428710938,-24.11485481262207,44.76569747924805,-26.55000114440918,-22.350000381469727,-2.1000001430511475
5.999,69.3360824584961,-39.26490783691406,16.1656494140625,-32.64165496826172,-29.977027893066406,47.696781158447266,-28.05000114440918,-21.600000381469727,0.0
6.004,76.95922088623047,-27.77273941040039,9.768342971801758,-2.2649309635162354,-31.042879104614258,39.43644714355469,-27.000001907348633,-23.850000381469727,-2.1000001430511475
6.01,80.52178955078125,-28.73042106628418,2.6431987285614014,1.1990811824798584,-25.846860885620117,38.50382614135742,-27.000001907348633,-23.850000381469727,-2.1000001430511475
6.02,80.98147583007812,-25.39769172668457,7.814674377441406,6.261868000030518,-22.649311065673828,41.168453216552734,-26.400001525878906,-22.950000762939453,-2.25
6.03,77.1124496459961,-23.788787841796875,16.1656494140625,23.848390579223633,-25.313934326171875,48.362937927246094,-27.000001907348633,-22.80000114440918,-0.6000000238418579
6.04,74.35432434082031,-25.933992385864258,15.705963134765625,16.65390396118164,-25.846860885620117,35.17304611206055,-28.650001525878906,-22.950000762939453,-2.25
6.059,78.9511947631836,-46.504974365234375,16.433799743652344,-12.390504837036133,-20.784072875976562,27.445634841918945,-25.80000114440918,-23.100000381469727,-1.8000000715255737
6.062,73.58818054199219,-47.34773254394531,5.631162166595459,-42.36753463745117,-19.45176124572754,27.045940399169922,-25.80000114440918,-23.100000381469727,-1.8000000715255737
6.07,72.63050079345703,-20.76251792907715,11.990161895751953,-21.716691970825195,-24.64777946472168,38.23736572265625,-27.30000114440918,-22.80000114440918,-2.1000001430511475
6.08,75.08216857910156,-9.653421401977539,10.84094524383545,2.797856092453003,-18.385910034179688,44.49923324584961,-27.000001907348633,-23.100000381469727,-2.8500001430511475
6.089,72.4772720336914,-18.464082717895508,16.433799743652344,17.453292846679688,-19.052066802978516,46.764163970947266,-27.450000762939453,-23.700000762939453,-2.700000047683716
6.1,66.76950073242188,-31.986534118652344,16.012420654296875,5.595712184906006,-22.249616622924805,48.49617004394531,-27.450000762939453,-23.700000762939453,-2.700000047683716
6.119,69.75746154785156,-34.62973403930664,12.641385078430176,-11.324655532836914,-23.315465927124023,52.093414306640625,-27.000001907348633,-22.80000114440918,-2.8500001430511475
6.122,76.19307708740234,-23.63555908203125,13.292608261108398,0.0,-20.251148223876953,66.34915924072266,-27.450000762939453,-24.150001525878906,-2.700000047683716
6.13,75.69508361816406,-23.3291015625,13.445837020874023,-3.86370587348938,-22.51607894897461,65.54976654052734,-25.950000762939453,-26.100000381469727,-4.200000286102295
6.139,72.55388641357422,-23.13756561279297,14.058752059936523,0.7993874549865723,-23.315465927124023,76.60796356201172,-24.900001525878906,-22.950000762939453,-3.0
6.15,72.28573608398438,-22.90772247314453,15.322891235351562,-7.9938740730285645,-20.251148223876953,96.05972290039062,-24.900001525878906,-22.950000762939453,-3.0
6.16,74.92893981933594,-25.857378005981445,13.905523300170898,-10.392036437988281,-19.185298919677734,111.64777374267578,-26.250001907348633,-24.30000114440918,-2.8500001430511475
6.179,77.68705749511719,-25.052927017211914,8.312667846679688,-3.7304747104644775,-25.846860885620117,134.29708862304688,-24.750001907348633,-25.500001907348633,-3.3000001907348633
6.183,77.07414245605469,-22.677879333496094,8.197746276855469,-10.791729927062988,-14.92189884185791,140.82542419433594,-26.400001525878906,-27.150001525878906,-3.750000238418579
6.19,71.74943542480469,-26.738445281982422,13.369222640991211,-5.8621745109558105,-15.055130004882812,149.21897888183594,-26.400001525878906,-27.150001525878906,-3.750000238418579
6.2,68.68486022949219,-31.258697509765625,13.062764167785645,-7.327718257904053,-14.92189884185791,164.27410888671875,-26.400001525878906,-27.150001525878906,-3.750000238418579
6.209,71.13652038574219,-41.5633430480957,9.27034854888916,-25.447166442871094,-11.591117858886719,165.2067413330078,-25.80000114440918,-25.80000114440918,-2.5500001907348633
6.22,73.6264877319336,-41.29519271850586,4.903325080871582,-36.771820068359375,-8.260336875915527,177.46400451660156,-24.30000114440918,-25.500001907348633,-4.350000381469727
6.239,74.2394027709961,-36.008792877197266,3.8307228088378906,-25.980091094970703,-18.519142150878906,206.24195861816406,-24.150001525878906,-27.900001525878906,-3.0
6.243,95.99790954589844,-39.07337188720703,8.810662269592285,-24.914241790771484,-22.915773391723633,231.02296447753906,-24.150001525878906,-27.900001525878906,-3.0
6.25,102.77828979492188,-46.73481750488281,13.637372970581055,-35.972434997558594,-28.511484146118164,258.7350769042969,-24.150001525878906,-27.900001525878906,-3.0
6.26,105.00010681152344,-35.43418502807617,12.756306648254395,-58.08882141113281,-31.309341430664062,256.0704345703125,-24.900001525878906,-28.80000114440918,-2.700000047683716
6.27,79.37257385253906,-3.5242648124694824,21.26051139831543,-16.65390396118164,-33.4410400390625,268.7274169921875,-23.400001525878906,-30.30000114440918,-4.950000286102295
6.28,55.35394287109375,-24.286781311035156,24.746469497680664,-11.857580184936523,-22.915773391723633,281.7840576171875,-23.55000114440918,-28.200000762939453,-4.650000095367432
6.299,57.34592056274414,-76.92091369628906,23.9420166015625,-81.8039779663086,-14.255742073059082,266.595703125,-23.25,-30.900001525878906,-5.400000095367432
6.303,95.76806640625,-47.232810974121094,15.782577514648438,-114.44563293457031,-21.983154296875,287.1133117675781,-23.25,-32.400001525878906,-5.400000095367432
6.31,100.40324401855469,-32.82929229736328,15.437812805175781,-98.19142150878906,-30.509952545166016,296.9724426269531,-23.25,-32.400001525878906,-5.400000095367432
6.32,104.1573486328125,-28.807035446166992,13.560758590698242,-75.8085708618164,-37.17151641845703,336.275634765625,-21.30000114440918,-33.150001525878906,-5.100000381469727
6.33,121.16575622558594,-44.24484634399414,8.274360656738281,-105.65237426757812,-42.500762939453125,337.6079406738281,-20.400001525878906,-32.25,-4.950000286102295
6.34,115.3813705444336,-27.88766098022461,9.653421401977539,-90.06431579589844,-52.493106842041016,349.4655456542969,-21.150001525878906,-34.5,-4.200000286102295
6.358,66.9610366821289,-17.544710159301758,5.477933406829834,-75.8085708618164,-33.57427215576172,348.5329284667969,-21.0,-33.900001525878906,-6.600000381469727
6.362,7.010222434997559,-70.14053344726562,7.1251444816589355,-96.59264373779297,-26.379785537719727,329.4808654785156,-19.950000762939453,-35.25,-7.050000190734863
6.369,-2.7964274883270264,-73.47325897216797,5.1331682205200195,-119.64165496826172,-8.127105712890625,310.0290832519531,-19.950000762939453,-35.25,-7.050000190734863
6.38,-14.250288963317871,-73.0135726928711,2.6815059185028076,-117.77641296386719,-7.594180583953857,293.5084228515625,-18.900001525878906,-37.650001525878906,-7.050000190734863
6.39,4.558559894561768,-70.75344848632812,4.941632270812988,-119.37519073486328,-10.92496109008789,274.056640625,-18.900001525878906,-36.900001525878906,-7.050000190734863
6.408,35.395877838134766,-82.0923843383789,1.6855180263519287,-129.50076293945312,-21.983154296875,273.9234313964844,-18.900001525878906,-36.900001525878906,-7.050000190734863
6.412,86.88079071044922,-70.52360534667969,2.9496564865112305,-118.57579803466797,-32.90811538696289,275.5221862792969,-16.05000114440918,-37.80000305175781,-7.350000381469727
6.42,112.77647399902344,-41.02703857421875,3.9456443786621094,-77.94027709960938,-51.027565002441406,288.578857421875,-15.450000762939453,-37.95000076293945,-8.550000190734863
6.429,117.37334442138672,-50.68046188354492,-0.689530074596405,-68.4808578491211,-54.75803756713867,297.6385803222656,-15.300000190734863,-37.80000305175781,-8.700000762939453
6.44,131.54701232910156,-72.70711517333984,0.49799394607543945,-82.86982727050781,-63.151607513427734,293.7748718261719,-15.300000190734863,-37.80000305175781,-8.700000762939453
6.45,134.64990234375,-62.2109375,-2.5665841102600098,-86.60030364990234,-91.13016510009766,307.2312316894531,-14.550000190734863,-1.8000000715255737,-8.700000762939453
6.459,126.41384887695312,-39.226600646972656,0.49799394607543945,-65.41653442382812,-107.25114440917969,290.1776428222656,-13.950000762939453,-39.150001525878906,-9.300000190734863
6.475,121.08914184570312,-39.26490783691406,11.798625946044922,-40.635528564453125,-112.4471664428711,234.4869842529297,-12.750000953674316,-40.95000076293945,-10.65000057220459
6.48,96.72574615478516,-50.68046188354492,18.693927764892578,-49.69525146484375,-99.52373504638672,199.31393432617188,-12.450000762939453,-41.10000228881836,-11.100000381469727
6.49,83.96944427490234,-56.15839385986328,19.421764373779297,-41.30168533325195,-99.92343139648438,150.6845245361328,-12.450000762939453,-41.10000228881836,-11.100000381469727
6.5,61.48310089111328,-64.31783294677734,13.905523300170898,-15.321592330932617,-102.05513000488281,118.30934143066406,-10.800000190734863,-41.25,-12.750000953674316
6.509,35.0128059387207,-70.6002197265625,5.1331682205200195,8.526799201965332,-68.21439361572266,110.98162078857422,-10.65000057220459,-41.10000228881836,-12.600000381469727
6.528,5.51624059677124,-65.54366302490234,4.8267107009887695,28.644716262817383,-49.02909469604492,122.03981018066406,-10.65000057220459,-41.55000305175781,-13.350000381469727
6.532,-8.312667846679688,-50.450618743896484,24.24847412109375,-31.309341430664062,-7.327718257904053,53.42572784423828,-10.65000057220459,-41.55000305175781,-13.350000381469727
6.54,-28.232425689697266,-10.764330863952637,19.115306854248047,-65.54976654052734,5.8621745109558105,13.323123931884766,-9.90000057220459,-41.55000305175781,-12.300000190734863
6.549,-40.145973205566406,1.0342950820922852,-1.3024457693099976,-104.85298156738281,-2.9310872554779053,-60.62021255493164,-10.050000190734863,-42.150001525878906,-12.750000953674316
6.56,-53.8216552734375,12.90953540802002,-29.688100814819336,-58.08882141113281,1.9984685182571411,-162.27565002441406,-10.800000190734863,-42.150001525878906,-13.500000953674316
6.57,-69.10623931884766,40.145973205566406,-33.672054290771484,30.776416778564453,26.513015747070312,-273.9234313964844,-10.950000762939453,-40.650001525878906,-13.65000057220459
6.58,-43.21055221557617,79.98548889160156,-1.8387469053268433,123.2388916015625,27.17917251586914,-370.5160827636719,-10.950000762939453,-40.650001525878906,-13.65000057220459
6.592,-9.155426979064941,93.9293212890625,18.502389907836914,232.2220458984375,35.03981399536133,-397.9617004394531,-14.250000953674316,-39.0,-13.500000953674316
6.6,27.121517181396484,77.53382873535156,11.990161895751953,288.0459289550781,23.715160369873047,-398.36138916015625,-13.800000190734863,-40.20000076293945,-12.0
6.609,29.688100814819336,46.313438415527344,6.588842868804932,324.151611328125,57.822357177734375,-428.8713684082031,-15.000000953674316,-39.75,-12.750000953674316
6.62,25.972299575805664,13.943830490112305,-5.70777702331543,274.5895690917969,36.372127532958984,-501.882080078125,-15.750000953674316,-37.80000305175781,-15.000000953674316
6.63,28.577192306518555,-16.318878173828125,8.35097599029541,235.15313720703125,23.715160369873047,-530.7932739257812,-15.750000953674316,-37.80000305175781,-15.000000953674316
6.649,27.542896270751953,-16.740259170532227,6.205770969390869,191.32005310058594,33.17457962036133,-583.1531372070312,-17.55000114440918,-37.5,-11.700000762939453
6.653,32.790985107421875,-16.47210693359375,8.542511940002441,168.9372100830078,32.37519073486328,-614.9954223632812,-20.700000762939453,-34.95000076293945,-10.350000381469727
6.66,44.091617584228516,-17.276559829711914,15.897499084472656,164.80703735351562,28.378253936767578,-626.8529663085938,-19.650001525878906,-35.70000076293945,-9.300000190734863
6.669,50.10585403442383,-24.516624450683594,17.238252639770508,134.29708862304688,21.45022964477539,-640.7090454101562,-22.05000114440918,-32.85000228881836,-10.65000057220459
6.68,60.87018585205078,-36.46847915649414,19.460071563720703,78.3399658203125,35.972434997558594,-654.4318237304688,-22.05000114440918,-32.85000228881836,-10.65000057220459
6.69,69.3743896484375,-51.48491287231445,21.337125778198242,9.72588062286377,33.84073257446289,-664.690673828125,-24.30000114440918,-29.250001907348633,-9.450000762939453
6.709,71.40467071533203,-67.34410858154297,21.26051139831543,-39.9693717956543,19.98468589782715,-667.6217041015625,-24.150001525878906,-28.350000381469727,-9.75
6.713,71.32805633544922,-79.33426666259766,19.268535614013672,-82.6033706665039,39.83613967895508,-673.48388671875,-25.950000762939453,-25.650001525878906,-11.100000381469727
6.726,68.7997817993164,-81.24962615966797,16.778566360473633,-88.33231353759766,36.905052185058594,-637.3782348632812,-27.450000762939453,-24.150001525878906,-9.75
6.73,80.90486145019531,-88.14492797851562,18.693927764892578,-83.13629150390625,35.57273864746094,-637.9111938476562,-27.450000762939453,-24.150001525878906,-9.75
6.74,84.46743774414062,-93.50794219970703,20.494365692138672,-77.00765228271484,34.50688934326172,-610.5987548828125,-27.450000762939453,-20.25,-8.550000190734863
6.75,89.7921371459961,-112.01033020019531,22.83110809326172,-97.5252685546875,28.644716262817383,-615.9280395507812,-27.30000114440918,-17.700000762939453,-9.15000057220459
6.759,83.39483642578125,-107.41346740722656,20.83913230895996,-112.04747009277344,27.71209716796875,-597.275634765625,-28.650001525878906,-15.600000381469727,-8.25
6.77,78.10843658447266,-88.87276458740234,22.562957763671875,-134.03062438964844,25.447166442871094,-556.7733154296875,-28.950000762939453,-13.65000057220459,-9.75
6.789,89.10260772705078,-69.91069030761719,27.849353790283203,-129.10107421875,54.35834503173828,-505.2128601074219,-28.500001907348633,-8.850000381469727,-6.900000095367432
6.792,100.63308715820312,-43.74685287475586,8.619126319885254,-117.77641296386719,65.016845703125,-480.69830322265625,-28.500001907348633,-8.850000381469727,-6.900000095367432
6.8,102.3569107055664,-39.762901306152344,0.8427590131759644,-98.19142150878906,82.33690643310547,-440.3292541503906,-29.700000762939453,-8.700000762939453,-8.25
6.81,104.65534210205078,-35.6257209777832,-14.020444869995117,-83.5359878540039,106.85145568847656,-400.49310302734375,-28.650001525878906,-8.25,-7.500000476837158
6.82,101.85891723632812,-42.559329986572266,-16.89348793029785,-97.92495727539062,107.51760864257812,-379.309326171875,-28.80000114440918,-7.650000095367432,-6.900000095367432
6.838,101.43753814697266,-58.68667221069336,-5.669469833374023,-130.83306884765625,94.9938735961914,-371.04901123046875,-28.80000114440918,-7.650000095367432,-6.900000095367432
6.842,103.5827407836914,-72.4006576538086,2.6815059185028076,-200.646240234375,76.34149932861328,-353.46246337890625,-30.150001525878906,-2.4000000953674316,-5.25
6.85,100.90123748779297,-71.32805633544922,8.427590370178223,-232.88819885253906,77.94027709960938,-350.2649230957031,-28.500001907348633,-1.8000000715255737,-4.650000095367432
6.859,95.65314483642578,-60.21895980834961,8.810662269592285,-225.96017456054688,90.73047637939453,-312.0275573730469,-27.450000762939453,0.15000000596046448,-4.950000286102295
6.87,89.63890838623047,-41.41011428833008,14.556746482849121,-166.67227172851562,92.59571075439453,-243.14700317382812,-26.700000762939453,0.9000000357627869,-6.300000190734863
6.88,87.57032012939453,-34.51481246948242,15.476119995117188,-108.58345794677734,96.05972290039062,-170.8024444580078,-26.700000762939453,0.9000000357627869,-6.300000190734863
6.89,88.29815673828125,-41.29519271850586,17.851167678833008,-90.59724426269531,100.18988800048828,-117.64318084716797,-26.700000762939453,1.6500000953674316,-4.5
6.903,88.10662078857422,-50.5655403137207,17.42978858947754,-115.11178588867188,77.4073486328125,-60.35375213623047,-27.900001525878906,1.6500000953674316,-3.750000238418579
6.91,92.43534088134766,-49.60786056518555,16.548721313476562,-128.83460998535156,61.68606185913086,-6.794793128967285,-27.450000762939453,3.1500000953674316,-3.450000047683716
6.92,96.87897491455078,-38.613685607910156,18.272546768188477,-129.90045166015625,45.43185043334961,45.69831466674805,-27.450000762939453,3.1500000953674316,-3.450000047683716
6.93,105.45979309082031,-19.574993133544922,15.361198425292969,-57.02296829223633,16.78713607788086,98.05818939208984,-27.450000762939453,3.1500000953674316,-3.450000047683716
6.94,107.91146087646484,-8.65743350982666,8.465897560119629,7.9938740730285645,-13.58958625793457,154.6814727783203,-28.650001525878906,3.1500000953674316,-1.6500000953674316
6.95,103.5061264038086,-10.879252433776855,-1.1109095811843872,10.658498764038086,-16.920366287231445,199.713623046875,-28.650001525878906,2.4000000953674316,-2.700000047683716
6.962,94.84869384765625,-19.80483627319336,-2.298433542251587,-41.434913635253906,-11.857580184936523,206.6416473388672,-29.55000114440918,2.700000047683716,-2.5500001907348633
6.97,92.85671997070312,-19.728221893310547,0.26815059781074524,-64.75038146972656,-14.655436515808105,208.10719299316406,-29.55000114440918,2.700000047683716,-2.5500001907348633
6.979,95.1551513671875,-3.026270866394043,1.4939818382263184,-25.313934326171875,-25.313934326171875,228.4915771484375,-29.250001907348633,0.75,-2.1000001430511475
6.99,95.53822326660156,18.004396438598633,-7.4316020011901855,97.92495727539062,23.448698043823242,292.44256591796875,-30.000001907348633,0.0,-1.0500000715255737
7.0,85.76988220214844,-5.899312973022461,34.93619155883789,83.40275573730469,-44.23276901245117,245.545166015625,-30.000001907348633,-1.0500000715255737,-2.5500001907348633
7.019,119.93992614746094,-36.54509353637695,24.861391067504883,-55.82388687133789,8.793261528015137,90.59724426269531,-30.450000762939453,-1.6500000953674316,-1.6500000953674316
7.023,117.06688690185547,48.4969482421875,-5.51624059677124,-113.51301574707031,32.5084228515625,133.76416015625,-30.450000762939453,-1.6500000953674316,-1.6500000953674316
7.03,100.86293029785156,109.17559814453125,-13.905523300170898,-27.17917251586914,53.558956146240234,142.5574188232422,-31.05000114440918,-4.5,-2.8500001430511475
7.039,98.71772766113281,93.58455657958984,-4.8267107009887695,148.8192901611328,32.24195861816406,178.13015747070312,-30.900001525878906,-4.350000381469727,-3.750000238418579
