time,accel_x,accel_y,accel_z,gyro_x,gyro_y,gyro_z,mag_x,mag_y,mag_z
0.0,3.3607192039489746,-9.013762474060059,2.0817556381225586,-0.0025961773935705423,0.00015271631127689034,0.00015271631127689034,-31.05817222595215,64.32330322265625,-43.876060485839844
0.01,3.3272199630737305,-9.019744873046875,2.1032910346984863,0.007024950347840786,-0.012675453908741474,0.00015271631127689034,-30.663549423217773,64.64484405517578,-43.86144256591797
0.029,3.266202688217163,-8.904889106750488,2.311466693878174,-0.010231993161141872,-0.028099801391363144,-0.005955935921519995,-30.678165435791016,64.20637512207031,-43.876060485839844
0.033,3.2410783767700195,-8.85942554473877,2.287538528442383,-0.016035212203860283,-0.035735614597797394,-0.01114829070866108,-30.517393112182617,64.48406982421875,-43.72990417480469
0.04,3.25663161277771,-8.82951545715332,2.2360928058624268,-0.01237002108246088,-0.04245513305068016,-0.01924225501716137,-30.692779541015625,64.26483154296875,-43.7445182800293
0.05,3.266202688217163,-8.830711364746094,2.197807550430298,0.0039706239476799965,-0.04688390716910362,-0.024587325751781464,-31.248172760009766,64.0748291015625,-44.358375549316406
0.06,3.407379150390625,-8.995816230773926,2.0578272342681885,0.03833179175853729,-0.07376197725534439,-0.023976460099220276,-30.42970085144043,64.42560577392578,-43.496055603027344
0.07,3.410968542098999,-9.23031234741211,1.9669002294540405,0.09575312584638596,-0.0988074541091919,-0.018325956538319588,-30.780473709106445,64.83484649658203,-43.84682846069336
0.09,3.229114055633545,-9.10827922821045,2.1032910346984863,0.06902776658535004,-0.03237585723400116,-0.0177150908857584,-30.53200912475586,64.80561828613281,-44.09529113769531
0.093,3.187239646911621,-9.052047729492188,2.091326951980591,0.056810468435287476,-0.024434609338641167,-0.023365594446659088,-30.34200668334961,64.68869018554688,-44.928382873535156
0.1,3.1345977783203125,-8.96112060546875,2.0673987865448,0.015882495790719986,-0.0073303827084600925,-0.042302414774894714,-30.692779541015625,64.55714416503906,-44.3437614440918
0.11,3.06999135017395,-8.85224723815918,1.987239122390747,-0.027641652151942253,0.0064140851609408855,-0.06154467165470123,-30.488161087036133,64.19175720214844,-44.70914840698242
0.12,3.0556344985961914,-8.898907661437988,1.8891334533691406,-0.03451388329267502,0.01725694164633751,-0.06108652427792549,-30.678165435791016,64.26483154296875,-44.372989654541016
0.13,3.183650493621826,-9.019744873046875,1.9525432586669922,-0.016035212203860283,-0.0019853119738399982,-0.04459316283464432,-30.42970085144043,64.5133056640625,-44.38760757446289
0.149,3.5545380115509033,-9.265008926391602,1.8317056894302368,0.004581489134579897,-0.06734789162874222,-0.019547687843441963,-30.765857696533203,64.04560089111328,-44.13914108276367
0.152,3.6646077632904053,-9.339186668395996,1.7766706943511963,0.0177150908857584,-0.07971791177988052,-0.017867807298898697,-30.54662322998047,64.01637268066406,-44.41683578491211
0.16,3.7674992084503174,-9.4660062789917,1.7240287065505981,0.04352414980530739,-0.08597928285598755,-0.012522736564278603,-30.99970817565918,64.44022369384766,-44.21221923828125
0.17,3.7148568630218506,-9.426525115966797,1.7970097064971924,0.056352317333221436,-0.07376197725534439,-0.01542434748262167,-30.605087280273438,64.39637756347656,-44.48991394042969
0.18,3.4923245906829834,-9.11426067352295,2.007578134536743,-0.018936822190880775,-0.02687807008624077,-0.04413501173257828,-30.94124412536621,64.42560577392578,-44.09529113769531
0.19,3.352344274520874,-8.782855033874512,1.8604196310043335,-0.09208793193101883,0.012828170321881771,-0.08674286305904388,-30.765857696533203,64.13329315185547,-44.022212982177734
0.203,3.359522819519043,-8.82951545715332,1.9310078620910645,-0.13148874044418335,0.0481056347489357,-0.12660181522369385,-30.795087814331055,64.48406982421875,-44.0806770324707
0.21,3.346362352371216,-8.82951545715332,2.1032910346984863,-0.15302173793315887,0.05161811038851738,-0.13148874044418335,-30.853551864624023,64.0748291015625,-44.562992095947266
0.22,3.3786656856536865,-8.738588333129883,2.196611166000366,-0.16951508820056915,0.04214970022439957,-0.1215621829032898,-31.379714965820312,64.42560577392578,-44.0806770324707
0.23,3.4301111698150635,-8.681159973144531,2.2851455211639404,-0.152105450630188,0.0050396379083395,-0.0959058403968811,-30.94124412536621,64.46945190429688,-44.12452697753906
0.24,3.4229326248168945,-8.654839515686035,2.304288148880005,-0.10293079167604446,-0.022602012380957603,-0.0679587572813034,-31.072786331176758,64.10406494140625,-43.51066970825195
0.259,3.3954150676727295,-8.758926391601562,2.3365912437438965,-0.032070424407720566,-0.042302414774894714,-0.04749477282166481,-30.795087814331055,64.4109878540039,-43.40835952758789
0.263,3.2542386054992676,-9.017352104187012,2.4634108543395996,0.04749477282166481,-0.04596760869026184,-0.03420845419168472,-30.853551864624023,63.94329071044922,-44.21221923828125
0.27,3.064009428024292,-9.095118522644043,2.496910333633423,0.08139779418706894,-0.023976460099220276,-0.03084869496524334,-30.34200668334961,64.454833984375,-43.627593994140625
0.28,2.8223342895507812,-9.103493690490723,2.502892255783081,0.10842858254909515,0.04566217586398125,-0.022449297830462456,-30.955860137939453,64.64484405517578,-44.182987213134766
0.29,2.730210542678833,-9.158528327941895,2.2911276817321777,0.12400564551353455,0.08888089656829834,-0.017867807298898697,-30.619701385498047,64.3379135131836,-43.21835708618164
0.3,2.7493531703948975,-9.31047248840332,2.146361827850342,0.14798210561275482,0.09376781433820724,-0.0032070425804704428,-31.59894561767578,64.5133056640625,-43.10143280029297
0.32,2.6464619636535645,-9.384650230407715,2.128415822982788,0.1495092660188675,0.08414668589830399,0.017409659922122955,-31.08740234375,64.00175476074219,-43.51066970825195
0.324,2.65842604637146,-9.233901977539062,1.9621144533157349,0.09972374886274338,0.09666942805051804,0.058184914290905,-31.423559188842773,64.54253387451172,-43.802982330322266
0.33,2.7385854721069336,-9.181260108947754,1.8927226066589355,0.06979135423898697,0.10873401165008545,0.07040221989154816,-31.59894561767578,64.14791107177734,-43.77375030517578
0.34,2.9659035205841064,-9.038887023925781,1.875972867012024,0.023060161620378494,0.11056660860776901,0.07101307809352875,-30.824321746826172,64.30867767333984,-43.627593994140625
0.35,3.1130621433258057,-8.894121170043945,1.9597216844558716,-0.021991148591041565,0.11102475225925446,0.06582073122262955,-31.233558654785156,64.04560089111328,-43.802982330322266
0.36,3.352344274520874,-8.790033340454102,2.1786649227142334,-0.058184914290905,0.11178833991289139,0.05513058975338936,-31.6281795501709,64.44022369384766,-44.15375518798828
0.379,3.482753276824951,-8.725427627563477,2.2396819591522217,-0.07116580009460449,0.10231993347406387,0.04245513305068016,-31.02893829345703,63.899444580078125,-43.52528381347656
0.383,3.596412181854248,-8.608179092407227,2.4155545234680176,-0.03420845419168472,0.05864306166768074,0.029474247246980667,-30.853551864624023,64.3379135131836,-44.577606201171875
0.39,3.645465135574341,-8.608179092407227,2.4526431560516357,-0.005803219974040985,0.028405234217643738,0.02733621932566166,-30.809703826904297,64.46945190429688,-43.84682846069336
0.4,3.676571846008301,-8.621339797973633,2.4813568592071533,0.05054909735918045,-0.010079275816679,0.024434609338641167,-30.882781982421875,64.77638244628906,-43.7445182800293
0.41,3.6813576221466064,-8.72662353515625,2.506481647491455,0.10476338863372803,-0.03634648025035858,0.023060161620378494,-30.868165969848633,64.58638000488281,-44.10990905761719
0.42,3.641875982284546,-8.805586814880371,2.449054002761841,0.14645493030548096,-0.05574145168066025,0.0138971833512187,-31.014324188232422,64.26483154296875,-43.61297607421875
0.44,3.6287152767181396,-8.877371788024902,2.2193429470062256,0.19608773291110992,-0.08078692108392715,-0.003512475173920393,-30.619701385498047,64.55714416503906,-43.802982330322266
0.443,3.507877826690674,-9.1776704788208,1.8783657550811768,0.2588541507720947,-0.10522153228521347,-0.016951510682702065,-30.809703826904297,64.76176452636719,-44.12452697753906
0.45,3.3499515056610107,-9.291330337524414,1.810170292854309,0.279928982257843,-0.1088867262005806,-0.023518310859799385,-30.795087814331055,64.87869262695312,-44.51914596557617
0.46,3.0556344985961914,-9.287740707397461,1.832902193069458,0.2638937830924988,-0.06765332818031311,-0.032070424407720566,-30.678165435791016,64.92253875732422,-43.86144256591797
0.47,2.895315170288086,-9.19322395324707,1.8927226066589355,0.194713294506073,0.0029016099870204926,-0.04734205827116966,-30.795087814331055,64.26483154296875,-45.162235260009766
0.48,2.7864418029785156,-9.059226036071777,1.86520516872406,0.09483683109283447,0.05115996673703194,-0.07391469925642014,-30.590471267700195,64.90792083740234,-44.38760757446289
0.5,2.7529425621032715,-8.98385238647461,1.765903115272522,-0.0032070425804704428,0.0731511116027832,-0.07635815441608429,-31.08740234375,64.44022369384766,-45.191463470458984
0.504,2.9970104694366455,-9.165706634521484,2.029113531112671,-0.08185594528913498,0.044745877385139465,-0.029016099870204926,-30.970474243164062,64.55714416503906,-44.13914108276367
0.51,3.208775043487549,-9.257830619812012,2.1200408935546875,-0.09804386645555496,0.026419920846819878,-0.010842857882380486,-30.590471267700195,64.42560577392578,-45.176849365234375
0.52,3.5294132232666016,-9.340383529663086,2.0997018814086914,-0.09896016865968704,-0.016951510682702065,0.01038470957428217,-30.517393112182617,64.7909927368164,-44.89915466308594
0.53,3.6741790771484375,-9.346364974975586,2.124826431274414,-0.06887505203485489,-0.05451972037553787,0.01878410577774048,-30.45893096923828,64.73253631591797,-44.19760513305664
0.54,3.6777684688568115,-9.20758056640625,2.2719850540161133,-0.04535674676299095,-0.04718933627009392,0.005650503095239401,-31.175094604492188,64.27944946289062,-44.24144744873047
0.559,3.4947173595428467,-8.963513374328613,2.2325034141540527,-0.058795779943466187,0.08231408894062042,-0.076052725315094,-31.248172760009766,65.25869750976562,-44.577606201171875
0.563,3.266202688217163,-8.769694328308105,2.210968017578125,-0.06139195337891579,0.10491610318422318,-0.0832303911447525,-31.306636810302734,64.42560577392578,-44.38760757446289
0.57,3.0891339778900146,-8.654839515686035,2.080559253692627,-0.06490442901849747,0.16401731967926025,-0.10293079167604446,-31.262788772583008,64.14791107177734,-44.051448822021484
0.58,2.994617462158203,-8.61894702911377,2.0398812294006348,-0.058795779943466187,0.22311851382255554,-0.11087203770875931,-31.233558654785156,64.4109878540039,-44.022212982177734
0.59,3.1142585277557373,-8.713462829589844,2.179861307144165,-0.0786488950252533,0.2047925740480423,-0.08964447677135468,-30.91201400756836,64.80561828613281,-44.022212982177734
0.6,3.476771354675293,-8.8438720703125,2.2085752487182617,-0.09758572280406952,0.1241583600640297,-0.04596760869026184,-31.65740966796875,64.55714416503906,-44.182987213134766
0.619,3.7902309894561768,-8.939584732055664,2.4335005283355713,-0.08994990587234497,-0.08414668589830399,0.09498954564332962,-31.072786331176758,65.0102310180664,-43.3645133972168
0.622,3.8153557777404785,-8.886942863464355,2.589033842086792,-0.09300423413515091,-0.1010981947183609,0.1134682148694992,-31.072786331176758,64.4109878540039,-43.83221435546875
0.63,3.7603206634521484,-8.965906143188477,2.778066873550415,-0.10644327104091644,-0.12690724432468414,0.1589776873588562,-31.277402877807617,64.3379135131836,-44.13914108276367
0.64,3.786641836166382,-8.915657043457031,2.5674986839294434,-0.14614950120449066,-0.09911288321018219,0.2025018185377121,-30.707395553588867,64.58638000488281,-44.12452697753906
0.65,4.104887008666992,-8.72782039642334,2.242074728012085,-0.11560624837875366,-0.06032294034957886,0.21991148591041565,-30.751243591308594,64.48406982421875,-43.89067459106445
0.66,4.281955718994141,-8.525627136230469,2.3186450004577637,-0.08643742650747299,-0.10201448947191238,0.2070833146572113,-30.765857696533203,64.65946197509766,-44.182987213134766
0.68,4.204189300537109,-8.553144454956055,2.080559253692627,0.0088575454428792,-0.24862214922904968,0.15561792254447937,-29.961999893188477,64.77638244628906,-44.0806770324707
0.683,4.137190341949463,-8.58903694152832,2.042273998260498,0.06673702597618103,-0.28069257736206055,0.14309518039226532,-30.400466918945312,64.39637756347656,-43.6422119140625
0.69,3.9397823810577393,-8.811569213867188,2.0853447914123535,0.15302173793315887,-0.3286454975605011,0.12812897562980652,-29.538145065307617,64.23560333251953,-44.21221923828125
0.7,3.4743783473968506,-9.132206916809082,2.3736801147460938,0.22861631214618683,-0.3539963960647583,0.11484266072511673,-30.137386322021484,64.96638488769531,-43.34989929199219
0.71,2.8833510875701904,-9.135796546936035,2.4646072387695312,0.25564709305763245,-0.26251932978630066,0.08933904021978378,-29.80122947692871,64.38175964355469,-43.94913864135742
0.72,2.561516523361206,-9.047262191772461,2.359323024749756,0.2554943859577179,-0.09086620807647705,0.052228979766368866,-30.035078048706055,64.13329315185547,-44.007598876953125
0.732,2.3952155113220215,-8.96949577331543,2.1092729568481445,0.2522873282432556,0.08002334833145142,0.006872233934700489,-30.239694595336914,64.4109878540039,-43.7445182800293
0.74,2.352144718170166,-8.925228118896484,1.9489539861679077,0.2597704529762268,0.13286319375038147,-0.00427605677396059,-29.7281494140625,64.64484405517578,-44.182987213134766
0.75,2.389233350753784,-8.932406425476074,1.810170292854309,0.27061331272125244,0.1345430612564087,0.009773843921720982,-30.254310607910156,63.899444580078125,-44.51914596557617
0.76,2.5974087715148926,-8.915657043457031,1.9106688499450684,0.24785856902599335,0.1111774668097496,0.043676864355802536,-30.07892417907715,64.68869018554688,-45.556854248046875
0.77,2.888136863708496,-8.811569213867188,1.9190436601638794,0.1966986060142517,0.1270599663257599,0.09529497474431992,-29.698917388916016,64.46945190429688,-45.52762222290039
0.78,3.5222346782684326,-8.755337715148926,2.218146562576294,0.12232576310634613,0.1814269870519638,0.1443169116973877,-29.859689712524414,64.00175476074219,-45.717628479003906
0.793,4.387239933013916,-8.532805442810059,2.3270199298858643,0.009926560334861279,0.22602012753486633,0.168751522898674,-29.523530960083008,64.23560333251953,-45.8199348449707
0.8,4.864608287811279,-8.316254615783691,2.355733871459961,-0.0029016099870204926,0.23854286968708038,0.16325373947620392,-30.181232452392578,64.14791107177734,-46.03916931152344
0.81,5.113461494445801,-8.134400367736816,2.3473589420318604,0.023976460099220276,0.26679539680480957,0.15134187042713165,-29.523530960083008,64.00175476074219,-46.375328063964844
0.82,5.375475883483887,-7.974081039428711,2.2959132194519043,0.08002334833145142,0.2828305959701538,0.1319468915462494,-29.391992568969727,64.57176208496094,-45.995323181152344
0.83,5.515455722808838,-7.816154956817627,2.0003998279571533,0.1748601794242859,0.2635883390903473,0.11514809727668762,-29.28968048095703,63.870216369628906,-46.08301544189453
0.85,5.480760097503662,-7.84127950668335,1.7527425289154053,0.3022255599498749,0.21059578657150269,0.08643742650747299,-29.435836791992188,63.92867660522461,-47.1207275390625
0.854,5.341976165771484,-8.078168869018555,1.6414762735366821,0.4363104999065399,0.023976460099220276,0.04764748737215996,-29.669687271118164,64.5133056640625,-46.901493072509766
0.86,5.078765869140625,-8.175078392028809,1.588834285736084,0.46899178624153137,-0.05696318298578262,0.032070424407720566,-29.15814208984375,64.36714172363281,-46.65302658081055
0.87,4.529613018035889,-8.263612747192383,1.4069796800613403,0.5119050741195679,-0.11087203770875931,0.016340645030140877,-29.172758102416992,64.36714172363281,-46.81379699707031
0.88,3.9972100257873535,-8.58903694152832,1.530210018157959,0.5283983945846558,-0.09758572280406952,-0.005345070734620094,-29.172758102416992,64.58638000488281,-46.682254791259766
0.89,3.544966459274292,-8.842676162719727,1.499103307723999,0.4859433174133301,-0.04856378585100174,-0.003817907767370343,-29.041215896606445,64.82022857666016,-47.63227081298828
0.909,3.2554352283477783,-9.010172843933105,1.4859428405761719,0.33597588539123535,0.03497203439474106,0.055894169956445694,-29.231218338012695,64.42560577392578,-47.89535140991211
0.912,3.1274189949035645,-9.113064765930176,1.56969153881073,0.29535335302352905,0.0277943667024374,0.08643742650747299,-28.588130950927734,64.98100280761719,-47.89535140991211
0.92,3.115455150604248,-9.042476654052734,1.4847464561462402,0.2535090744495392,0.006719517521560192,0.13698652386665344,-28.71967315673828,65.21485137939453,-48.24612808227539
0.93,3.3068807125091553,-8.993423461914062,1.4620145559310913,0.24465152621269226,-0.051770828664302826,0.2099849283695221,-29.041215896606445,65.02484893798828,-48.34843444824219
0.94,3.5150563716888428,-8.964709281921387,1.5960125923156738,0.26633724570274353,-0.1345430612564087,0.26832255721092224,-28.588130950927734,65.20023345947266,-48.5384407043457
0.95,3.5952160358428955,-8.95274543762207,1.7706886529922485,0.29993483424186707,-0.15561792254447937,0.3075706362724304,-28.383514404296875,65.56562042236328,-48.406898498535156
0.969,3.5270204544067383,-8.787640571594238,2.043470621109009,0.2977968156337738,-0.016340645030140877,0.27488934993743896,-27.930429458618164,65.50716400146484,-48.2607421875
0.973,3.4504499435424805,-8.499305725097656,2.032702684402466,0.294895201921463,0.035124752670526505,0.2548835277557373,-27.842735290527344,65.4779281616211,-48.36305236816406
0.98,3.4061830043792725,-8.34736156463623,2.159522294998169,0.29657506942749023,0.10705412924289703,0.22159136831760406,-27.828121185302734,65.4779281616211,-48.77228546142578
0.99,3.3750762939453125,-8.053044319152832,2.2360928058624268,0.2883284091949463,0.18860463798046112,0.19578230381011963,-28.222742080688477,65.71177673339844,-48.026893615722656
1.0,3.5090742111206055,-7.920242786407471,2.1188442707061768,0.31551188230514526,0.21639901399612427,0.19456057250499725,-27.842735290527344,65.8140869140625,-49.035369873046875
1.01,3.7471601963043213,-8.306683540344238,2.1786649227142334,0.36422839760780334,0.15836679935455322,0.22143864631652832,-27.594270706176758,65.71177673339844,-48.07073974609375
1.029,3.669393539428711,-8.935996055603027,2.589033842086792,0.45265114307403564,0.05925392732024193,0.25213462114334106,-27.784273147583008,66.22332763671875,-49.035369873046875
1.033,3.5784661769866943,-8.918049812316895,2.6727828979492188,0.45524731278419495,0.06444628536701202,0.24694228172302246,-27.813507080078125,65.94563293457031,-49.035369873046875
1.04,3.359522819519043,-8.790033340454102,2.825923442840576,0.44486260414123535,0.10751228034496307,0.22968532145023346,-27.97427749633789,65.8140869140625,-48.52382278442383
1.05,3.095116138458252,-8.536395072937012,2.93001127243042,0.38041630387306213,0.23518311977386475,0.1794416606426239,-27.652734756469727,65.84332275390625,-49.18152618408203
1.06,2.891726016998291,-8.274380683898926,2.757727861404419,0.3439171314239502,0.3315471112728119,0.13301590085029602,-27.535808563232422,65.41946411132812,-49.576148986816406
1.07,2.772084951400757,-8.207381248474121,2.744567632675171,0.3315471112728119,0.3911064863204956,0.1014036312699318,-27.740427017211914,65.6533203125,-49.839229583740234
1.09,2.489731788635254,-8.724230766296387,2.744567632675171,0.3882048726081848,0.45952337980270386,0.11743884533643723,-27.24349594116211,65.74100494384766,-49.32768249511719
1.093,2.4179470539093018,-8.752944946289062,2.74337100982666,0.4098905920982361,0.47968190908432007,0.13408491015434265,-27.345806121826172,66.13563537597656,-50.01461410522461
1.1,2.2444677352905273,-8.806783676147461,2.854637384414673,0.4311181306838989,0.5053382515907288,0.16065755486488342,-27.857351303100586,65.6971664428711,-50.21923065185547
1.11,2.0961124897003174,-8.855835914611816,2.99222469329834,0.43417245149612427,0.5258022546768188,0.20433442294597626,-27.462730407714844,65.78485870361328,-51.05232620239258
1.12,1.9657037258148193,-8.970691680908203,3.0448665618896484,0.42500948905944824,0.5149593949317932,0.2356412708759308,-27.491960525512695,65.74100494384766,-50.526161193847656
1.138,2.053041696548462,-9.156135559082031,2.9527430534362793,0.41951167583465576,0.49128836393356323,0.2684752643108368,-27.594270706176758,65.68254852294922,-51.476173400878906
1.142,2.289931058883667,-9.531808853149414,2.9802606105804443,0.4124867618083954,0.5065600275993347,0.32070425152778625,-26.98041534423828,65.72639465332031,-51.198482513427734
1.15,2.6153552532196045,-9.687341690063477,3.1441688537597656,0.3646865487098694,0.5519167184829712,0.3530800938606262,-27.62350082397461,65.88716125488281,-51.06694030761719
1.16,3.194417953491211,-9.723234176635742,3.022134780883789,0.2177734524011612,0.6449209451675415,0.38866299390792847,-26.98041534423828,66.194091796875,-51.3592529296875
1.17,3.8979079723358154,-9.622735977172852,2.9659035205841064,0.07727444916963577,0.7171558141708374,0.3878994286060333,-26.33732795715332,65.58023834228516,-51.505409240722656
1.18,4.753342151641846,-9.538987159729004,3.489931583404541,-0.10797043144702911,0.7651087045669556,0.36331209540367126,-26.60040855407715,65.8140869140625,-51.12540054321289
1.19,5.9090752601623535,-9.756733894348145,4.0211381912231445,-0.2981022298336029,0.739757776260376,0.3712533414363861,-26.49810028076172,65.94563293457031,-51.30078887939453
1.203,7.765905857086182,-11.033304214477539,4.186243057250977,-0.35842517018318176,0.5679519176483154,0.41951167583465576,-25.986553192138672,65.94563293457031,-51.0815544128418
1.21,8.4502534866333,-11.497512817382812,4.2245283126831055,-0.27229318022727966,0.4207334518432617,0.46364670991897583,-25.665008544921875,65.75563049316406,-50.39461898803711
1.22,8.608179092407227,-12.031111717224121,4.542773723602295,-0.08414668589830399,0.17318028211593628,0.4492913782596588,-25.78193473815918,65.6971664428711,-50.20461654663086
1.23,7.466803073883057,-11.026126861572266,3.7112677097320557,0.13439035415649414,0.09056076407432556,0.2477058470249176,-25.548086166381836,66.13563537597656,-49.766151428222656
1.24,6.7070817947387695,-9.888339042663574,1.7036895751953125,0.42684206366539,0.1241583600640297,-0.024434609338641167,-25.50423812866211,65.50716400146484,-50.365386962890625
1.259,6.634100437164307,-9.990034103393555,0.20817556977272034,0.7324274182319641,0.029016099870204926,-0.2370157092809677,-25.665008544921875,66.06256103515625,-50.65769958496094
1.263,5.864808082580566,-11.846864700317383,-0.23808583617210388,0.6777549982070923,-0.5296201705932617,-0.35124751925468445,-26.571178436279297,65.68254852294922,-51.95848846435547
1.27,4.821537494659424,-12.958330154418945,0.1411765217781067,0.33735033869743347,-0.7093672156333923,-0.32528576254844666,-26.264249801635742,65.62408447265625,-50.964630126953125
1.28,2.902493953704834,-13.917853355407715,1.0085747241973877,-0.2817615866661072,-0.5682573914527893,-0.3182607889175415,-26.483484268188477,65.28793334960938,-52.16311264038086
1.29,1.9178473949432373,-13.970494270324707,1.6929219961166382,-0.8578075170516968,-0.029016099870204926,-0.3536909520626068,-26.702720642089844,65.55101013183594,-51.02309036254883
1.3,2.9180471897125244,-13.00259780883789,1.5912269353866577,-1.302364706993103,0.4360050857067108,-0.3874412775039673,-27.769657135009766,65.3902359008789,-50.2776985168457
1.32,4.380061626434326,-11.422138214111328,1.0217353105545044,-1.6129896640777588,0.3911064863204956,-0.38637226819992065,-28.13504981994629,65.36100769042969,-48.75767135620117
1.323,5.126622676849365,-9.328418731689453,-0.0131605239585042,-1.698510766029358,0.08506298810243607,-0.43508875370025635,-27.988893508911133,65.0979232788086,-47.661502838134766
1.33,5.411368370056152,-8.639286041259766,-0.50129634141922,-1.711033582687378,-0.08979719132184982,-0.48349982500076294,-28.1496639251709,64.48406982421875,-47.64688491821289
1.34,5.553741455078125,-8.068597793579102,-0.9846464395523071,-1.7650951147079468,-0.2915354371070862,-0.5670356750488281,-28.354280471801758,64.86407470703125,-46.63841247558594
1.35,5.606383323669434,-7.732406139373779,-0.8075776100158691,-1.9201021194458008,-0.46593746542930603,-0.688292384147644,-28.83659553527832,65.14176940917969,-45.761470794677734
1.36,5.273780822753906,-7.302894115447998,-0.2189432680606842,-2.193769693374634,-0.6739370822906494,-0.8633052706718445,-29.09967803955078,64.5133056640625,-43.802982330322266
1.379,4.521238327026367,-6.882954120635986,0.30508488416671753,-2.3599250316619873,-0.8411614298820496,-0.9915869832038879,-30.42970085144043,64.674072265625,-41.56679153442383
1.383,3.506681442260742,-6.805187702178955,0.6616154909133911,-2.414750099182129,-0.9877691268920898,-1.1757628917694092,-30.809703826904297,64.20637512207031,-40.952938079833984
1.39,3.0448665618896484,-6.9822564125061035,0.9810572266578674,-2.3663392066955566,-1.017396092414856,-1.2776246070861816,-31.05817222595215,63.709442138671875,-39.75445556640625
1.4,2.6153552532196045,-7.660621643066406,1.576870083808899,-2.20583438873291,-0.9831876158714294,-1.3782646656036377,-31.964338302612305,63.12481689453125,-38.658287048339844
1.41,2.431107759475708,-8.925228118896484,2.128415822982788,-1.9802724123001099,-0.8698720932006836,-1.4330898523330688,-32.943580627441406,62.20403289794922,-37.51826858520508
1.42,2.7517459392547607,-9.780662536621094,2.4047865867614746,-1.6042847633361816,-0.8538368940353394,-1.3859004974365234,-33.572052001953125,62.46711730957031,-37.15288162231445
1.44,2.142772674560547,-11.357532501220703,2.96111798286438,-1.1505646705627441,-0.8098545670509338,-1.1746938228607178,-34.682838439941406,60.91786193847656,-35.325927734375
1.444,1.8448662757873535,-12.001201629638672,2.5746772289276123,-1.0960450172424316,-0.7273877859115601,-1.1308642625808716,-34.785152435302734,60.771705627441406,-35.41362380981445
1.45,1.9381862878799438,-12.197413444519043,2.0410776138305664,-1.0227410793304443,-0.6479753255844116,-1.100168228149414,-35.04823303222656,60.55247116088867,-34.37591552734375
1.46,1.8472589254379272,-13.166505813598633,1.4955140352249146,-0.8480336666107178,-0.5400048494338989,-1.0438159704208374,-36.159019470214844,59.95323181152344,-33.922828674316406
1.47,1.7682960033416748,-13.663016319274902,1.6677974462509155,-0.8553640842437744,-0.32818731665611267,-0.9555459022521973,-36.422096252441406,59.60245895385742,-33.352821350097656
1.48,1.8293129205703735,-13.255041122436523,1.8233308792114258,-1.0447322130203247,-0.14416420459747314,-0.9604328870773315,-37.22595977783203,58.842445373535156,-33.74744415283203
1.5,3.071187734603882,-10.388439178466797,1.2562319040298462,-1.2651019096374512,-0.034666601568460464,-0.9216429591178894,-38.70213317871094,58.08243179321289,-31.847414016723633
1.504,3.3367910385131836,-9.797411918640137,1.1461620330810547,-1.2144001722335815,-0.11774427443742752,-0.861930787563324,-39.140602111816406,57.760887145996094,-31.905874252319336
1.51,3.376272678375244,-9.418149948120117,1.0791629552841187,-1.133307695388794,-0.2557998299598694,-0.8153523802757263,-39.69599533081055,57.77550506591797,-31.64279556274414
1.52,3.4372897148132324,-8.935996055603027,1.117448091506958,-0.9445503950119019,-0.5166392922401428,-0.721737265586853,-40.09061813354492,57.337032318115234,-30.137386322021484
1.53,3.13938307762146,-8.659625053405762,1.332802176475525,-0.8953757286071777,-0.6256787180900574,-0.6635523438453674,-40.397544860839844,57.08857345581055,-29.669687271118164
1.54,2.761317014694214,-8.46341323852539,1.4811570644378662,-0.9376780986785889,-0.697149932384491,-0.6629414558410645,-40.67523956298828,56.387020111083984,-29.28968048095703
1.553,2.031506299972534,-8.053044319152832,1.7264214754104614,-1.0239628553390503,-0.6337726712226868,-0.7023422718048096,-40.63139724731445,56.021629333496094,-28.71967315673828
1.56,1.8269200325012207,-7.599604606628418,1.6510475873947144,-1.0390818119049072,-0.5574145317077637,-0.7142542004585266,-40.79216766357422,56.16778564453125,-27.959659576416016
1.57,1.566102385520935,-7.082754611968994,1.4009976387023926,-0.9393580555915833,-0.43020185828208923,-0.7141014933586121,-40.80678176879883,56.2993278503418,-27.52119255065918
1.58,1.4632110595703125,-6.661618232727051,0.9690931439399719,-0.7730499505996704,-0.2848159074783325,-0.6921103000640869,-41.25986862182617,56.05086135864258,-27.62350082397461
1.59,1.377069354057312,-6.740581512451172,0.9487541317939758,-0.5969680547714233,-0.08781187981367111,-0.6801984310150146,-41.727561950683594,55.743934631347656,-26.61502456665039
1.61,1.9154545068740845,-6.989434719085693,0.9451649785041809,-0.4908302128314972,0.01970040239393711,-0.6688974499702454,-41.46448516845703,55.378543853759766,-25.825780868530273
1.613,1.8783657550811768,-7.2394843101501465,0.5383850932121277,-0.37400221824645996,0.11530081182718277,-0.6359107494354248,-42.01987838745117,54.99854278564453,-26.278865814208984
1.62,1.9298113584518433,-7.494320392608643,0.3840480148792267,-0.3240639865398407,0.20326539874076843,-0.6308711171150208,-42.09295654296875,55.30546951293945,-26.118093490600586
1.63,2.249253273010254,-7.93459939956665,0.2667997181415558,-0.27901268005371094,0.2981022298336029,-0.6374378800392151,-42.282955169677734,55.04238510131836,-26.32271385192871
1.64,2.530409812927246,-8.173882484436035,0.11964112520217896,-0.2509129047393799,0.40973785519599915,-0.6262896060943604,-41.712947845458984,54.35545349121094,-25.650394439697266
1.65,2.6727828979492188,-8.12961483001709,0.16510476171970367,-0.22739459574222565,0.5335907936096191,-0.6020076870918274,-42.063724517822266,54.75007247924805,-25.270387649536133
1.669,2.7601208686828613,-7.82572603225708,0.2667997181415558,-0.2093740552663803,0.6556111574172974,-0.5882632732391357,-43.30604934692383,54.54545593261719,-25.22654151916504
1.673,2.994617462158203,-6.961917400360107,0.40319061279296875,-0.16890422999858856,0.7290676236152649,-0.5757404565811157,-43.30604934692383,54.10698699951172,-25.577316284179688
1.68,3.06999135017395,-6.635296821594238,0.5455635190010071,-0.13805553317070007,0.6881397366523743,-0.56810462474823,-43.627593994140625,53.77082824707031,-25.168079376220703
1.69,3.0687947273254395,-6.258427619934082,0.8877371549606323,-0.1134682148694992,0.6221662163734436,-0.5474879741668701,-43.6422119140625,53.77082824707031,-24.94884490966797
1.7,3.2279176712036133,-5.821736812591553,0.9260223507881165,-0.11484266072511673,0.5972734689712524,-0.478765606880188,-44.372989654541016,53.05466079711914,-24.86115074157715
1.71,3.346362352371216,-5.449653625488281,0.7166503667831421,-0.08994990587234497,0.5334380269050598,-0.35475999116897583,-44.621456146240234,53.317745208740234,-25.635778427124023
1.73,3.748356580734253,-5.264209270477295,0.7262216210365295,0.010690141469240189,0.37369680404663086,-0.16783522069454193,-44.811458587646484,53.025428771972656,-25.942707061767578
1.733,4.319044589996338,-5.449653625488281,0.36610186100006104,0.16081027686595917,0.1892155110836029,0.0858265683054924,-44.72376251220703,53.05466079711914,-25.475008010864258
1.74,4.5200419425964355,-5.724828243255615,0.2069791555404663,0.2681698203086853,0.12034045159816742,0.23136521875858307,-45.07453918457031,53.332359313964844,-25.635778427124023
1.75,4.934000015258789,-6.116054534912109,-0.13639087975025177,0.39446622133255005,0.030237827450037003,0.3914119005203247,-44.70914840698242,53.04004669189453,-25.89885902404785
1.76,5.401796817779541,-6.527620315551758,-0.8398807048797607,0.5490151047706604,-0.008399397134780884,0.5041165351867676,-44.562992095947266,53.71236038208008,-25.41654396057129
1.77,5.821736812591553,-6.884150981903076,-1.246660590171814,0.7189883589744568,-0.0018325956771150231,0.5656611919403076,-44.022212982177734,53.46390151977539,-26.205787658691406
1.79,6.2321062088012695,-7.214360237121582,-1.3363914489746094,0.8272642493247986,0.015271631069481373,0.5618432760238647,-43.33528137207031,53.1569709777832,-26.61502456665039
1.793,6.872186183929443,-7.8556365966796875,-1.9154545068740845,0.6688974499702454,0.037110064178705215,0.4749477207660675,-43.876060485839844,53.829288482666016,-26.556564331054688
1.8,7.204788684844971,-8.306683540344238,-3.043670415878296,0.461355984210968,0.13408491015434265,0.39935314655303955,-43.496055603027344,54.18006134033203,-27.126571655273438
1.81,7.680960178375244,-8.939584732055664,-4.573880195617676,0.20128010213375092,0.45753806829452515,0.29077184200286865,-43.40835952758789,53.93159866333008,-27.111955642700195
1.82,8.888139724731445,-9.621540069580078,-5.452045917510986,0.06215553730726242,0.9233227968215942,0.14966197311878204,-43.77375030517578,53.653900146484375,-27.126571655273438
1.83,10.578668594360352,-10.326226234436035,-4.924428939819336,0.05115996673703194,1.247692346572876,-0.14187344908714294,-43.59836196899414,54.048526763916016,-27.842735290527344
1.849,12.885350227355957,-10.691131591796875,-2.796013355255127,0.013439035043120384,0.23258693516254425,-0.6247624158859253,-44.811458587646484,53.50774383544922,-27.871967315673828
1.853,12.800403594970703,-9.731609344482422,-2.2540388107299805,0.009926560334861279,0.05467243865132332,-0.6556111574172974,-44.50453186035156,53.72698211669922,-28.383514404296875
1.86,11.759527206420898,-9.150154113769531,-2.660818576812744,-0.006261368282139301,-0.32498031854629517,-0.6759223937988281,-44.85530471801758,53.55158996582031,-27.565038681030273
1.87,9.850053787231445,-8.98385238647461,-2.857030153274536,-0.0607810914516449,-0.5077817440032959,-0.623235285282135,-45.132999420166016,53.04004669189453,-27.258113861083984
1.88,8.139185905456543,-9.127422332763672,-2.4358932971954346,-0.10430524498224258,-0.6933320164680481,-0.6281222105026245,-45.235313415527344,52.77696990966797,-26.99502944946289
1.89,6.577868938446045,-9.10110092163086,-2.194218397140503,-0.07895433157682419,-0.8370380997657776,-0.6148358583450317,-44.636070251464844,52.718502044677734,-27.258113861083984
1.906,5.157729148864746,-8.955138206481934,-1.306481122970581,0.03237585723400116,-1.014647126197815,-0.5615379214286804,-45.07453918457031,52.80619812011719,-27.886581420898438
1.91,4.700699806213379,-8.908477783203125,-0.4989035129547119,0.03436116874217987,-1.0306823253631592,-0.5484042763710022,-44.84069061279297,52.484657287597656,-27.009645462036133
1.92,4.036691665649414,-9.869196891784668,0.34695929288864136,0.0039706239476799965,-1.0659598112106323,-0.4590652287006378,-45.132999420166016,52.61619567871094,-27.4481143951416
1.93,3.6538400650024414,-12.268001556396484,0.15553347766399384,0.028557950630784035,-1.1820242404937744,-0.2356412708759308,-45.30839157104492,52.57234573364258,-26.571178436279297
1.94,3.3678977489471436,-16.369298934936523,-2.282752752304077,0.21273382008075714,-1.3333660364151,-0.04657847434282303,-44.41683578491211,52.733116149902344,-26.43963623046875
1.95,3.032902479171753,-17.81336784362793,-1.8041881322860718,0.36163219809532166,-1.356884479522705,0.13668109476566315,-44.19760513305664,52.36772918701172,-27.331188201904297
1.966,0.3026920557022095,-12.044273376464844,2.060220241546631,-0.06750060617923737,-0.3631593883037567,0.18814648687839508,-43.466819763183594,52.499271392822266,-27.15580177307129
1.97,0.064606212079525,-9.531808853149414,2.926422119140625,-0.15485434234142303,-0.1976149082183838,0.17669276893138885,-43.17451095581055,52.44080352783203,-27.126571655273438
1.98,0.2679961323738098,-5.825326442718506,3.6634113788604736,-0.5859724879264832,0.31031954288482666,0.2171625941991806,-43.71529006958008,53.08388900756836,-27.126571655273438
1.99,0.1375872939825058,-4.01037073135376,1.9932211637496948,-0.7829765677452087,0.4717406630516052,0.35445454716682434,-43.15989685058594,52.0608024597168,-25.89885902404785
2.0,0.16510476171970367,-4.384847164154053,0.9355936050415039,-0.7614434957504272,0.5041165351867676,0.41920626163482666,-43.15989685058594,52.104644775390625,-25.548086166381836
2.019,1.4093725681304932,-6.478567123413086,1.200000524520874,-0.5910121202468872,0.3176499307155609,0.43417245149612427,-42.516807556152344,52.0608024597168,-25.50423812866211
2.023,3.0077779293060303,-9.132206916809082,2.8103702068328857,-0.45204025506973267,-0.4579961895942688,0.6012440919876099,-43.057586669921875,52.20695877075195,-25.270387649536133
2.03,3.0544381141662598,-10.235298156738281,3.273381233215332,-0.451123982667923,-0.88987797498703,0.7168503403663635,-42.239112854003906,52.0608024597168,-25.109615325927734
2.04,2.4011974334716797,-10.88853931427002,3.6466617584228516,-0.4433354437351227,-1.2124147415161133,0.8410086631774902,-42.063724517822266,52.25080108642578,-24.68576431274414
2.05,2.0267207622528076,-10.526025772094727,3.449253797531128,-0.3263547420501709,-1.1493428945541382,0.9456194043159485,-40.35369873046875,52.36772918701172,-24.422683715820312
2.06,2.3054845333099365,-10.159924507141113,3.1166512966156006,-0.09224064648151398,-0.9243918061256409,1.0033460855484009,-39.54983901977539,52.280033111572266,-24.071908950805664
2.079,2.851048231124878,-9.8931245803833,3.2997024059295654,0.1241583600640297,-0.8155050873756409,1.0077749490737915,-39.25752639770508,52.309268951416016,-24.583454132080078
2.083,3.644268751144409,-9.19442081451416,3.407379150390625,0.3075706362724304,-0.8052730560302734,1.020603060722351,-38.35136032104492,52.528499603271484,-23.355743408203125
2.09,3.8500516414642334,-8.999405860900879,3.401397228240967,0.38041630387306213,-0.8194757103919983,1.031598687171936,-38.468284606933594,52.96696853637695,-23.136510848999023
2.1,4.8119659423828125,-8.749356269836426,2.9527430534362793,0.4905247688293457,-0.9159923791885376,1.047175645828247,-37.81058120727539,53.639286041259766,-23.545745849609375
2.11,5.371886730194092,-8.382057189941406,2.5160529613494873,0.6505715250968933,-1.1661417484283447,1.056491494178772,-36.61210250854492,53.40544128417969,-24.086524963378906
2.12,5.714060306549072,-8.006383895874023,2.104487419128418,0.8326093554496765,-1.4227051734924316,1.0242682695388794,-35.57439422607422,53.5369758605957,-24.13037109375
2.139,5.889932632446289,-7.610372066497803,1.2023932933807373,1.0807733535766602,-1.6410894393920898,0.9758571982383728,-34.49283981323242,54.19468307495117,-25.40192985534668
2.143,5.277370452880859,-6.75374174118042,-0.11485548317432404,1.6685783863067627,-1.5097534656524658,0.9411906003952026,-34.2443733215332,54.282371520996094,-25.095001220703125
2.15,4.55354118347168,-6.363711833953857,-0.4737788736820221,2.0204367637634277,-1.1650727987289429,0.9071348309516907,-33.615901947021484,54.457759857177734,-26.05963134765625
2.16,2.84386944770813,-5.5453667640686035,-1.9142580032348633,2.523637056350708,-0.38179075717926025,0.7933611869812012,-32.78281021118164,55.261619567871094,-27.50657844543457
2.17,1.6749757528305054,-5.190032482147217,-2.9383859634399414,3.1584787368774414,1.2055425643920898,0.6517932415008545,-32.91435241699219,55.61239242553711,-29.011985778808594
2.18,2.1774685382843018,-6.825526237487793,-1.0169496536254883,3.2362112998962402,2.816088914871216,0.508087158203125,-32.88512420654297,56.211631774902344,-30.809703826904297
2.2,3.7160534858703613,-9.136992454528809,1.0528419017791748,2.146733045578003,4.00788688659668,0.21868975460529327,-33.49897384643555,57.68781280517578,-32.75358200073242
2.204,6.74656343460083,-10.89452075958252,1.3399806022644043,0.3152064383029938,3.707493782043457,-0.14156801998615265,-34.08360290527344,57.337032318115234,-33.162818908691406
2.21,8.297112464904785,-10.488937377929688,-0.33379876613616943,-0.48869219422340393,3.0201175212860107,-0.3248275816440582,-34.21514129638672,56.8985710144043,-33.64513397216797
2.22,8.419146537780762,-9.626324653625488,-2.2013967037200928,-0.8432994484901428,2.0764834880828857,-0.39385536313056946,-34.65361022949219,56.85471725463867,-32.242034912109375
2.23,8.110472679138184,-8.997013092041016,-2.6967110633850098,-0.5665775537490845,1.356731653213501,-0.3404046595096588,-35.16515350341797,56.65010070800781,-32.53434753417969
2.24,7.763513088226318,-8.72662353515625,-2.2743778228759766,-0.0138971833512187,0.42821651697158813,-0.22449298202991486,-35.925167083740234,56.75241470336914,-32.35895919799805
2.259,6.918846607208252,-8.199006080627441,-0.8446664214134216,0.3280346393585205,-0.9856310486793518,-0.05467243865132332,-35.939781188964844,56.76702880859375,-33.250511169433594
2.263,5.453242301940918,-7.482356548309326,-0.05982056260108948,0.34544429183006287,-1.1264355182647705,-0.04886921867728233,-36.31978988647461,56.75241470336914,-33.30897521972656
2.27,4.872982978820801,-7.3914289474487305,0.09810572117567062,0.4138611853122711,-1.4827226400375366,-0.030543262138962746,-35.58900833129883,56.737796783447266,-33.29435729980469
2.28,4.124029636383057,-7.3160552978515625,0.397208571434021,0.5036584138870239,-1.8095355033874512,-0.007788531482219696,-35.662086486816406,57.000877380371094,-33.48435974121094
2.29,3.5330023765563965,-7.245467185974121,0.7010970711708069,0.5761985778808594,-1.9422460794448853,0.00015271631127689034,-35.20900344848633,56.44548416137695,-32.56357955932617
2.3,3.212364435195923,-7.133004188537598,0.9511469602584839,0.6093380451202393,-1.8829920291900635,-0.005955935921519995,-34.741302490234375,56.927799224853516,-33.87898254394531
2.319,3.253042459487915,-7.308876991271973,1.3938192129135132,0.6655376553535461,-1.557706356048584,-0.08720101416110992,-34.30283737182617,57.22011184692383,-33.71821212768555
2.322,3.3200414180755615,-7.612764835357666,1.6007983684539795,0.6606507897377014,-1.5054773092269897,-0.09865473955869675,-34.59514617919922,57.03010559082031,-32.987430572509766
2.33,3.091526985168457,-7.981259346008301,1.6187443733215332,0.6204863786697388,-1.2515101432800293,-0.10674870014190674,-34.33206558227539,57.60011672973633,-32.89973831176758
2.34,2.7840490341186523,-8.246862411499023,1.0600204467773438,0.5905539989471436,-0.44135013222694397,-0.09789115190505981,-33.84975051879883,56.737796783447266,-34.142066955566406
2.35,3.2099714279174805,-8.877371788024902,1.215553879737854,0.5508477091789246,0.2727513313293457,-0.18219056725502014,-33.922828674316406,57.05934143066406,-34.346683502197266
2.36,3.424129009246826,-9.507880210876465,1.4021941423416138,0.36224305629730225,0.5798638463020325,-0.3539963960647583,-34.361297607421875,56.942413330078125,-35.296695709228516
2.379,2.0195422172546387,-9.81535816192627,-1.483549952507019,0.12812897562980652,1.3154982328414917,-0.5777257680892944,-34.37591552734375,56.97164535522461,-35.311309814453125
2.382,1.6941183805465698,-9.90149974822998,-2.0554347038269043,0.10674870014190674,1.3576478958129883,-0.5905539989471436,-35.03361511230469,56.913185119628906,-35.20900344848633
2.39,1.6462620496749878,-10.084550857543945,-2.0398812294006348,-0.058337628841400146,1.2974777221679688,-0.5496259927749634,-34.63899612426758,56.65010070800781,-35.296695709228516
2.4,1.2885348796844482,-9.227920532226562,-1.6737794876098633,-0.6093380451202393,0.6653849482536316,-0.3854559361934662,-35.22361755371094,57.16164779663086,-34.916690826416016
2.41,0.8566304445266724,-7.576872825622559,-2.0135602951049805,-0.8700248003005981,0.2548835277557373,-0.2669481039047241,-35.472084045410156,56.737796783447266,-34.2443733215332
2.428,1.1832507848739624,-6.485745429992676,-1.1665010452270508,-0.9373726844787598,-0.0010690141934901476,-0.19624045491218567,-35.69131851196289,56.620872497558594,-34.31745147705078
2.433,1.8436697721481323,-5.757131099700928,0.32662028074264526,-0.9503535628318787,-0.23487769067287445,-0.1739438772201538,-36.0274772644043,56.78164291381836,-34.05436706542969
2.44,2.0267207622528076,-5.423332214355469,0.6664010882377625,-0.898735523223877,-0.3425426781177521,-0.18768833577632904,-35.6036262512207,56.27009963989258,-32.85588836669922
2.45,2.334198474884033,-5.391029357910156,0.8626124858856201,-0.6934847235679626,-0.3982841372489929,-0.17211127281188965,-35.895938873291016,56.46010208129883,-33.39666748046875
2.46,2.9204399585723877,-6.269195556640625,1.2095718383789062,-0.4873177409172058,-0.3594941794872284,-0.09437867254018784,-36.115169525146484,56.007015228271484,-33.19205093383789
2.47,3.4983065128326416,-7.936992645263672,1.7204394340515137,-0.35414913296699524,-0.25564709305763245,0.015271631069481373,-36.451332092285156,56.05086135864258,-33.07512283325195
2.48,3.73041033744812,-9.588040351867676,1.7862420082092285,-0.28909197449684143,0.023976460099220276,0.09056076407432556,-35.79362487792969,56.03624725341797,-33.46974563598633
2.492,4.016352653503418,-10.838289260864258,2.1020946502685547,-0.27870726585388184,0.6473644375801086,0.1189659982919693,-36.20286560058594,56.16778564453125,-32.66588592529297
2.5,4.122833251953125,-10.78564739227295,2.6177480220794678,-0.42684206366539,1.042441487312317,0.11591167747974396,-36.20286560058594,55.89009094238281,-32.73896408081055
2.51,3.5365920066833496,-9.562914848327637,2.104487419128418,-0.6351471543312073,1.1533136367797852,0.07360926270484924,-36.290557861328125,55.23238754272461,-33.29435729980469
2.52,3.245863676071167,-8.518448829650879,1.2681959867477417,-0.7188356518745422,1.3290901184082031,0.09666942805051804,-35.76439666748047,55.378543853759766,-32.1689567565918
2.53,3.093919515609741,-7.87358283996582,0.8482555747032166,-0.7429648041725159,1.6281086206436157,0.17592918872833252,-35.95439910888672,55.378543853759766,-32.622039794921875
2.55,3.152543783187866,-7.550551891326904,0.8374878764152527,-0.7996225953102112,1.8440494537353516,0.21578815579414368,-36.50979232788086,55.51008605957031,-32.65127182006836
2.554,3.2817561626434326,-6.866204261779785,0.5934200286865234,-0.9327912330627441,1.9440785646438599,0.17043140530586243,-36.94826126098633,55.10084533691406,-31.978952407836914
2.56,3.335594892501831,-6.230910301208496,0.34695929288864136,-1.0141890048980713,2.049300193786621,0.09300423413515091,-37.34288024902344,55.01315689086914,-31.6281795501709
2.57,3.7531421184539795,-5.406582355499268,0.04307080805301666,-1.1232284307479858,2.2623393535614014,-0.07254024595022202,-37.35749816894531,54.8377685546875,-31.832796096801758
2.58,4.342973232269287,-4.955535411834717,-0.2392822504043579,-1.1769845485687256,2.284177780151367,-0.31001412868499756,-38.17597198486328,54.75007247924805,-31.350481033325195
2.59,4.3896331787109375,-5.211567401885986,-0.6879364848136902,-1.2081387042999268,2.532189130783081,-0.5661193132400513,-38.24905014038086,54.15083312988281,-31.379714965820312
2.61,5.3108696937561035,-6.512066841125488,0.037088751792907715,-1.5027284622192383,3.5048391819000244,-1.0305296182632446,-40.689857482910156,53.69774627685547,-31.145864486694336
2.613,8.141578674316406,-8.38564682006836,0.9762716293334961,-1.8522961139678955,3.4069480895996094,-1.3350459337234497,-41.449867248535156,53.25928497314453,-30.6489315032959
2.62,8.693124771118164,-8.6967134475708,0.3840480148792267,-1.8829920291900635,3.031266212463379,-1.2467758655548096,-42.75065612792969,52.937740325927734,-29.947385787963867
2.63,9.251848220825195,-8.767301559448242,-0.16749757528305054,-1.6537649631500244,2.29746413230896,-0.963792622089386,-43.247589111328125,52.513885498046875,-30.07892417907715
2.64,8.921639442443848,-8.432307243347168,-1.5361920595169067,-1.3141237497329712,1.4471397399902344,-0.6308711171150208,-43.817596435546875,51.973106384277344,-29.421222686767578
2.65,6.634100437164307,-7.586443901062012,-3.2829525470733643,-1.0563386678695679,0.44394633173942566,-0.25503623485565186,-44.29991149902344,51.81233215332031,-29.991230010986328
2.67,4.241277694702148,-5.123033046722412,-2.4538395404815674,-0.8168795108795166,-0.8759807348251343,-0.16783522069454193,-43.86144256591797,51.3592529296875,-29.71353530883789
2.673,3.7256245613098145,-4.508077621459961,-0.3888336718082428,-0.3404046595096588,-2.637868881225586,-0.13286319375038147,-43.59836196899414,51.914642333984375,-27.871967315673828
2.68,3.5473594665527344,-5.406582355499268,-0.07537391036748886,-0.18356500566005707,-3.297450304031372,-0.05451972037553787,-43.11604690551758,51.52002716064453,-28.456592559814453
2.69,3.988835334777832,-8.49332332611084,0.05982056260108948,-0.36880987882614136,-3.322343349456787,0.056352317333221436,-42.56065368652344,51.52002716064453,-27.287343978881836
2.7,5.161317825317383,-11.730812072753906,-0.1411765217781067,-1.0212138891220093,-2.383596181869507,-0.09819658100605011,-42.20988082885742,51.09617233276367,-27.185035705566406
2.71,7.799405097961426,-14.301900863647461,-0.2021934986114502,-1.226922869682312,-1.6629278659820557,-0.6111707091331482,-41.43525314331055,51.12540054321289,-26.61502456665039
2.729,14.181063652038574,-15.65863037109375,0.0203389935195446,-1.2255483865737915,0.5997169613838196,-1.7707456350326538,-42.73604202270508,50.07307434082031,-25.34346580505371
2.733,14.968301773071289,-14.534004211425781,-0.08853442966938019,-1.310916781425476,0.8907942175865173,-1.7902932167053223,-42.41449737548828,49.91230773925781,-24.714996337890625
2.74,14.389239311218262,-12.336196899414062,-1.0049854516983032,-1.5919147729873657,1.2428052425384521,-1.8054121732711792,-43.13066482543945,49.82461166381836,-24.627302169799805
2.75,12.020343780517578,-10.14795970916748,-4.00199556350708,-1.687667965888977,0.7956519722938538,-2.119091510772705,-43.802982330322266,48.81613540649414,-24.87576675415039
2.76,11.43529987335205,-10.0462646484375,-6.539583683013916,-1.280068039894104,-0.3897320032119751,-2.5560128688812256,-44.621456146240234,48.056121826171875,-23.604209899902344
2.77,10.384849548339844,-12.09093189239502,-5.582455158233643,-0.7573201656341553,-1.6911803483963013,-2.638174295425415,-45.001461029052734,47.64688491821289,-23.194971084594727
2.79,5.705685138702393,-13.197612762451172,-0.14835500717163086,-0.7913758754730225,-2.8872547149658203,-2.121229410171509,-45.8199348449707,45.732242584228516,-21.38263702392578
2.793,5.330012321472168,-13.284950256347656,0.4570291042327881,-0.9181304574012756,-2.7925703525543213,-1.9941695928573608,-45.717628479003906,45.98070526123047,-21.09032440185547
2.8,3.967299699783325,-13.584053039550781,0.6281159520149231,-0.9989173412322998,-2.590832233428955,-1.907121181488037,-45.95147705078125,45.4399299621582,-20.666471481323242
2.81,3.510270595550537,-14.184652328491211,0.259621262550354,-0.8533787131309509,-2.054797887802124,-1.6966781616210938,-45.366851806640625,44.97222900390625,-19.74568748474121
2.82,2.709871768951416,-15.237493515014648,-0.35533416271209717,-0.6724098920822144,-1.6461291313171387,-1.4886785745620728,-45.64455032348633,44.89915466308594,-19.307220458984375
2.83,1.0683952569961548,-16.108482360839844,-0.9798608422279358,-0.7154759168624878,-0.9472992420196533,-1.326035737991333,-45.58608627319336,43.876060485839844,-18.91259765625
2.843,0.6867400407791138,-15.437294960021973,-0.989432156085968,-1.1178834438323975,-0.14004085958003998,-1.305266261100769,-46.097633361816406,43.20374298095703,-18.240280151367188
2.85,0.9391828775405884,-13.738390922546387,-0.7812565565109253,-1.3161091804504395,0.01725694164633751,-1.4074335098266602,-46.1414794921875,42.823734283447266,-17.129493713378906
2.86,2.544766664505005,-11.26062297821045,-0.44267216324806213,-1.4077389240264893,0.18081609904766083,-1.663691520690918,-46.755332946777344,42.312191009521484,-16.924875259399414
2.87,5.460421085357666,-8.414360046386719,0.5060819387435913,-1.4743232727050781,0.46792274713516235,-1.6893478631973267,-46.916107177734375,41.05524826049805,-16.208711624145508
2.88,6.977470874786377,-6.844669342041016,0.672383189201355,-1.5149458646774292,0.6992879509925842,-1.5416711568832397,-47.76381301879883,40.879859924316406,-15.945630073547363
2.89,7.776673316955566,-5.949753284454346,-0.0203389935195446,-1.4721851348876953,0.6426302194595337,-1.2162326574325562,-48.31920623779297,39.8859977722168,-15.711779594421387
2.904,6.436692714691162,-5.108675956726074,-2.1104695796966553,-1.096961259841919,0.2292271852493286,-0.5719225406646729,-49.035369873046875,38.1028938293457,-14.527915000915527
2.91,5.666203498840332,-4.882554531097412,-2.434696912765503,-0.8196284174919128,-0.02825251594185829,-0.2871066629886627,-49.15229415893555,38.30751037597656,-14.469453811645508
2.92,3.542573928833008,-3.8500516414642334,-2.7110679149627686,-0.4740314185619354,-0.4156937897205353,0.035582900047302246,-49.13768005371094,38.395206451416016,-13.797135353088379
2.93,2.139183282852173,-2.8582265377044678,-2.362912178039551,-0.166460782289505,-0.751669704914093,0.2915354371070862,-48.9184455871582,38.395206451416016,-14.001753807067871
2.94,1.1270194053649902,-2.121237277984619,-1.8448662757873535,0.13301590085029602,-0.9161451458930969,0.5335907936096191,-48.289974212646484,38.570594787597656,-13.373282432556152
2.96,0.592223584651947,-1.7288143634796143,-1.1150553226470947,0.43249258399009705,-0.9517279863357544,0.7791586518287659,-47.661502838134766,38.38058853149414,-13.607131958007812
2.964,-0.15672987699508667,-1.4787644147872925,0.12681959569454193,0.7794640064239502,-0.8097019195556641,1.107040524482727,-47.57380676269531,39.5059928894043,-13.256357192993164
2.97,-0.2991028130054474,-1.5780664682388306,0.7094718813896179,0.8802568316459656,-0.6577491164207458,1.2255483865737915,-47.01841354370117,39.16983413696289,-13.44636058807373
2.98,-0.16749757528305054,-1.6618152856826782,1.4943177700042725,0.9204212427139282,-0.389426589012146,1.3544409275054932,-45.65916442871094,39.87138366699219,-14.440221786499023
2.99,0.03110669180750847,-1.867598056793213,1.7706886529922485,0.8875871896743774,-0.11911872029304504,1.4422528743743896,-45.556854248046875,40.587547302246094,-14.308682441711426
3.0,0.18544374406337738,-2.0446667671203613,1.5816556215286255,0.8535314798355103,0.1563815027475357,1.5001323223114014,-44.89915466308594,40.879859924316406,-14.90792179107666
3.021,0.3409772217273712,-2.1535403728485107,1.2610174417495728,0.8991936445236206,0.4954116940498352,1.5685491561889648,-44.82607650756836,42.37065124511719,-15.682548522949219
3.025,1.1437692642211914,-2.4885356426239014,1.1066803932189941,0.9434813261032104,0.7333437204360962,1.747380018234253,-44.32914352416992,41.85910415649414,-15.56562328338623
3.03,1.6390833854675293,-2.475374937057495,1.0289136171340942,0.958142101764679,0.7984008193016052,1.83824622631073,-43.876060485839844,42.57527160644531,-15.945630073547363
3.04,2.3844475746154785,-2.4598214626312256,1.0241280794143677,1.0068585872650146,0.8564330339431763,2.038304567337036,-44.15375518798828,43.262203216552734,-17.056415557861328
3.05,3.0592236518859863,-2.506481647491455,0.8542376756668091,1.0896308422088623,0.7974845767021179,2.2380573749542236,-43.27682113647461,43.91990661621094,-17.80181312561035
3.06,3.895514965057373,-2.84386944770813,0.6125625967979431,1.214552879333496,0.6310237646102905,2.432007312774658,-42.867584228515625,45.08915710449219,-18.327974319458008
3.08,4.631308078765869,-3.3678977489471436,0.05024927482008934,1.4958562850952148,0.12568552792072296,2.5809056758880615,-41.28909683227539,46.097633361816406,-19.16106414794922
3.083,6.7657060623168945,-5.462813854217529,-0.42711883783340454,1.982257604598999,-0.6800457239151001,2.501492977142334,-40.82139587402344,46.50687026977539,-19.24875831604004
3.09,7.956134796142578,-6.650850296020508,-0.8003991842269897,2.322967767715454,-1.0595457553863525,2.459190607070923,-39.82753372192383,46.57994842529297,-19.847997665405273
3.1,8.918049812316895,-8.037490844726562,-1.3040882349014282,2.839607000350952,-1.3122912645339966,2.4492642879486084,-38.570594787597656,47.82227325439453,-21.64571762084961
3.11,8.715856552124023,-9.644271850585938,-1.5708880424499512,3.386484146118164,-1.3471105098724365,2.3490822315216064,-37.591346740722656,48.81613540649414,-22.771120071411133
3.12,8.057829856872559,-11.144571304321289,-1.7252249717712402,3.907705068588257,-0.9231700897216797,2.023643732070923,-36.524410247802734,49.38614273071289,-23.881906509399414
3.14,6.831508159637451,-12.265608787536621,-1.7395819425582886,3.637855052947998,0.7182247638702393,1.268919825553894,-34.6243782043457,51.72464370727539,-27.652734756469727
3.143,5.693721294403076,-13.422537803649902,-1.2131609916687012,3.4521520137786865,0.9514226317405701,1.1673635244369507,-34.112831115722656,51.476173400878906,-28.33966636657715
3.15,5.01296329498291,-13.591232299804688,-1.4057832956314087,2.7149903774261475,1.6271922588348389,0.85994553565979,-33.922828674316406,52.22157287597656,-29.684301376342773
3.16,4.506881237030029,-12.920045852661133,-2.3712871074676514,1.5708400011062622,2.3736696243286133,0.4931209683418274,-34.21514129638672,52.689273834228516,-31.160480499267578
3.17,4.576272964477539,-11.349157333374023,-4.517648696899414,0.5241223573684692,2.9491047859191895,0.14019358158111572,-34.419761657714844,52.294654846191406,-31.11663246154785
3.18,5.862415313720703,-9.522236824035645,-7.069594383239746,0.3355177044868469,2.8124234676361084,-0.05268712714314461,-34.989768981933594,53.06927490234375,-33.07512283325195
3.199,7.141378879547119,-9.558130264282227,-7.066004753112793,1.0709995031356812,1.224173903465271,-0.22220222651958466,-35.99824523925781,52.63081359863281,-33.2066650390625
3.203,7.3567328453063965,-9.982855796813965,-6.491727352142334,1.179427981376648,0.6114761233329773,-0.19776761531829834,-35.735164642333984,52.44080352783203,-34.229759216308594
3.21,6.969095706939697,-10.506884574890137,-5.472385406494141,1.2186760902404785,0.038179077208042145,-0.16111570596694946,-35.69131851196289,52.323883056640625,-37.0067253112793
3.22,6.137589454650879,-10.730612754821777,-4.175475120544434,1.0490082502365112,-0.9789115786552429,-0.08429940044879913,-35.42823791503906,52.280033111572266,-34.536685943603516
3.23,5.5692949295043945,-10.576275825500488,-2.6536402702331543,0.7764097452163696,-1.4054481983184814,0.014355332590639591,-36.05670928955078,52.60157775878906,-35.179771423339844
3.24,5.127819061279297,-10.29631519317627,-1.2035897970199585,0.48227810859680176,-1.7440203428268433,0.11927143484354019,-35.939781188964844,52.689273834228516,-34.9459228515625
3.253,4.947160720825195,-9.765109062194824,0.3672982454299927,0.21212296187877655,-2.1229093074798584,0.18906280398368835,-35.662086486816406,52.79158401489258,-33.995906829833984
3.26,4.867001056671143,-9.527023315429688,0.9128617644309998,0.13805553317070007,-2.350609302520752,0.1892155110836029,-35.282081604003906,52.55773162841797,-33.9082145690918
3.27,4.594219207763672,-9.899106979370117,0.7884350419044495,0.23548854887485504,-2.523484468460083,0.06383541971445084,-34.346683502197266,52.58695983886719,-34.63899612426758
3.28,3.098705291748047,-11.001002311706543,-1.0648061037063599,0.5832235813140869,-2.176818370819092,-0.16982053220272064,-33.87898254394531,52.41157531738281,-34.43437576293945
3.29,1.2849457263946533,-13.408181190490723,-3.352344274520874,1.0589349269866943,-1.4669928550720215,-0.4686863422393799,-33.557437896728516,52.55773162841797,-34.682838439941406
3.31,1.6007983684539795,-17.118253707885742,-3.022134780883789,1.4340060949325562,-0.5253441333770752,-0.8234463334083557,-33.83513641357422,53.04004669189453,-35.19438934326172
3.313,5.615954875946045,-18.465412139892578,3.5030922889709473,0.5371032357215881,0.5232061147689819,-0.8781187534332275,-34.87284469604492,52.98158645629883,-36.04209518432617
3.32,6.137589454650879,-16.527225494384766,5.891129493713379,-0.48029276728630066,0.39309176802635193,-0.6992879509925842,-34.741302490234375,53.06927490234375,-35.969017028808594
3.33,4.551148414611816,-12.001201629638672,4.510470390319824,-1.4330898523330688,-0.030543262138962746,-0.5366451144218445,-35.7059326171875,52.513885498046875,-35.720550537109375
3.34,3.62153697013855,-8.029115676879883,2.6811578273773193,-1.7930421829223633,-0.4066835343837738,-0.3962987959384918,-35.57439422607422,52.265419006347656,-33.995906829833984
3.35,3.3020951747894287,-5.849254608154297,0.97148597240448,-1.7663167715072632,-0.5274821519851685,-0.23426681756973267,-35.88132095336914,52.04618453979492,-34.05436706542969
3.369,3.5700912475585938,-5.07517671585083,0.007178467698395252,-1.4816536903381348,-0.6785185933113098,-0.13179416954517365,-35.545162200927734,51.75387191772461,-32.680503845214844
3.373,5.407778739929199,-7.724031448364258,0.1459621787071228,-0.7134906053543091,-1.2848021984100342,-0.15134187042713165,-35.3843879699707,51.72464370727539,-31.65740966796875
3.38,6.118447303771973,-9.198010444641113,0.7190431356430054,-0.33887749910354614,-1.763262391090393,-0.1771509051322937,-35.3843879699707,51.22771453857422,-31.408945083618164
3.39,7.11864709854126,-13.168898582458496,1.9848462343215942,0.09056076407432556,-2.4161245822906494,-0.23945917189121246,-34.50745391845703,51.3592529296875,-30.955860137939453
3.4,7.6666035652160645,-16.303497314453125,2.7014968395233154,0.4352414906024933,-2.7426321506500244,-0.25473082065582275,-34.65361022949219,50.993858337402344,-30.765857696533203
3.41,7.182056903839111,-17.36351776123047,3.579662799835205,0.6629414558410645,-2.395966053009033,-0.14233160018920898,-34.25898742675781,50.92078399658203,-31.423559188842773
3.429,5.0943193435668945,-13.719247817993164,3.6083762645721436,0.717613935470581,0.06612616032361984,0.0429132841527462,-33.32358932495117,51.54925537109375,-32.56357955932617
3.433,3.862015724182129,-8.774479866027832,2.6464619636535645,0.6899722814559937,0.4485277831554413,-0.015118913725018501,-33.5282096862793,51.54925537109375,-31.847414016723633
3.44,3.765106201171875,-7.482356548309326,2.2600209712982178,0.6348416805267334,0.7611380815505981,-0.11743884533643723,-33.2651252746582,51.7392578125,-32.27126693725586
3.45,3.616751194000244,-7.524230480194092,1.4225330352783203,0.584750771522522,0.9378308653831482,-0.21151207387447357,-33.2651252746582,52.090030670166016,-32.987430572509766
3.46,3.0616164207458496,-9.44207763671875,-0.38285163044929504,0.6904304623603821,1.0812314748764038,-0.2600758671760559,-34.02513885498047,52.35311508178711,-32.417423248291016
3.47,2.592623233795166,-11.502297401428223,-1.769492268562317,0.9964739084243774,1.2695306539535522,-0.27488934993743896,-33.68898010253906,51.53464126586914,-32.87050247192383
3.489,2.8319056034088135,-12.91047477722168,-1.6067804098129272,1.10139000415802,1.202946424484253,-0.05696318298578262,-34.419761657714844,52.63081359863281,-34.785152435302734
3.493,3.7124643325805664,-13.274182319641113,-0.12681959569454193,0.47250425815582275,0.554818332195282,0.4421136975288391,-34.755916595458984,52.265419006347656,-34.30283737182617
3.5,3.0580272674560547,-11.49512004852295,-0.5539384484291077,0.05955936014652252,0.05054909735918045,0.6377432942390442,-34.902076721191406,52.47003936767578,-34.785152435302734
3.51,3.5270204544067383,-9.257830619812012,-0.9810572266578674,-0.03878994286060333,-0.313373863697052,0.725249707698822,-33.64513397216797,56.06547546386719,-34.58053207397461
3.52,4.128815174102783,-8.140382766723633,-0.2584248483181,0.13561208546161652,-0.38240164518356323,0.8139779567718506,-33.601287841796875,52.17772674560547,-34.09821701049805
3.53,4.49252462387085,-7.288537502288818,0.6604190468788147,0.26083946228027344,-0.39706239104270935,0.8043568134307861,-33.14820098876953,52.484657287597656,-34.112831115722656
3.549,4.508077621459961,-5.952146053314209,0.9834501147270203,0.35506540536880493,-0.06398813426494598,0.608421802520752,-32.402809143066406,53.127742767333984,-33.9666748046875
3.553,4.607379913330078,-5.845665454864502,1.0755738019943237,0.36224305629730225,0.014813481830060482,0.5771149396896362,-32.183570861816406,53.025428771972656,-34.346683502197266
3.56,4.750949382781982,-5.753541946411133,1.246660590171814,0.3741549551486969,0.25045475363731384,0.47479501366615295,-32.1689567565918,53.025428771972656,-34.30283737182617
3.57,4.8358941078186035,-5.617150783538818,1.1437692642211914,0.36880987882614136,0.6507241725921631,0.3517056703567505,-32.09587860107422,53.36158752441406,-34.682838439941406
3.58,5.230710506439209,-5.8372907638549805,0.7214360237121582,0.35262197256088257,1.3242030143737793,0.22159136831760406,-31.978952407836914,53.317745208740234,-35.25284957885742
3.59,4.97348165512085,-6.599404811859131,0.15074782073497772,0.30863967537879944,1.9669859409332275,0.1007927656173706,-32.21280288696289,53.66851806640625,-35.25284957885742
3.603,4.604987144470215,-7.7383880615234375,-0.44745784997940063,0.15515977144241333,2.634814500808716,-0.10461067408323288,-32.63665771484375,53.28851318359375,-35.296695709228516
3.61,4.555934429168701,-8.37009334564209,-0.9918249249458313,-0.005650503095239401,2.8406758308410645,-0.20173825323581696,-32.812042236328125,52.8792724609375,-35.57439422607422
3.62,4.559523582458496,-8.880961418151855,-1.6869399547576904,-0.30344730615615845,2.8073840141296387,-0.2664899528026581,-33.67436599731445,53.113128662109375,-35.45746612548828
3.63,4.286741733551025,-8.755337715148926,-2.66560435295105,-0.6846271753311157,2.2963950634002686,-0.2993239462375641,-33.805904388427734,52.952354431152344,-35.545162200927734
3.64,4.035495281219482,-8.044669151306152,-3.4205398559570312,-0.8184067010879517,1.7070629596710205,-0.29336804151535034,-34.21514129638672,52.67465591430664,-35.559776306152344
3.65,4.210171222686768,-7.478766918182373,-2.640479564666748,-0.8521569967269897,1.0474811792373657,-0.2174680233001709,-34.39052963256836,52.63081359863281,-35.325927734375
3.666,4.334598064422607,-6.378068447113037,-1.9010975360870361,-0.8054258227348328,0.2860376536846161,-0.02321287989616394,-34.682838439941406,52.36772918701172,-34.30283737182617
3.67,4.561916351318359,-6.074179649353027,-1.3938192129135132,-0.7557929754257202,0.08567384630441666,0.021532999351620674,-34.85823059082031,52.17772674560547,-33.87898254394531
3.68,4.9052863121032715,-5.828916072845459,-0.4043869972229004,-0.6511823534965515,-0.3998112976551056,0.07757988572120667,-34.799766540527344,52.280033111572266,-33.2066650390625
3.69,4.937589645385742,-6.017949104309082,-0.18903298676013947,-0.4554000496864319,-0.7901541590690613,0.13026700913906097,-34.59514617919922,52.323883056640625,-32.797428131103516
3.7,4.5714874267578125,-7.055237293243408,0.4091726541519165,-0.2974913716316223,-0.7721337080001831,0.13698652386665344,-34.40514373779297,52.0608024597168,-33.38205337524414
3.719,4.35254430770874,-7.678567886352539,0.8841480016708374,-0.293826162815094,-0.4818199574947357,0.09682214260101318,-34.112831115722656,52.36772918701172,-33.39666748046875
3.723,4.080958843231201,-7.907082557678223,0.9152546525001526,-0.532369077205658,0.18325957655906677,-0.06979135423898697,-34.2882194519043,52.14849853515625,-32.242034912109375
3.73,4.027120590209961,-7.999206066131592,0.760917603969574,-0.6403394937515259,0.4495968222618103,-0.13469578325748444,-34.31745147705078,52.002342224121094,-31.788951873779297
3.74,4.149154186248779,-8.090132713317871,0.4618147313594818,-0.8943067193031311,1.0651962757110596,-0.3630066514015198,-34.56591796875,51.84156799316406,-32.35895919799805
3.75,4.669593334197998,-7.84127950668335,-0.02991028130054474,-1.0273226499557495,1.5486960411071777,-0.5842925906181335,-34.52206802368164,51.373870849609375,-31.482023239135742
3.76,4.932803630828857,-7.1916279792785645,-0.0933200791478157,-1.0937541723251343,1.7718145847320557,-0.8231408596038818,-35.50131607055664,51.33001708984375,-31.394329071044922
3.779,5.5932230949401855,-6.070590972900391,-0.42711883783340454,-1.0929906368255615,1.8170186281204224,-1.0430524349212646,-35.9836311340332,50.540775299072266,-31.20432472229004
3.783,6.072983741760254,-4.934000015258789,-0.12323036044836044,-0.6327036619186401,0.6478225588798523,-1.247844934463501,-37.094417572021484,50.350772857666016,-31.05817222595215
3.79,5.5716872215271,-4.6648077964782715,-0.06819543987512589,-0.35552358627319336,0.09666942805051804,-1.2243266105651855,-37.15288162231445,50.365386962890625,-30.56123924255371
3.8,4.923232555389404,-5.044069766998291,-0.47617167234420776,-0.42332959175109863,0.05971207842230797,-1.0406090021133423,-38.205204010009766,49.649227142333984,-29.932767868041992
3.81,4.0833516120910645,-5.453242301940918,-1.1473584175109863,-0.6734789609909058,-0.08124507963657379,-0.8119926452636719,-38.848289489746094,49.663841247558594,-30.064308166503906
3.82,3.205185890197754,-6.15553617477417,-0.7501499056816101,-0.668744683265686,-0.668744683265686,-0.6336199641227722,-39.345218658447266,49.69307327270508,-29.494300842285156
3.84,2.4646072387695312,-7.219145774841309,-0.06939185410737991,-0.5471825003623962,-1.3264938592910767,-0.42470404505729675,-38.161354064941406,49.45922088623047,-29.552762985229492
3.843,0.9499505758285522,-8.2755765914917,0.0813559740781784,-0.6827946305274963,-1.8781051635742188,-0.13775010406970978,-38.67290496826172,49.166908264160156,-27.62350082397461
3.85,0.8590232729911804,-8.195417404174805,-0.010767702013254166,-0.7845036387443542,-1.9117027521133423,-0.1088867262005806,-38.1467399597168,49.093833923339844,-27.287343978881836
3.86,0.9595218300819397,-9.3248291015625,0.24287149310112,-0.8384125232696533,-1.5743523836135864,-0.1592831164598465,-37.92750549316406,48.27535629272461,-27.72580909729004
3.87,2.0709879398345947,-11.185249328613281,0.6675975322723389,-1.027475357055664,-0.6481279730796814,-0.308181494474411,-37.91289138793945,48.1584358215332,-27.60888671875
3.88,4.285545349121094,-13.183256149291992,0.09810572117567062,-1.2192870378494263,0.4343251883983612,-0.587652325630188,-38.04443359375,47.77842712402344,-26.60040855407715
3.9,6.284748554229736,-14.7326078414917,-0.4666004180908203,-1.166752576828003,1.5790866613388062,-1.05404794216156,-38.70213317871094,47.13534164428711,-26.556564331054688
3.904,9.853643417358398,-13.12702465057373,-1.576870083808899,-1.2495248317718506,2.9854512214660645,-1.2880094051361084,-39.63753128051758,46.78456497192383,-26.556564331054688
3.91,10.327422142028809,-10.950752258300781,-2.66560435295105,-1.3865114450454712,3.205057144165039,-1.3678799867630005,-40.23677444458008,46.65302658081055,-26.293479919433594
3.92,11.368300437927246,-8.609375,-4.614558219909668,-1.581682801246643,2.844188690185547,-1.6545284986495972,-41.712947845458984,45.995323181152344,-25.533470153808594
3.93,12.624531745910645,-7.623532772064209,-6.096912384033203,-1.457066297531128,1.553583025932312,-1.940260648727417,-42.633731842041016,45.542240142822266,-25.92809295654297
3.94,13.50748348236084,-8.863015174865723,-5.752345085144043,-0.9589056968688965,-0.38927385210990906,-2.205528974533081,-43.75913619995117,44.51914596557617,-25.41654396057129
3.959,12.806386947631836,-11.407781600952148,-3.6502509117126465,-0.49953505396842957,-1.9727892875671387,-2.393064498901367,-44.606842041015625,43.452205657958984,-23.69190216064453
3.963,10.52243709564209,-12.430712699890137,-1.1473584175109863,-0.47082436084747314,-2.1821632385253906,-2.348013162612915,-44.59222412109375,43.11604690551758,-24.21806526184082
3.97,8.999405860900879,-12.826725959777832,0.08255238085985184,-0.49128836393356323,-2.3440427780151367,-2.225229263305664,-44.621456146240234,42.73604202270508,-23.326513290405273
3.98,7.995616436004639,-13.301700592041016,0.8135596513748169,-0.5381722450256348,-2.470797300338745,-2.0115792751312256,-44.97222900390625,42.45834732055664,-22.142648696899414
3.99,7.392625331878662,-14.408380508422852,0.39960137009620667,-0.5293146967887878,-2.5977044105529785,-1.727832317352295,-44.577606201171875,42.16603469848633,-22.054954528808594
4.0,6.7680983543396,-16.44586944580078,-0.20099709928035736,-0.5393940210342407,-2.422844409942627,-1.4613423347473145,-44.738380432128906,41.712947845458984,-20.125694274902344
4.02,3.597608804702759,-15.912269592285156,-1.0863415002822876,-0.8151996731758118,-1.038318157196045,-1.100168228149414,-44.95761489868164,41.02601623535156,-20.038002014160156
4.023,3.3104701042175293,-15.182459831237793,-1.0564311742782593,-0.8718574047088623,-0.9758571982383728,-1.0919215679168701,-44.76761245727539,40.149078369140625,-20.08184814453125
4.03,2.4466609954833984,-12.421141624450684,-1.1868400573730469,-1.056644082069397,-1.0002918243408203,-1.1102474927902222,-44.86991882324219,40.25138854980469,-19.27798843383789
4.04,1.8388842344284058,-8.876174926757812,-1.5242280960083008,-1.15178644657135,-1.1342240571975708,-1.157131552696228,-44.69453430175781,40.1636962890625,-18.78105926513672
4.05,1.5840485095977783,-6.5527448654174805,-1.6331013441085815,-0.988990843296051,-1.207069754600525,-1.1178834438323975,-44.48991394042969,39.24291229248047,-18.18181800842285
4.06,1.6163517236709595,-5.419743537902832,-0.6951149702072144,-0.7964155077934265,-0.9272934198379517,-0.8478809595108032,-44.811458587646484,38.775211334228516,-17.553346633911133
4.079,1.9704893827438354,-5.637490272521973,0.7716853022575378,-0.6021604537963867,0.07467827200889587,-0.09315694868564606,-44.38760757446289,38.29289627075195,-16.749486923217773
4.083,2.0829520225524902,-5.715256690979004,0.787238597869873,-0.5904012322425842,0.18310685455799103,-0.013744467869400978,-44.82607650756836,38.24905014038086,-17.655654907226562
4.09,2.386840581893921,-5.830111980438232,0.5324030518531799,-0.5288565754890442,0.44806966185569763,0.20891591906547546,-44.94300079345703,37.56211853027344,-17.670272827148438
4.1,2.7457637786865234,-5.700900077819824,0.2021934986114502,-0.3396410644054413,0.6742424964904785,0.5308418869972229,-44.38760757446289,37.605960845947266,-17.962583541870117
4.11,2.355733871459961,-4.991427898406982,-0.2153540402650833,-0.15042555332183838,0.6667593717575073,0.7392996549606323,-44.89915466308594,37.91289138793945,-16.997953414916992
4.128,1.9094724655151367,-4.097708702087402,-0.5156532526016235,0.10506881773471832,0.573755145072937,0.8952229619026184,-44.89915466308594,37.679039001464844,-17.407190322875977
4.133,1.392622709274292,-3.198007583618164,-0.30149564146995544,0.4735732972621918,0.3753766715526581,1.0768027305603027,-44.10990905761719,38.7459831237793,-16.88102912902832
4.14,1.0325030088424683,-2.7732813358306885,-0.05503491684794426,0.6562219858169556,0.23594669997692108,1.188132882118225,-44.358375549316406,39.05290985107422,-17.290266036987305
4.15,0.7286145091056824,-2.366501569747925,0.2620140612125397,0.8654433488845825,0.05009094625711441,1.3660473823547363,-43.33528137207031,39.418296813964844,-17.72873306274414
4.16,0.6939185857772827,-1.990828275680542,0.5359922647476196,0.9437867999076843,-0.07009679079055786,1.5125024318695068,-43.7006721496582,39.60830307006836,-17.88950538635254
4.17,0.7704888582229614,-1.8855441808700562,0.7130610942840576,0.9503535628318787,-0.16233743727207184,1.676366925239563,-43.057586669921875,40.19292449951172,-18.00642967224121
4.188,0.7010970711708069,-1.8221343755722046,0.8087739944458008,0.9188940525054932,-0.19074267148971558,1.8290832042694092,-42.56065368652344,40.66062545776367,-17.933351516723633
4.193,0.9296115636825562,-2.149951219558716,0.5635097026824951,0.8565858006477356,-0.14385876059532166,1.9704985618591309,-41.49371337890625,40.85062789916992,-18.81028938293457
4.2,1.4380862712860107,-2.4287149906158447,0.4666004180908203,0.8419250249862671,-0.1258382350206375,2.0896172523498535,-41.23063278198242,41.49371337890625,-18.78105926513672
4.21,1.9477574825286865,-3.022134780883789,0.07896314561367035,0.8776606321334839,-0.10980302840471268,2.2507331371307373,-40.514469146728516,41.82987594604492,-19.394912719726562
4.22,2.4634108543395996,-3.603590726852417,-0.08255238085985184,0.9909761548042297,-0.14828753471374512,2.3962714672088623,-39.52061080932617,42.64834976196289,-20.608009338378906
4.23,2.5567307472229004,-4.115654468536377,-0.37806597352027893,1.1705704927444458,-0.3828597962856293,2.4326181411743164,-38.468284606933594,42.56065368652344,-20.09646224975586
4.25,2.8582265377044678,-4.735395908355713,-0.38285163044929504,1.4391984939575195,-0.767857551574707,2.317011833190918,-37.94212341308594,43.466819763183594,-20.65185546875
4.254,4.778466701507568,-5.371886730194092,0.08733802288770676,1.7792977094650269,-1.5202908515930176,2.0471620559692383,-36.451332092285156,44.358375549316406,-21.996492385864258
4.26,5.875576019287109,-5.266602516174316,-0.0849451944231987,1.8872681856155396,-1.686446189880371,2.0389153957366943,-35.42823791503906,44.95761489868164,-21.894182205200195
4.27,6.897311210632324,-5.382654190063477,0.07896314561367035,2.017840623855591,-1.6449072360992432,2.110844850540161,-34.551300048828125,45.45454788208008,-22.464191436767578
4.28,6.870989799499512,-5.717649936676025,-0.04785645380616188,2.205223560333252,-1.6546812057495117,1.972178339958191,-33.74744415283203,45.64455032348633,-24.349605560302734
4.29,6.364907741546631,-6.234498977661133,-0.436690092086792,2.543184518814087,-1.62215256690979,1.5867223739624023,-32.32973098754883,46.05378341674805,-24.49576187133789
4.309,5.765506267547607,-7.381857395172119,-0.9236294627189636,3.5213327407836914,-0.050854530185461044,0.6139195561408997,-31.335866928100586,46.8430290222168,-27.097341537475586
4.313,5.24626350402832,-10.057032585144043,-0.45104703307151794,3.6836700439453125,0.6155994534492493,0.4207334518432617,-31.423559188842773,47.03303146362305,-27.886581420898438
4.32,5.026124000549316,-11.410174369812012,0.25244277715682983,3.7111589908599854,1.6224581003189087,0.18081609904766083,-31.4674072265625,47.76381301879883,-28.28120231628418
4.33,4.6779680252075195,-12.78485107421875,0.5694918036460876,3.1583261489868164,2.9439122676849365,0.07971791177988052,-31.832796096801758,48.1584358215332,-30.385852813720703
4.34,4.767699241638184,-13.056436538696289,-1.3746765851974487,1.9327775239944458,3.7788121700286865,0.14156801998615265,-31.788951873779297,49.210758209228516,-32.11049270629883
4.35,4.194617748260498,-12.378071784973145,-6.0023956298828125,0.6255260109901428,3.828139543533325,0.14676035940647125,-32.432037353515625,48.611515045166016,-32.1251106262207
4.369,4.064208984375,-11.274980545043945,-11.533404350280762,-0.31322115659713745,2.490192174911499,-0.23105978965759277,-33.64513397216797,48.30459213256836,-33.2066650390625
4.373,6.315855503082275,-10.236495018005371,-16.5511531829834,-0.12400564551353455,1.9845484495162964,-0.34116825461387634,-34.171295166015625,48.479976654052734,-33.19205093383789
4.38,7.4979095458984375,-11.60877799987793,-15.114264488220215,0.36529740691185,1.0752755403518677,-0.4789183437824249,-34.682838439941406,48.52382278442383,-37.19672393798828
4.39,9.391828536987305,-16.69472312927246,-7.5146589279174805,0.7099781036376953,-0.1114829033613205,-0.6841690540313721,-34.6682243347168,48.406898498535156,-34.43437576293945
4.4,12.672388076782227,-21.229122161865234,2.724228620529175,0.3730859160423279,-1.9596556425094604,-0.854295015335083,-34.96053695678711,48.406898498535156,-34.229759216308594
4.41,13.174880981445312,-20.743379592895508,7.525426864624023,-0.44394633173942566,-3.4602463245391846,-0.6230825781822205,-34.65361022949219,48.6407470703125,-33.89359664916992
4.429,6.595815181732178,-15.933805465698242,2.557927370071411,-0.7029531598091125,-3.514918565750122,-0.07849618047475815,-33.922828674316406,47.8807373046875,-32.5051155090332
4.433,4.241277694702148,-14.327025413513184,1.7072789669036865,-0.6003278493881226,-3.1926872730255127,-0.06780604273080826,-33.71821212768555,47.99766159057617,-32.56357955932617
4.44,1.4141581058502197,-11.508280754089355,-0.6903292536735535,-0.17608189582824707,-2.068695068359375,-0.1725694239139557,-33.235897064208984,48.01227569580078,-31.774335861206055
4.45,2.321038007736206,-9.90748119354248,1.117448091506958,0.22220222651958466,-0.8652905821800232,-0.28359419107437134,-33.30897521972656,48.17304992675781,-32.490501403808594
4.46,3.1788647174835205,-8.886942863464355,3.5712878704071045,-0.07009679079055786,-0.5583308339118958,-0.2079996019601822,-33.2066650390625,47.5591926574707,-32.31510925292969
4.47,2.623729705810547,-7.122236251831055,3.627518892288208,-0.4740314185619354,-0.7423539757728577,-0.19547687470912933,-33.367435455322266,47.58842468261719,-31.832796096801758
4.49,3.401397228240967,-10.104889869689941,1.9884356260299683,-0.6120869517326355,-1.1308642625808716,-0.24663683772087097,-32.82666015625,47.76381301879883,-31.49663734436035
4.493,3.7052857875823975,-11.12662410736084,2.0123636722564697,-0.4920519292354584,-1.1635456085205078,-0.2961169183254242,-32.607425689697266,47.909969329833984,-30.853551864624023
4.5,4.325026512145996,-13.99561882019043,1.932204246520996,-0.3449861407279968,-1.1313223838806152,-0.3692680299282074,-32.9289665222168,47.32534408569336,-30.868165969848633
4.51,5.3563337326049805,-17.1529483795166,2.084148406982422,0.06383541971445084,-0.7826710939407349,-0.5769621729850769,-32.69511795043945,47.2230339050293,-30.415081024169922
4.52,6.2775702476501465,-17.51665687561035,2.7625136375427246,0.24892757833003998,-0.2802344262599945,-0.5934555530548096,-32.943580627441406,47.41303634643555,-30.9266300201416
4.539,5.533401966094971,-12.890134811401367,2.6452653408050537,0.19379699230194092,0.20601430535316467,-0.3274237811565399,-33.235897064208984,47.427650451660156,-30.73662757873535
4.543,4.694717884063721,-9.312865257263184,1.875972867012024,0.09560041129589081,0.48029276728630066,-0.14248430728912354,-33.76205825805664,47.486114501953125,-31.49663734436035
4.55,4.55354118347168,-8.805586814880371,1.6522438526153564,0.08674286305904388,0.43646320700645447,-0.09697485715150833,-33.84975051879883,47.32534408569336,-31.277402877807617
4.56,5.472385406494141,-9.81535816192627,1.758724570274353,0.1667662113904953,0.14523321390151978,0.04046982154250145,-33.83513641357422,47.60304260253906,-31.6281795501709
4.57,5.691328525543213,-10.316654205322266,1.6259229183197021,0.3149010241031647,-0.18066339194774628,0.21395555138587952,-34.112831115722656,47.32534408569336,-31.408945083618164
4.58,5.478367328643799,-9.828518867492676,1.2478569746017456,0.5836817622184753,-0.408363401889801,0.31963521242141724,-33.981292724609375,47.32534408569336,-31.862030029296875
4.599,5.3587260246276855,-9.365507125854492,0.8279166221618652,0.9272934198379517,-0.4767802953720093,0.407905250787735,-33.65974807739258,48.07073974609375,-31.6281795501709
4.604,3.7423744201660156,-8.807979583740234,-0.6221339106559753,1.4349223375320435,0.21135936677455902,0.47968190908432007,-33.19205093383789,48.23151397705078,-32.2274169921875
4.61,3.37268328666687,-8.924031257629395,-0.45583271980285645,1.4465287923812866,0.6487388610839844,0.4021020233631134,-33.250511169433594,48.669979095458984,-32.622039794921875
4.62,3.2004001140594482,-9.452845573425293,-0.0849451944231987,1.0468703508377075,0.8860600590705872,0.28939738869667053,-32.95820236206055,48.56766891479492,-32.73896408081055
4.63,2.8211376667022705,-9.110671997070312,-0.6795615553855896,0.4512766897678375,0.7243334650993347,0.15454889833927155,-33.14820098876953,48.684593200683594,-33.08974075317383
4.64,2.8893332481384277,-8.023134231567383,-1.2837493419647217,0.1394299864768982,0.34208452701568604,0.03680463135242462,-33.14820098876953,48.8599853515625,-33.922828674316406
4.66,3.242274522781372,-7.409375190734863,-0.8446664214134216,0.16630806028842926,-0.05268712714314461,0.07956519722938538,-33.30897521972656,48.494590759277344,-33.67436599731445
4.664,3.6562328338623047,-7.672585487365723,0.2141576111316681,0.34834590554237366,-0.26679539680480957,0.2643519341945648,-32.9289665222168,48.8599853515625,-34.156681060791016
4.67,3.988835334777832,-7.954938888549805,0.468993216753006,0.4046982228755951,-0.17989981174468994,0.36193764209747314,-33.031280517578125,48.99152374267578,-34.52206802368164
4.68,4.552344799041748,-8.800801277160645,0.8111668825149536,0.43890663981437683,0.10583239793777466,0.4538728594779968,-32.31510925292969,49.283836364746094,-33.87898254394531
4.69,4.8813581466674805,-9.011369705200195,0.8195416927337646,0.42577308416366577,0.48945578932762146,0.5128213763237,-32.417423248291016,49.41537857055664,-34.6243782043457
4.7,4.8538408279418945,-8.682356834411621,0.2715853750705719,0.3882048726081848,0.8550586104393005,0.5470298528671265,-32.490501403808594,49.166908264160156,-35.355159759521484
4.719,4.494917392730713,-8.042276382446289,-0.5515456199645996,0.24373522400856018,1.4653130769729614,0.45356741547584534,-32.69511795043945,49.10844802856445,-35.3843879699707
4.723,4.078566074371338,-7.318447589874268,-0.98703932762146,0.1414152979850769,1.5781702995300293,0.40805795788764954,-32.59280776977539,49.18152618408203,-35.58900833129883
4.73,4.244867324829102,-7.085147857666016,-1.00259268283844,-0.06627887487411499,1.6777414083480835,0.337503045797348,-32.797428131103516,49.00613784790039,-34.975154876708984
4.74,4.6193437576293945,-6.693921089172363,-0.9332008361816406,-0.37339136004447937,1.6446019411087036,0.23640485107898712,-32.1251106262207,49.19614028930664,-35.20900344848633
4.75,5.003392219543457,-6.142375469207764,-1.155733346939087,-0.5810855627059937,1.4972307682037354,0.12278390675783157,-32.446651458740234,49.020755767822266,-34.69745635986328
4.76,5.26181697845459,-5.669793128967285,-0.97148597240448,-0.6041457653045654,1.3437508344650269,0.003817907767370343,-32.446651458740234,49.4007568359375,-34.989768981933594
4.779,5.5034918785095215,-5.5034918785095215,-0.5539384484291077,-0.32971450686454773,0.8223773241043091,-0.23335051536560059,-33.250511169433594,49.45922088623047,-35.2674674987793
4.783,5.267798900604248,-5.520241737365723,-0.7896314859390259,-0.21624629199504852,0.7122688889503479,-0.24236077070236206,-32.84127426147461,49.4007568359375,-35.67670440673828
4.79,5.018945217132568,-5.955735206604004,-0.7357929348945618,-0.058184914290905,0.6375905871391296,-0.23228150606155396,-33.33820343017578,48.77228546142578,-35.12131118774414
4.8,4.639682769775391,-6.6149582862854,-0.592223584651947,0.012064589187502861,0.6771441102027893,-0.21380282938480377,-33.49897384643555,48.62613296508789,-34.56591796875
4.81,4.214956760406494,-7.094718933105469,-0.7106683254241943,-0.08460482954978943,0.816421389579773,-0.21899518370628357,-33.33820343017578,48.72844314575195,-34.96053695678711
4.82,3.6741790771484375,-7.125825881958008,-1.3674980401992798,-0.3240639865398407,1.1803444623947144,-0.2580905556678772,-33.11897277832031,49.035369873046875,-35.910552978515625
4.84,2.8283162117004395,-6.55992317199707,-2.0506489276885986,-0.9399688839912415,1.3243557214736938,-0.4593706429004669,-33.83513641357422,48.45074462890625,-35.0043830871582
4.843,2.840280294418335,-6.349354267120361,-2.0171494483947754,-1.0169378519058228,1.2728904485702515,-0.5002986192703247,-34.171295166015625,48.1584358215332,-34.902076721191406
4.85,3.0544381141662598,-6.004787921905518,-1.8388842344284058,-1.1630873680114746,0.9831876158714294,-0.6039929986000061,-34.46360778808594,48.34843444824219,-34.40514373779297
4.86,3.2027928829193115,-6.008377552032471,-1.6630116701126099,-1.0946705341339111,0.40851613879203796,-0.6681338548660278,-35.092079162597656,48.23151397705078,-34.142066955566406
4.87,3.410968542098999,-6.812366008758545,-1.0289136171340942,-0.8103127479553223,-0.18768833577632904,-0.6000223755836487,-35.355159759521484,47.866119384765625,-33.76205825805664
4.88,3.644268751144409,-7.865207672119141,0.12203395366668701,-0.7049384713172913,-0.5036584138870239,-0.5106833577156067,-35.3843879699707,47.5591926574707,-33.38205337524414
4.9,3.4815566539764404,-8.37966537475586,0.8554341197013855,-0.5826126933097839,-0.976468026638031,-0.4036291837692261,-35.74978256225586,47.486114501953125,-32.402809143066406
4.904,3.249452829360962,-7.994420051574707,0.5778666734695435,-0.5468770861625671,-0.9757044911384583,-0.3721696436405182,-35.63285446166992,47.07687759399414,-32.32973098754883
4.91,2.8378875255584717,-7.493124008178711,0.09092725813388824,-0.5447390675544739,-0.8130615949630737,-0.3376557528972626,-35.530548095703125,47.00379943847656,-32.432037353515625
4.92,2.076970100402832,-6.795616149902344,-0.9415756464004517,-0.9682213664054871,0.6375905871391296,-0.352011114358902,-35.735164642333984,47.57380676269531,-32.680503845214844
4.93,2.730210542678833,-6.179464340209961,-1.56969153881073,-1.6142114400863647,1.8484783172607422,-0.6429356932640076,-35.57439422607422,46.872257232666016,-32.21280288696289
4.949,3.9254255294799805,-5.513063430786133,-2.51724910736084,-1.9955439567565918,2.556776285171509,-1.040150761604309,-36.3636360168457,47.16456985473633,-31.49663734436035
4.953,6.585048198699951,-6.0777692794799805,-2.255235195159912,-1.9298760890960693,2.5500569343566895,-1.3825408220291138,-37.708274841308594,46.06840133666992,-31.18971061706543
4.96,7.952546119689941,-6.792026519775391,-1.6199408769607544,-1.821905493736267,1.919033169746399,-1.4654656648635864,-38.93598175048828,45.746856689453125,-30.34200668334961
4.97,8.449056625366211,-7.548158645629883,-0.7980062961578369,-1.6528486013412476,0.5902485251426697,-1.3672691583633423,-39.08213806152344,44.928382873535156,-29.947385787963867
4.98,7.610372066497803,-8.124829292297363,0.044267214834690094,-1.4205671548843384,-0.8813258409500122,-1.098488450050354,-40.11984634399414,44.69453430175781,-29.09967803955078
4.99,5.6315083503723145,-9.340383529663086,0.6831508874893188,-1.2418889999389648,-1.664149522781372,-0.7609853744506836,-39.769073486328125,44.65068435668945,-28.515052795410156
5.01,4.25084924697876,-10.642078399658203,-0.019142581149935722,-1.1238393783569336,-2.160324811935425,-0.5195409059524536,-39.330604553222656,43.93452072143555,-28.354280471801758
5.013,2.386840581893921,-11.898310661315918,-1.3902299404144287,-1.2820534706115723,-2.252871036529541,-0.35842517018318176,-38.819061279296875,43.55451583862305,-27.301958084106445
5.02,0.9451649785041809,-12.204590797424316,-1.0863415002822876,-1.4960088729858398,-1.9941695928573608,-0.39996400475502014,-38.64366912841797,42.6045036315918,-27.41888427734375
5.03,2.472982168197632,-11.882756233215332,-2.331805467605591,-2.105652332305908,-1.2927435636520386,-0.8153523802757263,-38.5267448425293,42.268341064453125,-25.81116485595703
5.04,5.150550842285156,-11.96889877319336,-5.084747791290283,-2.2099575996398926,-0.7906123399734497,-1.3724615573883057,-38.67290496826172,41.5814094543457,-25.095001220703125
5.05,9.436095237731934,-13.387842178344727,-4.917250633239746,-1.940108060836792,0.11682797223329544,-2.224923849105835,-38.96521759033203,41.186790466308594,-25.182693481445312
5.07,15.844074249267578,-14.163116455078125,-2.6596221923828125,-1.666898488998413,0.6513350009918213,-2.8745789527893066,-40.558319091796875,40.134464263916016,-23.618824005126953
5.073,17.22951889038086,-13.439288139343262,-1.92741858959198,-1.6003142595291138,0.19456057250499725,-2.7846291065216064,-41.5814094543457,39.69599533081055,-23.370359420776367
5.08,16.012767791748047,-13.027722358703613,-2.266003131866455,-1.4605786800384521,-0.4277583956718445,-2.6367998123168945,-41.77141189575195,39.140602111816406,-22.785736083984375
5.09,11.087142944335938,-12.252447128295898,-1.734796404838562,-1.095739483833313,-1.408197045326233,-2.484694480895996,-42.01987838745117,38.24905014038086,-22.420345306396484
5.1,7.411767482757568,-12.05623722076416,0.06221338361501694,-0.8684976100921631,-2.152230978012085,-2.2705860137939453,-43.02835464477539,37.679039001464844,-21.674949645996094
5.11,3.682553768157959,-11.674581527709961,0.5024927258491516,-0.8556694388389587,-2.3073906898498535,-1.9011653661727905,-42.67757797241211,37.19672393798828,-21.01724624633789
5.13,1.3854442834854126,-11.316854476928711,-0.7118647694587708,-0.781754732131958,-1.990657091140747,-1.533729910850525,-41.946800231933594,36.0274772644043,-20.169540405273438
5.133,-0.25244277715682983,-11.778668403625488,-0.9008976817131042,-0.5829181671142578,-1.0111346244812012,-1.1210904121398926,-41.97603225708008,36.12978744506836,-19.497222900390625
5.14,0.8327022790908813,-12.618549346923828,-0.9798608422279358,-0.52702397108078,-0.5262603759765625,-1.0639744997024536,-42.268341064453125,36.05670928955078,-19.46799087524414
5.15,4.027120590209961,-12.960722923278809,-2.00518536567688,-0.49067750573158264,-0.0529925599694252,-1.0384708642959595,-42.56065368652344,35.58900833129883,-19.234142303466797
5.16,6.752545356750488,-11.842079162597656,-3.194417953491211,-0.5056437253952026,0.15592335164546967,-0.963792622089386,-43.01374053955078,35.340545654296875,-18.89798355102539
5.17,7.499105453491211,-9.872785568237305,-4.850251197814941,-0.4335615932941437,0.14523321390151978,-0.8100072741508484,-43.10143280029297,34.47822189331055,-19.950305938720703
5.19,5.958127975463867,-8.103293418884277,-4.744967460632324,-0.13836097717285156,0.03680463135242462,-0.5494732856750488,-43.23297119140625,34.975154876708984,-19.26337242126465
5.193,2.991028070449829,-6.227320671081543,-2.926422119140625,0.14446963369846344,-0.07269296050071716,-0.36911532282829285,-43.96375274658203,34.81438064575195,-18.81028938293457
5.2,2.0985054969787598,-5.706881999969482,-1.9669002294540405,0.26862797141075134,-0.1443169116973877,-0.25534167885780334,-44.051448822021484,34.93130874633789,-19.117216110229492
5.21,1.0911270380020142,-5.184049606323242,-1.038485050201416,0.3358231484889984,-0.2793181240558624,-0.05375614017248154,-43.3206672668457,34.58053207397461,-18.88336753845215
5.22,-0.05503491684794426,-4.545166492462158,-0.5060819387435913,0.3475823402404785,-0.2356412708759308,0.18875734508037567,-43.992984771728516,35.41362380981445,-18.62028694152832
5.23,-0.4247260093688965,-4.046262741088867,-0.32183465361595154,0.39996400475502014,0.09407324343919754,0.5774204134941101,-43.452205657958984,35.311309814453125,-18.63490104675293
5.25,-0.09212366491556168,-3.59043025970459,-0.1663011610507965,0.6253732442855835,0.594524621963501,1.2536481618881226,-43.33528137207031,35.63285446166992,-19.17568016052246
5.253,0.061016976833343506,-3.513859748840332,-0.07537391036748886,0.6528621912002563,0.6227771043777466,1.3225232362747192,-43.17451095581055,35.69131851196289,-19.26337242126465
5.26,0.4247260093688965,-3.3367910385131836,-0.12203395366668701,0.7330383062362671,0.6592763066291809,1.4880677461624146,-42.867584228515625,36.18824768066406,-19.26337242126465
5.27,0.7621140480041504,-3.1405797004699707,-0.24047866463661194,0.864068865776062,0.6629414558410645,1.6337590217590332,-42.92604446411133,36.7436408996582,-20.228002548217773
5.28,1.1282157897949219,-3.1334011554718018,-0.19740787148475647,1.0027352571487427,0.7177666425704956,1.7411186695098877,-42.502193450927734,37.211341857910156,-20.608009338378906
5.29,1.7036895751953125,-3.2004001140594482,-0.11605189740657806,1.154382586479187,0.7234171628952026,1.7884607315063477,-41.42063903808594,37.86904525756836,-21.981876373291016
5.306,3.0963122844696045,-3.645465135574341,-0.0406779870390892,1.2942707538604736,0.6644686460494995,1.8614590167999268,-41.522945404052734,38.49751663208008,-22.785736083984375
5.31,3.6358938217163086,-3.8021950721740723,-0.0203389935195446,1.3295481204986572,0.6476698517799377,1.9034559726715088,-41.25986862182617,38.833675384521484,-21.908798217773438
5.32,4.694717884063721,-4.133601188659668,0.05024927482008934,1.3761266469955444,0.5800164937973022,2.0057759284973145,-40.9237060546875,39.374454498291016,-22.142648696899414
5.33,5.596811771392822,-4.311866283416748,0.11126624792814255,1.3842206001281738,0.42149701714515686,2.1036672592163086,-40.134464263916016,40.09061813354492,-23.22420310974121
5.34,5.937789440155029,-4.351347923278809,0.09092725813388824,1.3330607414245605,-0.03130684420466423,2.1485657691955566,-40.23677444458008,40.397544860839844,-23.545745849609375
5.35,5.499902248382568,-3.9254255294799805,-0.4929214417934418,1.3107640743255615,-0.5068654417991638,2.098932981491089,-38.950599670410156,40.85062789916992,-24.174217224121094
5.366,5.0596232414245605,-3.7734811305999756,-1.077966570854187,1.3600914478302002,-1.0441213846206665,2.0025689601898193,-37.19672393798828,41.49371337890625,-24.378835678100586
5.37,4.874179840087891,-3.7603206634521484,-1.4644074440002441,1.4121676683425903,-1.156978726387024,1.9654589891433716,-37.51826858520508,42.18064880371094,-24.422683715820312
5.38,4.852643966674805,-3.9218363761901855,-2.1367905139923096,1.6103935241699219,-1.2348641157150269,1.8532124757766724,-36.275943756103516,42.03449249267578,-25.15346336364746
5.39,5.247459411621094,-4.7401814460754395,-2.062613010406494,1.9112446308135986,-1.2878565788269043,1.6600263118743896,-35.720550537109375,42.47296142578125,-26.32271385192871
5.4,5.702096462249756,-6.187839031219482,-1.8017953634262085,2.1510093212127686,-1.441641926765442,1.4819591045379639,-34.39052963256836,43.04296875,-26.61502456665039
5.419,5.587240695953369,-7.533802032470703,-1.3411771059036255,2.4156665802001953,-1.6026049852371216,1.3002265691757202,-33.601287841796875,43.437591552734375,-27.477344512939453
5.423,5.630311489105225,-9.308079719543457,-0.8889335989952087,2.7595837116241455,-1.5485433340072632,1.0905472040176392,-32.51972961425781,44.82607650756836,-28.675825119018555
5.43,5.729613304138184,-10.256834030151367,-0.9834501147270203,2.848159074783325,-1.4408783912658691,1.0428996086120605,-31.993568420410156,44.811458587646484,-28.748903274536133
5.44,4.7605204582214355,-11.247462272644043,-1.1353943347930908,2.945439338684082,-0.8319984078407288,0.9459247589111328,-30.970474243164062,45.761470794677734,-30.853551864624023
5.45,3.944568157196045,-11.197213172912598,-1.0851449966430664,2.7571403980255127,-0.07910704612731934,0.8019133806228638,-30.225080490112305,45.58608627319336,-30.824321746826172
5.46,4.29750919342041,-10.564311981201172,-0.9092725515365601,2.3015873432159424,0.5951354503631592,0.589179515838623,-30.47354507446289,46.24378967285156,-32.91435241699219
5.479,4.5391845703125,-9.219545364379883,-1.210768222808838,1.721112847328186,1.1412489414215088,0.38927385210990906,-30.064308166503906,46.19994354248047,-33.235897064208984
5.483,4.667200565338135,-8.289934158325195,-1.8795621395111084,1.0493137836456299,1.8695530891418457,0.10690141469240189,-30.298158645629883,46.21455764770508,-34.33206558227539
5.49,4.569094657897949,-8.311469078063965,-2.489731788635254,0.788627028465271,2.2120957374572754,-0.06505714356899261,-30.824321746826172,46.740718841552734,-34.65361022949219
5.5,4.937589645385742,-8.689535140991211,-3.964907169342041,0.545044481754303,2.560288906097412,-0.3179553747177124,-30.765857696533203,46.71148681640625,-35.39900588989258
5.51,5.9330034255981445,-9.595218658447266,-5.284548759460449,0.47540587186813354,2.515543222427368,-0.513737678527832,-30.722009658813477,46.755332946777344,-35.06284713745117
5.52,6.270391464233398,-11.33121109008789,-6.8171515464782715,0.665232241153717,2.1087067127227783,-0.5890268087387085,-32.183570861816406,46.667640686035156,-35.369773864746094
5.54,6.7310099601745605,-13.939387321472168,-7.022934436798096,0.9347765445709229,1.447445273399353,-0.6157521605491638,-32.052032470703125,46.19994354248047,-35.48670196533203
5.544,6.8650078773498535,-19.580467224121094,-3.838087320327759,1.0322095155715942,0.2768746614456177,-0.6988298296928406,-32.69511795043945,47.04764938354492,-35.99824523925781
5.55,6.946363925933838,-21.77707862854004,-0.818345308303833,0.6685919761657715,-0.3825543522834778,-0.7812966108322144,-32.95820236206055,46.740718841552734,-36.87518310546875
5.56,6.616154670715332,-21.18246078491211,2.1188442707061768,-0.08750644326210022,-1.1856893301010132,-0.8266533613204956,-33.07512283325195,46.95995330810547,-36.729026794433594
5.57,5.283352375030518,-17.468801498413086,2.0997018814086914,-0.6875288486480713,-1.641394853591919,-0.6617197394371033,-33.031280517578125,46.550716400146484,-36.34901809692383
5.58,3.2793633937835693,-12.76211929321289,1.6271193027496338,-0.9604328870773315,-1.761582612991333,-0.4401284158229828,-33.01666259765625,46.21455764770508,-36.100555419921875
5.6,2.636890411376953,-9.538987159729004,1.84965181350708,-1.089020013809204,-1.736689805984497,-0.27901268005371094,-33.32358932495117,46.4191780090332,-35.0043830871582
5.604,1.998006820678711,-7.122236251831055,1.5170494318008423,-1.0868819952011108,-1.3880385160446167,-0.1586722582578659,-32.95820236206055,45.67377853393555,-35.106693267822266
5.61,2.029113531112671,-6.299105644226074,1.0432707071304321,-1.0212138891220093,-1.0945178270339966,-0.17623461782932281,-33.39666748046875,45.67377853393555,-34.185909271240234
5.62,3.3332018852233887,-6.10050106048584,0.6197410225868225,-0.8442157506942749,-0.8947648406028748,-0.20066924393177032,-33.002044677734375,45.26454162597656,-33.29435729980469
5.63,4.671986103057861,-7.695317268371582,1.031306505203247,-0.6010913848876953,-1.0309878587722778,-0.19486600160598755,-32.28588104248047,45.366851806640625,-33.76205825805664
5.64,5.133800983428955,-10.16471004486084,1.7850456237792969,-0.37950003147125244,-1.280068039894104,-0.2304489016532898,-32.46126937866211,45.162235260009766,-32.680503845214844
5.659,5.5345988273620605,-13.045668601989746,2.124826431274414,0.15073098242282867,-1.2304352521896362,-0.237321138381958,-32.88512420654297,44.85530471801758,-33.250511169433594
5.663,7.287341117858887,-16.97468376159668,3.1573293209075928,0.27259859442710876,-1.0286970138549805,-0.14309518039226532,-32.242034912109375,45.4399299621582,-32.85588836669922
5.67,7.940581321716309,-15.8632173538208,3.528217077255249,0.37400221824645996,-0.7342600226402283,0.06979135423898697,-32.27126693725586,45.176849365234375,-32.943580627441406
5.68,6.27876615524292,-11.863614082336426,2.9718856811523438,0.469449907541275,-0.47372597455978394,0.2727513313293457,-32.34434509277344,45.118385314941406,-33.601287841796875
5.69,5.133800983428955,-9.611968040466309,2.362912178039551,0.5812382698059082,-0.22876903414726257,0.25503623485565186,-32.08126449584961,45.27915573120117,-32.943580627441406
5.7,5.132604598999023,-9.282955169677734,2.1164515018463135,0.6834054589271545,0.21074850857257843,0.16600261628627777,-32.1689567565918,45.35223388671875,-33.791290283203125
5.719,6.289534091949463,-11.699705123901367,1.9477574825286865,0.6244570016860962,0.6395758986473083,0.20387627184391022,-32.03741455078125,45.86378479003906,-34.05436706542969
5.723,5.749952793121338,-11.546565055847168,1.566102385520935,0.6357579827308655,0.6473644375801086,0.19394971430301666,-32.31510925292969,45.717628479003906,-33.41128158569336
5.73,5.142175674438477,-10.991430282592773,1.179661512374878,0.7002043128013611,0.6339254379272461,0.13698652386665344,-31.67202377319336,45.86378479003906,-34.63899612426758
5.74,4.445864677429199,-9.988838195800781,0.9702895283699036,0.793666660785675,0.5940664410591125,0.10155634582042694,-32.066646575927734,45.95147705078125,-34.37591552734375
5.75,2.8582265377044678,-9.028119087219238,0.1256231814622879,0.9010262489318848,0.6782131195068359,0.10797043144702911,-32.21280288696289,46.50687026977539,-34.49283981323242
5.76,1.6977075338363647,-8.465806007385254,-0.32662028074264526,0.944244921207428,0.8295549750328064,0.11010845750570297,-32.51972961425781,46.375328063964844,-34.9459228515625
5.779,3.6634113788604736,-7.939384937286377,1.057627558708191,0.4132503271102905,1.0450377464294434,0.21960605680942535,-32.373573303222656,46.8430290222168,-36.37825393676758
5.783,3.999603033065796,-7.786244869232178,1.1509475708007812,0.3323107063770294,1.0977247953414917,0.21242839097976685,-32.5489616394043,46.56533432006836,-36.14440155029297
5.79,4.561916351318359,-7.624728679656982,1.0923235416412354,0.14905111491680145,1.1632400751113892,0.1440114825963974,-32.75358200073242,46.4191780090332,-36.04209518432617
5.8,4.71744966506958,-7.479963302612305,0.6735795140266418,0.10674870014190674,1.1184942722320557,-0.04703662171959877,-32.73896408081055,46.60917663574219,-36.0859375
5.81,4.762913227081299,-7.5146589279174805,0.31345975399017334,0.2220495045185089,1.1357512474060059,-0.11759155988693237,-33.031280517578125,46.21455764770508,-36.539024353027344
5.829,4.395615100860596,-8.01116943359375,0.2021934986114502,0.32070425152778625,1.2713632583618164,-0.14004085958003998,-33.38205337524414,46.60917663574219,-36.20286560058594
5.833,3.3343982696533203,-8.47298526763916,-0.9391828775405884,0.31001412868499756,1.617876648902893,-0.19303342700004578,-33.68898010253906,46.974571228027344,-36.23209762573242
5.84,2.6141586303710938,-8.57946491241455,-1.8987046480178833,0.26343563199043274,1.8391624689102173,-0.23228150606155396,-33.250511169433594,46.872257232666016,-35.61824035644531
5.85,1.9597216844558716,-8.642874717712402,-2.6117656230926514,-0.051312681287527084,2.0778579711914062,-0.20357082784175873,-33.84975051879883,46.755332946777344,-36.0274772644043
5.86,1.856830358505249,-8.039883613586426,-2.77447772026062,-0.5164865851402283,1.8594738245010376,-0.1339322030544281,-34.229759216308594,46.7991828918457,-36.0274772644043
5.87,2.203789472579956,-7.018148422241211,-2.6321046352386475,-0.9092729091644287,1.322981357574463,-0.05207626149058342,-34.31745147705078,46.550716400146484,-36.24671173095703
5.888,2.7014968395233154,-6.300302028656006,-2.4335005283355713,-1.0615310668945312,0.7710646390914917,0.08491026610136032,-34.65361022949219,46.43379211425781,-36.12978744506836
5.893,3.706482172012329,-6.267998695373535,-1.0863415002822876,-1.052673578262329,0.13607022166252136,0.2698497176170349,-34.44898986816406,45.995323181152344,-35.95439910888672
5.9,4.329812526702881,-6.378068447113037,-0.35892340540885925,-1.0004445314407349,-0.3400992155075073,0.3929390609264374,-34.27360534667969,45.717628479003906,-35.472084045410156
5.91,5.182853698730469,-6.591030120849609,0.2955136001110077,-0.8764389157295227,-0.5931501388549805,0.47769662737846375,-34.156681060791016,45.51300811767578,-35.0043830871582
5.92,5.375475883483887,-6.692724704742432,0.5910272002220154,-0.6794348359107971,-0.6681338548660278,0.4660901725292206,-34.05436706542969,45.70301055908203,-34.185909271240234
5.93,5.192424774169922,-6.660421848297119,0.8147560954093933,-0.42684206366539,-0.6988298296928406,0.3491095006465912,-33.95206069946289,45.46916198730469,-34.21514129638672
5.95,5.010570526123047,-6.439085483551025,1.1736794710159302,-0.20525072515010834,-0.7806857824325562,0.25824329257011414,-33.29435729980469,45.62993240356445,-34.30283737182617
5.954,4.225724697113037,-5.753541946411133,1.1114661693572998,-0.016493361443281174,-0.6455318927764893,0.2168571650981903,-32.65127182006836,45.29377365112305,-34.31745147705078
5.96,3.875175952911377,-5.515455722808838,0.9798608422279358,0.007177666295319796,-0.4170682430267334,0.17470745742321014,-32.57819366455078,46.25840377807617,-34.47822189331055
5.97,3.4193434715270996,-5.146961212158203,0.7166503667831421,-0.10018189251422882,0.24495695531368256,0.09773843735456467,-32.680503845214844,46.126861572265625,-34.419761657714844
5.98,3.7423744201660156,-4.816751956939697,0.836291491985321,-0.3920227587223053,0.8495608568191528,-0.05451972037553787,-32.69511795043945,45.58608627319336,-33.77667236328125
5.99,3.700500249862671,-4.253242015838623,0.4618147313594818,-0.6499606370925903,1.0590876340866089,-0.2617557644844055,-33.08974075317383,45.176849365234375,-33.235897064208984
6.009,3.3403801918029785,-4.180261135101318,-0.17228323221206665,-1.3753629922866821,2.141693592071533,-0.6082690358161926,-34.127445220947266,44.577606201171875,-32.9289665222168
6.012,3.4719855785369873,-4.5236310958862305,-1.483549952507019,-1.5975652933120728,2.436741590499878,-0.7525859475135803,-33.9666748046875,45.08915710449219,-33.10435485839844
6.02,5.295316219329834,-4.429114818572998,-1.7635102272033691,-1.7330245971679688,2.3877193927764893,-1.0448850393295288,-35.3843879699707,44.431453704833984,-31.847414016723633
6.03,6.384050369262695,-5.283352375030518,-1.2969098091125488,-1.4987578392028809,1.5942054986953735,-1.4201089143753052,-35.74978256225586,43.67144012451172,-32.052032470703125
6.04,6.537191390991211,-7.6666035652160645,-0.2823530435562134,-1.1925616264343262,0.9162978529930115,-1.6090190410614014,-36.67056655883789,43.13066482543945,-31.262788772583008
6.05,6.623332977294922,-9.888339042663574,0.3230310380458832,-1.1305588483810425,0.7568620443344116,-1.5729780197143555,-37.401344299316406,42.91142654418945,-30.54662322998047
6.069,6.6759748458862305,-10.676774024963379,0.698704183101654,-0.8579602241516113,0.4524984359741211,-1.1213958263397217,-38.029815673828125,42.239112854003906,-30.049694061279297
6.073,5.91505765914917,-8.58784008026123,1.2478569746017456,-0.6869179010391235,0.1739438772201538,-0.9497426748275757,-38.33674621582031,42.326805114746094,-30.517393112182617
6.08,5.015356063842773,-7.477570533752441,1.1880364418029785,-0.43157631158828735,-0.26893341541290283,-0.7266241908073425,-38.45366668701172,41.873722076416016,-29.552762985229492
6.09,4.376472473144531,-7.066004753112793,1.2669994831085205,-0.2249511182308197,-0.7586946487426758,-0.49525898694992065,-38.4244384765625,41.93218231201172,-29.742765426635742
6.1,4.447060585021973,-7.597211837768555,1.2526426315307617,-0.22617284953594208,-1.1902709007263184,-0.29168814420700073,-38.819061279296875,41.9029541015625,-29.684301376342773
6.11,4.315455436706543,-8.490930557250977,0.1459621787071228,-0.445931613445282,-1.5667166709899902,-0.11423180252313614,-38.4828987121582,41.42063903808594,-29.09967803955078
6.13,5.38624382019043,-10.526025772094727,-2.0554347038269043,-0.9213374853134155,-0.891863226890564,-0.3065016567707062,-38.1028938293457,41.04063034057617,-28.193510055541992
6.133,6.052644729614258,-11.13619613647461,-2.286341905593872,-0.9784533381462097,-0.7368561625480652,-0.4109595715999603,-38.17597198486328,40.894474029541016,-27.988893508911133
6.14,7.5493550300598145,-12.245269775390625,-2.7672994136810303,-1.0829113721847534,-0.20357082784175873,-0.8956811428070068,-38.029815673828125,40.82139587402344,-26.936567306518555
6.15,11.296515464782715,-14.895320892333984,-2.9515466690063477,-0.9327912330627441,0.7012733221054077,-1.9634735584259033,-37.57673263549805,40.23677444458008,-27.24349594116211
6.16,15.852449417114258,-17.024932861328125,-1.8293129205703735,-0.7867944240570068,1.6345226764678955,-3.1369457244873047,-39.228294372558594,39.75445556640625,-26.52733039855957
6.17,17.47837257385254,-15.967305183410645,-2.379662036895752,-1.179580807685852,1.7603609561920166,-3.048675775527954,-40.64601135253906,39.228294372558594,-26.96579933166504
6.19,11.673384666442871,-11.201998710632324,-5.443671703338623,-0.613461434841156,-0.6215553879737854,-2.501646041870117,-42.41449737548828,37.708274841308594,-26.702720642089844
6.193,10.8490571975708,-10.991430282592773,-5.24626350402832,-0.36193764209747314,-1.4575245380401611,-2.4025330543518066,-42.91142654418945,37.41596221923828,-26.045015335083008
6.2,8.782855033874512,-10.596613883972168,-3.9876389503479004,-0.14156801998615265,-2.2061398029327393,-2.261575937271118,-43.11604690551758,36.67056655883789,-25.387313842773438
6.21,5.96171760559082,-9.750751495361328,-0.9332008361816406,0.16584990918636322,-3.431230068206787,-1.7414240837097168,-43.452205657958984,36.59748840332031,-25.095001220703125
6.22,3.5533413887023926,-8.858229637145996,2.4227328300476074,-0.0018325956771150231,-3.802483558654785,-1.2724322080612183,-43.20374298095703,36.62671661376953,-24.364221572875977
6.239,2.4885356426239014,-8.405985832214355,3.5748770236968994,-0.31612274050712585,-3.732233762741089,-0.8564330339431763,-42.312191009521484,36.100555419921875,-22.858814239501953
6.243,1.6809579133987427,-9.759126663208008,3.129812002182007,-0.5471825003623962,-3.168405294418335,-0.4911356270313263,-41.34756088256836,36.0859375,-21.879568099975586
6.25,1.137787103652954,-11.528619766235352,2.651247262954712,-0.5940664410591125,-2.4417810440063477,-0.29016098380088806,-41.099090576171875,35.9836311340332,-21.148786544799805
6.26,0.7010970711708069,-13.957334518432617,1.9728822708129883,-0.6401867866516113,-1.0613783597946167,-0.04688390716910362,-40.309852600097656,35.04823303222656,-21.26571273803711
6.27,1.1940184831619263,-15.463615417480469,0.07537391036748886,-0.5757404565811157,0.4069889783859253,-0.11041389405727386,-40.002925872802734,34.989768981933594,-21.031862258911133
6.28,2.5603203773498535,-14.909677505493164,-1.3280165195465088,-0.4466952085494995,1.1369730234146118,-0.4847215414047241,-40.85062789916992,34.81438064575195,-20.798011779785156
6.299,5.197210788726807,-11.752347946166992,-1.5672988891601562,-0.436157763004303,1.4083497524261475,-0.862541675567627,-41.49371337890625,34.47822189331055,-21.075708389282227
6.304,7.2921271324157715,-7.970492362976074,-2.3736801147460938,-0.30146196484565735,0.8817839622497559,-0.8058840036392212,-42.19526290893555,33.922828674316406,-21.48494529724121
6.31,7.008577346801758,-7.192824363708496,-2.421536445617676,-0.22388210892677307,0.5742133259773254,-0.6559165120124817,-42.706809997558594,34.185909271240234,-21.938030242919922
6.32,5.3934221267700195,-6.148357391357422,-1.9345970153808594,-0.039095375686883926,0.06688974052667618,-0.1696678102016449,-43.27682113647461,34.05436706542969,-22.09880256652832
6.33,2.964707136154175,-5.341976165771484,-1.113858938217163,0.12767083942890167,-0.04153883829712868,0.1924225389957428,-42.633731842041016,33.572052001953125,-21.8503360748291
6.34,1.6402798891067505,-5.140979290008545,-0.39003005623817444,0.327729195356369,-0.01664607785642147,0.4486805200576782,-42.9406623840332,33.557437896728516,-21.718795776367188
6.359,0.6855436563491821,-5.352744102478027,0.2847459018230438,0.47051894664764404,0.07101307809352875,0.637132465839386,-42.95527648925781,34.46360778808594,-20.841859817504883
6.363,0.5994020700454712,-5.816951751708984,0.4977070689201355,0.5626068711280823,0.2854267954826355,0.8752171993255615,-42.326805114746094,34.52206802368164,-21.528793334960938
6.37,0.7501499056816101,-5.832504749298096,0.397208571434021,0.6229298114776611,0.3926336169242859,1.004873275756836,-42.326805114746094,34.77053451538086,-21.10494041442871
6.38,1.1401798725128174,-5.893521785736084,0.34695929288864136,0.7185302376747131,0.5558873414993286,1.1566733121871948,-42.03449249267578,35.25284957885742,-22.508039474487305
6.39,1.6067804098129272,-5.783452033996582,0.35413771867752075,0.7843509316444397,0.7035639882087708,1.2712105512619019,-42.0052604675293,35.63285446166992,-22.215726852416992
6.4,2.1260228157043457,-5.570490837097168,0.39840495586395264,0.8190175890922546,0.7608326077461243,1.3578007221221924,-42.12218475341797,35.77901077270508,-23.12189483642578
6.42,2.6967110633850098,-5.349154949188232,0.3888336718082428,0.8323038816452026,0.5181664228439331,1.5222761631011963,-41.47909927368164,37.021339416503906,-23.443437576293945
6.423,3.2004001140594482,-4.886143684387207,0.259621262550354,0.8342891931533813,0.4112650156021118,1.5624405145645142,-41.318328857421875,36.77287292480469,-23.428821563720703
6.43,3.328416109085083,-4.692325115203857,0.17347964644432068,0.834747314453125,0.2408336102962494,1.616654872894287,-41.186790466308594,36.3636360168457,-25.080385208129883
6.44,3.37268328666687,-4.435096740722656,0.019142581149935722,0.831234872341156,0.07590001076459885,1.6806429624557495,-40.82139587402344,37.45980453491211,-24.247295379638672
6.45,3.524627685546875,-4.241277694702148,-0.12921242415905,0.817948579788208,-0.009773843921720982,1.7440203428268433,-40.09061813354492,37.664424896240234,-23.881906509399414
6.46,3.7184462547302246,-4.260420799255371,-0.10887342691421509,0.7994698882102966,-0.07620543986558914,1.7985399961471558,-39.85676574707031,38.13212585449219,-24.422683715820312
6.48,3.844069242477417,-4.406383037567139,-0.23210379481315613,0.8717046976089478,-0.19013181328773499,1.8252654075622559,-38.67290496826172,38.90675354003906,-25.40192985534668
6.483,4.829912185668945,-4.898108005523682,-0.680757999420166,0.9372199773788452,-0.26190847158432007,1.8281668424606323,-38.55597686767578,39.30137634277344,-24.729610443115234
6.49,5.126622676849365,-5.157729148864746,-0.787238597869873,1.060920238494873,-0.3675881624221802,1.8542814254760742,-37.635196685791016,39.00905990600586,-24.831920623779297
6.5,5.042873382568359,-5.6315083503723145,-1.168893814086914,1.2597568035125732,-0.43508875370025635,1.891544222831726,-36.81671905517578,39.47676086425781,-25.548086166381836
6.51,5.216352939605713,-6.4833526611328125,-1.3088740110397339,1.5065463781356812,-0.5054909586906433,1.8209892511367798,-36.43671417236328,40.07600402832031,-25.67962646484375
6.52,5.596811771392822,-7.348358154296875,-1.368694543838501,1.8104517459869385,-0.5809328556060791,1.690264105796814,-36.04209518432617,40.309852600097656,-26.43963623046875
6.533,5.775076866149902,-8.435895919799805,-1.384247899055481,2.1030561923980713,-0.625220537185669,1.5012012720108032,-34.84361267089844,41.49371337890625,-27.024263381958008
6.54,5.874379634857178,-8.69791030883789,-0.9690931439399719,2.225229263305664,-0.6426302194595337,1.3735305070877075,-34.726688385009766,41.21601867675781,-27.62350082397461
6.55,6.178267955780029,-8.779266357421875,-0.09092725813388824,2.253481864929199,-0.6484334468841553,1.2635747194290161,-33.84975051879883,42.078338623046875,-28.04735565185547
6.56,5.717649936676025,-8.543573379516602,0.38644087314605713,2.149940252304077,-0.5241223573684692,1.2015719413757324,-33.9082145690918,42.239112854003906,-29.085063934326172
6.57,5.6207404136657715,-8.041080474853516,0.03349951654672623,1.9734001159667969,0.022143863141536713,1.0864238739013672,-33.250511169433594,42.58988571166992,-29.34814453125
6.58,5.598008632659912,-7.586443901062012,-1.1078768968582153,1.7928894758224487,0.5913175940513611,0.9776898622512817,-32.53434753417969,43.20374298095703,-29.830459594726562
6.592,4.567898273468018,-7.929814338684082,-1.9118653535842896,1.4938708543777466,1.4187344312667847,0.7622070908546448,-32.812042236328125,43.23297119140625,-30.42970085144043
6.6,4.667200565338135,-8.672784805297852,-2.513659954071045,1.185231328010559,1.8400788307189941,0.569631814956665,-32.47588348388672,43.802982330322266,-31.04355239868164
6.61,5.373082637786865,-9.747162818908691,-3.4719855785369873,0.6873761415481567,2.03540301322937,0.3049744665622711,-33.002044677734375,43.65682601928711,-31.993568420410156
6.62,6.110072612762451,-10.193424224853516,-4.755734920501709,0.2664899528026581,1.7652478218078613,0.0884227380156517,-32.73896408081055,43.802982330322266,-32.31510925292969
6.63,6.252445697784424,-10.199406623840332,-5.148157596588135,0.0503963828086853,1.013425350189209,-0.06291911751031876,-33.29435729980469,44.007598876953125,-31.65740966796875
6.65,5.97727108001709,-9.432506561279297,-4.78803825378418,-0.013439035043120384,0.294437050819397,-0.10919215530157089,-33.922828674316406,43.627593994140625,-30.9266300201416
6.653,5.130211353302002,-8.194220542907715,-4.310669898986816,0.06444628536701202,-0.45662176609039307,-0.12446378916501999,-33.9666748046875,43.13066482543945,-32.1251106262207
6.66,5.051248073577881,-7.598408222198486,-3.5533413887023926,0.13759739696979523,-0.8156577944755554,-0.12568552792072296,-34.33206558227539,43.393741607666016,-31.832796096801758
6.67,5.08235502243042,-7.1162543296813965,-2.3676979541778564,0.2076941728591919,-1.2441797256469727,-0.13347405195236206,-34.56591796875,42.999122619628906,-32.13972473144531
6.68,5.146961212158203,-7.290930271148682,-1.4560325145721436,0.27550020813941956,-1.652390480041504,-0.16279558837413788,-34.112831115722656,42.98450469970703,-32.15433883666992
6.69,5.203192710876465,-8.666803359985352,-0.7896314859390259,0.4046982228755951,-1.797623634338379,-0.1924225389957428,-34.06898498535156,43.11604690551758,-31.905874252319336
6.709,5.2414774894714355,-10.558329582214355,-0.2715853750705719,0.888350784778595,-1.457066297531128,-0.31383201479911804,-33.87898254394531,43.11604690551758,-31.920490264892578
6.713,5.879165172576904,-13.804193496704102,1.657029628753662,0.9065240025520325,-1.4062117338180542,-0.3321579694747925,-34.58053207397461,43.247589111328125,-31.949722290039062
6.72,5.809772968292236,-15.74596881866455,2.2229323387145996,0.891863226890564,-1.2344058752059937,-0.39843684434890747,-34.229759216308594,43.90529251098633,-31.365097045898438
