time,accel_x,accel_y,accel_z,gyro_x,gyro_y,gyro_z,mag_x,mag_y,mag_z
0.0,0.7597211599349976,-9.394221305847168,-2.829512596130371,0.03298672288656235,0.09941831976175308,0.03344487026333809,-47.427650451660156,43.34989929199219,-27.681964874267578
0.004,0.8853443264961243,-9.272187232971191,-2.874976396560669,0.057879481464624405,0.1690569519996643,0.06582073122262955,-47.486114501953125,43.17451095581055,-27.63811683654785
0.01,0.760917603969574,-9.320043563842773,-2.7553350925445557,0.06551529467105865,0.19807305932044983,0.06780604273080826,-47.851505279541016,43.01374053955078,-26.936567306518555
0.02,0.94037926197052,-9.3248291015625,-2.8761725425720215,0.07513642311096191,0.23594669997692108,0.04917465150356293,-47.61765670776367,42.896812438964844,-27.52119255065918
0.03,0.9439685344696045,-9.327221870422363,-2.8175485134124756,0.09056076407432556,0.25335633754730225,0.06505714356899261,-47.25226593017578,43.51066970825195,-27.652734756469727
0.04,0.8434699773788452,-9.19442081451416,-2.7876384258270264,0.10751228034496307,0.2522873282432556,0.056810468435287476,-47.69073486328125,43.48143768310547,-27.915815353393555
0.05,0.9272187352180481,-9.150154113769531,-2.6943180561065674,0.12767083942890167,0.2532036304473877,0.03787364438176155,-47.70534896850586,43.86144256591797,-27.63811683654785
0.07,1.1449655294418335,-9.481559753417969,-2.6452653408050537,0.10522153228521347,0.10247264802455902,-0.021991148591041565,-47.529964447021484,43.15989685058594,-27.433500289916992
0.073,1.168893814086914,-9.580862045288086,-2.6488544940948486,0.09926559776067734,0.08048149198293686,-0.02626720443367958,-47.70534896850586,43.627593994140625,-28.500438690185547
0.08,1.1676974296569824,-9.644271850585938,-2.675175428390503,0.07925976812839508,0.005345070734620094,-0.04337143152952194,-47.32534408569336,43.83221435546875,-28.412744522094727
0.091,0.9750751852989197,-9.80817985534668,-2.583051919937134,0.0503963828086853,-0.06291911751031876,-0.039706241339445114,-47.1207275390625,43.40835952758789,-28.69044303894043
0.1,0.5575276613235474,-9.975677490234375,-2.5698914527893066,0.024892758578062057,-0.04077525436878204,0.003359758760780096,-47.79304122924805,43.27682113647461,-27.871967315673828
0.11,0.4773681163787842,-9.779465675354004,-2.68953275680542,0.007788531482219696,-0.02229658141732216,-0.003512475173920393,-47.544578552246094,43.58374786376953,-28.383514404296875
0.13,0.5910272002220154,-9.495916366577148,-2.794816732406616,0.025961771607398987,-0.013286319561302662,0.015271631069481373,-47.36919021606445,43.466819763183594,-27.886581420898438
0.133,0.6017948985099792,-9.486345291137695,-2.7900309562683105,0.0328340083360672,-0.0025961773935705423,0.02825251594185829,-47.70534896850586,43.61297607421875,-27.988893508911133
0.14,0.5635097026824951,-9.503094673156738,-2.7912275791168213,0.039706241339445114,-0.004886921960860491,0.042302414774894714,-47.296112060546875,43.14527893066406,-28.193510055541992
0.15,0.41515469551086426,-9.431309700012207,-2.7014968395233154,0.04108068719506264,-0.01664607785642147,0.0455094613134861,-47.39842224121094,43.10143280029297,-28.851213455200195
0.16,0.39122650027275085,-9.406185150146484,-2.8043882846832275,0.04108068719506264,-0.033597588539123535,0.04871650040149689,-47.20841979980469,43.72990417480469,-28.851213455200195
0.17,0.25244277715682983,-9.507880210876465,-2.9491539001464844,0.04856378585100174,-0.05009094625711441,0.07116580009460449,-47.32534408569336,43.33528137207031,-28.28120231628418
0.19,-0.6927221417427063,-9.437292098999023,-2.7876384258270264,0.05726861581206322,-0.07406741380691528,0.07360926270484924,-47.67612075805664,43.75913619995117,-28.1496639251709
0.194,-0.9332008361816406,-9.387042999267578,-2.7003002166748047,0.05513058975338936,-0.053908854722976685,0.06704245507717133,-47.74919891357422,43.11604690551758,-28.091201782226562
0.2,-1.1042876243591309,-9.330811500549316,-2.609373092651367,0.05314527824521065,0.003512475173920393,0.07223481684923172,-46.98918533325195,43.3206672668457,-27.886581420898438
0.21,-1.435693621635437,-9.096315383911133,-2.5292134284973145,0.0630718320608139,0.1287398487329483,0.10873401165008545,-46.78456497192383,43.262203216552734,-27.41888427734375
0.22,-1.5134602785110474,-8.768498420715332,-2.5806589126586914,0.09162978827953339,0.27488934993743896,0.18585574626922607,-47.09149169921875,43.11604690551758,-28.61736488342285
0.23,-1.5649060010910034,-8.425127983093262,-2.537588357925415,0.1333213448524475,0.3988949954509735,0.2719877362251282,-47.26688003540039,43.58374786376953,-28.500438690185547
0.246,-1.5134602785110474,-8.23011302947998,-2.445464611053467,0.22770002484321594,0.5951354503631592,0.4332561492919922,-47.237648010253906,43.84682846069336,-28.924291610717773
0.251,-1.412961721420288,-8.26839828491211,-2.444268226623535,0.2557998299598694,0.640034019947052,0.479834645986557,-47.1207275390625,43.40835952758789,-29.15814208984375
0.261,-1.1904292106628418,-8.513663291931152,-2.337787628173828,0.30146196484565735,0.6751587986946106,0.5630649924278259,-47.00379943847656,43.466819763183594,-30.035078048706055
0.27,-0.8865407705307007,-8.935996055603027,-2.2025930881500244,0.30726519227027893,0.665232241153717,0.6259841322898865,-46.726104736328125,44.548377990722656,-29.7281494140625
0.28,-0.5048855543136597,-9.184849739074707,-2.403590202331543,0.30146196484565735,0.6209444999694824,0.7124215364456177,-46.98918533325195,43.7006721496582,-28.89505958557129
0.3,-0.3768695592880249,-9.237491607666016,-2.5052852630615234,0.2854267954826355,0.5325217843055725,0.7866417169570923,-46.81379699707031,44.358375549316406,-29.757381439208984
0.304,0.09451649338006973,-9.122635841369629,-2.8223342895507812,0.26343563199043274,0.31612274050712585,0.8426886200904846,-46.302249908447266,44.811458587646484,-30.42970085144043
0.311,0.2620140612125397,-9.096315383911133,-2.9754748344421387,0.26710081100463867,0.19578230381011963,0.887739896774292,-46.112247467041016,44.577606201171875,-30.605087280273438
0.32,0.15194423496723175,-9.18604564666748,-2.8151557445526123,0.27320948243141174,0.02672535367310047,0.9425650835037231,-46.03916931152344,44.53376388549805,-31.18971061706543
0.33,-0.06939185410737991,-9.316454887390137,-2.6213371753692627,0.25915956497192383,-0.10094548016786575,0.9821186065673828,-45.68839645385742,45.3814697265625,-30.6489315032959
0.34,-0.31106695532798767,-9.353543281555176,-2.458625316619873,0.23380866646766663,-0.18127425014972687,1.0102183818817139,-45.118385314941406,44.928382873535156,-30.707395553588867
0.359,-0.42711883783340454,-9.257830619812012,-2.4849462509155273,0.1953241527080536,-0.22815817594528198,1.0276280641555786,-45.14761734008789,45.4399299621582,-30.73662757873535
0.363,-0.3361915946006775,-9.083154678344727,-2.66560435295105,0.18875734508037567,-0.21670444309711456,1.0558805465698242,-44.32914352416992,45.556854248046875,-30.53200912475586
0.371,-0.23330020904541016,-9.011369705200195,-2.754138708114624,0.19349156320095062,-0.19853119552135468,1.0633636713027954,-43.72990417480469,45.62993240356445,-30.605087280273438
0.381,-0.11964112520217896,-8.908477783203125,-2.8594231605529785,0.20647244155406952,-0.1693623811006546,1.0771081447601318,-43.057586669921875,45.35223388671875,-30.488161087036133
0.39,0.12203395366668701,-8.943174362182617,-2.8067808151245117,0.22281308472156525,-0.13377948105335236,1.0807733535766602,-42.823734283447266,45.98070526123047,-30.795087814331055
0.4,0.4378865361213684,-8.921639442443848,-2.737389087677002,0.22708913683891296,-0.10781770944595337,1.0757336616516113,-42.64834976196289,46.19994354248047,-31.730487823486328
0.42,0.8063812255859375,-8.733802795410156,-2.779263496398926,0.23411409556865692,-0.11667525768280029,1.0687086582183838,-42.19526290893555,46.726104736328125,-31.072786331176758
0.424,1.3483555316925049,-8.578269004821777,-2.915654182434082,0.26572638750076294,-0.14782939851284027,1.0493137836456299,-41.43525314331055,46.550716400146484,-30.89739990234375
0.431,1.1928220987319946,-8.699106216430664,-2.691925287246704,0.2868012487888336,-0.1921171098947525,1.06351637840271,-40.952938079833984,46.69687271118164,-31.292020797729492
0.44,0.7668996453285217,-9.104689598083496,-2.6249263286590576,0.26404649019241333,-0.11026117950677872,1.0584768056869507,-40.309852600097656,46.916107177734375,-31.072786331176758
0.45,1.3555339574813843,-9.456435203552246,-2.8175485134124756,0.2532036304473877,-0.03481931984424591,0.9938777089118958,-40.134464263916016,47.63227081298828,-30.824321746826172
0.46,1.4859428405761719,-9.77587604522705,-2.5387847423553467,0.2050980031490326,-0.01710422709584236,0.971428394317627,-39.73984146118164,46.8430290222168,-31.10201644897461
0.48,1.4452649354934692,-9.810572624206543,-2.748156785964966,0.15057827532291412,0.051770828664302826,0.9279043078422546,-39.213680267333984,47.296112060546875,-30.663549423217773
0.484,1.798206090927124,-10.131211280822754,-2.7553350925445557,0.12797626852989197,0.15470163524150848,0.8804094791412354,-39.27214050292969,47.427650451660156,-31.891260147094727
0.491,2.029113531112671,-10.418349266052246,-2.8067808151245117,0.10445795953273773,0.2171625941991806,0.8678867816925049,-39.155216217041016,47.544578552246094,-31.584331512451172
0.5,2.5746772289276123,-10.922039031982422,-2.8582265377044678,0.07238753139972687,0.2742784917354584,0.8515461683273315,-38.4828987121582,47.70534896850586,-31.59894561767578
0.51,3.2925240993499756,-11.400602340698242,-3.0352954864501953,0.03252857178449631,0.28496861457824707,0.8417722582817078,-38.08827590942383,47.95381546020508,-31.584331512451172
0.52,4.05703067779541,-11.655439376831055,-2.9826531410217285,0.021991148591041565,0.24495695531368256,0.8370380997657776,-38.33674621582031,47.44226837158203,-31.45279312133789
0.54,4.084547996520996,-11.522637367248535,-2.95393967628479,-0.0138971833512187,0.1742493212223053,0.7841982841491699,-38.32212829589844,47.95381546020508,-32.052032470703125
0.544,4.334598064422607,-11.029715538024902,-3.377469062805176,-0.07192938029766083,0.08536841720342636,0.5589417219161987,-37.37211227416992,48.041507720947266,-30.91201400756836
0.551,4.634897232055664,-10.887343406677246,-3.449253797531128,-0.08567384630441666,0.06261368840932846,0.4781547486782074,-37.75211715698242,48.5822868347168,-31.75971794128418
0.56,4.89571475982666,-10.680363655090332,-3.7902309894561768,-0.09346237778663635,0.010079275816679,0.27519479393959045,-36.919029235839844,47.9391975402832,-31.64279556274414
0.57,4.935196399688721,-10.691131591796875,-3.9050865173339844,-0.09346237778663635,-0.02672535367310047,0.14095714688301086,-37.19672393798828,48.289974212646484,-31.175094604492188
0.58,4.286741733551025,-10.906484603881836,-3.500699520111084,-0.08964447677135468,0.027183502912521362,0.03848451003432274,-37.26980209350586,47.851505279541016,-31.75971794128418
0.599,4.201796531677246,-11.041679382324219,-3.2004001140594482,-0.146913081407547,0.11026117950677872,-0.34865131974220276,-37.51826858520508,48.39228439331055,-31.905874252319336
0.603,4.828715801239014,-10.986644744873047,-3.2207393646240234,-0.16569718718528748,0.09269880503416061,-0.43860122561454773,-37.284420013427734,48.23151397705078,-31.379714965820312
0.61,4.947160720825195,-10.943573951721191,-3.269791841506958,-0.19822576642036438,0.05772676318883896,-0.5642867684364319,-37.78135299682617,48.479976654052734,-31.277402877807617
0.62,4.974678039550781,-10.78564739227295,-3.187239646911621,-0.23365594446659088,-0.0036651913542300463,-0.7489207983016968,-37.56211853027344,47.99766159057617,-31.175094604492188
0.63,5.015356063842773,-10.608579635620117,-3.2578277587890625,-0.2632829248905182,-0.078343465924263,-0.9570730924606323,-38.1467399597168,48.31920623779297,-31.18971061706543
0.64,5.014159679412842,-10.358529090881348,-3.314059257507324,-0.293826162815094,-0.16493360698223114,-1.1522445678710938,-38.4244384765625,47.69073486328125,-30.765857696533203
0.66,4.951946258544922,-10.1874418258667,-3.373879909515381,-0.31581732630729675,-0.25702154636383057,-1.344361662864685,-39.389068603515625,46.901493072509766,-31.59894561767578
0.664,4.639682769775391,-10.15753173828125,-3.2829525470733643,-0.35384368896484375,-0.4121812880039215,-1.6116153001785278,-39.63753128051758,47.26688003540039,-31.262788772583008
0.67,4.368097305297852,-10.236495018005371,-3.348755121231079,-0.3727805018424988,-0.4665483236312866,-1.7340936660766602,-39.973690032958984,47.60304260253906,-31.11663246154785
0.68,3.9876389503479004,-10.374082565307617,-3.4121649265289307,-0.3897320032119751,-0.5032002329826355,-1.867720365524292,-41.04063034057617,46.872257232666016,-30.6489315032959
0.691,3.5341989994049072,-10.579865455627441,-3.221935510635376,-0.4014911651611328,-0.4954116940498352,-1.962557315826416,-41.698333740234375,46.95995330810547,-30.122772216796875
0.701,3.2506494522094727,-10.773683547973633,-2.977867603302002,-0.4242459237575531,-0.46761733293533325,-2.065946340560913,-42.049110412597656,45.8199348449707,-30.07892417907715
0.72,3.119044303894043,-10.98185920715332,-2.685943365097046,-0.5068654417991638,-0.398589551448822,-2.230574369430542,-43.189125061035156,45.70301055908203,-29.742765426635742
0.723,2.8342983722686768,-10.974679946899414,-2.768495798110962,-0.5245805382728577,-0.37140607833862305,-2.2650883197784424,-44.007598876953125,45.89301300048828,-29.538145065307617
0.731,2.764906644821167,-10.804789543151855,-2.827119827270508,-0.5380195379257202,-0.32681289315223694,-2.3188443183898926,-44.3437614440918,45.04530715942383,-28.9096736907959
0.74,2.7385854721069336,-10.63370418548584,-2.84386944770813,-0.5535966157913208,-0.2681698203086853,-2.3802363872528076,-44.85530471801758,44.986846923828125,-29.961999893188477
0.75,2.7397818565368652,-10.490134239196777,-2.99222469329834,-0.5726861357688904,-0.22861631214618683,-2.426203966140747,-45.922245025634766,43.992984771728516,-28.71967315673828
0.76,2.633301258087158,-10.405189514160156,-3.008974552154541,-0.5878050327301025,-0.1797470897436142,-2.4588851928710938,-46.477638244628906,43.78836441040039,-28.28120231628418
0.78,2.413161516189575,-10.54516887664795,-2.7254250049591064,-0.6020076870918274,-0.1241583600640297,-2.4717133045196533,-48.2607421875,42.838348388671875,-27.652734756469727
0.784,2.149951219558716,-10.61934757232666,-2.6297121047973633,-0.626136839389801,-0.03145955875515938,-2.467284679412842,-48.77228546142578,42.53142547607422,-28.71967315673828
0.791,2.060220241546631,-10.569097518920898,-2.561516523361206,-0.6348416805267334,0.051923543214797974,-2.451249361038208,-49.13768005371094,42.54603958129883,-27.696578979492188
0.8,2.0410776138305664,-10.593025207519531,-2.4227328300476074,-0.6395758986473083,0.15347988903522491,-2.423302412033081,-49.50307083129883,41.59602355957031,-28.851213455200195
0.81,2.1032910346984863,-10.524829864501953,-2.413161516189575,-0.6432411074638367,0.237321138381958,-2.3912320137023926,-50.160770416259766,41.37678909301758,-28.52967071533203
0.82,2.1786649227142334,-10.51406192779541,-2.3389840126037598,-0.6339254379272461,0.2802344262599945,-2.3467912673950195,-51.81233215332031,40.45600509643555,-28.9096736907959
0.839,2.5016961097717285,-10.14795970916748,-2.3533408641815186,-0.6044511198997498,0.2542726695537567,-2.2379047870635986,-53.37620544433594,39.27214050292969,-28.354280471801758
0.843,2.5160529613494873,-10.109675407409668,-2.3234305381774902,-0.5962044596672058,0.24068090319633484,-2.222633123397827,-53.28851318359375,38.90675354003906,-28.71967315673828
0.85,2.6273193359375,-10.110871315002441,-2.4430718421936035,-0.5755877494812012,0.19547687470912933,-2.1789562702178955,-54.19468307495117,38.848289489746094,-28.398128509521484
0.86,2.864208459854126,-10.125227928161621,-2.44785737991333,-0.5407684445381165,0.07956519722938538,-2.110997438430786,-54.92546081542969,37.854427337646484,-29.28968048095703
0.87,2.709871768951416,-10.121639251708984,-2.341376781463623,-0.4992296099662781,-0.07223481684923172,-1.9720256328582764,-54.98392105102539,38.029815673828125,-29.026599884033203
0.88,2.5938196182250977,-10.311869621276855,-2.2325034141540527,-0.4720461070537567,-0.20952677726745605,-1.8851301670074463,-55.96316909790039,36.87518310546875,-28.17889404296875
0.9,2.605783700942993,-10.432705879211426,-2.4155545234680176,-0.5125159025192261,-0.436157763004303,-1.643227458000183,-56.47471618652344,36.43671417236328,-28.73428726196289
0.903,2.5292134284973145,-10.342975616455078,-2.465803623199463,-0.5259549617767334,-0.4758639931678772,-1.613600492477417,-56.88395690917969,35.80824279785156,-27.959659576416016
0.91,2.5782663822174072,-9.877571105957031,-2.7278177738189697,-0.5597052574157715,-0.5874996781349182,-1.5419765710830688,-57.322418212890625,35.472084045410156,-27.667348861694336
0.92,2.060220241546631,-9.104689598083496,-2.4358932971954346,-0.5725334286689758,-0.7997753024101257,-1.361160397529602,-57.556270599365234,35.04823303222656,-26.702720642089844
0.93,1.231107234954834,-8.341379165649414,-2.3126630783081055,-0.5707008242607117,-0.8483390808105469,-1.2227994203567505,-57.717044830322266,34.56591796875,-27.901199340820312
0.94,0.745364248752594,-7.976474285125732,-2.293520450592041,-0.5351179242134094,-0.8345946073532104,-1.052520751953125,-57.48318862915039,33.981292724609375,-27.72580909729004
0.96,-0.0203389935195446,-7.3399834632873535,-2.3605194091796875,-0.4248567819595337,-0.650418758392334,-0.6853907704353333,-58.25782012939453,33.031280517578125,-26.351943969726562
0.963,0.015553345903754234,-7.362715244293213,-2.3545374870300293,-0.3825543522834778,-0.6032294034957886,-0.5844453573226929,-57.80473327636719,33.32358932495117,-26.293479919433594
0.97,0.09212366491556168,-7.563712120056152,-2.1583259105682373,-0.3208569884300232,-0.5551237463951111,-0.41981711983680725,-57.65857696533203,32.19818878173828,-25.86962890625
0.98,-0.5874379277229309,-8.359325408935547,-2.2743778228759766,-0.23747386038303375,-0.5041165351867676,-0.19562958180904388,-57.570884704589844,32.30049514770508,-26.205787658691406
0.99,-1.1461620330810547,-9.268598556518555,-2.531606435775757,-0.1333213448524475,-0.407905250787735,0.04444044828414917,-58.11166000366211,32.84127426147461,-25.84039878845215
1.0,-1.466800332069397,-10.088139533996582,-2.853440999984741,-0.041691552847623825,-0.3168863356113434,0.24984388053417206,-57.42472839355469,32.51972961425781,-25.168079376220703
1.017,-1.0707881450653076,-9.968499183654785,-3.049652338027954,0.11988230049610138,-0.16600261628627777,0.5729916095733643,-57.35165023803711,32.91435241699219,-26.278865814208984
1.021,-0.8937192559242249,-9.797411918640137,-3.13938307762146,0.17730362713336945,-0.13072516024112701,0.6566801071166992,-57.65857696533203,33.177433013916016,-25.29962158203125
1.03,-0.05862415209412575,-8.647661209106445,-3.480360507965088,0.3116939663887024,-0.14935654401779175,0.8436048626899719,-57.746273040771484,33.07512283325195,-25.67962646484375
1.04,0.6149553656578064,-8.063812255859375,-3.568894863128662,0.42959097027778625,-0.3263547420501709,0.9920451641082764,-57.103187561035156,33.51359558105469,-25.460391998291016
1.05,-0.5156532526016235,-8.120043754577637,-3.128615379333496,0.5048801302909851,-0.560468852519989,1.1414016485214233,-56.6354866027832,34.02513885498047,-25.635778427124023
1.06,-0.916451096534729,-8.738588333129883,-3.049652338027954,0.53328537940979,-0.7029531598091125,1.2414308786392212,-56.46010208129883,34.229759216308594,-25.007307052612305
1.08,-2.609373092651367,-9.809375762939453,-1.521835207939148,0.48548513650894165,-1.003498911857605,1.3025174140930176,-55.1593132019043,35.355159759521484,-25.22654151916504
1.083,-2.9958138465881348,-9.957731246948242,-1.184447169303894,0.4356996417045593,-0.9790642261505127,1.321606993675232,-54.72084426879883,35.48670196533203,-24.934228897094727
1.09,-3.5234313011169434,-9.952945709228516,-0.9355936050415039,0.33276882767677307,-0.836885392665863,1.361007809638977,-54.443145751953125,36.26132583618164,-24.94884490966797
1.1,-3.665804386138916,-9.513862609863281,-1.1964112520217896,0.18509215116500854,-0.540921151638031,1.4228578805923462,-53.96083068847656,36.480560302734375,-24.247295379638672
1.11,-3.55932354927063,-8.63210678100586,-2.1367905139923096,0.128434419631958,-0.2448042333126068,1.4830280542373657,-53.25928497314453,37.094417572021484,-25.109615325927734
1.129,-3.093919515609741,-8.053044319152832,-2.671586275100708,0.2054034322500229,0.07620543986558914,1.580155611038208,-53.05466079711914,37.51826858520508,-25.007307052612305
1.133,-2.682354211807251,-8.307880401611328,-2.6763720512390137,0.29138270020484924,0.2883284091949463,1.6307047605514526,-52.67465591430664,38.29289627075195,-25.197309494018555
1.141,-2.4023938179016113,-8.886942863464355,-2.5328028202056885,0.3326161205768585,0.3882048726081848,1.6591099500656128,-51.98772430419922,38.819061279296875,-25.31423568725586
1.15,-2.282752752304077,-9.34875774383545,-2.561516523361206,0.3672827482223511,0.5190827250480652,1.6862934827804565,-52.13387680053711,39.54983901977539,-25.76732063293457
1.16,-2.066202163696289,-9.55214786529541,-2.654836893081665,0.3972151279449463,0.6059783101081848,1.697288990020752,-51.388484954833984,39.228294372558594,-26.32271385192871
1.17,-2.0279171466827393,-9.7064847946167,-2.581855535507202,0.4225660264492035,0.6548475623130798,1.6824755668640137,-51.154632568359375,39.79830551147461,-26.0304012298584
1.181,-1.975274920463562,-9.749555587768555,-2.4921247959136963,0.45692721009254456,0.6977607607841492,1.6705636978149414,-50.570011138916016,40.73370361328125,-25.78193473815918
1.194,-2.137986898422241,-10.199406623840332,-2.135594129562378,0.4824308156967163,0.7533495426177979,1.6693419218063354,-50.68693161010742,40.894474029541016,-26.629642486572266
1.201,-2.149951219558716,-10.395617485046387,-2.1535403728485107,0.4905247688293457,0.8109236359596252,1.6646077632904053,-49.91230773925781,41.43525314331055,-26.907337188720703
1.21,-1.8388842344284058,-10.497312545776367,-2.3605194091796875,0.5071708559989929,0.8860600590705872,1.6711745262145996,-49.95615005493164,42.312191009521484,-27.491960525512695
1.22,-1.2837493419647217,-10.572686195373535,-2.462214469909668,0.5259549617767334,0.9228646755218506,1.693013072013855,-49.26921844482422,42.063724517822266,-27.316574096679688
1.23,-0.6305087208747864,-10.578668594360352,-2.8067808151245117,0.5564982295036316,0.9028587937355042,1.7353153228759766,-48.87459945678711,42.67757797241211,-28.018123626708984
1.249,-0.037088751792907715,-10.595417976379395,-2.939582586288452,0.6042984127998352,0.81581050157547,1.8125898838043213,-48.80152130126953,42.91142654418945,-28.544286727905273
1.253,-0.0729810893535614,-10.372885704040527,-2.9766714572906494,0.6142250299453735,0.6688974499702454,1.8556559085845947,-48.34843444824219,44.22683334350586,-28.661209106445312
1.261,-0.0263210479170084,-10.080962181091309,-3.1657042503356934,0.6177374720573425,0.5902485251426697,1.8629862070083618,-47.851505279541016,44.27068328857422,-29.37737464904785
1.27,-0.22851455211639404,-9.844072341918945,-2.7146570682525635,0.6143776774406433,0.49785515666007996,1.8764253854751587,-47.57380676269531,44.50453186035156,-29.567378997802734
1.28,-0.5527420043945312,-9.57607650756836,-2.4370899200439453,0.5742133259773254,0.49953505396842957,1.8767306804656982,-46.78456497192383,45.118385314941406,-29.684301376342773
1.291,-0.7645068168640137,-9.044869422912598,-2.2504496574401855,0.5586362481117249,0.6012440919876099,1.8802433013916016,-45.96609115600586,45.86378479003906,-29.523530960083008
1.31,-0.7094718813896179,-8.584251403808594,-2.2636101245880127,0.5499314665794373,0.7518223524093628,1.8851301670074463,-44.88453674316406,45.922245025634766,-30.166616439819336
1.314,-0.3397807776927948,-8.069793701171875,-2.47896409034729,0.5771149396896362,0.9291260242462158,1.851227045059204,-44.76761245727539,46.375328063964844,-30.517393112182617
1.321,-0.02392822690308094,-7.993224143981934,-2.493321180343628,0.5853615999221802,0.9682213664054871,1.8390097618103027,-44.28529739379883,46.63841247558594,-30.385852813720703
1.33,0.4462614059448242,-8.065009117126465,-2.603391170501709,0.6053674817085266,1.0245736837387085,1.8119789361953735,-44.22683334350586,47.2230339050293,-31.11663246154785
1.34,1.0564311742782593,-8.321040153503418,-2.6739792823791504,0.6352998614311218,1.019075870513916,1.7985399961471558,-43.6422119140625,47.310726165771484,-31.233558654785156
1.35,1.2095718383789062,-8.60459041595459,-2.4466609954833984,0.6424775123596191,0.9656251668930054,1.7912096977233887,-43.057586669921875,48.27535629272461,-31.482023239135742
1.369,1.4811570644378662,-8.72064208984375,-2.420340061187744,0.6291911602020264,0.9091201424598694,1.778228759765625,-42.22449493408203,48.17304992675781,-32.446651458740234
1.373,1.8305093050003052,-8.884550094604492,-2.396411657333374,0.625220537185669,0.7609853744506836,1.7741053104400635,-41.81526184082031,48.77228546142578,-31.788951873779297
1.381,1.8951154947280884,-9.040083885192871,-2.4909281730651855,0.5997169613838196,0.6517932415008545,1.751503348350525,-41.27448272705078,48.55305480957031,-32.88512420654297
1.391,2.1619153022766113,-9.247062683105469,-2.7625136375427246,0.5658139586448669,0.474642276763916,1.7163785696029663,-40.93832015991211,48.55305480957031,-33.07512283325195
1.4,2.063809394836426,-9.498309135437012,-2.857030153274536,0.5198463201522827,0.28496861457824707,1.6646077632904053,-39.959075927734375,49.225372314453125,-32.57819366455078
1.41,1.994417667388916,-9.68494987487793,-3.084348201751709,0.4735732972621918,0.12278390675783157,1.6016886234283447,-39.52061080932617,49.225372314453125,-32.70973205566406
1.43,1.8927226066589355,-10.004390716552734,-3.218346357345581,0.43936482071876526,0.01878410577774048,1.5519031286239624,-38.8629035949707,49.73691940307617,-32.65127182006836
1.434,1.4763715267181396,-10.188638687133789,-3.455235719680786,0.4260784983634949,0.015271631069481373,1.5309809446334839,-37.75211715698242,50.10231018066406,-33.49897384643555
1.441,1.3782658576965332,-10.232906341552734,-3.5497522354125977,0.4360050857067108,0.07330382615327835,1.5134186744689941,-37.3867301940918,50.17538833618164,-33.71821212768555
1.45,1.322034478187561,-10.228119850158691,-3.9242289066314697,0.46502113342285156,0.17043140530586243,1.4989105463027954,-36.78749084472656,50.90616989135742,-33.9082145690918
1.46,1.6175479888916016,-10.188638687133789,-4.612165451049805,0.5338962078094482,0.27519479393959045,1.4482086896896362,-36.115169525146484,50.67231750488281,-34.33206558227539
1.47,2.3294126987457275,-10.454241752624512,-4.435096740722656,0.6020076870918274,0.18539761006832123,1.373835802078247,-35.69131851196289,50.62847137451172,-34.81438064575195
1.49,1.7192429304122925,-11.029715538024902,-4.1419758796691895,0.6000223755836487,0.16096298396587372,1.3054189682006836,-35.296695709228516,51.03771209716797,-35.340545654296875
1.495,2.262413740158081,-11.615957260131836,-4.514059543609619,0.5679519176483154,0.08506298810243607,1.0989465713500977,-34.69745635986328,51.344635009765625,-34.975154876708984
1.501,2.603391170501709,-11.717652320861816,-4.604987144470215,0.5522221326828003,0.043218713253736496,1.0381654500961304,-34.44898986816406,51.63694763183594,-34.82899475097656
1.51,3.2231318950653076,-11.749955177307129,-4.719842433929443,0.5285511612892151,-0.03436116874217987,0.9818131327629089,-33.586673736572266,51.373870849609375,-34.82899475097656
1.52,3.631108045578003,-11.773883819580078,-4.851447582244873,0.5021312236785889,-0.1569923609495163,0.9526443481445312,-33.07512283325195,51.373870849609375,-36.4074821472168
1.53,3.755535125732422,-11.721240997314453,-4.9639105796813965,0.46242499351501465,-0.3211624026298523,0.898124635219574,-32.622039794921875,51.53464126586914,-35.69131851196289
1.55,3.7806599140167236,-11.661420822143555,-5.040481090545654,0.38026362657546997,-0.5679519176483154,0.8176431059837341,-32.38819122314453,51.578487396240234,-36.96287536621094
1.554,3.920639753341675,-11.894721984863281,-4.78803825378418,0.25503623485565186,-0.8005388975143433,0.698066234588623,-31.75971794128418,51.286170959472656,-36.69979476928711
1.56,3.7938201427459717,-11.988041877746582,-4.667200565338135,0.1586722582578659,-0.9104946255683899,0.6386595964431763,-31.394329071044922,51.710025787353516,-36.7436408996582
1.57,3.2470602989196777,-11.72004508972168,-4.622933387756348,0.039706241339445114,-0.9526443481445312,0.5984951853752136,-30.83893585205078,52.14849853515625,-36.81671905517578
1.58,2.737389087677002,-11.21396255493164,-4.602594375610352,-0.029932396486401558,-0.9028587937355042,0.5390886068344116,-30.853551864624023,51.76848602294922,-36.96287536621094
1.591,2.5112671852111816,-11.072786331176758,-4.816751956939697,-0.04856378585100174,-0.7980954647064209,0.45295655727386475,-30.07892417907715,52.265419006347656,-37.3867301940918
1.609,2.3772692680358887,-11.659028053283691,-5.3036909103393555,-0.025503622367978096,-0.5910121202468872,0.31062498688697815,-29.070446014404297,52.513885498046875,-35.95439910888672
1.613,2.561516523361206,-12.204590797424316,-5.60399055480957,-0.008399397134780884,-0.536797821521759,0.2554943859577179,-29.128910064697266,52.13387680053711,-36.50979232788086
1.62,2.8773691654205322,-12.513265609741211,-5.538187503814697,0.011759155429899693,-0.4637994170188904,0.17699819803237915,-29.391992568969727,51.60771560668945,-36.7436408996582
1.63,3.2374887466430664,-12.731012344360352,-5.038087844848633,0.0074830991216003895,-0.4017966091632843,0.0679587572813034,-28.573516845703125,51.87080001831055,-36.4074821472168
1.64,3.194417953491211,-12.67478084564209,-4.443471431732178,-0.07223481684923172,-0.40912699699401855,-0.11239920556545258,-28.924291610717773,51.710025787353516,-36.97748947143555
1.65,2.8869404792785645,-12.555140495300293,-4.016352653503418,-0.18784105777740479,-0.4054618179798126,-0.327729195356369,-28.61736488342285,52.14849853515625,-37.211341857910156
1.67,3.073580503463745,-12.429516792297363,-3.8009984493255615,-0.29856041073799133,-0.408363401889801,-0.5393940210342407,-29.406606674194336,52.075416564941406,-37.35749816894531
1.674,3.159722089767456,-12.262019157409668,-3.6574294567108154,-0.4524984359741211,-0.44318273663520813,-0.823599100112915,-29.201988220214844,51.44694519042969,-36.93364715576172
1.68,3.1549363136291504,-12.082557678222656,-3.8392839431762695,-0.5248859524726868,-0.4460843503475189,-0.9399688839912415,-29.479684829711914,51.33001708984375,-37.41596221923828
1.691,3.5270204544067383,-11.69731330871582,-4.168296813964844,-0.6111707091331482,-0.5636758804321289,-1.2151635885238647,-29.757381439208984,52.13387680053711,-36.39286804199219
1.7,3.4025938510894775,-11.34437084197998,-3.889533042907715,-0.669966459274292,-0.6641632318496704,-1.415374755859375,-30.415081024169922,51.65156173706055,-38.11751174926758
1.71,3.0855445861816406,-10.872984886169434,-3.847658634185791,-0.7189883589744568,-0.7614434957504272,-1.6242907047271729,-31.072786331176758,51.578487396240234,-36.93364715576172
1.73,2.57228422164917,-10.595417976379395,-3.638286828994751,-0.7843509316444397,-0.8361217975616455,-2.010204792022705,-31.920490264892578,50.979244232177734,-36.539024353027344
1.733,2.1020946502685547,-10.459028244018555,-3.4983065128326416,-0.7961101531982422,-0.8245153427124023,-2.096336841583252,-31.847414016723633,51.31540298461914,-36.919029235839844
1.74,1.9286149740219116,-10.529616355895996,-3.506681442260742,-0.8124507665634155,-0.8141306638717651,-2.2124011516571045,-32.70973205566406,50.365386962890625,-36.96287536621094
1.75,1.7192429304122925,-11.038090705871582,-3.3894331455230713,-0.8515461683273315,-0.8089383244514465,-2.3454172611236572,-33.002044677734375,50.83308792114258,-35.77901077270508
1.76,1.521835207939148,-11.662616729736328,-3.1992037296295166,-0.9156869649887085,-0.7880162000656128,-2.4379630088806152,-34.43437576293945,50.570011138916016,-35.39900588989258
1.77,1.2143574953079224,-12.241680145263672,-3.056830644607544,-0.9958630204200745,-0.7695375084877014,-2.517986536026001,-35.39900588989258,50.584625244140625,-35.369773864746094
1.79,1.0444670915603638,-12.733406066894531,-2.9144580364227295,-1.1832458972930908,-0.7347181439399719,-2.6418395042419434,-37.021339416503906,50.526161193847656,-35.16515350341797
1.794,0.5168496966362,-13.345968246459961,-2.4909281730651855,-1.2373075485229492,-0.7153232097625732,-2.6626086235046387,-37.635196685791016,49.38614273071289,-35.04823303222656
1.8,0.24167509377002716,-13.567303657531738,-2.221735715866089,-1.3167200088500977,-0.6646214127540588,-2.6926939487457275,-38.278282165527344,49.69307327270508,-34.65361022949219
1.81,-0.0263210479170084,-13.634303092956543,-2.042273998260498,-1.4135421514511108,-0.535881519317627,-2.715906858444214,-38.775211334228516,49.25460433959961,-33.49897384643555
1.82,-0.30149564146995544,-13.339985847473145,-2.018345832824707,-1.4711161851882935,-0.36651915311813354,-2.7311785221099854,-40.558319091796875,48.33382034301758,-33.71821212768555
1.83,-0.28953152894973755,-12.766904830932617,-1.994417667388916,-1.4796682596206665,-0.19058994948863983,-2.752558946609497,-41.65448760986328,48.5822868347168,-33.352821350097656
1.85,-0.3517449200153351,-11.955738067626953,-1.8640087842941284,-1.419498085975647,0.11010845750570297,-2.831207513809204,-43.496055603027344,47.851505279541016,-32.28588104248047
1.853,-0.331405907869339,-11.759527206420898,-1.904686689376831,-1.3901766538619995,0.1797470897436142,-2.8564059734344482,-43.686058044433594,47.471500396728516,-31.511253356933594
1.86,-0.2153540402650833,-11.523833274841309,-1.9621144533157349,-1.3391693830490112,0.2643519341945648,-2.905733346939087,-45.1037712097168,46.740718841552734,-31.365097045898438
1.87,-0.019142581149935722,-11.20798110961914,-2.159522294998169,-1.2789990901947021,0.30283644795417786,-2.984229326248169,-45.84916687011719,46.521484375,-31.49663734436035
1.88,0.1579262912273407,-11.015358924865723,-2.2133607864379883,-1.2212722301483154,0.2968805134296417,-3.056464195251465,-47.01841354370117,45.77608871459961,-31.730487823486328
1.891,0.09930214285850525,-10.991430282592773,-2.094916343688965,-1.171486735343933,0.25992316007614136,-3.1364877223968506,-48.289974212646484,45.51300811767578,-31.13124656677246
1.909,-0.2153540402650833,-11.133803367614746,-1.8783657550811768,-1.1398744583129883,0.24953843653202057,-3.1928398609161377,-50.160770416259766,44.22683334350586,-30.985092163085938
1.912,-0.2632104754447937,-11.109874725341797,-1.8305093050003052,-1.1383473873138428,0.2655736804008484,-3.190396308898926,-51.06694030761719,43.86144256591797,-29.961999893188477
1.92,-0.32901307940483093,-11.09791088104248,-1.696511149406433,-1.1406381130218506,0.30283644795417786,-3.176957368850708,-51.87080001831055,43.23297119140625,-30.00584602355957
1.93,-0.4462614059448242,-10.861021041870117,-1.6869399547576904,-1.1375837326049805,0.35384368896484375,-3.1398472785949707,-53.317745208740234,42.6629638671875,-29.87430763244629
1.94,-0.3936192989349365,-10.53200912475586,-1.7551352977752686,-1.1239920854568481,0.39767327904701233,-3.0892982482910156,-54.077754974365234,41.2014045715332,-30.298158645629883
1.95,-0.36251261830329895,-10.29631519317627,-1.727617859840393,-1.1000155210494995,0.4050036370754242,-3.0141615867614746,-55.52470016479492,41.36217498779297,-29.625839233398438
1.97,-0.17946170270442963,-10.007980346679688,-1.628315806388855,-1.052826166152954,0.33857205510139465,-2.8739681243896484,-57.42472839355469,39.47676086425781,-29.201988220214844
1.974,-0.10408778488636017,-10.02592658996582,-1.6031910181045532,-1.0474811792373657,0.3254384398460388,-2.8524351119995117,-57.541656494140625,38.760597229003906,-29.391992568969727
1.981,0.0323031060397625,-9.968499183654785,-1.5996018648147583,-1.0340421199798584,0.2831360399723053,-2.774244546890259,-58.40397644042969,38.17597198486328,-28.193510055541992
1.991,0.13639087975025177,-9.720841407775879,-1.6689937114715576,-1.0140362977981567,0.21242839097976685,-2.663983106613159,-59.35398864746094,37.299034118652344,-28.368898391723633
2.0,0.1663011610507965,-9.424131393432617,-1.8580267429351807,-0.9634872078895569,0.09941831976175308,-2.5103507041931152,-60.12861633300781,36.20286560058594,-28.82198143005371
2.01,-0.03110669180750847,-9.18006420135498,-1.805384635925293,-0.919963002204895,0.01542434748262167,-2.3802363872528076,-60.990936279296875,35.03361511230469,-28.1496639251709
2.025,-0.42352959513664246,-9.06999397277832,-1.8077774047851562,-0.8579602241516113,-0.07269296050071716,-2.193617105484009,-62.01403045654297,34.112831115722656,-28.354280471801758
2.031,-0.3601197898387909,-9.011369705200195,-1.994417667388916,-0.8391761183738708,-0.08735372871160507,-2.124131202697754,-62.2332649230957,33.30897521972656,-27.389652252197266
2.04,-0.07417750358581543,-8.882157325744629,-1.832902193069458,-0.7707592248916626,-0.18585574626922607,-1.9792033433914185,-62.744815826416016,32.797428131103516,-27.784273147583008
2.05,-0.6795615553855896,-8.876174926757812,-1.2957134246826172,-0.7064656615257263,-0.22082778811454773,-1.6852245330810547,-63.665592193603516,32.373573303222656,-28.383514404296875
2.06,-1.1425727605819702,-8.910871505737305,-1.1258230209350586,-0.6808093190193176,-0.1595885455608368,-1.4494304656982422,-63.6363639831543,31.847414016723633,-26.907337188720703
2.07,-1.466800332069397,-8.539983749389648,-1.1569297313690186,-0.6418666243553162,-0.10613783448934555,-1.2179125547409058,-64.63021850585938,31.233558654785156,-27.828121185302734
2.089,-1.7156537771224976,-7.0576300621032715,-1.470389485359192,-0.5181664228439331,-0.054825153201818466,-0.8428412675857544,-64.35253143310547,30.093538284301758,-27.535808563232422
2.093,-1.782652735710144,-6.6723856925964355,-1.6175479888916016,-0.45875978469848633,-0.033597588539123535,-0.7429648041725159,-64.60099029541016,29.932767868041992,-28.1496639251709
2.1,-1.6426726579666138,-6.258427619934082,-1.8185451030731201,-0.3049744665622711,0.00931569468230009,-0.5410738587379456,-64.44022369384766,29.991230010986328,-26.98041534423828
2.11,-1.277767300605774,-6.013163089752197,-2.2193429470062256,-0.14416420459747314,0.031001411378383636,-0.32330042123794556,-64.87869262695312,29.1873722076416,-26.834259033203125
2.12,-1.2921241521835327,-6.059823036193848,-2.379662036895752,-0.0039706239476799965,0.02229658141732216,-0.08200865983963013,-65.08330535888672,29.7281494140625,-27.301958084106445
2.139,-1.4644074440002441,-6.288337707519531,-2.1547367572784424,0.12232576310634613,0.038179077208042145,0.17073683440685272,-65.66793060302734,30.517393112182617,-26.54194450378418
2.143,-1.452443242073059,-6.805187702178955,-1.7072789669036865,0.23747386038303375,0.08185594528913498,0.48976120352745056,-65.43408966064453,30.07892417907715,-27.50657844543457
2.151,-1.5828521251678467,-7.550551891326904,-1.4249258041381836,0.3298672139644623,0.09224064648151398,0.7718282341957092,-65.52177429199219,30.254310607910156,-27.199649810791016
2.16,-2.416750907897949,-9.500701904296875,-1.408176064491272,0.4059199392795563,0.16661350429058075,1.05404794216156,-65.18561553955078,31.072786331176758,-27.214263916015625
2.17,-2.6213371753692627,-10.620543479919434,-1.6821541786193848,0.4338670074939728,0.29138270020484924,1.278540849685669,-65.15638732910156,31.774335861206055,-27.097341537475586
2.18,-2.0123636722564697,-10.685149192810059,-2.060220241546631,0.45494186878204346,0.39675697684288025,1.457371711730957,-64.7909927368164,32.432037353515625,-28.23735809326172
2.2,-0.9762716293334961,-9.361918449401855,-2.6596221923828125,0.5019785165786743,0.40454548597335815,1.6119205951690674,-65.02484893798828,33.352821350097656,-27.988893508911133
2.204,-0.016749758273363113,-7.245467185974121,-4.05703067779541,0.7017314434051514,0.18646661937236786,1.8327484130859375,-65.0102310180664,34.47822189331055,-28.9096736907959
2.211,-0.24047866463661194,-6.9714884757995605,-3.7734811305999756,0.8274169564247131,-0.0039706239476799965,1.9324722290039062,-65.08330535888672,34.799766540527344,-28.23735809326172
2.22,-1.0408778190612793,-7.649853706359863,-2.8833510875701904,0.9001098871231079,-0.17577646672725677,2.0254764556884766,-64.3379135131836,34.9459228515625,-28.851213455200195
2.23,-2.0099709033966064,-8.475377082824707,-2.076970100402832,0.9156869649887085,-0.2970332205295563,2.1224513053894043,-64.0748291015625,36.62671661376953,-28.558900833129883
2.24,-2.977867603302002,-9.58205795288086,-1.6307085752487183,0.8842273950576782,-0.18249599635601044,2.2258400917053223,-63.32943344116211,37.45980453491211,-29.830459594726562
2.26,-2.8905298709869385,-10.569097518920898,-1.6486546993255615,0.7857254147529602,-0.004581489134579897,2.314110040664673,-62.934814453125,38.35136032104492,-29.655071258544922
2.264,-2.26959228515625,-11.01057243347168,-2.7397818565368652,0.7031058669090271,0.34437528252601624,2.5899159908294678,-62.29172897338867,40.149078369140625,-30.35662078857422
2.271,-1.9142580032348633,-11.090733528137207,-3.2590243816375732,0.7148650884628296,0.48411068320274353,2.7152957916259766,-61.69248962402344,40.42677688598633,-30.502779006958008
2.283,-1.275374412536621,-11.540583610534668,-3.7567315101623535,0.7780895829200745,0.5849034786224365,2.869386672973633,-60.56708526611328,42.443729400634766,-30.517393112182617
2.291,-1.171286702156067,-12.096914291381836,-3.728017568588257,0.8425358533859253,0.6186537742614746,2.976746082305908,-60.435546875,43.27682113647461,-31.49663734436035
2.301,-1.3591231107711792,-13.001401901245117,-3.390629768371582,0.8868235945701599,0.6543893814086914,3.0828840732574463,-58.93013381958008,44.19760513305664,-32.490501403808594
2.31,-1.1880364418029785,-13.520644187927246,-3.232703447341919,0.9046913981437683,0.7086036205291748,3.1421380043029785,-58.22858810424805,45.3814697265625,-32.65127182006836
2.32,-1.239482045173645,-13.430912971496582,-2.830709218978882,0.9104946255683899,0.764345109462738,3.1757357120513916,-56.86933517456055,46.316864013671875,-33.352821350097656
2.34,-0.8530412316322327,-12.958330154418945,-2.888136863708496,0.9101892113685608,0.8225300312042236,3.169015884399414,-55.96316909790039,47.76381301879883,-32.88512420654297
2.344,-0.39960137009620667,-12.345767974853516,-2.902493953704834,0.9375254511833191,0.8463537693023682,3.1230485439300537,-54.282371520996094,48.5384407043457,-34.799766540527344
2.351,-0.10887342691421509,-12.001201629638672,-2.932404041290283,0.9468411207199097,0.8425358533859253,3.1089987754821777,-54.18006134033203,49.780765533447266,-34.87284469604492
2.36,0.2584248483181,-11.592028617858887,-3.1094729900360107,0.9732609987258911,0.8087855577468872,3.045315980911255,-53.215431213378906,50.71616744995117,-35.735164642333984
2.37,0.9571290016174316,-10.905288696289062,-3.517449140548706,0.9862419366836548,0.6950119137763977,2.9605584144592285,-51.76848602294922,51.169246673583984,-35.852088928222656
2.38,1.5529417991638184,-10.517650604248047,-3.531806230545044,1.0073168277740479,0.5306891798973083,2.8735101222991943,-50.789241790771484,51.900028228759766,-36.18824768066406
2.4,1.9286149740219116,-10.274779319763184,-3.424129009246826,0.997848391532898,0.3257438838481903,2.803260564804077,-48.216896057128906,53.27389907836914,-37.62057876586914
2.404,1.9824535846710205,-10.070194244384766,-3.1992037296295166,0.9396634101867676,0.006108652334660292,2.6977336406707764,-47.2230339050293,54.077754974365234,-37.78135299682617
2.411,1.9070795774459839,-9.865607261657715,-3.1405797004699707,0.9010262489318848,-0.118660569190979,2.652224063873291,-46.857643127441406,53.72698211669922,-37.86904525756836
2.42,1.8245272636413574,-9.534201622009277,-2.93001127243042,0.8478809595108032,-0.24434609711170197,2.5830435752868652,-45.24992752075195,54.633148193359375,-38.36597442626953
2.43,1.6474583148956299,-9.276973724365234,-2.7385854721069336,0.789237916469574,-0.35445454716682434,2.5193610191345215,-44.72376251220703,55.30546951293945,-38.68751907348633
2.44,1.7455641031265259,-9.192028045654297,-2.770888566970825,0.7269296646118164,-0.3689625859260559,2.471255302429199,-43.01374053955078,55.51008605957031,-39.8421516418457
2.46,1.7335999011993408,-9.206384658813477,-2.8522443771362305,0.6841690540313721,-0.34834590554237366,2.4417810440063477,-42.239112854003906,56.182403564453125,-39.973690032958984
2.464,1.4895319938659668,-8.904889106750488,-3.0388846397399902,0.6366742849349976,-0.2759583592414856,2.3667972087860107,-40.1636962890625,56.82548904418945,-40.397544860839844
2.471,1.3399806022644043,-8.822336196899414,-3.201596736907959,0.6449209451675415,-0.21762074530124664,2.311361312866211,-39.579071044921875,56.6793327331543,-40.23677444458008
2.48,1.1389836072921753,-8.989834785461426,-3.3272199630737305,0.6745479106903076,-0.09040804952383041,2.238363027572632,-38.43905258178711,56.79625701904297,-39.82753372192383
2.49,1.0097711086273193,-9.389435768127441,-3.260220766067505,0.7082982659339905,0.07559457421302795,2.166128158569336,-37.079803466796875,57.556270599365234,-40.543701171875
2.5,0.94037926197052,-9.871589660644531,-3.232703447341919,0.7446447610855103,0.28939738869667053,2.1117610931396484,-36.31978988647461,57.117801666259766,-40.762935638427734
2.521,0.882951557636261,-10.457830429077148,-3.3092734813690186,0.7893905639648438,0.6140722632408142,2.0540342330932617,-33.995906829833984,57.8193473815918,-41.756797790527344
2.525,1.454836130142212,-11.417352676391602,-3.393022298812866,0.8249735236167908,0.9808968305587769,1.993253231048584,-33.805904388427734,58.345516204833984,-41.9029541015625
2.531,1.7060824632644653,-11.848060607910156,-3.390629768371582,0.8242099285125732,1.0842857360839844,1.9715675115585327,-33.045894622802734,57.77550506591797,-43.61297607421875
2.54,2.159522294998169,-12.203394889831543,-3.4923245906829834,0.8205447196960449,1.2599095106124878,1.922087550163269,-32.27126693725586,58.126277923583984,-42.85296630859375
2.55,2.737389087677002,-12.476177215576172,-3.603590726852417,0.8199338316917419,1.3628402948379517,1.8584047555923462,-31.613563537597656,58.3162841796875,-42.79450607299805
2.56,3.4337005615234375,-12.763315200805664,-3.860819101333618,0.8026769757270813,1.3865114450454712,1.7889188528060913,-30.678165435791016,58.49167251586914,-43.27682113647461
2.58,4.278366565704346,-13.036097526550293,-4.371686935424805,0.7779368162155151,1.341460108757019,1.6945401430130005,-29.45045280456543,58.652442932128906,-43.30604934692383
2.584,5.675775051116943,-13.401001930236816,-5.140979290008545,0.7379251718521118,1.1859948635101318,1.597107172012329,-28.60274887084961,59.00321578979492,-44.86991882324219
2.591,6.470191955566406,-13.404592514038086,-5.572883605957031,0.6959282159805298,1.0320568084716797,1.5308282375335693,-28.500438690185547,58.477054595947266,-44.89915466308594
2.6,7.719245433807373,-13.251450538635254,-5.539383888244629,0.6498079299926758,0.7101308107376099,1.420719861984253,-27.696578979492188,58.155513763427734,-45.35223388671875
2.61,7.706085205078125,-13.001401901245117,-5.295316219329834,0.5661193132400513,0.3478877544403076,1.3802499771118164,-26.95118522644043,58.447818756103516,-45.39608383178711
2.621,7.974081039428711,-12.91047477722168,-5.255834579467773,0.44837507605552673,-0.05513058975338936,1.1921035051345825,-25.957321166992188,58.4185905456543,-45.32300567626953
2.64,8.239684104919434,-12.81356430053711,-5.276174068450928,0.3494149148464203,-0.4056145250797272,1.0500773191452026,-24.96346092224121,59.13475799560547,-46.65302658081055
2.644,8.277969360351562,-12.385249137878418,-5.181657314300537,0.21120664477348328,-0.9019425511360168,0.8393288254737854,-24.729610443115234,59.16398620605469,-46.126861572265625
2.651,7.814958572387695,-12.174681663513184,-5.090729713439941,0.1345430612564087,-1.1902709007263184,0.7047857642173767,-24.510377883911133,59.237064361572266,-46.726104736328125
2.66,6.963113307952881,-12.228520393371582,-5.2414774894714355,0.04642575979232788,-1.4749341011047363,0.5117523670196533,-23.9695987701416,59.20783233642578,-45.93686294555664
2.67,6.309872627258301,-13.080365180969238,-5.441278457641602,-0.06017022579908371,-1.7004960775375366,0.22678370773792267,-24.276527404785156,59.63168716430664,-45.922245025634766
2.681,5.848058223724365,-14.34138298034668,-5.464010238647461,-0.20143280923366547,-1.819003939628601,-0.020616700872778893,-23.896520614624023,59.58784103393555,-46.872257232666016
2.7,4.621737003326416,-14.307883262634277,-5.229514122009277,-0.5129740834236145,-1.7481435537338257,-0.4499022364616394,-24.364221572875977,59.85091781616211,-46.945335388183594
2.704,4.180261135101318,-13.875978469848633,-5.149354457855225,-0.5751296281814575,-1.6728545427322388,-0.5592471361160278,-24.46653175354004,59.41244888305664,-46.38994216918945
2.71,3.4193434715270996,-13.153346061706543,-4.974678039550781,-0.6146831512451172,-1.5712980031967163,-0.6751587986946106,-24.904998779296875,59.51476287841797,-46.43379211425781
2.72,2.3545374870300293,-12.574281692504883,-4.8191447257995605,-0.6745479106903076,-1.1924089193344116,-0.9888380765914917,-24.97807502746582,60.02630615234375,-45.717628479003906
2.73,1.5876377820968628,-12.256037712097168,-4.930410861968994,-0.6892086863517761,-0.8478809595108032,-1.2457069158554077,-25.723472595214844,60.844783782958984,-45.03069305419922
2.74,1.3830513954162598,-12.29432201385498,-4.872982978820801,-0.6594290137290955,-0.4905247688293457,-1.4928019046783447,-26.118093490600586,60.94709014892578,-45.27915573120117
2.76,1.5421741008758545,-12.376873970031738,-4.7018961906433105,-0.6224716901779175,-0.03145955875515938,-1.9753854274749756,-28.251972198486328,60.800933837890625,-44.65068435668945
2.763,2.3198413848876953,-12.483355522155762,-4.508077621459961,-0.6218608021736145,0.001679879380390048,-2.085799217224121,-29.041215896606445,61.531715393066406,-45.24992752075195
2.771,2.816352128982544,-12.6676025390625,-4.277170181274414,-0.6444628238677979,-0.016798794269561768,-2.2572999000549316,-29.36275863647461,61.16632843017578,-45.03069305419922
2.78,3.3571300506591797,-13.123435020446777,-4.316651821136475,-0.7189883589744568,-0.17806722223758698,-2.484541416168213,-30.89739990234375,61.12247848510742,-44.13914108276367
2.79,3.3547372817993164,-13.514662742614746,-3.9146575927734375,-0.8161159157752991,-0.4697553813457489,-2.669175624847412,-32.51972961425781,61.28324890136719,-43.89067459106445
2.8,2.9754748344421387,-14.122438430786133,-3.669393539428711,-0.9694430828094482,-0.7195992469787598,-2.8467845916748047,-33.33820343017578,60.990936279296875,-43.6422119140625
2.82,2.2265214920043945,-14.779269218444824,-2.9347968101501465,-1.3138184547424316,-1.2762501239776611,-3.109456777572632,-37.15288162231445,60.435546875,-41.97603225708008
2.824,1.8005989789962769,-14.807982444763184,-2.717050075531006,-1.4098769426345825,-1.3735305070877075,-3.1454977989196777,-38.1028938293457,61.07863235473633,-41.74217987060547
2.83,1.117448091506958,-14.776875495910645,-2.5016961097717285,-1.542281985282898,-1.475697636604309,-3.2000176906585693,-38.67290496826172,61.049400329589844,-41.318328857421875
2.84,0.3852444291114807,-14.727823257446289,-2.383251190185547,-1.7081319093704224,-1.5358679294586182,-3.2650747299194336,-40.558319091796875,60.099388122558594,-40.35369873046875
2.85,-0.25244277715682983,-14.511272430419922,-2.3126630783081055,-1.839468002319336,-1.5125024318695068,-3.3008103370666504,-42.326805114746094,60.216312408447266,-38.5267448425293
2.86,-0.7657032608985901,-14.202597618103027,-2.111665964126587,-1.9262107610702515,-1.4182764291763306,-3.3313534259796143,-44.09529113769531,59.310142517089844,-36.6851806640625
2.879,-1.4344971179962158,-13.544571876525879,-1.9537396430969238,-1.9871447086334229,-1.0322095155715942,-3.3425018787384033,-46.4191780090332,57.96550369262695,-34.2443733215332
2.883,-1.5433706045150757,-13.373485565185547,-1.8293129205703735,-1.9801195859909058,-0.9071348309516907,-3.336087703704834,-47.38380432128906,58.02397155761719,-33.732826232910156
2.891,-1.7383856773376465,-13.009777069091797,-1.660618782043457,-1.9575176239013672,-0.7017314434051514,-3.330590009689331,-48.31920623779297,57.22011184692383,-32.95820236206055
2.9,-1.8831512928009033,-12.43430233001709,-1.6893328428268433,-1.9077321290969849,-0.4060726761817932,-3.327993631362915,-49.54691696166992,55.583160400390625,-32.03741455078125
2.91,-1.8352948427200317,-11.888738632202148,-1.7359927892684937,-1.8248071670532227,-0.11743884533643723,-3.34204363822937,-51.1400146484375,55.4954719543457,-31.277402877807617
2.92,-1.5529417991638184,-11.47836971282959,-1.6845470666885376,-1.722792625427246,0.13820825517177582,-3.3647985458374023,-52.41157531738281,54.063140869140625,-30.312772750854492
2.939,-0.8949156999588013,-11.053643226623535,-1.6450655460357666,-1.5297592878341675,0.4531092941761017,-3.4162638187408447,-55.62701416015625,51.1400146484375,-29.596609115600586
2.942,-0.8291130065917969,-11.063215255737305,-1.6223337650299072,-1.497994303703308,0.4824308156967163,-3.4350478649139404,-55.94855499267578,51.578487396240234,-28.953521728515625
2.95,-0.6245266795158386,-10.942378044128418,-1.683350682258606,-1.455844521522522,0.4993823170661926,-3.46650767326355,-57.307804107666016,50.68693161010742,-28.26658821105957
2.96,-0.5623133182525635,-10.804789543151855,-1.753938913345337,-1.4040738344192505,0.4732678234577179,-3.506519317626953,-58.38935852050781,48.72844314575195,-27.784273147583008
2.97,-0.503689169883728,-10.87418270111084,-1.753938913345337,-1.377806544303894,0.4285219609737396,-3.539658546447754,-59.7778434753418,47.2230339050293,-27.141185760498047
2.98,-0.6137589812278748,-11.068001747131348,-1.534995675086975,-1.3886494636535645,0.36193764209747314,-3.5527920722961426,-60.66939163208008,45.42531204223633,-27.389652252197266
2.993,-0.7501499056816101,-11.168498992919922,-1.3160523176193237,-1.4278974533081055,0.3430008292198181,-3.501479387283325,-62.30634307861328,43.27682113647461,-26.89272117614746
3.001,-0.8889335989952087,-10.980663299560547,-1.270588755607605,-1.450194001197815,0.3523165285587311,-3.4400875568389893,-63.06635665893555,42.58988571166992,-26.381174087524414
3.01,-1.0923235416412354,-10.560722351074219,-1.1569297313690186,-1.4753923416137695,0.36392295360565186,-3.3408217430114746,-63.98713684082031,40.79216766357422,-25.957321166992188
3.02,-1.3471590280532837,-10.076175689697266,-1.2095718383789062,-1.4854716062545776,0.3660609722137451,-3.2316298484802246,-64.99561309814453,38.263668060302734,-26.60040855407715
3.03,-1.5337992906570435,-9.622735977172852,-1.1832507848739624,-1.4695889949798584,0.3627012372016907,-3.0894508361816406,-66.26717376708984,36.6851806640625,-26.717334747314453
3.04,-1.4811570644378662,-9.293722152709961,-0.9200402498245239,-1.4372131824493408,0.34055736660957336,-2.956587553024292,-66.91026306152344,35.77901077270508,-25.635778427124023
3.057,-1.4380862712860107,-9.20279598236084,-0.8865407705307007,-1.3781119585037231,0.2900082468986511,-2.6177101135253906,-67.96258544921875,33.352821350097656,-25.548086166381836
3.061,-1.432104229927063,-9.22313404083252,-0.9475577473640442,-1.3672691583633423,0.2788599729537964,-2.56257963180542,-67.87489318847656,33.13358688354492,-25.080385208129883
3.071,-1.537388563156128,-9.238687515258789,-1.1665010452270508,-1.318858027458191,0.22113321721553802,-2.327854633331299,-68.81028747558594,31.175094604492188,-25.621164321899414
3.08,-1.5672988891601562,-9.121438980102539,-1.6773686408996582,-1.2515101432800293,0.12522737681865692,-2.0396790504455566,-69.1756820678711,30.44431495666504,-25.21192741394043
3.09,-1.7922240495681763,-8.834300994873047,-1.592423439025879,-1.169501543045044,-0.004734205547720194,-1.7993035316467285,-68.72259521484375,29.26045036315918,-24.96346092224121
3.109,-2.1032910346984863,-8.702695846557617,-1.2837493419647217,-1.080315113067627,-0.05604688450694084,-1.5500705242156982,-69.38029479980469,27.930429458618164,-24.057292938232422
3.113,-2.5567307472229004,-8.329415321350098,-0.8769694566726685,-0.9027060866355896,-0.03420845419168472,-1.1841623783111572,-69.61415100097656,26.96579933166504,-23.721134185791016
3.121,-2.785245418548584,-7.919046401977539,-0.7441678643226624,-0.8009970188140869,0.03084869496524334,-0.965319812297821,-69.54106903076172,26.43963623046875,-23.764982223510742
3.13,-2.754138708114624,-7.039684295654297,-0.9643074870109558,-0.5755877494812012,0.06933320313692093,-0.6433938145637512,-69.73107147216797,25.825780868530273,-24.49576187133789
3.14,-2.803191661834717,-6.233302593231201,-1.1784651279449463,-0.3425426781177521,0.09254607558250427,-0.384234219789505,-69.27799224853516,25.21192741394043,-24.77345848083496
3.15,-2.7529425621032715,-6.0191450119018555,-1.3603196144104004,-0.11972958594560623,0.059406641870737076,-0.15424346923828125,-69.6287612915039,24.84653663635254,-23.9695987701416
3.16,-2.702692985534668,-6.296712398529053,-1.659422516822815,0.07910704612731934,-0.04260785132646561,0.04718933627009392,-69.26337432861328,24.94884490966797,-23.896520614624023
3.173,-3.0903303623199463,-7.744369983673096,-2.035095691680908,0.25824329257011414,-0.20754145085811615,0.3127630054950714,-68.9564437866211,25.270387649536133,-23.998830795288086
3.181,-3.3678977489471436,-8.902496337890625,-1.8484554290771484,0.38469237089157104,-0.2301434725522995,0.5850561857223511,-69.51183319091797,25.168079376220703,-24.510377883911133
3.191,-4.01037073135376,-10.04148006439209,-1.1150553226470947,0.4308127164840698,-0.1264491081237793,0.8894197344779968,-69.54106903076172,25.694242477416992,-24.159603118896484
3.2,-4.254438400268555,-9.052047729492188,-1.6534403562545776,0.4514293968677521,0.09911288321018219,1.17408287525177,-68.89797973632812,26.673486709594727,-23.706518173217773
3.21,-3.332005262374878,-7.1294145584106445,-2.4083759784698486,0.5690209865570068,0.30573806166648865,1.4246904850006104,-68.7956771850586,27.024263381958008,-23.867290496826172
3.23,-2.2133607864379883,-6.08494758605957,-3.078366279602051,0.75105881690979,0.39767327904701233,1.6531540155410767,-68.54721069335938,27.988893508911133,-24.510377883911133
3.234,-1.4488540887832642,-6.594618797302246,-3.111865520477295,1.0201449394226074,0.317497193813324,2.021353006362915,-68.16720581054688,29.026599884033203,-24.13037109375
3.241,-1.506281852722168,-7.028916358947754,-2.9730820655822754,1.1093312501907349,0.2952006161212921,2.2035436630249023,-68.06489562988281,29.669687271118164,-24.729610443115234
3.25,-1.6522438526153564,-7.782655239105225,-2.641676187515259,1.2063060998916626,0.20463986694812775,2.392606258392334,-67.91873931884766,31.05817222595215,-25.29962158203125
3.261,-2.0673987865448,-8.304290771484375,-2.2097716331481934,1.2822060585021973,0.09269880503416061,2.5309672355651855,-67.27565002441406,32.59280776977539,-25.86962890625
3.27,-2.2157537937164307,-9.163313865661621,-1.8352948427200317,1.3029755353927612,-0.00015271631127689034,2.6175575256347656,-67.20257568359375,34.200523376464844,-25.942707061767578
3.289,-2.4430718421936035,-10.352546691894531,-1.659422516822815,1.2750284671783447,-0.02932153083384037,2.7061331272125244,-66.13563537597656,35.13592529296875,-26.118093490600586
3.294,-2.352144718170166,-11.888738632202148,-2.449054002761841,1.2321151494979858,0.1472185254096985,2.947730302810669,-65.55101013183594,37.635196685791016,-26.54194450378418
3.3,-1.9417754411697388,-12.513265609741211,-2.943171739578247,1.2311989068984985,0.25625795125961304,3.0925052165985107,-65.68254852294922,37.839813232421875,-26.87810707092285
3.31,-1.3351950645446777,-13.077971458435059,-3.4648072719573975,1.2363911867141724,0.3488040566444397,3.285386085510254,-64.70330047607422,39.8421516418457,-27.375036239624023
3.32,-0.9116654396057129,-13.472787857055664,-3.8847475051879883,1.2731958627700806,0.40256020426750183,3.4663548469543457,-64.01637268066406,41.099090576171875,-28.032737731933594
3.33,-0.4893321990966797,-13.791033744812012,-3.7986059188842773,1.3118330240249634,0.4109595715999603,3.6300666332244873,-62.70096206665039,43.13066482543945,-28.193510055541992
3.35,-0.3086740970611572,-13.838890075683594,-3.750749349594116,1.377806544303894,0.38576140999794006,3.772245407104492,-61.619407653808594,44.636070251464844,-28.924291610717773
3.354,-0.19501502811908722,-13.61515998840332,-2.8654050827026367,1.4317153692245483,0.3494149148464203,3.8702893257141113,-60.187076568603516,45.922245025634766,-29.87430763244629
3.361,-0.4043869972229004,-13.438091278076172,-2.5782663822174072,1.441641926765442,0.34987306594848633,3.8936548233032227,-58.78398513793945,47.33995819091797,-29.611223220825195
3.37,-0.8099704384803772,-13.013365745544434,-2.5435705184936523,1.4370604753494263,0.35552358627319336,3.852879762649536,-57.68781280517578,49.37152862548828,-30.985092163085938
3.38,-0.8961120247840881,-12.516855239868164,-2.554337978363037,1.445918083190918,0.4043927788734436,3.743993043899536,-56.54779052734375,50.80385971069336,-31.08740234375
3.39,-0.3278166949748993,-12.258429527282715,-2.757727861404419,1.4442380666732788,0.4925100803375244,3.58516788482666,-55.11546325683594,51.62232971191406,-31.862030029296875
3.41,0.7034898400306702,-11.91745376586914,-3.304487705230713,1.427744746208191,0.5204571485519409,3.481473684310913,-48.655364990234375,53.58082580566406,-33.93744659423828
3.414,1.514656662940979,-11.562119483947754,-3.5641093254089355,1.4071279764175415,0.46731188893318176,3.3680055141448975,-51.783103942871094,53.90237045288086,-33.87898254394531
3.421,1.8472589254379272,-11.334800720214844,-3.6981072425842285,1.3836097717285156,0.4184426963329315,3.3006577491760254,-50.789241790771484,54.9400749206543,-34.27360534667969
3.43,2.2564315795898438,-11.119446754455566,-3.750749349594116,1.3451251983642578,0.3298672139644623,3.216052770614624,-49.75153350830078,55.72931671142578,-34.989768981933594
3.44,2.441875457763672,-10.906484603881836,-3.7567315101623535,1.3045027256011963,0.2252565622329712,3.1257975101470947,-47.99766159057617,56.416255950927734,-35.910552978515625
3.45,2.1535403728485107,-10.628917694091797,-3.6335010528564453,1.2728904485702515,0.18402314186096191,3.0471484661102295,-46.682254791259766,57.27857208251953,-36.451332092285156
3.47,1.987239122390747,-10.527222633361816,-3.3918259143829346,1.2379183769226074,0.16569718718528748,2.9529225826263428,-43.93452072143555,58.667057037353516,-37.605960845947266
3.474,1.7252249717712402,-10.478169441223145,-3.1334011554718018,1.169501543045044,0.2577851414680481,2.7814221382141113,-43.3206672668457,58.38935852050781,-37.53288269042969
3.481,1.6845470666885376,-10.54516887664795,-2.878565549850464,1.1510229110717773,0.2857322096824646,2.704758644104004,-42.35603332519531,58.3747444152832,-38.99444580078125
3.491,1.9238293170928955,-10.636096000671387,-2.967099905014038,1.087492823600769,0.3723223805427551,2.4911084175109863,-41.02601623535156,59.7778434753418,-39.1844482421875
3.5,2.5914268493652344,-10.98185920715332,-3.2757742404937744,1.0529789924621582,0.41431936621665955,2.32281494140625,-39.81291961669922,59.74861526489258,-40.19292449951172
3.51,2.9180471897125244,-11.318050384521484,-3.597608804702759,1.0227410793304443,0.4046982228755951,2.1647536754608154,-39.19906234741211,60.23093032836914,-39.929847717285156
3.53,3.129812002182007,-11.633903503417969,-3.915853977203369,0.9750936627388,0.3510947823524475,1.8958202600479126,-37.1236457824707,60.362464904785156,-41.49371337890625
3.533,3.2578277587890625,-12.106486320495605,-3.8500516414642334,0.9634872078895569,0.3527746796607971,1.869247555732727,-37.109031677246094,59.997074127197266,-40.73370361328125
3.54,3.2374887466430664,-12.39721393585205,-3.8739798069000244,0.9208793640136719,0.4027129113674164,1.792431354522705,-36.14440155029297,60.289390563964844,-41.946800231933594
3.55,3.111865520477295,-12.616156578063965,-3.9397823810577393,0.8895725011825562,0.5004513263702393,1.722181797027588,-35.179771423339844,60.66939163208008,-42.56065368652344
3.56,3.0795626640319824,-12.689138412475586,-3.9278182983398438,0.8703302145004272,0.6423248052597046,1.6378823518753052,-34.361297607421875,60.990936279296875,-43.393741607666016
3.57,3.369094133377075,-12.800403594970703,-4.133601188659668,0.8648324608802795,0.8101600408554077,1.5500705242156982,-33.615901947021484,61.54633331298828,-44.12452697753906
3.59,3.7471601963043213,-12.997811317443848,-4.695914268493652,0.8503244519233704,0.9401216506958008,1.4341588020324707,-32.02280044555664,61.341712951660156,-44.6799201965332
3.594,4.666004180908203,-13.39861011505127,-5.004588603973389,0.811076283454895,1.0590876340866089,1.1994339227676392,-32.052032470703125,60.93247604370117,-45.26454162597656
3.6,5.072783946990967,-13.406984329223633,-5.346762180328369,0.7918340563774109,1.1078040599822998,1.0806206464767456,-31.862030029296875,61.32709884643555,-45.191463470458984
3.61,5.775076866149902,-13.209577560424805,-5.224728107452393,0.7771733403205872,1.0196868181228638,0.9541714787483215,-31.365097045898438,61.2540168762207,-45.41069793701172
3.62,5.047659397125244,-13.144970893859863,-4.687539577484131,0.7658722400665283,1.1125383377075195,0.898124635219574,-30.89739990234375,61.10786056518555,-45.746856689453125
3.63,5.635097026824951,-13.091133117675781,-4.737788677215576,0.7502952218055725,1.2666290998458862,0.7860308289527893,-30.035078048706055,61.034786224365234,-46.477638244628906
3.649,7.8795647621154785,-12.238090515136719,-4.840680122375488,0.7006624341011047,1.2675453424453735,0.6713408827781677,-29.81584358215332,61.239402770996094,-46.740718841552734
3.653,8.124829292297363,-12.07657527923584,-4.937589645385742,0.6649268269538879,1.1702649593353271,0.6194173693656921,-28.968137741088867,61.034786224365234,-47.44226837158203
3.66,9.08674430847168,-11.279766082763672,-5.1457648277282715,0.602465808391571,0.9196576476097107,0.5102251768112183,-29.055830001831055,61.4732551574707,-46.974571228027344
3.67,9.773483276367188,-10.50090217590332,-5.233102798461914,0.512210488319397,0.4444044530391693,0.3220787048339844,-28.924291610717773,60.844783782958984,-47.71996307373047
3.68,10.116853713989258,-10.101300239562988,-4.931607246398926,0.40133848786354065,-0.16050483286380768,0.13759739696979523,-28.82198143005371,61.5171012878418,-47.71996307373047
3.691,9.650253295898438,-10.631311416625977,-5.115854740142822,0.25106561183929443,-0.7432702779769897,-0.032070424407720566,-28.79275131225586,60.976322174072266,-47.64688491821289
3.709,7.940581321716309,-12.20100212097168,-5.03449821472168,-0.1033889427781105,-1.5584698915481567,-0.2932153046131134,-28.471206665039062,61.50248718261719,-47.96842956542969
3.712,7.715656280517578,-12.253644943237305,-4.898108005523682,-0.20051652193069458,-1.6756032705307007,-0.35582900047302246,-28.763521194458008,61.15170669555664,-48.494590759277344
3.72,6.732206344604492,-12.205788612365723,-4.4614176750183105,-0.3556762933731079,-1.8023579120635986,-0.47510045766830444,-29.216602325439453,61.4732551574707,-47.41303634643555
3.73,5.90787935256958,-11.83849048614502,-4.516452789306641,-0.5517640113830566,-1.8681786060333252,-0.6653849482536316,-28.924291610717773,60.90324401855469,-47.354576110839844
3.74,4.981856346130371,-11.386245727539062,-4.527220249176025,-0.6690501570701599,-1.855350375175476,-0.8379544019699097,-29.698917388916016,60.88862991333008,-46.346099853515625
3.75,3.920639753341675,-11.301301002502441,-4.522434711456299,-0.7244861125946045,-1.693471074104309,-1.0781772136688232,-30.108156204223633,61.020172119140625,-44.84069061279297
3.77,2.864208459854126,-12.081361770629883,-4.573880195617676,-0.6727153658866882,-1.3072515726089478,-1.5323554277420044,-31.277402877807617,60.52324295043945,-44.066062927246094
3.774,2.772084951400757,-12.452248573303223,-4.353740692138672,-0.671493649482727,-1.2684615850448608,-1.5909985303878784,-31.438175201416016,60.46477508544922,-44.19760513305664
3.78,2.6524438858032227,-12.964313507080078,-4.115654468536377,-0.6933320164680481,-1.1782063245773315,-1.7851009368896484,-32.00818634033203,60.610931396484375,-44.256065368652344
3.791,2.688336133956909,-13.491930961608887,-4.036691665649414,-0.751669704914093,-1.1032226085662842,-2.0482311248779297,-32.987430572509766,60.96170425415039,-43.876060485839844
3.8,2.8043882846832275,-13.819746971130371,-3.449253797531128,-0.8665122985839844,-1.0734429359436035,-2.323425769805908,-33.601287841796875,60.4940071105957,-42.867584228515625
3.81,2.4574286937713623,-15.209976196289062,-3.9792640209198,-0.9674578309059143,-1.1128437519073486,-2.515543222427368,-35.355159759521484,60.30400466918945,-42.282955169677734
3.825,2.137986898422241,-16.447065353393555,-3.211167812347412,-1.2192870378494263,-1.165530800819397,-2.8005118370056152,-36.77287292480469,59.96784591674805,-40.777549743652344
3.831,2.0506489276885986,-16.599010467529297,-2.95393967628479,-1.3205379247665405,-1.1638509035110474,-2.871983051300049,-37.971351623535156,59.660919189453125,-40.47062301635742
3.84,1.8221343755722046,-16.535600662231445,-2.4335005283355713,-1.5331189632415771,-1.1533136367797852,-2.969874143600464,-38.8629035949707,59.36860275268555,-39.47676086425781
3.85,1.3232309818267822,-16.264015197753906,-1.956132411956787,-1.7661640644073486,-1.0810787677764893,-3.0338621139526367,-40.324466705322266,59.54399108886719,-38.161354064941406
3.86,0.5455635190010071,-15.641881942749023,-2.1607186794281006,-1.8883371353149414,-0.9428704977035522,-3.070208787918091,-40.99678421020508,58.95936965942383,-37.75211715698242
3.87,0.1579262912273407,-14.964713096618652,-2.3234305381774902,-1.951256275177002,-0.7996225953102112,-3.1202995777130127,-42.896812438964844,58.78398513793945,-35.76439666748047
3.888,-0.20458632707595825,-13.934601783752441,-2.3605194091796875,-1.9517143964767456,-0.5760459303855896,-3.268892526626587,-45.62993240356445,57.03010559082031,-32.987430572509766
3.893,-0.39003005623817444,-13.64148235321045,-2.4179470539093018,-1.9257526397705078,-0.5103778839111328,-3.3041701316833496,-46.097633361816406,55.67085647583008,-32.490501403808594
3.901,-0.6436693072319031,-13.274182319641113,-2.337787628173828,-1.86497163772583,-0.3784310221672058,-3.3881640434265137,-47.33995819091797,55.583160400390625,-32.30049514770508
3.91,-0.9140582084655762,-12.887742042541504,-2.128415822982788,-1.7580702304840088,-0.2142609804868698,-3.478419303894043,-48.23151397705078,54.58930206298828,-31.072786331176758
3.92,-0.9966105818748474,-12.471391677856445,-2.021935224533081,-1.6655240058898926,-0.044287726283073425,-3.5585954189300537,-50.043846130371094,53.244667053222656,-30.108156204223633
3.939,-0.9320043921470642,-12.421141624450684,-1.7443677186965942,-1.591151237487793,0.1212567538022995,-3.6302192211151123,-51.388484954833984,51.92926025390625,-29.742765426635742
3.943,-0.6101697683334351,-12.422338485717773,-1.5637094974517822,-1.557706356048584,0.30024024844169617,-3.67343807220459,-53.478515625,50.774627685546875,-28.17889404296875
3.951,-0.4905286133289337,-12.460623741149902,-1.2442678213119507,-1.5632041692733765,0.35216379165649414,-3.6807684898376465,-55.05699920654297,49.18152618408203,-27.214263916015625
3.96,-0.696311354637146,-12.398409843444824,-0.9523433446884155,-1.638493299484253,0.40683624148368835,-3.7224600315093994,-56.82548904418945,47.67612075805664,-27.214263916015625
3.97,-0.760917603969574,-11.925827980041504,-1.046859860420227,-1.7024813890457153,0.4384485185146332,-3.7391061782836914,-58.155513763427734,45.542240142822266,-26.86349105834961
3.98,-0.6604190468788147,-11.477173805236816,-1.0887342691421509,-1.7469217777252197,0.4485277831554413,-3.718794822692871,-58.90090560913086,44.19760513305664,-25.913476943969727
4.0,-0.5324030518531799,-11.026126861572266,-1.2275179624557495,-1.7730363607406616,0.41493022441864014,-3.693596601486206,-60.90324401855469,42.35603332519531,-24.992692947387695
4.004,-0.43908295035362244,-10.510473251342773,-1.447657585144043,-1.7486016750335693,0.29046642780303955,-3.6163220405578613,-62.29172897338867,40.04676818847656,-23.794212341308594
4.011,-0.42711883783340454,-10.348958015441895,-1.4273186922073364,-1.7247780561447144,0.21273382008075714,-3.5587480068206787,-63.18327713012695,38.54136276245117,-23.50189971923828
4.02,-0.4462614059448242,-9.848857879638672,-1.435693621635437,-1.6717853546142578,0.1010981947183609,-3.464980363845825,-63.79713439941406,36.37825393676758,-22.566499710083008
4.03,-0.6927221417427063,-9.615557670593262,-1.2897313833236694,-1.5888605117797852,-0.016798794269561768,-3.330284595489502,-64.61560821533203,34.85823059082031,-22.303421020507812
4.04,-0.9762716293334961,-9.58205795288086,-1.112662434577942,-1.505935549736023,-0.09346237778663635,-3.1723759174346924,-65.40485382080078,33.250511169433594,-21.324174880981445
4.059,-1.184447169303894,-9.702895164489746,-1.031306505203247,-1.4259122610092163,-0.11789698898792267,-2.981174945831299,-65.59485626220703,31.55510139465332,-21.499561309814453
4.063,-1.537388563156128,-9.891928672790527,-0.7896314859390259,-1.3298536539077759,-0.10430524498224258,-2.629621982574463,-66.42794799804688,29.15814208984375,-20.754165649414062
4.071,-1.9022939205169678,-9.812965393066406,-0.5934200286865234,-1.319010853767395,-0.10644327104091644,-2.4601070880889893,-66.57410430908203,27.915815353393555,-20.91493797302246
4.08,-2.3497517108917236,-9.558130264282227,-0.41036906838417053,-1.3063353300094604,-0.06490442901849747,-2.2490530014038086,-67.11487579345703,26.61502456665039,-20.62262535095215
4.09,-2.5256240367889404,-9.371489524841309,-0.3601197898387909,-1.277471899986267,0.024892758578062057,-2.024407386779785,-67.11487579345703,25.109615325927734,-20.520315170288086
4.1,-2.4765713214874268,-9.196813583374023,-0.47617167234420776,-1.2296717166900635,0.14126259088516235,-1.7933475971221924,-67.2171859741211,24.11575698852539,-19.54106903076172
4.12,-1.9968103170394897,-8.851051330566406,-1.1748758554458618,-1.145830512046814,0.21670444309711456,-1.500590443611145,-67.74334716796875,23.048816680908203,-19.7310733795166
4.124,-1.038485050201416,-7.496713161468506,-1.428515076637268,-0.93889981508255,-0.0138971833512187,-1.218828797340393,-67.5094985961914,21.601871490478516,-19.46799087524414
4.131,-1.3543375730514526,-7.0648088455200195,-1.3184452056884766,-0.8022187352180481,-0.07483098655939102,-1.0131200551986694,-67.99181365966797,20.91493797302246,-19.014907836914062
4.14,-1.4105688333511353,-6.662814617156982,-1.4895319938659668,-0.6087271571159363,-0.2513710558414459,-0.8225300312042236,-67.4364242553711,20.798011779785156,-19.08798599243164
4.15,-1.9190436601638794,-6.697510242462158,-1.447657585144043,-0.39584067463874817,-0.3982841372489929,-0.6114761233329773,-67.49488830566406,19.80415153503418,-18.956445693969727
4.16,-2.603391170501709,-6.669992923736572,-1.3543375730514526,-0.19578230381011963,-0.5477933883666992,-0.3326161205768585,-67.26103210449219,18.70798110961914,-19.117216110229492
4.18,-3.2829525470733643,-6.802794456481934,-0.7525426745414734,-0.033597588539123535,-0.6117815375328064,-0.08933904021978378,-67.48026275634766,19.774919509887695,-18.474130630493164
4.184,-4.892125606536865,-8.204988479614258,-0.20458632707595825,0.16691893339157104,-0.5445863604545593,0.3271183371543884,-66.7494888305664,19.774919509887695,-17.684886932373047
4.191,-5.9545392990112305,-9.047262191772461,0.08255238085985184,0.2641991972923279,-0.34697145223617554,0.5668829083442688,-66.64717864990234,19.847997665405273,-18.3718204498291
4.201,-6.82313346862793,-9.183652877807617,0.6113661527633667,0.375071257352829,0.1033889427781105,0.7965682744979858,-66.31101989746094,19.935691833496094,-18.09412384033203
4.21,-5.723631381988525,-8.264808654785156,-0.24047866463661194,0.5238169431686401,0.5827654004096985,1.0795515775680542,-66.61795043945312,20.681087493896484,-18.09412384033203
4.221,-3.864408493041992,-6.329015731811523,-2.0829520225524902,0.7064656615257263,0.8671231865882874,1.4117095470428467,-66.60333251953125,20.8126277923584,-19.17568016052246
4.24,-2.1619153022766113,-5.7678985595703125,-3.7878382205963135,0.9923505187034607,0.8127562403678894,1.587027907371521,-66.85179901123047,22.274188995361328,-19.029523849487305
4.244,-0.3230310380458832,-7.247859477996826,-3.9074792861938477,1.231046199798584,0.2541199326515198,1.7741053104400635,-67.392578125,23.078046798706055,-18.313358306884766
4.251,0.05024927482008934,-8.70508861541748,-3.579662799835205,1.2344058752059937,0.05619960278272629,1.8863518238067627,-67.02719116210938,23.867290496826172,-19.584917068481445
4.26,-0.5132604241371155,-10.013962745666504,-3.025723934173584,1.2047789096832275,-0.322536826133728,2.138791799545288,-66.47179412841797,25.270387649536133,-18.576440811157227
4.27,-1.3902299404144287,-10.64686393737793,-2.794816732406616,1.1785117387771606,-0.5094616413116455,2.417193651199341,-66.12101745605469,26.61502456665039,-19.204912185668945
4.28,-1.9836498498916626,-10.618149757385254,-2.57228422164917,1.17240309715271,-0.5606215596199036,2.662761688232422,-66.26717376708984,28.73428726196289,-19.029523849487305
4.3,-2.816352128982544,-10.829915046691895,-2.39401912689209,1.235322117805481,-0.5251913666725159,2.9016098976135254,-65.24407958984375,30.064308166503906,-18.16720199584961
4.304,-3.449253797531128,-12.081361770629883,-2.4155545234680176,1.3170254230499268,-0.3084869384765625,3.154660701751709,-64.77638244628906,31.847414016723633,-18.795673370361328
4.31,-3.3966116905212402,-13.00857925415039,-2.8247268199920654,1.3524556159973145,-0.18768833577632904,3.257897138595581,-64.10406494140625,32.27126693725586,-19.102602005004883
4.32,-3.060420036315918,-14.188241004943848,-3.3714869022369385,1.468672752380371,0.10506881773471832,3.5388948917388916,-63.60713195800781,34.49283981323242,-19.24875831604004
4.33,-2.633301258087158,-15.105889320373535,-3.5784661769866943,1.5622878074645996,0.3087923526763916,3.7195584774017334,-62.554805755615234,36.58287048339844,-20.549545288085938
4.34,-2.348555326461792,-15.315260887145996,-3.678964614868164,1.6719380617141724,0.5190827250480652,3.863875150680542,-61.86787414550781,38.278282165527344,-20.37415885925293
4.36,-1.7383856773376465,-15.255440711975098,-3.5676984786987305,1.7744108438491821,0.7156286239624023,3.9794816970825195,-60.610931396484375,41.11370849609375,-21.28032684326172
4.364,-0.7130610942840576,-14.523236274719238,-3.236292600631714,1.9223928451538086,0.8930849432945251,4.1245622634887695,-60.04092025756836,42.56065368652344,-21.83572006225586
4.37,-0.5383850932121277,-14.240883827209473,-3.1274189949035645,1.9507981538772583,0.9080511927604675,4.145331382751465,-59.44168472290039,43.84682846069336,-21.601871490478516
4.38,0.1256231814622879,-13.548161506652832,-3.0317063331604004,1.9587393999099731,0.84574294090271,4.094171524047852,-58.11166000366211,45.3814697265625,-22.74188804626465
4.39,1.073180913925171,-12.996615409851074,-3.3918259143829346,1.9343047142028809,0.693026602268219,3.997960329055786,-56.88395690917969,47.69073486328125,-24.203449249267578
4.4,2.2193429470062256,-12.626924514770508,-3.751945734024048,1.8791741132736206,0.4291328191757202,3.903428792953491,-55.67085647583008,49.25460433959961,-24.84653663635254
4.42,3.0412774085998535,-12.401999473571777,-3.9218363761901855,1.6800321340560913,-0.3614795207977295,3.718183994293213,-52.733116149902344,51.54925537109375,-26.176557540893555
4.423,3.2817561626434326,-12.022737503051758,-4.179064750671387,1.6241379976272583,-0.5682573914527893,3.6593880653381348,-52.22157287597656,52.55773162841797,-26.43963623046875
4.43,3.06999135017395,-11.919845581054688,-4.175475120544434,1.541213035583496,-0.848644495010376,3.5688273906707764,-51.56386947631836,53.34697341918945,-26.921951293945312
4.44,2.662015199661255,-11.814560890197754,-3.888336658477783,1.4245377779006958,-1.1400271654129028,3.441614866256714,-49.576148986816406,54.457759857177734,-26.351943969726562
4.45,2.311466693878174,-11.631509780883789,-3.607180118560791,1.3223705291748047,-1.328937292098999,3.3209688663482666,-47.64688491821289,55.40777587890625,-27.05349349975586
4.46,1.832902193069458,-11.34676456451416,-3.4169507026672363,1.2331842184066772,-1.3965907096862793,3.2291862964630127,-45.84916687011719,55.758548736572266,-27.141185760498047
4.48,1.3950154781341553,-10.853843688964844,-3.469592809677124,1.1650727987289429,-1.3092368841171265,3.1306843757629395,-42.3414192199707,56.927799224853516,-27.828121185302734
4.484,0.9667003750801086,-10.176674842834473,-3.538984537124634,1.1539243459701538,-1.1424707174301147,3.0101912021636963,-41.59602355957031,57.366268157958984,-27.915815353393555
4.491,0.8458627462387085,-10.04148006439209,-3.672982692718506,1.1566733121871948,-1.0201449394226074,2.9240591526031494,-40.2221565246582,57.936275482177734,-27.871967315673828
4.501,0.8231310248374939,-10.013962745666504,-4.0905303955078125,1.1659890413284302,-0.8231408596038818,2.8073840141296387,-39.43291473388672,57.86320114135742,-29.304296493530273
4.51,0.784845769405365,-10.092926025390625,-4.256831645965576,1.1995865106582642,-0.6041457653045654,2.6988027095794678,-37.91289138793945,58.91551971435547,-29.304296493530273
4.52,0.7465606331825256,-10.345367431640625,-4.262813568115234,1.229519009590149,-0.2961169183254242,2.549140453338623,-36.290557861328125,58.871673583984375,-30.35662078857422
4.539,0.7034898400306702,-10.590632438659668,-4.419543266296387,1.2721267938613892,0.17104226350784302,2.34175181388855,-33.48435974121094,59.61707305908203,-30.45893096923828
4.543,0.7704888582229614,-10.73300552368164,-4.353740692138672,1.2819007635116577,0.3006984293460846,2.2745566368103027,-33.045894622802734,60.289390563964844,-31.350481033325195
4.55,0.9535397887229919,-11.059626579284668,-4.328616142272949,1.2794573307037354,0.488539457321167,2.1755964756011963,-32.34434509277344,60.406314849853516,-31.74510383605957
4.56,1.2981061935424805,-11.546565055847168,-4.298705577850342,1.2571606636047363,0.7185302376747131,2.043038845062256,-31.175094604492188,60.610931396484375,-33.27974319458008
4.57,1.7682960033416748,-12.114861488342285,-4.113262176513672,1.2038626670837402,0.9332493543624878,1.8738291263580322,-30.63431739807129,60.1140022277832,-33.11897277832031
4.58,2.2803597450256348,-12.563515663146973,-4.325026512145996,1.088409185409546,1.0633636713027954,1.7374534606933594,-29.275066375732422,60.87401580810547,-34.171295166015625
4.6,3.6191442012786865,-13.050454139709473,-5.194817543029785,0.9282097220420837,1.157131552696228,1.5019649267196655,-28.091201782226562,60.65477752685547,-34.229759216308594
4.603,3.888336658477783,-13.082757949829102,-5.321637153625488,0.9132435321807861,1.155909776687622,1.476919412612915,-28.208127975463867,61.12247848510742,-34.6682243347168
4.611,4.23649263381958,-13.103096961975098,-5.441278457641602,0.8652905821800232,1.1560624837875366,1.4136948585510254,-27.72580909729004,61.26863479614258,-35.0043830871582
4.62,4.632504463195801,-13.02532958984375,-5.608776569366455,0.8046622276306152,1.1352930068969727,1.3527610301971436,-27.228879928588867,61.429405212402344,-35.74978256225586
4.63,5.36351203918457,-12.592228889465332,-6.692724704742432,0.770606517791748,1.1027644872665405,1.2229522466659546,-26.79041290283203,60.976322174072266,-36.12978744506836
4.64,6.586244106292725,-11.71286678314209,-6.196214199066162,0.7594581842422485,0.6301075220108032,1.1035280227661133,-26.074249267578125,61.37094497680664,-35.88132095336914
4.659,5.730810165405273,-11.6183500289917,-5.312066078186035,0.6424775123596191,0.3121521472930908,0.811076283454895,-25.358083724975586,61.5755615234375,-37.51826858520508
4.663,6.102894306182861,-11.909078598022461,-5.176871299743652,0.6133086681365967,0.2617557644844055,0.7507533431053162,-25.41654396057129,61.838645935058594,-37.19672393798828
4.67,6.788437843322754,-12.223733901977539,-5.139782905578613,0.488539457321167,0.07681629806756973,0.5728389024734497,-24.612686157226562,61.5171012878418,-36.75825881958008
4.681,7.52303409576416,-12.382857322692871,-5.62552547454834,0.21273382008075714,-0.30054569244384766,0.31902435421943665,-24.32037353515625,61.736331939697266,-36.99210739135742
4.69,7.831707954406738,-12.203394889831543,-5.62552547454834,-0.018020525574684143,-0.6374378800392151,0.15241087973117828,-25.007307052612305,61.721717834472656,-36.62671661376953
4.7,6.886543273925781,-12.252447128295898,-5.595615386962891,-0.23808471858501434,-0.9508117437362671,-0.010842857882380486,-24.84653663635254,61.619407653808594,-36.97748947143555
4.718,5.267798900604248,-13.414163589477539,-6.579065322875977,-0.5170974135398865,-1.1378892660140991,-0.30772337317466736,-24.627302169799805,61.034786224365234,-35.16515350341797
4.722,5.099104881286621,-13.816157341003418,-6.6831536293029785,-0.5873469114303589,-1.1258245706558228,-0.39797869324684143,-24.86115074157715,61.12247848510742,-35.82286071777344
4.731,4.743770599365234,-14.11406421661377,-6.798008441925049,-0.7180721163749695,-1.0653489828109741,-0.5963572263717651,-24.641918182373047,61.28324890136719,-35.69131851196289
4.74,3.9110684394836426,-13.708479881286621,-6.3661041259765625,-0.8130615949630737,-0.9329439401626587,-0.7956519722938538,-24.992692947387695,60.800933837890625,-34.08360290527344
4.75,2.981456995010376,-13.01815128326416,-5.741578102111816,-0.861167311668396,-0.674089789390564,-0.9825767278671265,-25.86962890625,61.16632843017578,-34.156681060791016
4.76,2.142772674560547,-12.721442222595215,-5.736792087554932,-0.8355109095573425,-0.35643988847732544,-1.214552879333496,-26.556564331054688,60.23093032836914,-34.01052474975586
4.78,2.358126640319824,-13.497912406921387,-5.879165172576904,-0.7118107080459595,0.15943582355976105,-1.7458528280258179,-27.886581420898438,60.1140022277832,-32.35895919799805
4.784,2.4370899200439453,-13.811371803283691,-5.477170944213867,-0.7044803500175476,0.19394971430301666,-1.879937767982483,-28.032737731933594,60.1140022277832,-32.66588592529297
4.79,2.3545374870300293,-14.270793914794922,-5.120640754699707,-0.7446447610855103,0.2099849283695221,-2.099849224090576,-28.99736976623535,59.660919189453125,-32.09587860107422
4.8,2.3844475746154785,-14.84865951538086,-4.843072891235352,-0.8211556077003479,0.16584990918636322,-2.417193651199341,-30.37123680114746,59.660919189453125,-32.242034912109375
4.81,2.3126630783081055,-15.439687728881836,-4.460221290588379,-0.9469938278198242,0.06108652427792549,-2.7140743732452393,-32.1251106262207,59.39783477783203,-31.18971061706543
4.82,2.249253273010254,-15.649059295654297,-3.7124643325805664,-1.119715929031372,-0.04245513305068016,-2.9717066287994385,-33.87898254394531,58.71090316772461,-30.502779006958008
4.836,1.5266207456588745,-16.619348526000977,-3.6885359287261963,-1.436296820640564,-0.2632829248905182,-3.3434181213378906,-36.115169525146484,57.22011184692383,-28.558900833129883
4.841,1.3076776266098022,-16.861024856567383,-3.3619158267974854,-1.5291483402252197,-0.33017265796661377,-3.430466413497925,-36.80210494995117,56.810874938964844,-27.988893508911133
4.851,0.7561319470405579,-17.008182525634766,-3.008974552154541,-1.7440203428268433,-0.4237877428531647,-3.564856767654419,-38.395206451416016,55.84624481201172,-27.08272361755371
4.86,0.36251261830329895,-16.721044540405273,-3.0975089073181152,-1.9063576459884644,-0.48319438099861145,-3.6703836917877197,-39.63753128051758,55.10084533691406,-26.936567306518555
4.87,0.09690931439399719,-16.462617874145508,-2.933600664138794,-2.0008890628814697,-0.5251913666725159,-3.752545118331909,-41.59602355957031,53.522361755371094,-25.738086700439453
4.88,-0.04307080805301666,-16.15275001525879,-3.0340988636016846,-2.082439661026001,-0.5789475440979004,-3.8234055042266846,-42.92604446411133,52.513885498046875,-24.627302169799805
4.894,-0.5371886491775513,-15.328420639038086,-2.8139593601226807,-2.0987801551818848,-0.6239988207817078,-3.8765506744384766,-44.88453674316406,50.5992431640625,-23.545745849609375
4.901,-0.8817551136016846,-14.928820610046387,-2.6189444065093994,-2.084882974624634,-0.607810914516449,-3.9009852409362793,-45.32300567626953,49.70768737792969,-22.581117630004883
4.91,-1.2143574953079224,-14.493326187133789,-2.242074728012085,-2.0526599884033203,-0.5313000082969666,-3.9295434951782227,-47.07687759399414,48.18766403198242,-22.274188995361328
4.92,-1.4775679111480713,-14.215758323669434,-1.935793399810791,-2.018756866455078,-0.3911064863204956,-3.9510765075683594,-47.96842956542969,46.740718841552734,-21.864952087402344
4.93,-1.4967105388641357,-13.85683536529541,-1.769492268562317,-1.9979875087738037,-0.2197587788105011,-3.955657958984375,-48.62613296508789,45.0599250793457,-21.631101608276367
4.949,-1.506281852722168,-13.390235900878906,-1.6821541786193848,-1.9709566831588745,-0.02733621932566166,-3.950923442840576,-50.160770416259766,43.56913375854492,-20.98801612854004
4.953,-1.7288143634796143,-12.622138977050781,-1.332802176475525,-1.9530888795852661,0.12996158003807068,-3.9923095703125,-51.54925537109375,41.28909683227539,-21.353404998779297
4.961,-1.7623138427734375,-12.2859468460083,-1.2167502641677856,-1.9576704502105713,0.22617284953594208,-4.0187296867370605,-52.733116149902344,40.67523956298828,-19.7310733795166
4.97,-1.683350682258606,-11.850454330444336,-1.0181459188461304,-1.965153455734253,0.3422372341156006,-4.051105499267578,-53.317745208740234,38.51213073730469,-20.052616119384766
4.98,-1.4608181715011597,-11.56570816040039,-0.9583254456520081,-1.9775234460830688,0.4300491213798523,-4.068362712860107,-54.633148193359375,37.16749572753906,-20.169540405273438
4.991,-1.2957134246826172,-11.198410034179688,-1.098305583000183,-1.9866864681243896,0.5018258094787598,-4.041637420654297,-55.2177734375,35.472084045410156,-19.74568748474121
5.01,-1.117448091506958,-10.977072715759277,-1.2550355195999146,-1.969887614250183,0.5216789245605469,-4.004374027252197,-56.387020111083984,33.805904388427734,-20.008769989013672
5.014,-0.873380184173584,-10.670792579650879,-1.384247899055481,-1.9408715963363647,0.4352414906024933,-3.9096901416778564,-57.527042388916016,31.4674072265625,-18.63490104675293
5.021,-0.7956134676933289,-10.417153358459473,-1.5517455339431763,-1.9223928451538086,0.3752239942550659,-3.860668182373047,-57.90704345703125,30.239694595336914,-19.117216110229492
5.03,-0.9284151792526245,-10.450653076171875,-1.5481561422348022,-1.8690948486328125,0.25305092334747314,-3.7369680404663086,-58.50628662109375,28.938907623291016,-19.380298614501953
5.04,-1.1186444759368896,-10.503293991088867,-1.3986047506332397,-1.814422369003296,0.0913243517279625,-3.554013967514038,-59.16398620605469,27.360422134399414,-18.576440811157227
5.05,-1.4428720474243164,-10.52363395690918,-1.1904292106628418,-1.7741053104400635,-0.003512475173920393,-3.3593006134033203,-59.58784103393555,25.752704620361328,-17.831043243408203
5.069,-1.781456470489502,-10.620543479919434,-0.8422735333442688,-1.7424931526184082,-0.06887505203485489,-3.1259500980377197,-59.470916748046875,24.714996337890625,-18.196434020996094
5.073,-2.3952155113220215,-10.695917129516602,-0.760917603969574,-1.7259997129440308,-0.051770828664302826,-2.785850763320923,-59.894771575927734,22.434959411621094,-17.655654907226562
5.081,-2.5782663822174072,-10.65404224395752,-0.4941178560256958,-1.7044668197631836,-0.0013744467869400978,-2.563343048095703,-59.95323181152344,21.29494285583496,-18.576440811157227
5.091,-2.9515466690063477,-10.567900657653809,-0.005982056725770235,-1.6855299472808838,0.0988074541091919,-2.166280746459961,-60.04092025756836,20.315698623657227,-18.50336265563965
5.1,-3.572484016418457,-10.13479995727539,0.31345975399017334,-1.6720908880233765,0.21151207387447357,-1.9020816087722778,-60.099388122558594,18.751827239990234,-17.772581100463867
5.11,-3.455235719680786,-9.738787651062012,0.32183465361595154,-1.6180293560028076,0.3254384398460388,-1.6798794269561768,-60.34785079956055,18.28412628173828,-17.97719955444336
5.13,-2.8462624549865723,-9.083154678344727,-0.11485548317432404,-1.5276212692260742,0.42684206366539,-1.4329371452331543,-60.02630615234375,17.24641990661621,-18.474130630493164
5.134,-2.069791555404663,-7.598408222198486,-1.2071789503097534,-1.242347240447998,0.5083925724029541,-1.0340421199798584,-60.74247360229492,16.223325729370117,-18.25489616394043
5.141,-1.9070795774459839,-6.625725269317627,-2.1918253898620605,-1.0447322130203247,0.45173484086990356,-0.8874344229698181,-60.786319732666016,15.638701438903809,-18.824905395507812
5.15,-0.9858428835868835,-4.406383037567139,-2.297109603881836,-0.6948592066764832,0.04306599870324135,-0.7435756921768188,-61.005558013916016,15.18561840057373,-19.0733699798584
5.16,-2.275574207305908,-3.9876389503479004,-1.7754743099212646,-0.31154128909111023,-0.07208210229873657,-0.48655417561531067,-61.195556640625,14.35252857208252,-17.845659255981445
5.17,-3.0245277881622314,-4.548755645751953,-1.2741780281066895,-0.029168814420700073,-0.18112152814865112,-0.30573806166648865,-61.13709259033203,14.147910118103027,-18.956445693969727
5.19,-3.3643083572387695,-5.221138954162598,-1.0133603811264038,0.2093740552663803,-0.1996002048254013,-0.12003502249717712,-61.09324645996094,14.045600891113281,-19.26337242126465
5.195,-4.23649263381958,-5.413760662078857,-0.6951149702072144,0.43829578161239624,-0.14095714688301086,0.23625212907791138,-61.020172119140625,14.849458694458008,-18.5325927734375
5.201,-4.67078971862793,-5.858826160430908,-1.1006983518600464,0.5338962078094482,-0.043676864355802536,0.4404338300228119,-61.06401824951172,15.346389770507812,-18.70798110961914
5.21,-4.741377830505371,-7.386643409729004,-1.1868400573730469,0.7044803500175476,0.16951508820056915,0.7538076639175415,-61.16632843017578,15.653318405151367,-19.321834564208984
5.22,-4.390829086303711,-8.781658172607422,-1.0336993932724,0.8071057200431824,0.37568211555480957,1.0725265741348267,-60.94709014892578,16.164865493774414,-20.1110782623291
5.23,-3.4432716369628906,-8.498109817504883,-1.7455641031265259,0.8487972617149353,0.5141957998275757,1.3458887338638306,-61.37094497680664,16.70564079284668,-20.052616119384766
5.25,-2.045863151550293,-7.155735969543457,-2.9288148880004883,0.9853256344795227,0.4570798873901367,1.6219998598098755,-61.10786056518555,18.25489616394043,-19.52645492553711
5.254,-0.7298108339309692,-6.715456485748291,-3.940978765487671,1.1927144527435303,0.18829920887947083,1.8469511270523071,-61.18094253540039,18.795673370361328,-19.584917068481445
5.261,-0.605384111404419,-7.325625896453857,-3.6981072425842285,1.2667818069458008,-0.027183502912521362,1.9810359477996826,-61.5171012878418,19.687227249145508,-19.014907836914062
5.27,-0.882951557636261,-8.372486114501953,-3.506681442260742,1.3220651149749756,-0.26022857427597046,2.1713204383850098,-60.66939163208008,20.63724136352539,-19.19029426574707
5.28,-1.6654045581817627,-9.142974853515625,-3.071187734603882,1.3828461170196533,-0.4485277831554413,2.3432788848876953,-60.87401580810547,22.025724411010742,-19.409530639648438
5.291,-2.5495524406433105,-9.820143699645996,-2.5016961097717285,1.4541646242141724,-0.484416127204895,2.5557072162628174,-59.982460021972656,23.238819122314453,-18.81028938293457
5.309,-3.376272678375244,-10.658828735351562,-2.0003998279571533,1.4563027620315552,-0.16584990918636322,2.7847816944122314,-58.95936965942383,25.89885902404785,-19.234142303466797
5.313,-3.5090742111206055,-12.234501838684082,-2.2923240661621094,1.445918083190918,-0.028710665181279182,2.858238458633423,-59.105525970458984,27.1704158782959,-19.102602005004883
5.32,-3.067598581314087,-12.736994743347168,-2.794816732406616,1.4512630701065063,0.1774563491344452,3.0132455825805664,-58.667057037353516,27.4481143951416,-19.584917068481445
5.33,-2.520838737487793,-13.15693473815918,-3.0963122844696045,1.4886785745620728,0.4138611853122711,3.2591187953948975,-58.053199768066406,29.28968048095703,-19.19029426574707
5.34,-2.1786649227142334,-13.531412124633789,-3.4480574131011963,1.5373951196670532,0.6110179424285889,3.4857497215270996,-57.61473083496094,30.385852813720703,-19.131834030151367
5.35,-1.7455641031265259,-14.080564498901367,-3.5916268825531006,1.6307047605514526,0.8126034736633301,3.718031167984009,-57.22011184692383,32.052032470703125,-20.71031951904297
5.37,-1.1413763761520386,-14.725430488586426,-3.4432716369628906,1.6835445165634155,0.93095862865448,3.9067885875701904,-55.86085891723633,35.07746124267578,-21.353404998779297
5.374,-0.7345964908599854,-14.855838775634766,-3.352344274520874,1.7243198156356812,1.0338894128799438,4.134488582611084,-55.67085647583008,35.662086486816406,-22.93189239501953
5.381,-0.6460620760917664,-14.691930770874023,-3.262613534927368,1.7421876192092896,1.0448850393295288,4.1832051277160645,-55.20315933227539,36.58287048339844,-22.244956970214844
5.391,-0.5443671345710754,-14.410773277282715,-3.205185890197754,1.7629570960998535,1.049924612045288,4.23039436340332,-54.37007141113281,38.40982437133789,-22.128032684326172
5.4,-0.13040883839130402,-14.007582664489746,-3.479163885116577,1.7742581367492676,1.0024298429489136,4.21588659286499,-53.332359313964844,39.579071044921875,-23.136510848999023
5.41,0.7202395796775818,-13.63908863067627,-3.5018956661224365,1.7730363607406616,0.891863226890564,4.172056674957275,-52.484657287597656,41.5814094543457,-24.028060913085938
5.43,1.098305583000183,-13.336396217346191,-3.449253797531128,1.6739234924316406,0.46441027522087097,4.003763198852539,-50.24846649169922,44.13914108276367,-25.957321166992188
5.433,1.3830513954162598,-12.811171531677246,-3.5341989994049072,1.65834641456604,0.4072943925857544,3.972762107849121,-50.11692810058594,43.978370666503906,-26.045015335083008
5.44,1.4979069232940674,-12.576675415039062,-3.4947173595428467,1.609171748161316,0.24373522400856018,3.8783833980560303,-48.94767761230469,45.01607894897461,-26.015785217285156
5.45,1.820937991142273,-12.349357604980469,-3.5808589458465576,1.5096007585525513,-0.01191187184303999,3.7110064029693604,-47.61765670776367,46.550716400146484,-25.591930389404297
5.46,2.2444677352905273,-12.1866455078125,-3.6945178508758545,1.439351201057434,-0.1895209401845932,3.608839273452759,-46.44840621948242,46.95995330810547,-27.126571655273438
5.47,2.362912178039551,-12.035898208618164,-3.7052857875823975,1.3707815408706665,-0.3465133011341095,3.5321755409240723,-44.79684066772461,48.041507720947266,-27.375036239624023
5.49,2.407179594039917,-11.93181037902832,-3.5234313011169434,1.2095131874084473,-0.5726861357688904,3.327535629272461,-41.508331298828125,50.146156311035156,-27.433500289916992
5.494,2.5387847423553467,-11.645867347717285,-3.5988051891326904,1.1679743528366089,-0.6218608021736145,3.266143560409546,-40.8652458190918,50.20461654663086,-28.646595001220703
5.501,2.5160529613494873,-11.49512004852295,-3.5940194129943848,1.1137601137161255,-0.6901249885559082,3.1781790256500244,-39.54983901977539,50.789241790771484,-28.06197166442871
5.51,2.163111686706543,-11.066803932189941,-3.772284984588623,1.0563386678695679,-0.754571259021759,3.0495917797088623,-38.468284606933594,51.183860778808594,-28.544286727905273
5.52,1.8460626602172852,-10.938788414001465,-4.015156269073486,1.0235047340393066,-0.7930558323860168,2.880993366241455,-36.88979721069336,52.002342224121094,-29.026599884033203
5.53,1.676172137260437,-11.02014446258545,-4.006781578063965,1.0059423446655273,-0.807563841342926,2.699260711669922,-36.05670928955078,51.49079132080078,-29.596609115600586
5.55,0.9918249249458313,-11.452049255371094,-4.443471431732178,1.0077749490737915,-0.6032294034957886,2.4013113975524902,-33.67436599731445,52.090030670166016,-29.8889217376709
5.553,0.9463613033294678,-11.557332992553711,-4.515256404876709,1.019075870513916,-0.49098294973373413,2.3437373638153076,-32.9289665222168,52.25080108642578,-30.605087280273438
5.56,1.1306086778640747,-11.81336498260498,-4.800002098083496,1.0447322130203247,-0.30634891986846924,2.284025192260742,-32.1251106262207,52.499271392822266,-30.44431495666504
5.57,1.2514461278915405,-11.991630554199219,-4.8358941078186035,1.09024178981781,-0.047800205647945404,2.2316434383392334,-30.824321746826172,52.484657287597656,-31.511253356933594
5.58,1.8855441808700562,-11.970094680786133,-5.106283187866211,1.1142182350158691,0.2295326143503189,2.199267625808716,-30.34200668334961,53.27389907836914,-31.978952407836914
5.591,3.2279176712036133,-11.916255950927734,-5.206782341003418,1.177748203277588,0.30115655064582825,2.1317670345306396,-28.880443572998047,52.937740325927734,-32.30049514770508
5.609,2.554337978363037,-12.154342651367188,-4.975874423980713,1.1397217512130737,0.44684794545173645,2.0360138416290283,-27.959659576416016,53.40544128417969,-33.32358932495117
5.612,2.857030153274536,-12.30389404296875,-5.077569484710693,1.1308642625808716,0.45036038756370544,1.998598337173462,-27.565038681030273,53.39081954956055,-33.45513153076172
5.62,3.8009984493255615,-12.920045852661133,-5.030909538269043,1.067945122718811,0.3943135142326355,1.9029979705810547,-26.571178436279297,54.22391128540039,-33.77667236328125
5.631,4.49252462387085,-13.429717063903809,-5.233102798461914,0.9080511927604675,0.28588491678237915,1.8095355033874512,-25.577316284179688,54.20929718017578,-34.43437576293945
5.64,5.07517671585083,-13.440484046936035,-5.3970112800598145,0.7316638231277466,0.08185594528913498,1.7218763828277588,-24.802688598632812,53.46390151977539,-34.741302490234375
5.65,5.30967378616333,-13.251450538635254,-5.210371017456055,0.5638285875320435,-0.09926559776067734,1.6520850658416748,-24.042678833007812,53.94621658325195,-34.60976028442383
5.67,4.96630334854126,-12.634103775024414,-5.783452033996582,0.20387627184391022,-0.29275718331336975,1.44057297706604,-22.873428344726562,53.99005889892578,-35.2674674987793
5.673,5.018945217132568,-12.367303848266602,-6.088537216186523,0.17928895354270935,-0.30573806166648865,1.4118623733520508,-22.537269592285156,53.39081954956055,-34.916690826416016
5.68,4.986642360687256,-12.008379936218262,-6.192624568939209,0.12553280591964722,-0.34636056423187256,1.310916781425476,-21.791873931884766,54.033905029296875,-35.15053939819336
5.691,4.91126823425293,-11.623135566711426,-6.129214763641357,0.04902193322777748,-0.3995058536529541,1.1339186429977417,-20.90032196044922,53.90237045288086,-34.419761657714844
5.7,4.910071849822998,-11.334800720214844,-6.295516014099121,-0.015271631069481373,-0.42806383967399597,0.9198102951049805,-20.958784103393555,54.15083312988281,-34.65361022949219
5.71,4.914857387542725,-11.688939094543457,-6.725028038024902,-0.04306599870324135,-0.46670103073120117,0.6493497490882874,-20.008769989013672,53.80005645751953,-34.96053695678711
5.725,4.9878387451171875,-13.293325424194336,-7.130610942840576,-0.12476921826601028,-0.5459607839584351,0.2981022298336029,-19.219526290893555,53.27389907836914,-34.799766540527344
5.731,4.981856346130371,-14.044671058654785,-6.853043556213379,-0.17531833052635193,-0.58062744140625,0.16371189057826996,-19.62876319885254,53.624671936035156,-34.56591796875
5.741,4.744967460632324,-14.371292114257812,-6.388835906982422,-0.29474249482154846,-0.6675229668617249,-0.1362229436635971,-19.307220458984375,53.05466079711914,-35.311309814453125
5.75,3.8428730964660645,-13.860424995422363,-5.7032928466796875,-0.39538252353668213,-0.625220537185669,-0.41340306401252747,-19.234142303466797,53.34697341918945,-35.559776306152344
5.76,2.8450660705566406,-13.253844261169434,-5.048855781555176,-0.5161811113357544,-0.4550946056842804,-0.8181012272834778,-19.33645248413086,53.244667053222656,-35.340545654296875
5.77,1.7156537771224976,-12.873385429382324,-4.7401814460754395,-0.6185010671615601,-0.3126102685928345,-1.204626202583313,-19.54106903076172,53.449283599853516,-35.530548095703125
5.787,0.6269195079803467,-13.538590431213379,-4.400400638580322,-0.7809911966323853,-0.01863138936460018,-1.9439259767532349,-20.71031951904297,53.2008171081543,-35.0043830871582
5.791,0.6640082597732544,-13.848461151123047,-4.302295207977295,-0.8118398785591125,0.03451388329267502,-2.046398639678955,-21.397253036499023,53.17158508300781,-33.70359420776367
5.8,1.234696388244629,-14.066206932067871,-4.552344799041748,-0.93095862865448,0.24663683772087097,-2.3686299324035645,-21.908798217773438,53.40544128417969,-34.47822189331055
5.81,1.6630116701126099,-13.585250854492188,-4.394418716430664,-1.0230464935302734,0.3781256079673767,-2.671771764755249,-23.633440017700195,52.86465835571289,-33.77667236328125
5.821,1.3878371715545654,-13.479965209960938,-4.789234161376953,-1.0700831413269043,0.37919458746910095,-2.9051222801208496,-24.919614791870117,53.01081466674805,-33.84975051879883
5.839,1.3268201351165771,-13.927423477172852,-4.374079704284668,-1.1110111474990845,0.3303253948688507,-3.143817901611328,-26.088863372802734,52.923118591308594,-32.08126449584961
5.843,1.2957134246826172,-14.313864707946777,-4.003191947937012,-1.2206615209579468,0.2402227520942688,-3.358995199203491,-27.857351303100586,52.8208122253418,-32.812042236328125
5.851,1.1665010452270508,-14.428720474243164,-3.7495527267456055,-1.2829697132110596,0.16310101747512817,-3.4521520137786865,-29.435836791992188,52.47003936767578,-31.905874252319336
5.86,0.9272187352180481,-14.499308586120605,-3.428914785385132,-1.3979651927947998,0.03039054572582245,-3.5724925994873047,-31.10201644897461,52.484657287597656,-31.75971794128418
5.87,0.745364248752594,-14.391631126403809,-3.073580503463745,-1.4915802478790283,-0.09193521738052368,-3.639840602874756,-32.63665771484375,51.72464370727539,-30.049694061279297
5.88,0.6699903011322021,-14.248062133789062,-2.80558443069458,-1.5714508295059204,-0.23609942197799683,-3.6920692920684814,-33.39666748046875,51.98772430419922,-30.327388763427734
5.9,0.5132604241371155,-14.151152610778809,-2.5770697593688965,-1.6520850658416748,-0.4053090810775757,-3.7201690673828125,-35.57439422607422,51.11078643798828,-29.91815185546875
5.903,0.10767702013254166,-14.100902557373047,-2.533998966217041,-1.7652478218078613,-0.5827654004096985,-3.72994327545166,-37.1236457824707,50.233848571777344,-28.968137741088867
5.911,-0.06819543987512589,-14.002798080444336,-2.4574286937713623,-1.8043431043624878,-0.6438519358634949,-3.7285687923431396,-38.33674621582031,49.7223014831543,-28.69044303894043
5.92,-0.37088748812675476,-13.883155822753906,-2.1128623485565186,-1.8440494537353516,-0.6844744682312012,-3.713449716567993,-39.447532653808594,49.12306213378906,-27.185035705566406
5.93,-0.8219345808029175,-13.560125350952148,-1.8843477964401245,-1.8718438148498535,-0.6531676650047302,-3.6731326580047607,-40.9237060546875,48.421512603759766,-27.185035705566406
5.94,-1.2562319040298462,-13.246665954589844,-1.7383856773376465,-1.8823812007904053,-0.5546656250953674,-3.6419785022735596,-42.12218475341797,47.61765670776367,-26.264249801635742
5.96,-1.4261221885681152,-12.860225677490234,-1.688136339187622,-1.8723019361495972,-0.4141666293144226,-3.627164840698242,-43.55451583862305,47.06226348876953,-25.41654396057129
5.964,-1.4093725681304932,-12.348160743713379,-1.6666009426116943,-1.8093827962875366,-0.17119498550891876,-3.59601092338562,-45.235313415527344,45.746856689453125,-24.77345848083496
5.971,-1.3950154781341553,-12.232109069824219,-1.6175479888916016,-1.7667750120162964,-0.058795779943466187,-3.576157569885254,-46.097633361816406,44.738380432128906,-24.992692947387695
5.98,-1.3280165195465088,-12.032307624816895,-1.3914263248443604,-1.7066047191619873,0.09941831976175308,-3.5552356243133545,-47.106109619140625,43.72990417480469,-24.32037353515625
5.991,-1.046859860420227,-11.873186111450195,-1.2502497434616089,-1.6656767129898071,0.23548854887485504,-3.5282046794891357,-48.2607421875,42.838348388671875,-24.042678833007812
6.0,-0.882951557636261,-11.771491050720215,-1.3184452056884766,-1.6250542402267456,0.32589662075042725,-3.4938435554504395,-49.2984504699707,42.268341064453125,-22.93189239501953
6.02,-0.5539384484291077,-11.860024452209473,-1.3627125024795532,-1.6019940376281738,0.3692680299282074,-3.47597599029541,-51.6807975769043,38.97983169555664,-22.66880989074707
6.024,-0.15074782073497772,-11.895917892456055,-1.2646067142486572,-1.6032158136367798,0.31352660059928894,-3.4077117443084717,-52.14849853515625,39.5059928894043,-22.990352630615234
6.031,0.01196411345154047,-11.971291542053223,-1.112662434577942,-1.6088663339614868,0.26190847158432007,-3.367089033126831,-53.244667053222656,38.30751037597656,-22.683425903320312
6.04,0.3074776828289032,-12.071789741516113,-0.7896314859390259,-1.6667457818984985,0.13668109476566315,-3.3174562454223633,-54.13621520996094,37.19672393798828,-22.186494827270508
6.05,0.010767702013254166,-11.85763168334961,-0.6448656916618347,-1.7502816915512085,-0.05864306166768074,-3.238654613494873,-54.867000579833984,35.939781188964844,-21.55802345275879
6.06,-0.7680960297584534,-11.434102058410645,-0.5970092415809631,-1.8177822828292847,-0.1950187236070633,-3.1670308113098145,-55.583160400390625,34.56591796875,-21.55802345275879
6.08,-1.2729815244674683,-11.053643226623535,-0.7980062961578369,-1.8828394412994385,-0.3303253948688507,-3.1172451972961426,-56.66471862792969,33.805904388427734,-21.10494041442871
6.084,-1.9345970153808594,-10.431509971618652,-1.3651052713394165,-1.871996521949768,-0.34956762194633484,-2.9575040340423584,-57.65857696533203,31.686643600463867,-20.09646224975586
6.091,-2.313859462738037,-10.177870750427246,-1.4021941423416138,-1.822821855545044,-0.3016147017478943,-2.825404405593872,-57.48318862915039,30.56123924255371,-19.81876564025879
6.1,-2.5471596717834473,-9.940980911254883,-1.5625131130218506,-1.730733871459961,-0.1638645976781845,-2.627484083175659,-57.366268157958984,29.7281494140625,-20.330312728881836
6.11,-1.2071789503097534,-9.486345291137695,-2.0207386016845703,-1.5674800872802734,-0.14095714688301086,-2.4417810440063477,-58.0970458984375,28.091201782226562,-15.273311614990234
6.12,-3.1345977783203125,-8.744569778442383,-0.9332008361816406,-1.332908034324646,0.013744467869400978,-1.9149097204208374,-58.155513763427734,27.024263381958008,-18.50336265563965
6.14,-3.542573928833008,-8.266005516052246,-0.8566304445266724,-1.1627819538116455,0.30085110664367676,-1.7027868032455444,-58.477054595947266,24.96346092224121,-18.123355865478516
6.144,-2.7014968395233154,-7.701299667358398,-0.2967100143432617,-0.8940012454986572,0.41584649682044983,-1.4437800645828247,-59.20783233642578,25.095001220703125,-18.09412384033203
6.151,-2.702692985534668,-7.451249122619629,-0.3936192989349365,-0.8043568134307861,0.4605923891067505,-1.2255483865737915,-59.33937454223633,24.583454132080078,-18.839519500732422
6.16,-2.9694929122924805,-7.013362884521484,-1.377069354057312,-0.6840163469314575,0.5349652171134949,-0.941343367099762,-59.63168716430664,24.32037353515625,-18.079509735107422
6.17,-3.071187734603882,-7.245467185974121,-2.0721843242645264,-0.49495354294776917,0.4938845634460449,-0.7228062748908997,-59.95323181152344,23.633440017700195,-18.591054916381836
6.18,-2.7804598808288574,-7.697710037231445,-2.420340061187744,-0.42042800784111023,0.3202460706233978,-0.6123924255371094,-60.07015609741211,23.531131744384766,-18.459514617919922
6.2,-2.8941190242767334,-7.752745151519775,-2.0578272342681885,-0.3104722499847412,0.03955352306365967,-0.290313720703125,-60.68401336669922,22.537269592285156,-19.482608795166016
6.203,-3.4995031356811523,-7.45364236831665,-1.6749757528305054,-0.29336804151535034,0.02687807008624077,-0.23976460099220276,-60.610931396484375,22.94650650024414,-18.591054916381836
6.211,-3.943371534347534,-7.5457658767700195,-1.5086746215820312,-0.2255619913339615,0.012828170321881771,-0.07925976812839508,-60.815547943115234,22.771120071411133,-18.985675811767578
6.22,-4.58584451675415,-8.117650985717773,-1.636690616607666,-0.06750060617923737,0.055283304303884506,0.22449298202991486,-60.596317291259766,22.961122512817383,-19.409530639648438
6.23,-5.137389659881592,-8.352147102355957,-1.676172137260437,0.13408491015434265,0.22632557153701782,0.4905247688293457,-60.93247604370117,23.238819122314453,-18.605670928955078
6.24,-4.651647090911865,-7.649853706359863,-1.5708880424499512,0.3446807265281677,0.46303585171699524,0.7237226366996765,-60.830162048339844,23.487285614013672,-18.327974319458008
6.261,-3.397808074951172,-6.337390422821045,-2.5495524406433105,0.5566509366035461,0.607810914516449,0.9237809181213379,-60.786319732666016,24.48114585876465,-19.014907836914062
6.264,-1.6331013441085815,-5.759523868560791,-3.713660717010498,0.9453139305114746,0.3995058536529541,1.1595749855041504,-61.239402770996094,24.49576187133789,-18.88336753845215
6.271,-0.9762716293334961,-6.059823036193848,-3.6083762645721436,1.0433578491210938,0.1823432743549347,1.2418889999389648,-60.96170425415039,25.40192985534668,-19.92107582092285
6.28,-0.3242274522781372,-6.905685901641846,-3.3643083572387695,1.083064079284668,-0.19639316201210022,1.417970895767212,-60.610931396484375,25.621164321899414,-19.219526290893555
6.291,-0.8805586695671082,-7.737191677093506,-2.3330020904541016,1.1107057332992554,-0.5294674634933472,1.6528486013412476,-60.815547943115234,26.54194450378418,-19.45337677001953
6.3,-2.289931058883667,-8.390432357788086,-1.4117653369903564,1.098641037940979,-0.6922630071640015,1.9058995246887207,-60.172462463378906,27.871967315673828,-18.795673370361328
6.32,-3.8536407947540283,-9.2255277633667,-1.0325030088424683,1.0170906782150269,-0.4239404797554016,2.2537875175476074,-59.295528411865234,29.97661590576172,-19.102602005004883
6.324,-4.657629013061523,-10.429117202758789,-1.2442678213119507,0.988379955291748,-0.28328877687454224,2.317317485809326,-58.94475555419922,30.415081024169922,-19.409530639648438
6.331,-4.310669898986816,-10.689935684204102,-1.7048860788345337,0.9827294945716858,-0.06154467165470123,2.448500633239746,-58.76936340332031,30.692779541015625,-18.751827239990234
6.34,-3.290131092071533,-11.288141250610352,-2.5950162410736084,1.052673578262329,0.1748601794242859,2.67757511138916,-58.22858810424805,31.74510383605957,-19.08798599243164
6.35,-2.633301258087158,-12.023933410644531,-2.9383859634399414,1.1322386264801025,0.3643811345100403,2.889087200164795,-57.293190002441406,32.70973205566406,-19.760305404663086
6.36,-2.1822540760040283,-12.859027862548828,-3.262613534927368,1.2096657752990723,0.5337435007095337,3.1140382289886475,-56.942413330078125,34.361297607421875,-20.09646224975586
6.38,-1.7670994997024536,-13.505090713500977,-3.565305471420288,1.4314099550247192,0.8796459436416626,3.559664487838745,-55.65624237060547,37.0067253112793,-21.075708389282227
6.383,-1.0839486122131348,-13.564910888671875,-3.2961132526397705,1.4900530576705933,0.9460775256156921,3.6497671604156494,-55.583160400390625,37.81058120727539,-21.29494285583496
6.39,-0.8901299834251404,-13.313664436340332,-3.1202404499053955,1.5790866613388062,0.9993755221366882,3.745978355407715,-56.03624725341797,38.68751907348633,-21.864952087402344
6.4,-0.6879364848136902,-13.173685073852539,-2.654836893081665,1.6824755668640137,1.0493137836456299,3.8541014194488525,-54.5600700378418,40.002925872802734,-22.011106491088867
6.41,-0.6352943778038025,-13.213166236877441,-2.2229323387145996,1.7275269031524658,1.0737483501434326,3.9038870334625244,-54.18006134033203,41.128326416015625,-22.873428344726562
6.42,-0.29431718587875366,-13.220344543457031,-2.124826431274414,1.7201964855194092,1.030071496963501,3.8756344318389893,-52.952354431152344,43.379127502441406,-24.451913833618164
6.44,0.9116654396057129,-12.739387512207031,-2.6081764698028564,1.607797384262085,0.8518515229225159,3.7667479515075684,-50.49692916870117,45.62993240356445,-25.168079376220703
6.443,1.2646067142486572,-12.588639259338379,-2.761317014694214,1.5763376951217651,0.7866417169570923,3.743687629699707,-50.0584602355957,46.40456008911133,-25.34346580505371
6.451,1.6929219961166382,-12.349357604980469,-3.040081262588501,1.5282320976257324,0.6673702597618103,3.7082574367523193,-49.06460189819336,47.14995574951172,-27.433500289916992
6.461,2.097308874130249,-11.95095157623291,-3.3547372817993164,1.4552338123321533,0.46563202142715454,3.6780195236206055,-48.494590759277344,47.9391975402832,-27.111955642700195
6.47,2.159522294998169,-11.592028617858887,-3.369094133377075,1.4013248682022095,0.275347501039505,3.64335298538208,-46.667640686035156,49.41537857055664,-27.755043029785156
6.48,2.124826431274414,-11.257034301757812,-3.2757742404937744,1.350012183189392,0.08475754410028458,3.5741724967956543,-45.176849365234375,50.540775299072266,-28.646595001220703
6.496,1.7790635824203491,-10.916056632995605,-3.6335010528564453,1.295186996459961,-0.027641652151942253,3.4405457973480225,-43.992984771728516,51.154632568359375,-29.231218338012695
6.5,1.6486546993255615,-10.782058715820312,-3.702892780303955,1.2942707538604736,-0.03176499158143997,3.402977705001831,-43.11604690551758,51.783103942871094,-30.07892417907715
6.51,1.6797614097595215,-10.761719703674316,-3.6705896854400635,1.3031282424926758,-0.0277943667024374,3.285538673400879,-40.587547302246094,52.265419006347656,-29.932767868041992
6.52,1.9094724655151367,-10.926823616027832,-3.383450984954834,1.2809842824935913,-0.06276640295982361,3.1441233158111572,-39.4621467590332,52.80619812011719,-30.37123680114746
6.53,1.9597216844558716,-11.103893280029297,-3.3128626346588135,1.2333369255065918,-0.09819658100605011,2.981938600540161,-38.33674621582031,53.04004669189453,-31.75971794128418
6.54,2.0159530639648438,-11.405388832092285,-3.3020951747894287,1.1832458972930908,-0.10980302840471268,2.841439723968506,-36.831336975097656,53.40544128417969,-31.584331512451172
6.559,2.63449764251709,-11.71286678314209,-3.7052857875823975,1.0810787677764893,-0.15531249344348907,2.5699100494384766,-33.77667236328125,54.5600700378418,-33.19205093383789
6.563,2.7110679149627686,-11.863614082336426,-3.7734811305999756,1.073595643043518,-0.15485434234142303,2.5451700687408447,-33.64513397216797,54.38468551635742,-32.797428131103516
6.57,2.6907289028167725,-12.145967483520508,-3.803391456604004,1.0519099235534668,-0.144622340798378,2.4778220653533936,-33.07512283325195,54.282371520996094,-33.557437896728516
6.58,2.5112671852111816,-12.476177215576172,-3.8799617290496826,1.0199922323226929,-0.06352998316287994,2.367102861404419,-31.862030029296875,54.867000579833984,-34.2443733215332
6.59,2.293520450592041,-12.728619575500488,-4.218545913696289,1.0225883722305298,0.04764748737215996,2.2762365341186523,-30.63431739807129,55.01315689086914,-34.755916595458984
6.6,2.3700907230377197,-12.975079536437988,-4.4997029304504395,1.031598687171936,0.17852537333965302,2.177581787109375,-29.640457153320312,55.01315689086914,-34.69745635986328
6.613,2.678764820098877,-13.344771385192871,-4.84187650680542,1.0264062881469727,0.3237585723400116,2.0584630966186523,-28.427358627319336,55.13007736206055,-35.44285202026367
6.621,3.2685956954956055,-13.441680908203125,-5.364708423614502,1.0221302509307861,0.38438695669174194,1.964084506034851,-27.784273147583008,55.08623123168945,-36.21747970581055
6.63,4.386044025421143,-13.15693473815918,-4.7796630859375,1.0314459800720215,0.2018909603357315,1.8532124757766724,-26.834259033203125,55.188541412353516,-35.7059326171875
6.64,3.647857904434204,-12.957134246826172,-4.205385684967041,0.9923505187034607,0.19394971430301666,1.8084665536880493,-26.293479919433594,55.33469772338867,-36.6851806640625
6.65,3.950549840927124,-12.876975059509277,-4.254438400268555,0.977078914642334,0.19318613409996033,1.7360789775848389,-25.562700271606445,55.42238998413086,-36.86056900024414
6.66,4.694717884063721,-12.741780281066895,-4.462614059448242,0.9245445132255554,0.1641700267791748,1.6869043111801147,-24.40806770324707,55.583160400390625,-37.109031677246094
6.676,5.406582355499268,-12.247662544250488,-5.624329566955566,0.7861835360527039,-0.023518310859799385,1.4953980445861816,-23.01958465576172,55.363929748535156,-37.89827346801758
