time,accel_x,accel_y,accel_z,gyro_x,gyro_y,gyro_z,mag_x,mag_y,mag_z
0.0,85.80818939208984,10.342951774597168,-39.149986267089844,-16.65390396118164,-1.8652373552322388,10.125574111938477,-21.900001525878906,8.700000762939453,-12.300000190734863
0.004,74.89063262939453,6.282385349273682,-25.359384536743164,-24.248085021972656,12.523736000061035,6.128636837005615,-23.700000762939453,9.450000762939453,-10.050000190734863
0.01,74.08617401123047,5.592854976654053,-25.51261329650879,-32.64165496826172,14.655436515808105,0.6661561727523804,-23.700000762939453,9.450000762939453,-10.050000190734863
0.02,74.2394027709961,4.903325080871582,-23.405715942382812,-29.84379768371582,11.457886695861816,-4.130168437957764,-21.900001525878906,8.700000762939453,-11.850000381469727
0.03,75.04386138916016,6.550535678863525,-25.51261329650879,-31.44257164001465,7.9938740730285645,9.326186180114746,-21.900001525878906,8.700000762939453,-11.850000381469727
0.04,74.92893981933594,5.477933406829834,-25.359384536743164,-34.64012145996094,18.519142150878906,6.794793128967285,-24.30000114440918,8.100000381469727,-12.450000762939453
0.05,72.86034393310547,5.746084213256836,-24.44001007080078,-36.5053596496582,17.453292846679688,5.595712184906006,-22.5,8.40000057220459,-12.450000762939453
0.07,73.54987335205078,5.056553840637207,-23.175872802734375,-18.519142150878906,14.12251091003418,2.6646246910095215,-24.150001525878906,7.050000190734863,-11.550000190734863
0.073,77.45721435546875,5.5545477867126465,-23.865402221679688,-6.5283308029174805,8.526799201965332,1.7320060729980469,-23.55000114440918,8.850000381469727,-10.200000762939453
0.08,77.38059997558594,5.937620162963867,-23.405715942382812,0.0,8.660030364990234,-9.192955017089844,-23.55000114440918,8.850000381469727,-10.200000762939453
0.091,77.22737121582031,6.588842868804932,-23.175872802734375,4.929555892944336,6.794793128967285,2.2649309635162354,-23.55000114440918,8.850000381469727,-10.200000762939453
0.1,78.87458038330078,5.822698593139648,-22.869415283203125,6.395099639892578,-0.39969372749328613,-0.5329249501228333,-23.55000114440918,10.350000381469727,-11.700000762939453
0.11,80.48348236083984,2.75812029838562,-23.02264404296875,-2.2649309635162354,3.597243309020996,-6.661561965942383,-22.950000762939453,9.0,-10.800000190734863
0.13,78.03182220458984,1.8387469053268433,-24.24847412109375,-3.597243309020996,6.9280242919921875,-0.1332312375307083,-23.700000762939453,9.75,-10.800000190734863
0.133,76.26969146728516,4.290409564971924,-24.325088500976562,4.796324729919434,1.4655436277389526,4.529861927032471,-23.700000762939453,9.75,-10.800000190734863
0.14,76.30799865722656,2.4899697303771973,-25.28277015686035,-3.7304747104644775,13.056661605834961,-0.7993874549865723,-23.700000762939453,9.75,-10.800000190734863
0.15,75.50354766845703,1.8770540952682495,-23.63555908203125,-3.0643184185028076,9.459418296813965,7.06125545501709,-22.950000762939453,8.25,-11.550000190734863
0.16,75.38862609863281,0.727837324142456,-24.13355255126953,3.7304747104644775,2.2649309635162354,0.5329249501228333,-24.30000114440918,8.850000381469727,-11.700000762939453
0.17,75.9249267578125,1.1109095811843872,-25.28277015686035,9.859111785888672,6.794793128967285,9.459418296813965,-23.25,8.40000057220459,-11.40000057220459
0.19,75.84831237792969,-0.38307225704193115,-25.933992385864258,1.4655436277389526,7.327718257904053,9.992342948913574,-24.450000762939453,9.0,-11.550000190734863
0.194,75.15878295898438,-8.236053466796875,-23.788787841796875,0.6661561727523804,10.92496109008789,4.396630764007568,-24.450000762939453,9.0,-11.550000190734863
0.2,76.07815551757812,-8.65743350982666,-24.516624450683594,-2.531393527984619,6.9280242919921875,6.9280242919921875,-24.450000762939453,9.0,-11.550000190734863
0.21,73.97125244140625,-10.457873344421387,-21.98834800720215,-24.11485481262207,10.92496109008789,7.194486618041992,-24.750001907348633,10.350000381469727,-10.65000057220459
0.22,73.0135726928711,-11.683704376220703,-23.099258422851562,-40.502296447753906,16.920366287231445,21.983154296875,-25.05000114440918,8.850000381469727,-10.65000057220459
0.23,69.91069030761719,-12.564770698547363,-23.02264404296875,-53.95865249633789,18.91883659362793,36.905052185058594,-22.200000762939453,8.25,-11.850000381469727
0.246,66.5013427734375,-13.828908920288086,-22.60126495361328,-78.20673370361328,35.03981399536133,52.093414306640625,-22.200000762939453,8.25,-11.850000381469727
0.251,66.27149963378906,-12.717999458312988,-22.48634147644043,-86.46707153320312,38.50382614135742,57.55589294433594,-25.200000762939453,8.25,-10.350000381469727
0.261,65.62027740478516,-12.48815631866455,-21.222204208374023,-79.53904724121094,42.36753463745117,73.14395141601562,-23.55000114440918,9.15000057220459,-11.40000057220459
0.27,68.64655303955078,-11.453861236572266,-20.83913230895996,-80.20520782470703,34.10719680786133,62.75191116333008,-24.0,8.100000381469727,-9.15000057220459
0.28,71.63451385498047,-9.040505409240723,-19.728221893310547,-77.00765228271484,40.23583221435547,89.66461944580078,-23.700000762939453,7.500000476837158,-10.350000381469727
0.3,73.43495178222656,-6.01423454284668,-20.609289169311523,-63.81776428222656,41.701377868652344,101.9218978881836,-23.700000762939453,7.500000476837158,-10.350000381469727
0.304,74.20109558105469,-4.443638324737549,-22.7161865234375,-40.76875686645508,38.90352249145508,101.65543365478516,-24.30000114440918,8.100000381469727,-9.15000057220459
0.311,72.86034393310547,-2.3367409706115723,-25.28277015686035,-18.78560447692871,32.90811538696289,114.97856140136719,-24.900001525878906,7.500000476837158,-8.550000190734863
0.32,73.24341583251953,-0.9193734526634216,-26.96828842163086,-4.263399600982666,34.773353576660156,113.11331939697266,-24.750001907348633,7.650000095367432,-8.40000057220459
0.33,72.82203674316406,-2.9496564865112305,-23.865402221679688,17.852985382080078,30.643184661865234,127.10260009765625,-26.250001907348633,6.450000286102295,-8.700000762939453
0.34,73.74140930175781,-3.9456443786621094,-22.869415283203125,28.378253936767578,21.716691970825195,129.36753845214844,-24.900001525878906,6.300000190734863,-10.050000190734863
0.359,73.97125244140625,-5.746084213256836,-22.409727096557617,23.182235717773438,27.71209716796875,124.03828430175781,-24.900001525878906,6.300000190734863,-10.050000190734863
0.363,73.24341583251953,-5.4013190269470215,-21.14558982849121,28.911178588867188,22.116384506225586,140.1592559814453,-26.250001907348633,5.700000286102295,-9.90000057220459
0.371,72.55388641357422,-4.213795185089111,-23.865402221679688,27.978559494018555,21.050535202026367,137.3614044189453,-26.55000114440918,4.950000286102295,-9.450000762939453
0.381,71.74943542480469,-3.026270866394043,-24.9763126373291,23.315465927124023,22.51607894897461,135.89585876464844,-25.500001907348633,4.200000286102295,-8.700000762939453
0.39,71.36636352539062,-1.0342950820922852,-24.9763126373291,12.923430442810059,31.842266082763672,140.6921844482422,-25.80000114440918,4.200000286102295,-9.90000057220459
0.4,71.8260498046875,0.2298433631658554,-24.210166931152344,18.78560447692871,29.7105655670166,142.02450561523438,-25.80000114440918,4.200000286102295,-9.90000057220459
0.42,71.44297790527344,2.6431987285614014,-23.9420166015625,15.188361167907715,26.513015747070312,137.76109313964844,-27.30000114440918,3.750000238418579,-10.200000762939453
0.424,69.71915435791016,4.8267107009887695,-25.550920486450195,26.64624786376953,35.306278228759766,131.49923706054688,-25.80000114440918,4.5,-9.15000057220459
0.431,69.3360824584961,9.078812599182129,-25.857378005981445,17.986217498779297,35.705970764160156,124.57120513916016,-26.400001525878906,2.8500001430511475,-9.300000190734863
0.44,69.29777526855469,6.971915245056152,-22.48634147644043,7.594180583953857,26.912710189819336,128.96783447265625,-25.80000114440918,3.0,-8.40000057220459
0.45,74.20109558105469,7.048529624938965,-23.673866271972656,-3.86370587348938,38.90352249145508,123.9050521850586,-25.80000114440918,3.0,-8.40000057220459
0.46,75.77169799804688,9.883264541625977,-24.05693817138672,-3.7304747104644775,31.44257164001465,115.37825012207031,-25.80000114440918,3.0,-8.40000057220459
0.48,77.84028625488281,9.653421401977539,-22.218191146850586,-11.058192253112793,15.854516983032227,121.3736572265625,-28.05000114440918,1.5,-9.15000057220459
0.484,79.18103790283203,11.453861236572266,-24.78477668762207,-30.37672233581543,18.119447708129883,107.11791229248047,-27.750001907348633,0.75,-7.950000286102295
0.491,81.74761962890625,13.675680160522461,-24.171859741210938,-35.306278228759766,19.185298919677734,106.58499145507812,-27.900001525878906,0.9000000357627869,-8.25
0.5,83.47145080566406,15.974113464355469,-24.938005447387695,-32.24195861816406,0.2664624750614166,111.38131713867188,-28.500001907348633,-0.75,-7.950000286102295
0.51,88.10662078857422,20.264522552490234,-25.70414924621582,-34.64012145996094,-1.5987749099731445,109.51607513427734,-28.500001907348633,-0.75,-7.950000286102295
0.52,92.24380493164062,26.393678665161133,-27.044902801513672,-35.972434997558594,10.658498764038086,94.32771301269531,-28.200000762939453,-1.350000023841858,-7.500000476837158
0.54,93.8910140991211,29.113492965698242,-26.01060676574707,-28.378253936767578,0.2664624750614166,84.33537292480469,-27.900001525878906,0.45000001788139343,-7.050000190734863
0.544,91.5159683227539,29.64979362487793,-25.780763626098633,-18.519142150878906,-4.929555892944336,63.151607513427734,-28.05000114440918,-1.0500000715255737,-7.350000381469727
0.551,87.72354888916016,32.13976287841797,-30.37763023376465,-9.326186180114746,-18.519142150878906,50.62786865234375,-27.30000114440918,0.0,-7.950000286102295
0.56,87.07232666015625,35.16603469848633,-31.641769409179688,-5.062787055969238,-7.72741174697876,18.519142150878906,-27.30000114440918,0.0,-7.950000286102295
0.57,85.46342468261719,37.11970138549805,-33.59543991088867,7.594180583953857,-14.388973236083984,19.85145378112793,-28.05000114440918,-1.5,-9.450000762939453
0.58,86.99571228027344,36.77493667602539,-33.365596771240234,-6.261868000030518,-14.12251091003418,2.131699800491333,-28.200000762939453,-0.45000001788139343,-8.550000190734863
0.599,88.14492797851562,32.71437072753906,-30.530860900878906,-17.32006072998047,-13.456355094909668,-27.445634841918945,-28.200000762939453,-1.350000023841858,-8.25
0.603,87.80016326904297,32.40791320800781,-28.8453426361084,-19.052066802978516,-17.852985382080078,-60.62021255493164,-28.05000114440918,-1.0500000715255737,-9.15000057220459
0.61,87.22555541992188,35.43418502807617,-28.19411849975586,-10.525267601013184,-33.4410400390625,-80.20520782470703,-28.05000114440918,-1.5,-7.950000286102295
0.62,86.53602600097656,36.58340072631836,-28.577192306518555,6.261868000030518,-31.44257164001465,-94.9938735961914,-28.05000114440918,-1.5,-7.950000286102295
0.63,86.57433319091797,35.6257209777832,-27.964275360107422,3.9969370365142822,-31.575803756713867,-133.49769592285156,-29.250001907348633,0.0,-8.40000057220459
0.64,83.08837890625,37.19631576538086,-28.423961639404297,21.983154296875,-42.23430252075195,-162.5421142578125,-27.30000114440918,-0.75,-9.15000057220459
0.66,82.16899871826172,36.430171966552734,-29.95625114440918,36.10566711425781,-39.569679260253906,-178.26339721679688,-27.750001907348633,-0.30000001192092896,-8.700000762939453
0.664,81.21131896972656,35.77894973754883,-29.726408004760742,49.42878723144531,-51.29402542114258,-201.9785614013672,-29.400001525878906,0.15000000596046448,-9.300000190734863
0.67,81.63269805908203,33.25067138671875,-29.688100814819336,52.75957107543945,-46.231239318847656,-228.35833740234375,-29.400001525878906,0.15000000596046448,-9.300000190734863
0.68,81.97746276855469,30.91393280029297,-29.419950485229492,61.28636932373047,-61.01990509033203,-241.0153045654297,-27.000001907348633,1.0500000715255737,-10.200000762939453
0.691,83.20330047607422,29.113492965698242,-29.84132957458496,51.4272575378418,-48.49617004394531,-249.5421142578125,-28.200000762939453,2.1000001430511475,-9.75
0.701,85.65496063232422,26.240449905395508,-27.15982437133789,46.764163970947266,-58.222049713134766,-260.0673828125,-27.000001907348633,2.25,-9.15000057220459
0.72,87.22555541992188,23.82709503173828,-25.39769172668457,49.82848358154297,-66.08269500732422,-272.0581970214844,-24.450000762939453,4.350000381469727,-9.300000190734863
0.723,88.06831359863281,23.13756561279297,-23.252487182617188,36.10566711425781,-72.34455871582031,-287.9126892089844,-26.700000762939453,4.350000381469727,-10.800000190734863
0.731,87.49370574951172,21.45204734802246,-24.78477668762207,31.575803756713867,-67.68146514892578,-298.8376770019531,-26.700000762939453,4.350000381469727,-10.800000190734863
0.74,86.1529541015625,20.494365692138672,-25.321077346801758,25.04747200012207,-72.74425506591797,-304.6998291015625,-26.400001525878906,4.800000190734863,-11.100000381469727
0.75,84.54405212402344,20.41775131225586,-24.938005447387695,26.513015747070312,-75.94180297851562,-299.90350341796875,-25.500001907348633,5.400000095367432,-10.65000057220459
0.76,83.20330047607422,19.80483627319336,-27.427974700927734,13.456355094909668,-76.74119567871094,-308.83001708984375,-24.450000762939453,6.750000476837158,-9.75
0.78,83.43314361572266,19.07699966430664,-26.087221145629883,6.261868000030518,-77.94027709960938,-315.62481689453125,-22.80000114440918,7.650000095367432,-11.40000057220459
0.784,84.81220245361328,18.962078094482422,-24.210166931152344,-8.793261528015137,-75.8085708618164,-313.49310302734375,-22.5,10.350000381469727,-11.40000057220459
0.791,84.81220245361328,16.089035034179688,-23.44402313232422,-12.124042510986328,-85.26799011230469,-308.56353759765625,-22.5,10.350000381469727,-10.950000762939453
0.8,84.69728088378906,16.1656494140625,-22.754493713378906,-28.378253936767578,-82.6033706665039,-309.49615478515625,-22.200000762939453,9.75,-12.300000190734863
0.81,85.65496063232422,16.05072784423828,-21.75850486755371,-39.43644714355469,-73.14395141601562,-310.2955627441406,-21.30000114440918,11.100000381469727,-11.40000057220459
0.82,83.54806518554688,15.284584045410156,-22.60126495361328,-36.372127532958984,-86.46707153320312,-281.6508483886719,-22.200000762939453,12.15000057220459,-11.550000190734863
0.839,84.19928741455078,16.318878173828125,-20.800825119018555,-45.16539001464844,-79.67227935791016,-293.37518310546875,-22.200000762939453,12.15000057220459,-11.550000190734863
0.843,81.4028549194336,18.195932388305664,-20.685903549194336,-38.63705825805664,-73.67687225341797,-277.5206604003906,-18.150001525878906,14.40000057220459,-11.550000190734863
0.85,81.63269805908203,17.774553298950195,-22.7161865234375,-25.447166442871094,-71.41194152832031,-274.18988037109375,-18.150001525878906,14.40000057220459,-13.350000381469727
0.86,81.86254119873047,19.881450653076172,-22.141576766967773,-3.3307809829711914,-70.07962799072266,-255.80397033691406,-18.75,15.750000953674316,-11.40000057220459
0.87,80.44517517089844,20.456058502197266,-21.835119247436523,4.263399600982666,-59.55436325073242,-247.41041564941406,-17.55000114440918,15.750000953674316,-10.950000762939453
0.88,81.441162109375,18.4257755279541,-21.37543296813965,31.309341430664062,-63.28483963012695,-229.95712280273438,-17.25,17.700000762939453,-12.0
0.9,82.89684295654297,18.34916114807129,-20.915746688842773,61.552833557128906,-71.94486999511719,-196.64930725097656,-15.750000953674316,17.700000762939453,-10.65000057220459
0.903,82.82022857666016,16.855180740356445,-22.37141990661621,67.5482406616211,-73.54364013671875,-185.99081420898438,-15.450000762939453,18.30000114440918,-11.100000381469727
0.91,80.94316864013672,16.70195198059082,-22.218191146850586,72.87748718261719,-72.47779083251953,-196.915771484375,-15.450000762939453,18.30000114440918,-11.100000381469727
0.92,76.5761489868164,16.203956604003906,-24.018630981445312,99.92343139648438,-76.20826721191406,-165.07350158691406,-15.000000953674316,18.900001525878906,-10.950000762939453
0.93,70.10222625732422,12.641385078430176,-21.45204734802246,103.52066802978516,-76.34149932861328,-150.55130004882812,-14.550000190734863,18.450000762939453,-12.450000762939453
0.94,66.76950073242188,8.389283180236816,-21.107282638549805,93.79479217529297,-68.4808578491211,-131.36599731445312,-14.550000190734863,18.450000762939453,-12.450000762939453
0.96,64.0113754272461,3.8307228088378906,-20.95405387878418,86.60030364990234,-62.75191116333008,-100.9892807006836,-13.65000057220459,19.05000114440918,-13.050000190734863
0.963,58.87820816040039,-0.038307227194309235,-21.605276107788086,72.87748718261719,-51.160797119140625,-65.41653442382812,-12.15000057220459,19.5,-13.65000057220459
0.97,61.06172180175781,1.4173674583435059,-20.187908172607422,60.22052001953125,-40.23583221435547,-53.29249572753906,-12.15000057220459,19.5,-13.65000057220459
0.98,63.398460388183594,-0.2298433631658554,-19.421764373779297,51.82695007324219,-25.313934326171875,-25.846860885620117,-13.050000190734863,20.100000381469727,-13.950000762939453
0.99,69.14454650878906,-5.171475887298584,-20.532672882080078,49.69525146484375,-21.183767318725586,13.722817420959473,-11.550000190734863,21.600000381469727,-13.200000762939453
1.0,76.03984832763672,-10.266336441040039,-22.2948055267334,32.77488327026367,-7.860642910003662,33.57427215576172,-11.550000190734863,21.600000381469727,-13.200000762939453
1.017,83.62467956542969,-11.530475616455078,-26.891674041748047,21.050535202026367,15.588054656982422,79.13935852050781,-13.050000190734863,19.650001525878906,-13.950000762939453
1.021,79.52580261230469,-7.201758861541748,-27.236438751220703,16.920366287231445,19.85145378112793,88.73200225830078,-13.050000190734863,18.900001525878906,-13.200000762939453
1.03,77.61044311523438,-6.167463779449463,-27.964275360107422,18.91883659362793,35.972434997558594,113.77947998046875,-12.90000057220459,18.30000114440918,-14.100000381469727
1.04,69.60423278808594,-2.3750481605529785,-31.373619079589844,46.897396087646484,65.949462890625,130.30015563964844,-12.90000057220459,18.30000114440918,-14.100000381469727
1.05,64.39444732666016,-1.3407529592514038,-29.113492965698242,69.4134750366211,70.21286010742188,141.0918731689453,-13.800000190734863,18.150001525878906,-14.100000381469727
1.06,66.4630355834961,-8.619126319885254,-28.423961639404297,103.38744354248047,61.41960144042969,164.5405731201172,-15.15000057220459,16.80000114440918,-13.65000057220459
1.08,71.55789947509766,-14.288596153259277,-24.823083877563477,121.10719299316406,55.15773391723633,165.60643005371094,-15.300000190734863,18.150001525878906,-13.950000762939453
1.083,78.18505096435547,-23.482330322265625,-13.062764167785645,116.17764282226562,53.95865249633789,165.4731903076172,-15.300000190734863,16.200000762939453,-13.950000762939453
1.09,78.03182220458984,-24.36339569091797,-10.15141487121582,101.78866577148438,39.16998291015625,170.4027557373047,-15.300000190734863,16.200000762939453,-13.950000762939453
1.1,77.57213592529297,-27.427974700927734,-7.8529815673828125,60.22052001953125,20.117916107177734,179.9954071044922,-17.400001525878906,14.850000381469727,-14.100000381469727
1.11,73.0518798828125,-27.427974700927734,-12.334927558898926,16.520673751831055,18.2526798248291,188.52220153808594,-17.400001525878906,14.100000381469727,-14.100000381469727
1.129,67.22918701171875,-25.742456436157227,-20.64759635925293,-13.722817420959473,34.24042892456055,195.1837615966797,-16.80000114440918,16.5,-14.250000953674316
1.133,64.39444732666016,-22.06496238708496,-24.018630981445312,-39.43644714355469,39.03675079345703,211.30474853515625,-18.0,14.550000190734863,-14.250000953674316
1.141,68.95301055908203,-20.072986602783203,-23.903709411621094,-52.3598747253418,48.22970962524414,210.63858032226562,-18.30000114440918,13.500000953674316,-15.000000953674316
1.15,72.05589294433594,-18.655620574951172,-22.90772247314453,-72.87748718261719,50.4946403503418,205.7090301513672,-18.30000114440918,13.500000953674316,-15.000000953674316
1.16,75.15878295898438,-18.195932388305664,-22.754493713378906,-76.34149932861328,49.69525146484375,206.24195861816406,-18.900001525878906,13.65000057220459,-14.850000381469727
1.17,76.72937774658203,-17.92778205871582,-22.17988395690918,-80.07197570800781,49.42878723144531,217.69984436035156,-19.650001525878906,12.450000762939453,-11.850000381469727
1.181,76.84429931640625,-17.774553298950195,-22.677879333496094,-87.53292083740234,63.684532165527344,201.17916870117188,-19.950000762939453,12.15000057220459,-13.050000190734863
1.194,78.45320129394531,-17.31486701965332,-22.7161865234375,-109.38284301757812,69.54670715332031,192.65237426757812,-19.950000762939453,12.15000057220459,-11.100000381469727
1.201,82.24561309814453,-17.92778205871582,-18.847156524658203,-100.18988800048828,56.62327575683594,208.77334594726562,-19.950000762939453,12.15000057220459,-11.100000381469727
1.21,84.23759460449219,-17.50640296936035,-20.11129379272461,-112.84685516357422,71.81163787841797,208.5068817138672,-21.450000762939453,11.700000762939453,-12.600000381469727
1.22,84.42913055419922,-14.288596153259277,-21.98834800720215,-118.30934143066406,70.07962799072266,210.37213134765625,-22.5,10.350000381469727,-11.700000762939453
1.23,84.3525161743164,-10.41956615447998,-23.060951232910156,-110.31546783447266,71.94486999511719,220.49769592285156,-22.5,8.100000381469727,-11.700000762939453
1.249,84.62066650390625,-4.903325080871582,-26.585216522216797,-94.86064147949219,71.94486999511719,236.48544311523438,-22.05000114440918,9.600000381469727,-12.0
1.253,84.62066650390625,-2.9496564865112305,-26.01060676574707,-85.53445434570312,82.7365951538086,231.2894287109375,-23.700000762939453,9.0,-10.800000190734863
1.261,81.90084838867188,-3.7158010005950928,-26.738445281982422,-65.68299865722656,77.94027709960938,238.6171417236328,-23.700000762939453,9.0,-10.800000190734863
1.27,80.59840393066406,-3.600879430770874,-27.657817840576172,-55.55742645263672,74.60948944091797,237.15159606933594,-24.900001525878906,7.800000190734863,-10.050000190734863
1.28,78.29997253417969,-5.018246650695801,-23.099258422851562,-64.61714935302734,73.9433364868164,230.62327575683594,-24.30000114440918,7.650000095367432,-10.950000762939453
1.291,75.77169799804688,-6.129156112670898,-21.75850486755371,-72.74425506591797,66.21592712402344,245.9448699951172,-25.650001525878906,7.050000190734863,-10.050000190734863
1.31,71.48128509521484,-6.473921298980713,-21.107282638549805,-98.19142150878906,68.21439361572266,239.41653442382812,-25.950000762939453,7.500000476837158,-9.75
1.314,67.15257263183594,-5.70777702331543,-22.754493713378906,-113.51301574707031,74.20980072021484,226.09341430664062,-25.950000762939453,7.500000476837158,-9.75
1.321,64.16460418701172,-3.179499864578247,-22.218191146850586,-123.2388916015625,83.66921997070312,225.56048583984375,-25.80000114440918,5.400000095367432,-8.40000057220459
1.33,63.51338195800781,-0.15322890877723694,-22.984336853027344,-120.4410400390625,76.87442779541016,226.2266387939453,-27.30000114440918,6.150000095367432,-9.15000057220459
1.34,65.42874145507812,3.907337188720703,-22.83110809326172,-120.17457580566406,80.73812866210938,224.62786865234375,-27.150001525878906,5.550000190734863,-8.25
1.35,67.03765106201172,6.167463779449463,-24.13355255126953,-121.10719299316406,87.53292083740234,215.83460998535156,-28.05000114440918,4.5,-8.700000762939453
1.369,67.61225891113281,8.08282470703125,-22.06496238708496,-115.37825012207031,81.13782501220703,220.09800720214844,-28.05000114440918,4.5,-8.700000762939453
1.373,68.99131774902344,9.730035781860352,-21.45204734802246,-90.4640121459961,81.13782501220703,221.83001708984375,-28.05000114440918,4.5,-8.700000762939453
1.381,71.63451385498047,9.998186111450195,-21.911733627319336,-75.67534637451172,76.34149932861328,220.36447143554688,-27.30000114440918,1.5,-6.150000095367432
1.391,70.94498443603516,12.02846908569336,-22.984336853027344,-52.89280319213867,69.54670715332031,227.42572021484375,-29.250001907348633,1.0500000715255737,-5.400000095367432
1.4,73.54987335205078,12.947842597961426,-24.401702880859375,-28.24502182006836,60.22052001953125,213.8361358642578,-30.30000114440918,0.75,-6.600000381469727
1.41,74.77571105957031,13.599065780639648,-26.31706428527832,-10.258805274963379,55.82388687133789,195.1837615966797,-30.000001907348633,-0.30000001192092896,-6.600000381469727
1.43,76.537841796875,12.334927558898926,-27.044902801513672,-8.39356803894043,60.35375213623047,192.3859100341797,-30.000001907348633,-0.30000001192092896,-6.600000381469727
1.434,80.67501831054688,11.530475616455078,-28.653806686401367,4.130168437957764,50.89433288574219,198.24807739257812,-31.80000114440918,1.0500000715255737,-5.400000095367432
1.441,82.20730590820312,9.883264541625977,-30.339323043823242,-6.794793128967285,56.756507873535156,195.983154296875,-31.200000762939453,-2.1000001430511475,-6.300000190734863
1.45,82.5137710571289,10.611102104187012,-31.488540649414062,-21.316997528076172,58.4885139465332,189.85450744628906,-31.650001525878906,-0.9000000357627869,-5.700000286102295
1.46,82.5137710571289,9.691728591918945,-35.43418502807617,-43.16691970825195,74.60948944091797,175.19908142089844,-31.650001525878906,-1.6500000953674316,-5.700000286102295
1.47,83.24160766601562,12.02846908569336,-40.29920196533203,-14.12251091003418,71.54517364501953,171.86830139160156,-31.650001525878906,-1.6500000953674316,-5.700000286102295
1.49,84.85050964355469,14.97812557220459,-37.34954833984375,-19.718223571777344,72.34455871582031,163.4747314453125,-30.750001907348633,-3.750000238418579,-4.650000095367432
1.495,89.44737243652344,10.84094524383545,-37.15800857543945,-18.519142150878906,74.60948944091797,133.49769592285156,-30.750001907348633,-3.450000047683716,-4.350000381469727
1.501,93.77609252929688,15.85919189453125,-38.613685607910156,-8.793261528015137,72.21133422851562,127.5022964477539,-31.200000762939453,-4.800000190734863,-4.200000286102295
1.51,94.88700103759766,19.07699966430664,-38.8818359375,11.591117858886719,65.81623077392578,120.4410400390625,-32.55000305175781,-6.150000095367432,-2.5500001907348633
1.52,93.2780990600586,23.175872802734375,-40.83550262451172,21.183767318725586,64.48391723632812,115.64471435546875,-32.400001525878906,-5.850000381469727,-3.750000238418579
1.53,93.77609252929688,25.89568519592285,-41.448421478271484,41.568145751953125,62.8851432800293,111.38131713867188,-32.400001525878906,-5.850000381469727,-3.750000238418579
1.55,92.32041931152344,25.857378005981445,-41.90810775756836,72.34455871582031,44.49923324584961,96.45941925048828,-32.55000305175781,-5.700000286102295,-3.3000001907348633
1.554,92.6651840209961,26.393678665161133,-42.7508659362793,108.050537109375,26.64624786376953,84.20214080810547,-33.30000305175781,-6.450000286102295,-2.8500001430511475
1.56,94.5805435180664,27.427974700927734,-40.29920196533203,109.915771484375,19.052066802978516,72.0781021118164,-33.0,-7.200000286102295,-4.350000381469727
1.57,95.49991607666016,26.929981231689453,-40.069358825683594,110.18223571777344,5.728943347930908,64.75038146972656,-31.650001525878906,-8.25,-3.0
1.58,91.5159683227539,23.482330322265625,-39.647979736328125,111.38131713867188,-10.658498764038086,67.41500854492188,-31.650001525878906,-8.25,-3.0
1.591,88.71953582763672,20.877439498901367,-39.68628692626953,92.72894287109375,-9.992342948913574,47.163856506347656,-31.650001525878906,-9.0,-3.0
1.609,90.86474609375,18.272546768188477,-40.49073791503906,78.3399658203125,-3.197549819946289,33.57427215576172,-31.500001907348633,-10.050000190734863,-3.6000001430511475
1.613,93.31640625,18.88546371459961,-46.313438415527344,58.355281829833984,-4.263399600982666,27.84532928466797,-33.45000076293945,-8.700000762939453,-2.700000047683716
1.62,98.87095642089844,20.724210739135742,-48.037261962890625,56.356815338134766,-2.398162364959717,18.385910034179688,-33.45000076293945,-8.700000762939453,-2.700000047683716
1.63,101.82061004638672,22.026655197143555,-45.93036651611328,43.03369140625,8.526799201965332,4.529861927032471,-33.45000076293945,-8.700000762939453,-2.700000047683716
1.64,101.82061004638672,23.903709411621094,-41.5633430480957,46.09800720214844,-14.12251091003418,-19.31852912902832,-33.45000076293945,-8.700000762939453,-2.700000047683716
1.65,100.28832244873047,21.98834800720215,-36.2386360168457,48.362937927246094,-30.37672233581543,-43.03369140625,-33.75,-10.350000381469727,-2.5500001907348633
1.67,99.13910675048828,19.881450653076172,-34.51481246948242,41.83460998535156,-39.30321502685547,-81.8039779663086,-31.950000762939453,-11.40000057220459,-1.2000000476837158
1.674,97.14712524414062,23.9420166015625,-33.59543991088867,46.63093185424805,-61.68606185913086,-110.98162078857422,-31.80000114440918,-10.050000190734863,-1.0500000715255737
1.68,96.15113830566406,22.256498336791992,-31.258697509765625,52.89280319213867,-75.5421142578125,-126.16998291015625,-31.80000114440918,-10.050000190734863,-1.0500000715255737
1.691,95.00192260742188,22.639572143554688,-34.32327651977539,64.75038146972656,-76.34149932861328,-164.4073486328125,-31.80000114440918,-10.050000190734863,-1.0500000715255737
1.7,92.78010559082031,24.78477668762207,-34.43819808959961,77.14088439941406,-80.20520782470703,-193.3185272216797,-32.55000305175781,-9.15000057220459,-2.5500001907348633
1.71,89.60060119628906,22.524648666381836,-33.978511810302734,94.46094512939453,-96.99234008789062,-212.5038299560547,-31.200000762939453,-9.450000762939453,-3.750000238418579
1.73,85.96141815185547,20.992361068725586,-33.288978576660156,102.58805084228516,-98.4578857421875,-233.42112731933594,-32.70000076293945,-8.25,-1.6500000953674316
1.733,84.3525161743164,18.11931800842285,-30.569168090820312,97.5252685546875,-110.58192443847656,-269.7932434082031,-31.200000762939453,-7.500000476837158,-3.0
1.74,82.97345733642578,13.254301071166992,-30.415939331054688,91.52986145019531,-102.72128295898438,-284.5819091796875,-31.200000762939453,-7.500000476837158,-3.0
1.75,85.31019592285156,12.373234748840332,-31.143775939941406,98.59111785888672,-117.77641296386719,-296.8392028808594,-30.900001525878906,-5.850000381469727,-2.25
1.76,87.57032012939453,10.879252433776855,-28.653806686401367,89.66461944580078,-120.57427215576172,-312.42724609375,-31.950000762939453,-4.050000190734863,-4.5
1.77,92.97164154052734,10.036493301391602,-28.500577926635742,84.06890869140625,-130.96630859375,-325.3506774902344,-31.650001525878906,-4.350000381469727,-4.5
1.79,97.5685043334961,7.048529624938965,-27.696125030517578,93.79479217529297,-143.88973999023438,-324.5513000488281,-30.150001525878906,-4.050000190734863,-5.25
1.794,100.78631591796875,5.861005783081055,-25.28277015686035,84.73506927490234,-172.2679901123047,-331.3460998535156,-30.750001907348633,-3.750000238418579,-4.650000095367432
1.8,105.72794342041016,2.4899697303771973,-21.950040817260742,67.814697265625,-168.5375213623047,-342.8039855957031,-30.750001907348633,-3.750000238418579,-4.650000095367432
1.81,107.26023864746094,0.8427590131759644,-20.072986602783203,55.29096221923828,-178.92955017089844,-348.79937744140625,-30.750001907348633,0.0,-5.400000095367432
1.82,107.29854583740234,-0.49799394607543945,-18.808849334716797,36.238895416259766,-193.98468017578125,-348.5329284667969,-28.650001525878906,0.9000000357627869,-5.700000286102295
1.83,105.91948699951172,-0.6129156351089478,-19.919757843017578,11.058192253112793,-185.85757446289062,-350.5313720703125,-27.900001525878906,1.6500000953674316,-5.700000286102295
1.85,101.43753814697266,-2.145204782485962,-18.310853958129883,-9.059723854064941,-181.59417724609375,-360.52374267578125,-27.900001525878906,1.6500000953674316,-5.700000286102295
1.853,94.84869384765625,-2.7964274883270264,-18.081010818481445,-33.57427215576172,-171.06890869140625,-366.252685546875,-29.250001907348633,4.200000286102295,-7.950000286102295
1.86,94.42731475830078,-3.7158010005950928,-17.62132453918457,-37.4379768371582,-173.2006072998047,-360.6569519042969,-26.700000762939453,4.800000190734863,-7.500000476837158
1.87,92.7034912109375,-2.2601263523101807,-19.230228424072266,-49.29555892944336,-156.14700317382812,-380.6416320800781,-26.700000762939453,5.850000381469727,-8.550000190734863
1.88,89.02599334716797,-1.0342950820922852,-20.187908172607422,-48.22970962524414,-153.61561584472656,-395.83001708984375,-25.80000114440918,8.40000057220459,-7.650000095367432
1.891,88.14492797851562,-0.2298433631658554,-20.494365692138672,-40.502296447753906,-148.55282592773438,-407.6875915527344,-25.80000114440918,8.40000057220459,-7.650000095367432
1.909,88.68122863769531,-2.2218191623687744,-19.843143463134766,-36.238895416259766,-149.08575439453125,-396.8958435058594,-25.80000114440918,8.40000057220459,-7.650000095367432
1.912,89.44737243652344,-2.4133553504943848,-17.659631729125977,-35.439510345458984,-151.35069274902344,-391.83306884765625,-24.750001907348633,11.550000190734863,-7.350000381469727
1.92,88.52799987792969,-3.064578056335449,-16.89348793029785,-38.63705825805664,-152.949462890625,-392.76568603515625,-24.150001525878906,13.200000762939453,-10.050000190734863
1.93,88.06831359863281,-3.7158010005950928,-16.089035034179688,-47.9632453918457,-142.82388305664062,-393.1653747558594,-22.650001525878906,12.450000762939453,-9.300000190734863
1.94,86.22956848144531,-4.788403511047363,-15.935806274414062,-58.4885139465332,-137.62786865234375,-388.6355285644531,-22.200000762939453,15.90000057220459,-11.550000190734863
1.95,84.16098022460938,-4.520252704620361,-16.70195198059082,-61.15313720703125,-133.6309356689453,-381.5742492675781,-22.200000762939453,15.90000057220459,-11.550000190734863
1.97,82.0923843383789,-4.6734819412231445,-16.127342224121094,-48.49617004394531,-143.3568115234375,-370.2496032714844,-18.900001525878906,17.100000381469727,-10.350000381469727
1.974,81.441162109375,-2.75812029838562,-15.24627685546875,-46.764163970947266,-131.49923706054688,-356.3935546875,-18.900001525878906,18.75,-10.050000190734863
1.981,80.2536392211914,-2.4133553504943848,-15.399505615234375,-43.96630859375,-128.16845703125,-355.0612487792969,-18.0,18.900001525878906,-9.450000762939453
1.991,79.6407241821289,-0.7661445140838623,-15.744270324707031,-36.5053596496582,-124.17151641845703,-345.06890869140625,-16.650001525878906,21.450000762939453,-9.300000190734863
2.0,77.49552154541016,-1.1109095811843872,-16.58702850341797,-13.456355094909668,-127.23583221435547,-307.0979919433594,-16.650001525878906,21.450000762939453,-9.300000190734863
2.01,75.42693328857422,-0.9576807022094727,-16.625335693359375,-6.794793128967285,-112.18070220947266,-299.37060546875,-15.90000057220459,23.700000762939453,-9.75
2.025,74.43093872070312,-3.064578056335449,-17.276559829711914,6.128636837005615,-112.4471664428711,-274.5895690917969,-15.15000057220459,23.25,-10.800000190734863
2.031,71.74943542480469,-5.20978307723999,-15.782577514648438,3.197549819946289,-100.85604858398438,-259.8009033203125,-13.500000953674316,24.30000114440918,-11.40000057220459
2.04,72.17081451416016,-3.5625722408294678,-18.502389907836914,23.848390579223633,-96.8591079711914,-249.94180297851562,-13.200000762939453,24.150001525878906,-10.800000190734863
2.05,71.48128509521484,-3.294421434402466,-16.127342224121094,17.053598403930664,-85.66768646240234,-212.9035186767578,-10.800000190734863,24.750001907348633,-9.450000762939453
2.06,71.1748275756836,-6.244078159332275,-11.875240325927734,15.721285820007324,-89.13169860839844,-176.53138732910156,-10.800000190734863,24.750001907348633,-9.450000762939453
2.07,70.98329162597656,-10.611102104187012,-11.41555404663086,5.462480545043945,-79.67227935791016,-153.0826873779297,-11.550000190734863,25.80000114440918,-12.0
2.089,67.68887329101562,-11.645397186279297,-12.258312225341797,2.9310872554779053,-67.94792938232422,-95.52679443359375,-9.450000762939453,28.350000381469727,-11.550000190734863
2.093,56.96284866333008,-14.288596153259277,-15.169661521911621,5.595712184906006,-56.49004364013672,-83.00305938720703,-9.450000762939453,28.350000381469727,-11.550000190734863
2.1,52.67243576049805,-14.250288963317871,-16.318878173828125,-1.0658499002456665,-40.102603912353516,-59.68759536743164,-9.15000057220459,27.150001525878906,-10.350000381469727
2.11,50.25908279418945,-13.10107135772705,-17.31486701965332,-12.124042510986328,-13.722817420959473,-44.76569747924805,-9.15000057220459,27.150001525878906,-10.350000381469727
2.12,49.531246185302734,-11.262324333190918,-20.877439498901367,-8.660030364990234,5.329249382019043,-3.197549819946289,-8.550000190734863,27.450000762939453,-10.950000762939453
2.139,51.063533782958984,-11.30063247680664,-21.605276107788086,-4.130168437957764,14.388973236083984,26.912710189819336,-9.0,26.55000114440918,-11.40000057220459
2.143,52.63412857055664,-12.679692268371582,-19.345149993896484,-10.658498764038086,31.042879104614258,69.4134750366211,-9.75,27.000001907348633,-11.700000762939453
2.151,56.46485137939453,-11.60708999633789,-15.207969665527344,-18.78560447692871,46.364471435546875,94.19448852539062,-9.75,28.950000762939453,-11.700000762939453
2.16,64.7009048461914,-15.24627685546875,-13.752294540405273,-22.51607894897461,49.02909469604492,138.42726135253906,-9.75,28.950000762939453,-11.700000762939453
2.17,78.52981567382812,-20.456058502197266,-13.254301071166992,-36.63859176635742,56.22358322143555,165.60643005371094,-9.75,28.950000762939453,-11.700000762939453
2.18,86.61264038085938,-20.532672882080078,-16.58702850341797,-55.82388687133789,66.48238372802734,184.1255645751953,-10.200000762939453,27.900001525878906,-11.100000381469727
2.2,84.00775146484375,-15.24627685546875,-19.766529083251953,-52.3598747253418,77.27411651611328,195.84991455078125,-11.25,27.750001907348633,-10.200000762939453
2.204,72.89865112304688,-8.312667846679688,-26.96828842163086,-16.920366287231445,91.66309356689453,240.34915161132812,-12.300000190734863,28.200000762939453,-10.950000762939453
2.211,58.9165153503418,-5.439626216888428,-35.93217849731445,4.396630764007568,109.24961853027344,238.6171417236328,-13.950000762939453,26.100000381469727,-9.75
2.22,57.65237808227539,-6.89530086517334,-31.067161560058594,21.45022964477539,119.90811157226562,242.8805389404297,-13.950000762939453,26.100000381469727,-9.75
2.23,63.55168914794922,-13.254301071166992,-24.36339569091797,38.90352249145508,110.98162078857422,270.7258605957031,-15.300000190734863,26.250001907348633,-9.15000057220459
2.24,69.25946807861328,-18.847156524658203,-17.276559829711914,20.650842666625977,107.11791229248047,289.2450256347656,-16.650001525878906,25.200000762939453,-9.300000190734863
2.26,77.87859344482422,-24.823083877563477,-14.901511192321777,-9.326186180114746,97.7917251586914,292.8422546386719,-18.30000114440918,24.30000114440918,-9.450000762939453
2.264,84.16098022460938,-20.532672882080078,-17.085023880004883,-51.82695007324219,94.32771301269531,328.4150085449219,-17.700000762939453,24.150001525878906,-8.25
2.271,87.57032012939453,-15.897499084472656,-25.39769172668457,-59.82082748413086,92.72894287109375,349.1990661621094,-17.700000762939453,24.150001525878906,-8.25
2.283,88.48969268798828,-15.054739952087402,-28.883649826049805,-67.41500854492188,99.25727081298828,366.6523742675781,-21.30000114440918,23.100000381469727,-8.40000057220459
2.291,94.5039291381836,-9.53849983215332,-33.51882553100586,-79.0061264038086,119.90811157226562,373.1806945800781,-21.75,21.600000381469727,-7.650000095367432
2.301,98.83264923095703,-10.649409294128418,-32.369606018066406,-76.87442779541016,113.3797836303711,392.76568603515625,-22.80000114440918,21.600000381469727,-6.600000381469727
2.31,104.92349243164062,-12.181697845458984,-29.34333610534668,-83.40275573730469,115.2450180053711,396.76263427734375,-25.05000114440918,20.100000381469727,-6.900000095367432
2.32,108.2945327758789,-10.5344877243042,-28.232425689697266,-96.19295501708984,124.03828430175781,404.09033203125,-24.750001907348633,18.450000762939453,-6.150000095367432
2.34,106.76224517822266,-10.036493301391602,-24.78477668762207,-96.72587585449219,113.77947998046875,401.9586486816406,-24.750001907348633,18.450000762939453,-6.150000095367432
2.344,102.8932113647461,-7.4316020011901855,-25.28277015686035,-102.72128295898438,121.90658569335938,394.0979919433594,-27.900001525878906,17.100000381469727,-5.25
2.351,96.993896484375,-3.3710360527038574,-25.474306106567383,-105.91883087158203,127.10260009765625,393.2986145019531,-28.650001525878906,15.90000057220459,-4.5
2.36,94.61885070800781,-2.145204782485962,-26.048913955688477,-105.65237426757812,129.90045166015625,376.511474609375,-29.250001907348633,15.000000953674316,-3.6000001430511475
2.37,90.06028747558594,0.8810662031173706,-28.500577926635742,-77.4073486328125,126.96936798095703,374.3797912597656,-30.900001525878906,13.65000057220459,-3.750000238418579
2.38,86.57433319091797,5.20978307723999,-30.952239990234375,-59.95405578613281,123.77182006835938,361.18988037109375,-30.900001525878906,13.65000057220459,-3.750000238418579
2.4,82.4371566772461,8.542511940002441,-30.339323043823242,-33.57427215576172,130.69984436035156,338.140869140625,-32.400001525878906,12.450000762939453,-3.750000238418579
2.404,81.24962615966797,11.990161895751953,-29.53487205505371,7.860642910003662,113.11331939697266,340.40582275390625,-33.900001525878906,7.800000190734863,-2.700000047683716
2.411,78.45320129394531,11.530475616455078,-28.155811309814453,20.251148223876953,115.77794647216797,330.81317138671875,-33.900001525878906,7.800000190734863,-2.700000047683716
2.42,77.87859344482422,11.875240325927734,-27.504589080810547,33.97396469116211,109.64930725097656,321.22052001953125,-34.5,7.650000095367432,-1.350000023841858
2.43,75.61846923828125,10.72602367401123,-25.742456436157227,46.231239318847656,98.05818939208984,317.09033203125,-34.5,7.650000095367432,-1.350000023841858
2.44,73.7031021118164,10.84094524383545,-24.325088500976562,47.163856506347656,90.86370086669922,313.2266540527344,-34.5,7.650000095367432,-1.350000023841858
2.46,72.55388641357422,12.564770698547363,-24.516624450683594,39.30321502685547,91.66309356689453,307.4977111816406,-34.95000076293945,3.6000001430511475,-0.9000000357627869
2.464,73.0901870727539,12.373234748840332,-25.321077346801758,33.17457962036133,75.00918579101562,300.0367431640625,-37.80000305175781,1.5,1.0500000715255737
2.471,69.79576873779297,9.998186111450195,-27.006595611572266,28.77794647216797,79.0061264038086,292.44256591796875,-37.80000305175781,1.5,1.0500000715255737
2.48,70.40868377685547,9.921571731567383,-28.19411849975586,10.658498764038086,81.13782501220703,274.9892883300781,-37.5,-0.75,-0.6000000238418579
2.49,73.664794921875,8.810662269592285,-29.34333610534668,-21.183767318725586,97.92495727539062,271.9249572753906,-37.5,-0.75,-0.6000000238418579
2.5,78.07012939453125,8.044517517089844,-29.15180015563965,-48.22970962524414,101.9218978881836,257.4027404785156,-37.80000305175781,-1.8000000715255737,0.6000000238418579
2.521,81.13470458984375,8.08282470703125,-28.462270736694336,-75.27565002441406,98.4578857421875,254.60488891601562,-37.20000076293945,-2.4000000953674316,0.45000001788139343
2.525,85.96141815185547,8.810662269592285,-29.53487205505371,-118.44257354736328,100.58958435058594,246.21133422851562,-39.75,-4.5,2.5500001907348633
2.531,93.23979187011719,11.990161895751953,-30.14778709411621,-134.69677734375,106.58499145507812,243.14700317382812,-39.75,-4.5,2.5500001907348633
2.54,94.96361541748047,14.786589622497559,-30.0711727142334,-154.28176879882812,101.78866577148438,238.084228515625,-39.75,-4.5,2.5500001907348633
2.55,98.21973419189453,17.161638259887695,-30.875625610351562,-166.00611877441406,99.79019927978516,239.41653442382812,-39.75,-4.5,2.5500001907348633
2.56,101.51415252685547,21.720197677612305,-32.02484130859375,-174.66615295410156,105.25267791748047,220.49769592285156,-38.55000305175781,-8.40000057220459,4.350000381469727
2.58,102.05045318603516,26.96828842163086,-34.43819808959961,-170.26951599121094,104.05359649658203,211.83766174316406,-39.150001525878906,-9.450000762939453,3.450000047683716
2.584,104.84687805175781,33.82528305053711,-39.91613006591797,-142.69065856933594,100.18988800048828,198.24807739257812,-40.05000305175781,-8.100000381469727,5.400000095367432
2.591,107.49008178710938,43.287166595458984,-46.58158874511719,-124.8376693725586,94.19448852539062,184.25880432128906,-40.05000305175781,-8.100000381469727,5.400000095367432
2.6,106.91547393798828,47.845726013183594,-48.152183532714844,-71.81163787841797,80.73812866210938,166.40582275390625,-40.05000305175781,-8.100000381469727,5.400000095367432
2.61,104.61703491210938,55.85193634033203,-46.198516845703125,-28.378253936767578,64.48391723632812,174.53292846679688,-39.75,-11.550000190734863,3.9000000953674316
2.621,103.65935516357422,55.660400390625,-44.74283981323242,11.191424369812012,50.09494400024414,145.75497436523438,-40.20000076293945,-12.90000057220459,5.25
2.64,101.82061004638672,58.61005783081055,-46.12190246582031,57.822357177734375,44.63246536254883,119.37519073486328,-39.45000076293945,-12.15000057220459,7.050000190734863
2.644,101.36092376708984,59.06974411010742,-44.512996673583984,121.3736572265625,23.04900360107422,90.86370086669922,-40.80000305175781,-13.800000190734863,7.650000095367432
2.651,97.33866119384766,57.38422775268555,-43.82346725463867,162.6753387451172,9.192955017089844,80.33843994140625,-40.80000305175781,-13.800000190734863,7.650000095367432
2.66,95.99790954589844,55.315635681152344,-43.4020881652832,185.5911102294922,7.327718257904053,44.63246536254883,-39.30000305175781,-13.800000190734863,7.650000095367432
2.67,98.29634857177734,49.03324890136719,-46.12190246582031,203.44410705566406,-4.529861927032471,16.65390396118164,-41.400001525878906,-15.600000381469727,8.25
2.681,106.9920883178711,44.35976791381836,-46.696510314941406,221.69677734375,-30.24349021911621,-19.584991455078125,-40.95000076293945,-14.100000381469727,8.25
2.7,112.81478118896484,42.63594436645508,-46.42835998535156,226.89279174804688,-52.89280319213867,-37.03828430175781,-40.95000076293945,-14.850000381469727,7.500000476837158
2.704,115.30475616455078,39.226600646972656,-44.74283981323242,201.578857421875,-80.33843994140625,-69.28024291992188,-40.95000076293945,-14.850000381469727,7.500000476837158
2.71,106.72393798828125,30.722396850585938,-43.24885940551758,183.45941162109375,-86.20060729980469,-98.05818939208984,-40.80000305175781,-14.550000190734863,6.900000095367432
2.72,102.54844665527344,26.048913955688477,-43.287166595458984,140.1592559814453,-96.8591079711914,-132.9647674560547,-40.80000305175781,-14.250000953674316,6.150000095367432
2.73,99.94355773925781,18.272546768188477,-41.754878997802734,91.52986145019531,-85.93415069580078,-170.4027557373047,-42.150001525878906,-14.850000381469727,6.300000190734863
2.74,97.91326904296875,13.675680160522461,-42.061336517333984,48.09647750854492,-81.8039779663086,-196.1163787841797,-41.70000076293945,-12.90000057220459,6.0
2.76,99.94355773925781,11.492168426513672,-42.09964370727539,14.655436515808105,-82.33690643310547,-231.68911743164062,-42.30000305175781,-11.850000381469727,6.150000095367432
2.763,99.59879302978516,13.292608261108398,-40.60565948486328,-10.525267601013184,-79.80551147460938,-270.5926513671875,-42.30000305175781,-11.850000381469727,6.150000095367432
2.771,100.82462310791016,17.697938919067383,-38.76691436767578,-4.796324729919434,-78.47319793701172,-293.9081115722656,-42.150001525878906,-10.5,5.25
2.78,101.0927734375,19.651607513427734,-36.430171966552734,25.04747200012207,-97.92495727539062,-314.29248046875,-42.900001525878906,-8.700000762939453,4.950000286102295
2.79,103.42951202392578,21.6818904876709,-36.2386360168457,63.551300048828125,-110.58192443847656,-346.6676940917969,-42.30000305175781,-8.100000381469727,4.350000381469727
2.8,107.26023864746094,19.881450653076172,-33.17405700683594,89.5313949584961,-132.43185424804688,-368.7840576171875,-41.55000305175781,-6.150000095367432,4.350000381469727
2.82,112.35509490966797,17.238252639770508,-31.373619079589844,125.90351867675781,-153.48239135742188,-387.4364318847656,-41.55000305175781,-6.150000095367432,4.350000381469727
2.824,116.18582153320312,11.683704376220703,-24.554933547973633,171.20213317871094,-192.7855987548828,-397.56201171875,-41.70000076293945,-1.6500000953674316,3.450000047683716
2.83,116.0708999633789,9.002198219299316,-23.980323791503906,175.7320098876953,-198.11485290527344,-404.49005126953125,-42.45000076293945,-0.9000000357627869,2.25
2.84,115.4579849243164,4.520252704620361,-22.256498336791992,175.0658416748047,-221.43031311035156,-421.27716064453125,-41.55000305175781,1.5,3.3000001907348633
2.85,115.72613525390625,-0.15322890877723694,-21.298818588256836,182.6600341796875,-243.28024291992188,-416.2143859863281,-41.70000076293945,1.6500000953674316,-0.9000000357627869
2.86,113.96400451660156,-3.9456443786621094,-20.95405387878418,168.80397033691406,-249.40887451171875,-426.3399658203125,-40.05000305175781,4.200000286102295,-0.6000000238418579
2.879,111.9337158203125,-7.086836814880371,-20.226215362548828,139.2266387939453,-249.27565002441406,-423.6753234863281,-40.05000305175781,4.200000286102295,-0.6000000238418579
2.883,107.49008178710938,-10.15141487121582,-19.613300323486328,95.52679443359375,-252.07350158691406,-424.7411804199219,-39.30000305175781,6.900000095367432,-2.8500001430511475
2.891,106.34086608886719,-11.185709953308105,-17.391481399536133,73.9433364868164,-254.60488891601562,-415.94793701171875,-37.95000076293945,7.500000476837158,-5.25
2.9,103.42951202392578,-11.492168426513672,-16.855180740356445,30.110260009765625,-238.35067749023438,-430.6033630371094,-36.45000076293945,10.5,-6.300000190734863
2.91,97.98988342285156,-12.7946138381958,-16.81687355041504,-14.655436515808105,-221.16384887695312,-426.8728942871094,-34.5,11.100000381469727,-6.600000381469727
2.92,94.61885070800781,-13.177685737609863,-16.66364288330078,-33.97396469116211,-219.16539001464844,-418.612548828125,-34.5,11.100000381469727,-6.600000381469727
2.939,91.86073303222656,-10.381258964538574,-16.548721313476562,-63.151607513427734,-198.11485290527344,-419.545166015625,-31.200000762939453,16.350000381469727,-9.0
2.942,89.14091491699219,-7.240066051483154,-16.1656494140625,-69.14701080322266,-191.0535888671875,-426.7396545410156,-31.200000762939453,16.350000381469727,-9.0
2.95,89.33245086669922,-7.814674377441406,-16.089035034179688,-71.2787094116211,-179.9954071044922,-437.93109130859375,-31.650001525878906,17.100000381469727,-10.800000190734863
2.96,87.87677764892578,-6.742072105407715,-16.625335693359375,-63.81776428222656,-181.72740173339844,-436.0658264160156,-29.55000114440918,20.100000381469727,-10.200000762939453
2.97,86.68925476074219,-5.899312973022461,-15.897499084472656,-59.95405578613281,-170.53598022460938,-452.5865173339844,-28.05000114440918,19.650001525878906,-11.40000057220459
2.98,86.22956848144531,-6.550535678863525,-16.395492553710938,-56.22358322143555,-179.0627899169922,-450.8545227050781,-28.05000114440918,19.650001525878906,-11.40000057220459
2.993,88.98768615722656,-7.163451671600342,-13.177685737609863,-47.830013275146484,-185.85757446289062,-441.66156005859375,-24.450000762939453,22.200000762939453,-11.850000381469727
3.001,87.83847045898438,-7.6997528076171875,-11.836933135986328,-47.0306282043457,-186.5237274169922,-421.8100891113281,-23.55000114440918,22.80000114440918,-12.450000762939453
3.01,85.99972534179688,-7.010222434997559,-12.449849128723145,-54.62480926513672,-188.38897705078125,-425.4073486328125,-22.05000114440918,25.80000114440918,-11.700000762939453
3.02,83.0500717163086,-9.576807022094727,-11.990161895751953,-48.49617004394531,-195.1837615966797,-399.1607971191406,-19.650001525878906,26.850000381469727,-12.600000381469727
3.03,78.79796600341797,-11.990161895751953,-12.22000503540039,-46.897396087646484,-187.98927307128906,-391.4333801269531,-19.650001525878906,26.850000381469727,-12.600000381469727
3.04,76.00154113769531,-13.599065780639648,-11.875240325927734,-46.897396087646484,-177.46400451660156,-366.3858947753906,-16.05000114440918,27.450000762939453,-13.200000762939453
3.057,74.62248229980469,-12.564770698547363,-9.346963882446289,-44.76569747924805,-172.93414306640625,-330.679931640625,-13.950000762939453,29.100000381469727,-14.40000057220459
3.061,73.32003021240234,-11.492168426513672,-9.768342971801758,-40.102603912353516,-175.46554565429688,-313.8927917480469,-13.950000762939453,29.100000381469727,-14.40000057220459
3.071,74.04786682128906,-12.832921028137207,-10.955866813659668,-28.77794647216797,-167.73812866210938,-280.185302734375,-12.750000953674316,29.250001907348633,-14.700000762939453
3.08,74.6607894897461,-14.518439292907715,-13.369222640991211,-22.649311065673828,-155.6140899658203,-259.6676940917969,-12.750000953674316,29.250001907348633,-14.700000762939453
3.09,73.81802368164062,-15.054739952087402,-17.1999454498291,1.9984685182571411,-153.882080078125,-213.70291137695312,-12.750000953674316,29.250001907348633,-14.700000762939453
3.109,71.36636352539062,-17.31486701965332,-15.591041564941406,10.92496109008789,-134.69677734375,-169.8698272705078,-8.700000762939453,31.05000114440918,-14.40000057220459
3.113,70.67683410644531,-17.468095779418945,-12.60307788848877,-1.9984685182571411,-103.92036437988281,-139.09341430664062,-7.200000286102295,31.80000114440918,-14.850000381469727
3.121,67.42072296142578,-21.413740158081055,-8.312667846679688,-14.92189884185791,-94.32771301269531,-114.17916870117188,-6.0,30.450000762939453,-14.250000953674316
3.13,62.977081298828125,-22.026655197143555,-9.615114212036133,-11.324655532836914,-72.87748718261719,-68.61408996582031,-6.0,31.200000762939453,-16.5
3.14,57.1160774230957,-21.643583297729492,-11.30063247680664,-8.39356803894043,-42.633995056152344,-40.23583221435547,-6.0,31.200000762939453,-16.5
3.15,51.59983444213867,-23.558944702148438,-12.411541938781738,-11.857580184936523,-1.7320060729980469,-20.517610549926758,-4.200000286102295,32.55000305175781,-15.90000057220459
3.16,50.48892593383789,-23.673866271972656,-12.871228218078613,7.860642910003662,9.059723854064941,11.724349021911621,-4.800000190734863,31.650001525878906,-15.450000762939453
3.173,54.51118469238281,-24.44001007080078,-16.05072784423828,22.382848739624023,44.63246536254883,43.96630859375,-4.5,31.200000762939453,-15.000000953674316
3.181,66.5013427734375,-26.623523712158203,-18.310853958129883,20.38437843322754,53.95865249633789,85.00152587890625,-4.200000286102295,31.80000114440918,-14.40000057220459
3.191,75.38862609863281,-26.891674041748047,-16.05072784423828,15.188361167907715,55.4241943359375,126.30321502685547,-4.200000286102295,31.80000114440918,-14.40000057220459
3.2,79.75564575195312,-30.875625610351562,-10.381258964538574,-15.721285820007324,59.68759536743164,158.14547729492188,-4.5,31.200000762939453,-14.700000762939453
3.21,70.33206939697266,-31.028854370117188,-16.81687355041504,-45.298622131347656,83.80245208740234,182.6600341796875,-4.650000095367432,32.55000305175781,-15.15000057220459
3.23,55.315635681152344,-24.44001007080078,-23.558944702148438,-48.62940216064453,112.18070220947266,216.10107421875,-6.750000476837158,31.200000762939453,-15.000000953674316
3.234,49.837703704833984,-17.1999454498291,-27.964275360107422,-36.238895416259766,132.56507873535156,258.7350769042969,-8.700000762939453,31.500001907348633,-15.15000057220459
3.241,55.0474853515625,-12.756306648254395,-25.933992385864258,-36.905052185058594,139.2266387939453,284.848388671875,-8.700000762939453,31.500001907348633,-15.15000057220459
3.25,59.68265914916992,-13.943830490112305,-25.550920486450195,-26.64624786376953,158.67840576171875,300.30322265625,-8.700000762939453,31.500001907348633,-15.15000057220459
3.261,63.781532287597656,-15.629348754882812,-23.02264404296875,-8.127105712890625,168.9372100830078,323.3522033691406,-10.5,30.150001525878906,-14.250000953674316
3.27,66.65457153320312,-19.153614044189453,-19.115306854248047,7.860642910003662,165.07350158691406,333.34454345703125,-10.65000057220459,30.30000114440918,-14.40000057220459
3.289,75.19709014892578,-19.421764373779297,-16.05072784423828,-1.4655436277389526,164.14088439941406,334.8100891113281,-13.950000762939453,28.80000114440918,-14.100000381469727
3.294,85.08035278320312,-20.83913230895996,-16.395492553710938,-28.111791610717773,160.94332885742188,376.2450256347656,-14.40000057220459,29.55000114440918,-13.050000190734863
3.3,96.91728210449219,-17.1999454498291,-24.325088500976562,-29.044410705566406,155.08116149902344,392.3659973144531,-14.40000057220459,29.55000114440918,-13.050000190734863
3.31,101.0544662475586,-15.016432762145996,-27.389667510986328,-41.568145751953125,158.4119415283203,425.4073486328125,-16.950000762939453,27.600000381469727,-13.050000190734863
3.32,104.7319564819336,-9.84495735168457,-31.29700469970703,-55.4241943359375,175.865234375,439.52984619140625,-19.80000114440918,26.55000114440918,-11.40000057220459
3.33,108.94575500488281,-6.3973069190979,-33.51882553100586,-49.29555892944336,160.8101043701172,463.7779235839844,-21.75,25.80000114440918,-12.450000762939453
3.35,110.20989227294922,-4.367023944854736,-33.82528305053711,-47.430320739746094,170.4027557373047,479.0995178222656,-22.5,24.30000114440918,-10.65000057220459
3.354,110.32481384277344,-3.7924153804779053,-31.565155029296875,-36.905052185058594,188.65542602539062,487.7595520019531,-23.55000114440918,23.100000381469727,-9.90000057220459
3.361,108.37114715576172,-2.75812029838562,-25.28277015686035,-46.364471435546875,190.78712463378906,480.83154296875,-23.55000114440918,23.100000381469727,-9.90000057220459
3.37,105.68963623046875,-6.01423454284668,-22.409727096557617,-36.905052185058594,179.595703125,479.6324462890625,-26.700000762939453,21.75,-9.300000190734863
3.38,103.69766235351562,-8.044517517089844,-23.060951232910156,-45.69831466674805,179.9954071044922,468.5742492675781,-28.200000762939453,19.5,-8.550000190734863
3.39,99.36894989013672,-7.354987621307373,-23.52063751220703,-65.68299865722656,195.5834503173828,442.1944885253906,-30.150001525878906,16.80000114440918,-7.500000476837158
3.41,97.22373962402344,-2.030282974243164,-26.43198585510254,-59.4211311340332,184.5252685546875,434.3338317871094,-31.05000114440918,16.5,-6.900000095367432
3.414,94.61885070800781,3.485957622528076,-29.34333610534668,-54.091880798339844,184.5252685546875,412.6171569824219,-33.75,13.050000190734863,-5.400000095367432
3.421,90.32844543457031,10.917559623718262,-31.680076599121094,-51.160797119140625,178.6630859375,409.9525146484375,-33.75,13.050000190734863,-5.400000095367432
3.43,88.91107177734375,12.756306648254395,-32.599449157714844,-40.23583221435547,172.00152587890625,393.69830322265625,-34.650001525878906,12.15000057220459,-3.750000238418579
3.44,87.3404769897461,16.242263793945312,-33.48051834106445,-19.85145378112793,165.60643005371094,386.7702941894531,-37.5,8.40000057220459,-2.8500001430511475
3.45,85.38681030273438,16.1656494140625,-32.9442138671875,-23.04900360107422,162.27565002441406,377.7105712890625,-37.5,8.40000057220459,-2.8500001430511475
3.47,84.08436584472656,15.629348754882812,-30.68408966064453,-19.85145378112793,163.34149169921875,364.5206604003906,-37.5,8.40000057220459,-2.8500001430511475
3.474,81.67100524902344,13.522451400756836,-28.19411849975586,-31.176109313964844,145.0888214111328,344.0030517578125,-38.55000305175781,4.5,-2.5500001907348633
3.481,84.04605865478516,11.91354751586914,-27.15982437133789,-33.17457962036133,144.82235717773438,338.8070373535156,-39.75,3.450000047683716,1.350000023841858
3.491,83.31822204589844,12.679692268371582,-24.59324073791504,-42.23430252075195,135.89585876464844,304.6998291015625,-39.900001525878906,0.9000000357627869,0.9000000357627869
3.5,85.76988220214844,15.974113464355469,-26.31706428527832,-50.09494400024414,134.83001708984375,289.37823486328125,-40.20000076293945,0.9000000357627869,0.9000000357627869
3.51,87.07232666015625,18.272546768188477,-28.998571395874023,-45.831546783447266,131.7657012939453,271.7917175292969,-40.20000076293945,0.9000000357627869,0.9000000357627869
3.53,90.44336700439453,20.915746688842773,-32.484527587890625,-40.23583221435547,122.9724349975586,252.20672607421875,-40.5,0.30000001192092896,2.5500001907348633
3.533,93.43132781982422,22.7161865234375,-34.51481246948242,-52.3598747253418,124.17151641845703,230.88973999023438,-40.80000305175781,-3.0,1.8000000715255737
3.54,97.6451187133789,24.24847412109375,-34.170047760009766,-46.231239318847656,113.51301574707031,219.9647674560547,-42.0,-3.0,2.5500001907348633
3.55,99.67540740966797,24.746469497680664,-34.24666213989258,-60.75344467163086,106.98468017578125,216.76722717285156,-40.80000305175781,-4.200000286102295,2.1000001430511475
3.56,102.58675384521484,24.24847412109375,-34.66804122924805,-86.20060729980469,116.31086730957031,195.983154296875,-40.80000305175781,-4.200000286102295,2.1000001430511475
3.57,102.12706756591797,25.321077346801758,-34.32327651977539,-108.18376159667969,108.84992218017578,191.0535888671875,-40.80000305175781,-6.450000286102295,3.9000000953674316
3.59,102.81659698486328,26.54690933227539,-38.2689208984375,-119.7748794555664,105.91883087158203,175.7320098876953,-42.900001525878906,-5.850000381469727,4.200000286102295
3.594,105.07672119140625,29.803022384643555,-41.90810775756836,-130.03369140625,100.45635223388672,154.14854431152344,-41.70000076293945,-6.750000476837158,5.25
3.6,107.98807525634766,37.234622955322266,-44.512996673583984,-144.95558166503906,104.5865249633789,132.6983184814453,-42.150001525878906,-8.25,4.950000286102295
3.61,106.72393798828125,41.14196014404297,-47.922340393066406,-120.17457580566406,91.26339721679688,118.70903015136719,-41.400001525878906,-9.0,4.950000286102295
3.62,105.80455780029297,43.05732345581055,-44.43638229370117,-136.82847595214844,98.05818939208984,121.64012145996094,-41.400001525878906,-9.0,4.950000286102295
3.63,104.69364929199219,39.456443786621094,-39.91613006591797,-167.47166442871094,100.72281646728516,90.59724426269531,-42.150001525878906,-9.450000762939453,6.0
3.649,104.34888458251953,46.390052795410156,-42.252872467041016,-166.80551147460938,100.85604858398438,87.26646423339844,-43.20000076293945,-9.0,5.700000286102295
3.653,96.3809814453125,60.1423454284668,-42.71255874633789,-135.76263427734375,84.06890869140625,82.20367431640625,-41.70000076293945,-8.700000762939453,7.800000190734863
3.66,93.04825592041016,62.40247344970703,-43.82346725463867,-107.65084075927734,81.67074584960938,55.02450180053711,-42.30000305175781,-10.050000190734863,7.950000286102295
3.67,88.45138549804688,66.38642120361328,-43.86177444458008,-45.831546783447266,67.814697265625,31.176109313964844,-42.30000305175781,-10.050000190734863,7.950000286102295
3.68,82.78192138671875,69.29777526855469,-44.55130386352539,43.69984436035156,38.50382614135742,10.791729927062988,-41.25,-10.350000381469727,7.350000381469727
3.691,80.10041046142578,70.71514129638672,-42.63594436645508,107.25114440917969,24.11485481262207,-27.445634841918945,-43.650001525878906,-12.15000057220459,7.800000190734863
3.709,85.92311096191406,67.42072296142578,-43.9766960144043,196.1163787841797,-27.445634841918945,-43.43338394165039,-41.55000305175781,-10.350000381469727,8.700000762939453
3.712,95.8063735961914,56.19670104980469,-42.1762580871582,206.77488708496094,-26.379785537719727,-47.163856506347656,-41.55000305175781,-10.350000381469727,8.700000762939453
3.72,96.68743896484375,54.4345703125,-41.02703857421875,225.42726135253906,-61.9525260925293,-65.41653442382812,-40.95000076293945,-10.950000762939453,8.550000190734863
3.73,95.57653045654297,49.87601089477539,-38.07738494873047,225.16079711914062,-69.28024291992188,-96.05972290039062,-40.95000076293945,-10.950000762939453,8.550000190734863
3.74,92.20549774169922,43.24885940551758,-38.613685607910156,219.9647674560547,-88.865234375,-109.11638641357422,-41.400001525878906,-10.200000762939453,7.500000476837158
3.75,90.32844543457031,36.16202163696289,-40.260894775390625,206.37518310546875,-95.9264907836914,-136.4287872314453,-41.55000305175781,-10.050000190734863,6.600000381469727
3.77,89.94536590576172,28.270732879638672,-39.456443786621094,178.26339721679688,-95.9264907836914,-167.2052001953125,-41.400001525878906,-8.700000762939453,4.950000286102295
3.774,99.06249237060547,21.030668258666992,-37.502777099609375,140.82542419433594,-86.20060729980469,-215.3016815185547,-41.400001525878906,-8.700000762939453,4.950000286102295
3.78,100.70970153808594,20.95405387878418,-35.93217849731445,142.02450561523438,-98.32465362548828,-229.4241943359375,-41.400001525878906,-8.700000762939453,4.950000286102295
3.791,104.34888458251953,19.881450653076172,-35.66402816772461,128.03521728515625,-103.7871322631836,-271.7917175292969,-40.80000305175781,-7.200000286102295,4.350000381469727
3.8,108.06468963623047,19.843143463134766,-32.02484130859375,127.76875305175781,-113.24655151367188,-296.8392028808594,-42.0,-5.400000095367432,3.3000001907348633
3.81,111.39741516113281,18.23423957824707,-32.40791320800781,127.23583221435547,-127.23583221435547,-320.28790283203125,-41.70000076293945,-5.550000190734863,3.450000047683716
3.825,123.04281616210938,16.395492553710938,-34.74465560913086,130.96630859375,-156.679931640625,-370.78253173828125,-41.400001525878906,-4.800000190734863,1.6500000953674316
3.831,129.28689575195312,15.131354331970215,-27.504589080810547,135.36293029785156,-175.59877014160156,-369.3169860839844,-41.400001525878906,-4.800000190734863,1.6500000953674316
3.84,131.0490264892578,13.867216110229492,-25.39769172668457,130.96630859375,-201.9785614013672,-381.5742492675781,-41.400001525878906,-4.800000190734863,1.6500000953674316
3.85,128.1759796142578,11.492168426513672,-20.570980072021484,126.7029037475586,-227.29249572753906,-384.10565185546875,-39.900001525878906,-2.1000001430511475,-0.9000000357627869
3.86,125.87754821777344,9.423578262329102,-18.4257755279541,110.04900360107422,-247.14395141601562,-392.89892578125,-37.650001525878906,1.6500000953674316,-1.2000000476837158
3.87,122.96620178222656,4.32871675491333,-20.95405387878418,88.865234375,-248.60948181152344,-395.56353759765625,-40.05000305175781,3.0,-2.8500001430511475
3.888,117.02857971191406,0.5746083855628967,-21.528661727905273,60.22052001953125,-244.34608459472656,-412.084228515625,-38.25,4.200000286102295,-4.650000095367432
3.893,111.3591079711914,-2.451662540435791,-22.409727096557617,46.764163970947266,-240.61561584472656,-426.7396545410156,-38.25,4.200000286102295,-4.650000095367432
3.901,109.67359161376953,-3.294421434402466,-22.026655197143555,33.17457962036133,-231.02296447753906,-429.8039855957031,-36.75,6.900000095367432,-6.600000381469727
3.91,105.68963623046875,-5.784391403198242,-21.643583297729492,12.124042510986328,-224.76109313964844,-438.73046875,-33.900001525878906,8.25,-6.750000476837158
3.92,102.51013946533203,-6.933608055114746,-18.88546371459961,-4.263399600982666,-213.16998291015625,-452.9862060546875,-33.150001525878906,12.15000057220459,-9.300000190734863
3.939,101.0927734375,-7.2783732414245605,-18.310853958129883,-23.448698043823242,-205.5758056640625,-454.05206298828125,-34.20000076293945,12.15000057220459,-9.300000190734863
3.943,99.56048583984375,-6.3973069190979,-16.35718536376953,-43.83307647705078,-201.4456329345703,-458.848388671875,-34.20000076293945,12.15000057220459,-9.300000190734863
3.951,99.40725708007812,-4.596867084503174,-14.786589622497559,-57.822357177734375,-198.51454162597656,-466.8422546386719,-31.05000114440918,15.000000953674316,-10.65000057220459
3.96,99.75202178955078,-5.286397457122803,-11.1474027633667,-56.356815338134766,-213.56967163085938,-471.37213134765625,-28.650001525878906,17.100000381469727,-12.600000381469727
3.97,98.6028060913086,-6.244078159332275,-11.224017143249512,-65.016845703125,-213.16998291015625,-472.30474853515625,-24.30000114440918,19.200000762939453,-11.700000762939453
3.98,93.08656311035156,-7.316680431365967,-11.1474027633667,-73.27718353271484,-223.82847595214844,-477.10107421875,-25.650001525878906,19.05000114440918,-11.850000381469727
4.0,90.44336700439453,-5.899312973022461,-11.683704376220703,-58.08882141113281,-229.29095458984375,-448.056640625,-23.400001525878906,19.5,-14.100000381469727
4.004,86.765869140625,-5.70777702331543,-12.90953540802002,-48.8958625793457,-220.23123168945312,-450.1883544921875,-23.400001525878906,19.5,-14.100000381469727
4.011,82.82022857666016,-6.129156112670898,-14.518439292907715,-34.906585693359375,-217.96630859375,-447.1240234375,-21.0,23.55000114440918,-16.05000114440918
4.02,81.74761962890625,-5.2480902671813965,-14.480132102966309,-22.249616622924805,-206.37518310546875,-436.4655456542969,-16.950000762939453,24.450000762939453,-15.600000381469727
4.03,79.0278091430664,-6.703764915466309,-14.786589622497559,5.8621745109558105,-202.11178588867188,-414.4823913574219,-15.15000057220459,26.100000381469727,-17.100000381469727
4.04,76.99752807617188,-7.891288757324219,-12.90953540802002,0.2664624750614166,-184.6584930419922,-386.5038146972656,-14.40000057220459,26.850000381469727,-15.600000381469727
4.059,76.84429931640625,-9.117119789123535,-11.224017143249512,10.125574111938477,-177.5972442626953,-372.64776611328125,-14.40000057220459,26.850000381469727,-15.600000381469727
4.063,79.37257385253906,-10.955866813659668,-9.883264541625977,10.258805274963379,-171.46859741210938,-327.08270263671875,-9.0,28.950000762939453,-19.5
4.071,78.75965881347656,-13.943830490112305,-8.35097599029541,5.196018218994141,-174.1332244873047,-302.5681457519531,-9.0,28.950000762939453,-19.5
4.08,77.95520782470703,-16.1656494140625,-5.784391403198242,-1.8652373552322388,-162.27565002441406,-274.3231201171875,-7.800000190734863,29.250001907348633,-18.30000114440918
4.09,77.26567840576172,-18.655620574951172,-5.631162166595459,-17.186830520629883,-158.67840576171875,-261.6661376953125,-7.050000190734863,29.700000762939453,-19.5
4.1,75.15878295898438,-19.766529083251953,-4.750096321105957,-24.914241790771484,-163.87442016601562,-206.90811157226562,-7.050000190734863,29.700000762939453,-19.5
4.12,73.58818054199219,-18.77054214477539,-7.393294811248779,-32.90811538696289,-142.15773010253906,-191.0535888671875,-7.050000190734863,29.700000762939453,-19.5
4.124,71.59620666503906,-15.552734375,-15.782577514648438,1.8652373552322388,-114.97856140136719,-139.7595672607422,-2.700000047683716,31.80000114440918,-19.200000762939453
4.131,61.17664337158203,-11.41555404663086,-13.292608261108398,9.992342948913574,-103.7871322631836,-126.83613586425781,-2.700000047683716,31.80000114440918,-19.200000762939453
4.14,57.53745651245117,-13.675680160522461,-14.09705924987793,32.77488327026367,-71.94486999511719,-94.19448852539062,-1.8000000715255737,31.200000762939453,-19.80000114440918
4.15,54.97087097167969,-14.709975242614746,-14.595053672790527,52.093414306640625,-36.10566711425781,-79.9387435913086,0.0,31.200000762939453,-20.100000381469727
4.16,55.009178161621094,-20.072986602783203,-14.786589622497559,66.34915924072266,-28.911178588867188,-36.238895416259766,0.0,31.200000762939453,-20.100000381469727
4.18,55.43055725097656,-23.405715942382812,-13.139378547668457,78.20673370361328,-3.9969370365142822,-0.39969372749328613,-0.15000000596046448,30.30000114440918,-21.150001525878906
4.184,57.38422775268555,-28.155811309814453,-8.159439086914062,50.09494400024414,25.580398559570312,47.297088623046875,1.5,30.150001525878906,-21.30000114440918
4.191,70.71514129638672,-39.68628692626953,-2.3367409706115723,24.248085021972656,40.23583221435547,94.9938735961914,1.5,30.150001525878906,-21.30000114440918
4.201,75.12047576904297,-46.27513122558594,0.07661445438861847,-29.7105655670166,50.62786865234375,112.18070220947266,1.5,29.700000762939453,-22.350000381469727
4.21,72.74542236328125,-49.224788665771484,2.4133553504943848,-69.54670715332031,60.35375213623047,144.2894287109375,1.5,29.700000762939453,-22.350000381469727
4.221,63.36015319824219,-38.57537841796875,-7.048529624938965,-115.51148223876953,98.99080657958984,179.19601440429688,1.0500000715255737,30.450000762939453,-20.850000381469727
4.24,51.561527252197266,-29.381643295288086,-21.490354537963867,-91.13016510009766,130.96630859375,206.24195861816406,-0.15000000596046448,28.80000114440918,-19.650001525878906
4.244,49.3014030456543,-20.379444122314453,-34.62973403930664,-23.448698043823242,156.679931640625,229.0244903564453,-3.0,30.900001525878906,-20.850000381469727
4.251,62.74723815917969,-6.703764915466309,-32.02484130859375,1.0658499002456665,162.27565002441406,246.477783203125,-3.750000238418579,29.250001907348633,-20.100000381469727
4.26,72.13250732421875,-6.473921298980713,-29.726408004760742,49.69525146484375,159.8774871826172,276.1883544921875,-3.750000238418579,29.250001907348633,-20.100000381469727
4.27,83.01176452636719,-10.955866813659668,-25.972299575805664,67.01531219482422,151.084228515625,299.6370544433594,-3.750000238418579,29.250001907348633,-20.100000381469727
4.28,84.81220245361328,-13.982137680053711,-23.865402221679688,61.41960144042969,157.4793243408203,333.2113342285156,-6.300000190734863,29.250001907348633,-21.600000381469727
4.3,84.77389526367188,-18.11931800842285,-21.528661727905273,61.9525260925293,161.2097930908203,364.25421142578125,-9.0,29.250001907348633,-20.100000381469727
4.304,88.5663070678711,-23.290794372558594,-21.14558982849121,40.102603912353516,165.07350158691406,403.8238830566406,-9.90000057220459,27.900001525878906,-20.700000762939453
4.31,100.36493682861328,-25.857378005981445,-23.175872802734375,20.251148223876953,179.32923889160156,414.0826721191406,-9.90000057220459,27.900001525878906,-20.700000762939453
4.32,108.52437591552734,-24.325088500976562,-26.54690933227539,-18.385910034179688,192.91883850097656,448.8560485839844,-14.250000953674316,25.500001907348633,-20.850000381469727
4.33,115.9942855834961,-22.409727096557617,-30.415939331054688,-43.56661605834961,205.5758056640625,465.9096374511719,-13.800000190734863,25.05000114440918,-19.5
4.34,123.00450897216797,-19.000385284423828,-31.948226928710938,-64.48391723632812,215.56814575195312,490.9571228027344,-16.950000762939453,24.900001525878906,-19.650001525878906
4.36,122.92789459228516,-16.625335693359375,-33.71036148071289,-94.0612564086914,238.48391723632812,495.0872802734375,-18.75,23.850000381469727,-18.30000114440918
4.364,121.81698608398438,-12.02846908569336,-31.756690979003906,-109.78253936767578,251.4073486328125,515.0719604492188,-20.400001525878906,21.0,-18.150001525878906
4.37,114.46199798583984,-5.669469833374023,-28.270732879638672,-103.65390014648438,247.01071166992188,518.4027709960938,-20.400001525878906,21.0,-18.150001525878906
4.38,110.094970703125,-5.822698593139648,-27.58120346069336,-94.72740936279297,249.27565002441406,509.0765686035156,-24.450000762939453,18.75,-15.90000057220459
4.39,107.6050033569336,-1.1875240802764893,-27.657817840576172,-79.0061264038086,248.47625732421875,498.151611328125,-26.55000114440918,17.700000762939453,-15.750000953674316
4.4,102.08876037597656,5.937620162963867,-30.0711727142334,-44.49923324584961,244.34608459472656,484.1623229980469,-26.700000762939453,16.80000114440918,-14.850000381469727
4.42,99.13910675048828,13.637372970581055,-32.790985107421875,14.788667678833008,223.82847595214844,476.4349060058594,-29.400001525878906,15.600000381469727,-13.65000057220459
4.423,96.87897491455078,19.07699966430664,-34.93619155883789,78.07350158691406,206.90811157226562,448.056640625,-29.400001525878906,15.600000381469727,-13.65000057220459
4.43,94.46562194824219,20.264522552490234,-36.2386360168457,113.11331939697266,200.91270446777344,437.93109130859375,-32.70000076293945,14.40000057220459,-13.050000190734863
4.44,93.81439971923828,17.966089248657227,-35.395877838134766,151.88360595703125,177.73046875,424.6079406738281,-32.400001525878906,10.5,-11.100000381469727
4.45,93.39302062988281,15.093047142028809,-32.790985107421875,173.2006072998047,160.14395141601562,412.084228515625,-35.400001525878906,9.0,-12.600000381469727
4.46,91.89904022216797,14.97812557220459,-31.41192626953125,165.07350158691406,159.47779846191406,395.0306091308594,-35.400001525878906,6.750000476837158,-11.100000381469727
4.48,89.67721557617188,11.951854705810547,-30.109479904174805,158.81163024902344,150.6845245361328,385.03826904296875,-35.70000076293945,5.550000190734863,-10.800000190734863
4.484,85.27188873291016,9.615114212036133,-31.488540649414062,140.29249572753906,145.75497436523438,376.511474609375,-35.70000076293945,5.550000190734863,-10.800000190734863
4.491,81.32624053955078,7.240066051483154,-30.79901123046875,122.17304229736328,150.01837158203125,353.1960144042969,-37.05000305175781,0.75,-11.40000057220459
4.501,80.7899398803711,8.427590370178223,-32.71437072753906,92.19601440429688,153.0826873779297,340.6722717285156,-38.400001525878906,0.15000000596046448,-9.75
4.51,80.10041046142578,7.393294811248779,-35.97048568725586,67.28177642822266,150.95098876953125,337.7411804199219,-39.45000076293945,-1.350000023841858,-10.350000381469727
4.52,80.98147583007812,6.512228488922119,-37.34954833984375,37.70444107055664,154.9479217529297,321.22052001953125,-39.0,-2.700000047683716,-9.450000762939453
4.539,83.7012939453125,7.1251444816589355,-37.46446990966797,-8.39356803894043,168.1378173828125,298.7044372558594,-39.0,-2.700000047683716,-9.450000762939453
4.543,85.84649658203125,5.822698593139648,-37.656005859375,-39.16998291015625,166.1393585205078,278.4532775878906,-41.70000076293945,-4.350000381469727,-6.300000190734863
4.55,86.22956848144531,7.163451671600342,-37.77092742919922,-59.55436325073242,157.87901306152344,270.9923400878906,-39.900001525878906,-7.050000190734863,-8.25
4.56,88.0300064086914,9.461885452270508,-38.15399932861328,-98.05818939208984,164.5405731201172,251.94027709960938,-41.25,-6.150000095367432,-7.950000286102295
4.57,93.20148468017578,11.109095573425293,-36.736629486083984,-122.83920288085938,156.5467071533203,237.15159606933594,-41.70000076293945,-9.0,-5.700000286102295
4.58,97.30035400390625,14.67166805267334,-36.2003288269043,-131.23277282714844,137.22817993164062,222.36293029785156,-41.70000076293945,-9.0,-5.700000286102295
4.6,100.40324401855469,18.88546371459961,-38.38384246826172,-142.69065856933594,112.98008728027344,188.65542602539062,-42.150001525878906,-9.75,-5.25
4.603,103.77427673339844,28.309040069580078,-44.85776138305664,-141.0918731689453,116.17764282226562,187.1898956298828,-42.150001525878906,-9.75,-5.25
4.611,103.31459045410156,30.032865524291992,-46.27513122558594,-142.95712280273438,105.65237426757812,186.92343139648438,-42.45000076293945,-11.700000762939453,-3.0
4.62,104.08073425292969,32.982521057128906,-47.232810974121094,-140.5589599609375,104.05359649658203,170.26951599121094,-43.20000076293945,-12.90000057220459,-3.450000047683716
4.63,103.31459045410156,35.85556411743164,-50.10585403442383,-137.62786865234375,97.39203643798828,144.82235717773438,-43.5,-12.300000190734863,-3.3000001907348633
4.64,100.32662963867188,40.64396667480469,-59.22297286987305,-74.07656860351562,95.26033782958984,121.64012145996094,-43.5,-12.300000190734863,-3.3000001907348633
4.659,92.20549774169922,45.73883056640625,-50.71876907348633,-51.29402542114258,85.80091857910156,132.9647674560547,-42.150001525878906,-14.100000381469727,-3.750000238418579
4.663,93.23979187011719,42.82748031616211,-44.66622543334961,-32.24195861816406,73.54364013671875,63.28483963012695,-41.70000076293945,-14.850000381469727,-3.0
4.67,94.77207946777344,44.6279182434082,-43.478702545166016,-1.1990811824798584,52.3598747253418,70.74578857421875,-43.20000076293945,-14.850000381469727,-3.0
4.681,96.76405334472656,50.41231155395508,-44.704532623291016,46.231239318847656,17.852985382080078,36.771820068359375,-41.25,-16.5,-1.8000000715255737
4.69,96.68743896484375,55.085792541503906,-48.68848419189453,88.73200225830078,-18.78560447692871,23.98162269592285,-41.25,-16.5,-1.8000000715255737
4.7,95.07853698730469,54.81764221191406,-46.58158874511719,119.7748794555664,-33.4410400390625,-12.523736000061035,-43.05000305175781,-16.5,-2.1000001430511475
4.718,95.99790954589844,48.72679138183594,-48.07556915283203,131.89892578125,-68.34762573242188,-52.75957107543945,-42.45000076293945,-14.850000381469727,-2.25
4.722,108.2179183959961,39.035064697265625,-57.192691802978516,130.69984436035156,-78.60643005371094,-56.09035110473633,-42.45000076293945,-14.850000381469727,-2.25
4.731,110.24819946289062,38.2689208984375,-56.235008239746094,123.2388916015625,-87.13323211669922,-82.33690643310547,-43.20000076293945,-16.350000381469727,-3.450000047683716
4.74,112.35509490966797,35.54910659790039,-59.031436920166016,103.92036437988281,-97.12557220458984,-121.24042510986328,-42.30000305175781,-13.800000190734863,-3.9000000953674316
4.75,108.67760467529297,30.0711727142334,-53.055511474609375,75.94180297851562,-116.57733154296875,-128.83460998535156,-42.30000305175781,-13.800000190734863,-3.9000000953674316
4.76,103.42951202392578,23.252487182617188,-49.87601089477539,35.839202880859375,-108.45022583007812,-163.34149169921875,-42.75,-13.800000190734863,-5.850000381469727
4.78,102.62506103515625,16.81687355041504,-49.109867095947266,-11.457886695861816,-96.32618713378906,-196.915771484375,-41.25,-11.850000381469727,-6.150000095367432
4.784,109.86512756347656,17.851167678833008,-48.458641052246094,-27.578866958618164,-93.92802429199219,-242.6140899658203,-41.25,-11.850000381469727,-6.150000095367432
4.79,110.40142822265625,16.740259170532227,-45.54729461669922,-25.580398559570312,-102.58805084228516,-266.9953918457031,-40.5,-10.800000190734863,-7.350000381469727
4.8,113.65753936767578,14.97812557220459,-43.05732345581055,-26.64624786376953,-103.38744354248047,-319.7549743652344,-40.5,-10.800000190734863,-7.350000381469727
4.81,119.1354751586914,14.748282432556152,-40.452430725097656,-13.722817420959473,-122.43950653076172,-350.5313720703125,-40.20000076293945,-9.75,-7.050000190734863
4.82,122.77466583251953,13.905523300170898,-37.08139419555664,6.9280242919921875,-157.74578857421875,-378.9096374511719,-40.95000076293945,-7.800000190734863,-8.25
4.836,123.1577377319336,12.679692268371582,-31.028854370117188,27.31240463256836,-185.5911102294922,-434.86676025390625,-37.650001525878906,-4.050000190734863,-9.300000190734863
4.841,132.35147094726562,7.508216381072998,-30.952239990234375,29.31087303161621,-195.31700134277344,-436.865234375,-37.650001525878906,-4.050000190734863,-9.300000190734863
4.851,132.96438598632812,6.627150535583496,-28.270732879638672,48.22970962524414,-232.2220458984375,-446.4578857421875,-37.5,-2.25,-7.650000095367432
4.86,133.7688446044922,2.911349296569824,-27.044902801513672,52.093414306640625,-248.60948181152344,-467.241943359375,-37.5,-2.25,-7.650000095367432
4.87,131.12564086914062,-0.49799394607543945,-28.040889739990234,55.4241943359375,-255.9372100830078,-484.56201171875,-35.55000305175781,0.30000001192092896,-12.0
4.88,130.12965393066406,-2.298433542251587,-26.278757095336914,56.22358322143555,-260.4670715332031,-487.7595520019531,-33.30000305175781,3.0,-12.750000953674316
4.894,127.5247573852539,-3.485957622528076,-28.117504119873047,75.27565002441406,-270.5926513671875,-497.08575439453125,-30.750001907348633,5.700000286102295,-15.000000953674316
4.901,120.82099151611328,-6.473921298980713,-25.321077346801758,62.618682861328125,-260.4670715332031,-499.61712646484375,-30.750001907348633,5.700000286102295,-15.000000953674316
4.91,119.02055358886719,-8.96389102935791,-24.401702880859375,53.026031494140625,-260.0673828125,-503.2143859863281,-30.750001907348633,5.700000286102295,-15.000000953674316
4.92,115.87936401367188,-9.883264541625977,-20.41775131225586,34.773353576660156,-261.13323974609375,-498.151611328125,-29.400001525878906,7.800000190734863,-15.600000381469727
4.93,112.77647399902344,-10.994174003601074,-17.774553298950195,17.186830520629883,-257.13629150390625,-489.8912658691406,-25.950000762939453,9.75,-16.650001525878906
4.949,109.06067657470703,-11.798625946044922,-17.583017349243164,-11.058192253112793,-244.612548828125,-505.2128601074219,-25.05000114440918,9.15000057220459,-17.55000114440918
4.953,105.45979309082031,-10.955866813659668,-15.667655944824219,-26.246553421020508,-246.61102294921875,-504.1470031738281,-23.700000762939453,10.5,-18.450000762939453
4.961,100.05847930908203,-13.560758590698242,-13.637372970581055,-33.17457962036133,-254.0719757080078,-504.0137634277344,-23.700000762939453,10.5,-18.450000762939453
4.97,97.07051086425781,-13.407529830932617,-12.143390655517578,-53.42572784423828,-258.7350769042969,-507.7442321777344,-23.700000762939453,10.5,-18.450000762939453
4.98,94.08255004882812,-12.258312225341797,-9.883264541625977,-71.14547729492188,-251.0076446533203,-514.8054809570312,-18.150001525878906,12.90000057220459,-18.900001525878906
4.991,91.74581146240234,-11.91354751586914,-10.074800491333008,-71.54517364501953,-250.34149169921875,-512.673828125,-16.5,16.5,-18.75
5.01,88.33646392822266,-11.377246856689453,-11.453861236572266,-69.4134750366211,-257.8024597167969,-498.151611328125,-15.300000190734863,18.900001525878906,-19.5
5.014,87.18724822998047,-9.27034854888916,-12.449849128723145,-62.618682861328125,-239.949462890625,-497.6186828613281,-14.550000190734863,18.450000762939453,-20.100000381469727
5.021,84.85050964355469,-7.393294811248779,-15.361198425292969,-51.82695007324219,-244.4793243408203,-488.5589599609375,-14.550000190734863,18.450000762939453,-20.100000381469727
5.03,83.96944427490234,-9.002198219299316,-14.518439292907715,-29.31087303161621,-246.3445587158203,-453.78558349609375,-9.300000190734863,20.100000381469727,-18.75
5.04,83.81621551513672,-10.15141487121582,-14.939818382263184,-19.98468589782715,-231.2894287109375,-446.5910949707031,-8.550000190734863,21.150001525878906,-19.80000114440918
5.05,84.00775146484375,-11.836933135986328,-13.330915451049805,-8.39356803894043,-221.69677734375,-416.4808349609375,-5.400000095367432,21.0,-19.650001525878906
5.069,84.3525161743164,-13.867216110229492,-11.224017143249512,4.796324729919434,-226.49310302734375,-382.6401062011719,-5.400000095367432,21.0,-19.950000762939453
5.073,84.9654312133789,-16.35718536376953,-9.308655738830566,0.39969372749328613,-226.62632751464844,-333.61102294921875,-5.400000095367432,21.0,-19.950000762939453
5.081,86.1146469116211,-18.464082717895508,-7.5848307609558105,-7.72741174697876,-208.64012145996094,-303.6340026855469,-0.75,21.0,-19.950000762939453
5.091,84.65897369384766,-20.64759635925293,-4.6734819412231445,-15.588054656982422,-220.09800720214844,-262.4655456542969,0.75,23.100000381469727,-21.30000114440918
5.1,83.08837890625,-24.89969825744629,-1.37906014919281,-38.10413360595703,-216.76722717285156,-229.82388305664062,0.45000001788139343,24.900001525878906,-20.700000762939453
5.11,80.44517517089844,-27.427974700927734,-0.4596867263317108,-53.42572784423828,-200.77947998046875,-212.63705444335938,2.5500001907348633,23.100000381469727,-19.80000114440918
5.13,78.26166534423828,-25.857378005981445,0.5363011956214905,-64.48391723632812,-183.99234008789062,-176.26492309570312,2.5500001907348633,23.100000381469727,-19.80000114440918
5.134,72.4006576538086,-20.83913230895996,-5.1331682205200195,-63.684532165527344,-155.747314453125,-125.63705444335938,4.200000286102295,23.700000762939453,-19.950000762939453
5.141,60.1423454284668,-18.004396438598633,-15.093047142028809,-53.42572784423828,-129.90045166015625,-108.58345794677734,5.400000095367432,23.25,-19.200000762939453
5.15,52.74905014038086,-17.12333106994629,-24.516624450683594,-7.594180583953857,-75.8085708618164,-92.3292465209961,7.050000190734863,24.750001907348633,-20.100000381469727
5.16,37.809234619140625,-11.03248119354248,-20.64759635925293,12.124042510986328,-35.439510345458984,-52.493106842041016,5.550000190734863,25.05000114440918,-20.100000381469727
5.17,36.2003288269043,-22.256498336791992,-16.548721313476562,22.249616622924805,1.5987749099731445,-26.113323211669922,5.550000190734863,25.05000114440918,-20.100000381469727
5.19,40.145973205566406,-26.85336685180664,-12.564770698547363,24.781009674072266,37.57120895385742,-7.860642910003662,6.450000286102295,24.150001525878906,-21.450000762939453
5.195,43.93838882446289,-27.46628189086914,-9.117119789123535,17.719755172729492,48.76263427734375,42.500762939453125,5.550000190734863,24.30000114440918,-20.850000381469727
5.201,45.279144287109375,-34.43819808959961,-8.35097599029541,-0.7993874549865723,66.21592712402344,86.60030364990234,6.900000095367432,24.150001525878906,-20.400001525878906
5.21,50.25908279418945,-35.97048568725586,-11.990161895751953,-24.781009674072266,89.5313949584961,112.58039855957031,5.25,25.05000114440918,-19.80000114440918
5.22,61.36817932128906,-35.24264907836914,-11.070788383483887,-55.69065856933594,107.78407287597656,135.36293029785156,4.5,24.750001907348633,-19.80000114440918
5.23,70.48529815673828,-32.40791320800781,-11.875240325927734,-61.81929397583008,108.983154296875,174.26646423339844,4.5,24.750001907348633,-19.80000114440918
5.25,64.96905517578125,-25.129541397094727,-19.613300323486328,-50.36140823364258,125.23736572265625,211.0382843017578,3.0,24.750001907348633,-20.55000114440918
5.254,55.96685791015625,-17.238252639770508,-30.79901123046875,-9.859111785888672,151.2174530029297,243.14700317382812,2.4000000953674316,24.150001525878906,-20.700000762939453
5.261,55.660400390625,-10.41956615447998,-33.32728576660156,5.995405673980713,164.27410888671875,248.87594604492188,1.0500000715255737,25.05000114440918,-18.75
5.27,60.678646087646484,-9.193734169006348,-31.258697509765625,41.568145751953125,165.3399658203125,282.050537109375,0.30000001192092896,23.100000381469727,-18.75
5.28,68.45501708984375,-10.917559623718262,-30.454246520996094,58.08882141113281,183.7258758544922,299.1041259765625,0.30000001192092896,23.100000381469727,-18.75
5.291,75.15878295898438,-16.433799743652344,-26.12552833557129,65.41653442382812,187.98927307128906,324.151611328125,-2.5500001907348633,23.55000114440918,-19.5
5.309,80.67501831054688,-22.37141990661621,-20.800825119018555,42.633995056152344,186.65696716308594,349.1990661621094,-3.3000001907348633,21.150001525878906,-21.30000114440918
5.313,87.57032012939453,-27.849353790283203,-18.272546768188477,3.7304747104644775,183.05972290039062,358.39202880859375,-5.25,23.850000381469727,-19.80000114440918
5.32,98.87095642089844,-24.286781311035156,-21.413740158081055,-33.57427215576172,189.9877471923828,389.4349060058594,-5.700000286102295,21.450000762939453,-20.400001525878906
5.33,103.12305450439453,-21.337125778198242,-26.240449905395508,-59.55436325073242,195.31700134277344,425.140869140625,-6.750000476837158,20.400001525878906,-19.05000114440918
5.34,107.49008178710938,-18.464082717895508,-28.19411849975586,-78.73966217041016,197.0489959716797,444.8591003417969,-6.750000476837158,20.400001525878906,-19.05000114440918
5.35,108.869140625,-16.203956604003906,-30.99054718017578,-95.79325866699219,209.03981018066406,472.4379577636719,-11.25,20.100000381469727,-19.5
5.37,113.50431060791016,-12.143390655517578,-32.369606018066406,-118.04287719726562,220.09800720214844,487.8927917480469,-12.450000762939453,19.80000114440918,-18.150001525878906
5.374,117.67980194091797,-8.925583839416504,-30.722396850585938,-126.5696792602539,225.96017456054688,523.1990966796875,-14.40000057220459,17.850000381469727,-18.150001525878906
5.381,118.17779541015625,-6.435614109039307,-29.879636764526367,-118.57579803466797,220.36447143554688,528.6615600585938,-13.800000190734863,19.200000762939453,-17.25
5.391,115.80274963378906,-6.320692539215088,-28.92195701599121,-122.57273864746094,223.69525146484375,525.0643310546875,-13.800000190734863,19.200000762939453,-17.25
5.4,113.1595458984375,-5.363011837005615,-29.688100814819336,-127.5022964477539,231.55589294433594,519.601806640625,-17.400001525878906,14.40000057220459,-15.90000057220459
5.41,110.17158508300781,-1.3024457693099976,-31.60346221923828,-100.85604858398438,224.09494018554688,523.0658569335938,-19.950000762939453,14.850000381469727,-14.850000381469727
5.43,107.37516021728516,3.2178070545196533,-31.680076599121094,-83.93567657470703,225.96017456054688,511.07501220703125,-22.650001525878906,14.40000057220459,-14.850000381469727
5.433,104.1573486328125,5.51624059677124,-30.454246520996094,-38.50382614135742,211.83766174316406,490.4241943359375,-24.0,11.100000381469727,-12.750000953674316
5.44,100.21170806884766,6.090848922729492,-31.450233459472656,-14.388973236083984,197.31546020507812,485.36138916015625,-24.0,11.100000381469727,-12.750000953674316
5.45,98.71772766113281,8.274360656738281,-30.26270866394043,9.592649459838867,187.05665588378906,466.309326171875,-24.0,11.100000381469727,-12.750000953674316
5.46,97.33866119384766,11.60708999633789,-31.450233459472656,24.11485481262207,183.45941162109375,443.3935546875,-25.950000762939453,6.750000476837158,-12.300000190734863
5.47,96.49590301513672,14.135366439819336,-32.02484130859375,43.96630859375,176.39816284179688,430.7366027832031,-28.650001525878906,5.850000381469727,-10.350000381469727
5.49,93.9676284790039,15.399505615234375,-31.7183837890625,71.01225280761719,160.2771759033203,429.27105712890625,-30.750001907348633,4.950000286102295,-12.450000762939453
5.494,93.73778533935547,15.782577514648438,-29.64979362487793,75.00918579101562,156.14700317382812,403.15771484375,-28.500001907348633,2.700000047683716,-12.450000762939453
5.501,92.28211212158203,17.31486701965332,-30.60747528076172,81.67074584960938,151.2174530029297,390.90045166015625,-28.500001907348633,2.700000047683716,-12.450000762939453
5.51,90.2901382446289,17.00840950012207,-31.373619079589844,95.52679443359375,133.6309356689453,382.7733459472656,-30.750001907348633,1.0500000715255737,-10.65000057220459
5.52,87.80016326904297,14.250288963317871,-33.63374710083008,102.72128295898438,124.03828430175781,353.72894287109375,-31.05000114440918,-1.0500000715255737,-9.450000762939453
5.53,86.8041763305664,11.990161895751953,-35.16603469848633,96.99234008789062,130.30015563964844,328.4150085449219,-32.55000305175781,-2.700000047683716,-9.450000762939453
5.55,89.1792221069336,11.568782806396484,-35.16603469848633,87.9326171875,121.10719299316406,309.8958435058594,-30.450000762939453,-4.050000190734863,-9.75
5.553,92.28211212158203,8.848969459533691,-39.41813659667969,60.35375213623047,126.83613586425781,301.23583984375,-30.450000762939453,-4.050000190734863,-9.75
5.56,93.54624938964844,8.427590370178223,-39.91613006591797,31.042879104614258,138.96017456054688,281.91729736328125,-33.0,-5.400000095367432,-8.40000057220459
5.57,95.57653045654297,10.304644584655762,-41.37180709838867,-3.4640121459960938,143.09034729003906,274.18988037109375,-32.70000076293945,-6.300000190734863,-9.0
5.58,96.11283111572266,12.02846908569336,-41.98472213745117,-29.977027893066406,143.88973999023438,270.7258605957031,-33.45000076293945,-8.700000762939453,-8.550000190734863
5.591,96.9555892944336,18.502389907836914,-45.164222717285156,-36.905052185058594,152.28330993652344,262.1990661621094,-34.05000305175781,-6.900000095367432,-6.150000095367432
5.609,94.35070037841797,22.37141990661621,-44.16823196411133,-60.08728790283203,156.5467071533203,258.3353576660156,-33.45000076293945,-11.40000057220459,-6.750000476837158
5.612,98.21973419189453,18.655620574951172,-43.82346725463867,-53.42572784423828,136.4287872314453,243.81317138671875,-33.45000076293945,-11.40000057220459,-6.750000476837158
5.62,98.83264923095703,23.367408752441406,-43.9766960144043,-46.764163970947266,134.03062438964844,247.54364013671875,-33.900001525878906,-12.15000057220459,-5.700000286102295
5.631,102.81659698486328,29.03687858581543,-42.1379508972168,-33.30780792236328,114.17916870117188,215.96783447265625,-34.5,-12.300000190734863,-5.100000381469727
5.64,105.99610137939453,33.63374710083008,-45.010990142822266,-9.459418296813965,93.2618637084961,200.24655151367188,-35.70000076293945,-12.90000057220459,-6.300000190734863
5.65,106.22594451904297,37.46446990966797,-45.010990142822266,25.580398559570312,59.95405578613281,204.37672424316406,-33.900001525878906,-13.65000057220459,-3.450000047683716
5.67,104.08073425292969,38.34553527832031,-43.21055221557617,32.77488327026367,39.16998291015625,200.37977600097656,-35.400001525878906,-15.600000381469727,-3.750000238418579
5.673,99.44556427001953,38.000770568847656,-51.982906341552734,41.30168533325195,18.2526798248291,176.26492309570312,-35.25,-16.200000762939453,-3.3000001907348633
5.68,97.95157623291016,37.11970138549805,-52.86397171020508,45.16539001464844,14.255742073059082,162.40887451171875,-35.25,-16.200000762939453,-3.3000001907348633
5.691,94.27408599853516,37.27293395996094,-51.40829849243164,42.633995056152344,4.929555892944336,132.56507873535156,-34.650001525878906,-18.30000114440918,-2.700000047683716
5.7,91.20951080322266,35.6257209777832,-52.51920700073242,45.96477508544922,0.39969372749328613,102.32159423828125,-33.900001525878906,-18.75,-3.0
5.71,90.63490295410156,36.430171966552734,-54.089805603027344,50.89433288574219,-6.128636837005615,84.86830139160156,-33.900001525878906,-18.75,-3.0
5.725,95.38499450683594,36.8515510559082,-58.45682907104492,60.75344467163086,-15.721285820007324,28.511484146118164,-35.25,-20.100000381469727,-3.6000001430511475
5.731,108.63929748535156,36.008792877197266,-59.452816009521484,66.34915924072266,-26.513015747070312,2.6646246910095215,-35.25,-20.100000381469727,-3.6000001430511475
5.741,112.546630859375,35.089420318603516,-56.92454147338867,77.94027709960938,-46.897396087646484,-30.776416778564453,-35.25,-20.400001525878906,-3.3000001907348633
5.75,113.04462432861328,33.557132720947266,-53.208740234375,70.74578857421875,-59.82082748413086,-65.15007781982422,-34.650001525878906,-20.25,-4.5
5.76,109.09898376464844,27.27474594116211,-47.15619659423828,56.62327575683594,-70.21286010742188,-108.58345794677734,-34.80000305175781,-21.600000381469727,-4.650000095367432
5.77,103.92750549316406,19.07699966430664,-42.1762580871582,28.378253936767578,-76.20826721191406,-166.80551147460938,-34.80000305175781,-21.600000381469727,-4.650000095367432
5.787,103.27628326416016,10.687716484069824,-41.02703857421875,-4.130168437957764,-98.19142150878906,-255.40428161621094,-34.650001525878906,-19.05000114440918,-4.950000286102295
5.791,108.9074478149414,4.481945514678955,-36.54509353637695,-21.716691970825195,-103.12097930908203,-270.8591003417969,-34.650001525878906,-19.05000114440918,-4.950000286102295
5.8,111.2824935913086,5.51624059677124,-36.54509353637695,-48.09647750854492,-124.03828430175781,-332.1454772949219,-34.05000305175781,-18.900001525878906,-4.650000095367432
5.81,111.16757202148438,9.423578262329102,-40.18428039550781,-55.29096221923828,-130.83306884765625,-334.0107116699219,-34.650001525878906,-16.80000114440918,-4.5
5.821,106.3791732788086,10.457873344421387,-38.230613708496094,-47.297088623046875,-143.75650024414062,-367.98468017578125,-34.650001525878906,-16.80000114440918,-4.5
5.839,108.2179183959961,6.89530086517334,-42.1762580871582,-41.967838287353516,-149.08575439453125,-399.1607971191406,-33.30000305175781,-16.200000762939453,-6.150000095367432
5.843,111.09095764160156,7.316680431365967,-36.16202163696289,-31.042879104614258,-160.14395141601562,-421.6768798828125,-34.05000305175781,-9.600000381469727,-6.900000095367432
5.851,113.61923217773438,6.780379295349121,-34.284969329833984,-17.053598403930664,-174.26646423339844,-435.3996887207031,-34.05000305175781,-9.600000381469727,-6.900000095367432
5.86,112.92970275878906,5.899312973022461,-31.52684783935547,-2.6646246910095215,-186.12403869628906,-443.26031494140625,-34.20000076293945,-9.0,-8.25
5.87,113.77246856689453,3.9456443786621094,-29.113492965698242,-0.39969372749328613,-187.85604858398438,-463.7779235839844,-34.20000076293945,-9.0,-8.25
5.88,113.84908294677734,2.5282769203186035,-27.044902801513672,27.045940399169922,-203.57733154296875,-470.8392028808594,-34.20000076293945,-9.0,-8.25
5.9,113.1595458984375,1.8770540952682495,-24.554933547973633,51.160797119140625,-211.9709014892578,-457.6492919921875,-31.950000762939453,-4.350000381469727,-9.0
5.903,111.39741516113281,0.7661445140838623,-23.75048065185547,60.35375213623047,-226.35987854003906,-470.17303466796875,-31.200000762939453,-1.350000023841858,-11.100000381469727
5.911,110.63127136230469,-2.5665841102600098,-22.562957763671875,69.67993927001953,-226.49310302734375,-470.17303466796875,-30.150001525878906,-0.9000000357627869,-11.100000381469727
5.92,111.70387268066406,-3.869029998779297,-22.562957763671875,76.74119567871094,-242.21438598632812,-463.37823486328125,-30.150001525878906,-0.9000000357627869,-11.100000381469727
5.93,109.36713409423828,-4.32871675491333,-19.19192123413086,73.14395141601562,-242.747314453125,-452.9862060546875,-29.400001525878906,0.9000000357627869,-13.350000381469727
5.94,107.83484649658203,-7.967903137207031,-17.238252639770508,56.889739990234375,-235.4196014404297,-457.1163635253906,-28.500001907348633,2.25,-12.750000953674316
5.96,105.57471466064453,-10.189722061157227,-16.66364288330078,36.372127532958984,-238.88360595703125,-458.848388671875,-27.900001525878906,4.350000381469727,-13.050000190734863
5.964,101.89722442626953,-10.15141487121582,-16.778566360473633,4.663093090057373,-226.09341430664062,-453.2526550292969,-25.500001907348633,4.950000286102295,-14.700000762939453
5.971,98.75603485107422,-11.262324333190918,-16.778566360473633,3.4640121459960938,-229.4241943359375,-442.8606262207031,-25.500001907348633,4.950000286102295,-14.700000762939453
5.98,98.29634857177734,-10.917559623718262,-14.67166805267334,-23.98162269592285,-216.10107421875,-443.9264831542969,-25.80000114440918,7.200000286102295,-14.700000762939453
5.991,95.7297592163086,-9.461885452270508,-13.675680160522461,-37.83767318725586,-209.83920288085938,-438.1975402832031,-24.450000762939453,10.200000762939453,-14.100000381469727
6.0,95.00192260742188,-8.236053466796875,-12.871228218078613,-49.02909469604492,-211.9709014892578,-434.0673828125,-21.30000114440918,10.350000381469727,-16.5
6.02,95.1168441772461,-7.316680431365967,-13.599065780639648,-54.4915771484375,-197.71514892578125,-437.93109130859375,-20.700000762939453,11.700000762939453,-17.100000381469727
6.024,95.1168441772461,-4.941632270812988,-13.10107135772705,-44.76569747924805,-212.5038299560547,-421.1439514160156,-19.5,14.250000953674316,-16.5
6.031,94.81038665771484,-2.8347349166870117,-11.875240325927734,-36.905052185058594,-212.23736572265625,-419.2787170410156,-19.5,14.250000953674316,-16.5
6.04,95.27007293701172,-2.4133553504943848,-11.109095573425293,-16.387441635131836,-214.90199279785156,-413.2832946777344,-16.950000762939453,14.40000057220459,-18.450000762939453
6.05,94.92530822753906,-0.6129156351089478,-8.465897560119629,1.3323123455047607,-226.2266387939453,-405.5558776855469,-15.750000953674316,17.400001525878906,-19.5
6.06,92.20549774169922,-3.869029998779297,-6.742072105407715,25.980091094970703,-236.48544311523438,-395.4302978515625,-14.700000762939453,16.350000381469727,-17.700000762939453
6.08,89.71552276611328,-9.921571731567383,-6.971915245056152,33.70750427246094,-247.94332885742188,-394.76416015625,-14.700000762939453,18.75,-18.150001525878906
6.084,86.30618286132812,-13.407529830932617,-9.461885452270508,35.306278228759766,-233.68759155273438,-374.2465515136719,-14.700000762939453,18.75,-18.150001525878906
6.091,83.08837890625,-15.897499084472656,-13.369222640991211,26.113323211669922,-226.2266387939453,-357.9923400878906,-9.75,20.100000381469727,-20.100000381469727
6.1,82.55207824707031,-18.464082717895508,-14.786589622497559,9.992342948913574,-217.1669158935547,-322.15313720703125,-9.300000190734863,18.900001525878906,-20.55000114440918
6.11,79.10442352294922,-17.697938919067383,-17.62132453918457,16.65390396118164,-192.3859100341797,-286.3139343261719,-7.950000286102295,20.25,-19.650001525878906
6.12,76.42292022705078,-12.90953540802002,-15.705963134765625,-12.656967163085938,-164.67381286621094,-233.0214385986328,-6.450000286102295,21.0,-20.400001525878906
6.14,71.44297790527344,-25.742456436157227,-8.35097599029541,-47.9632453918457,-144.02296447753906,-206.77488708496094,-6.450000286102295,21.0,-20.400001525878906
6.144,68.87639617919922,-26.891674041748047,-10.41956615447998,-51.560489654541016,-107.51760864257812,-167.6049041748047,-6.450000286102295,21.0,-20.400001525878906
6.151,60.7935676574707,-20.149600982666016,-3.4093432426452637,-65.28330993652344,-91.13016510009766,-148.8192901611328,-4.950000286102295,24.900001525878906,-20.400001525878906
6.16,59.91250228881836,-21.490354537963867,-7.1251444816589355,-75.40888214111328,-73.41041564941406,-116.84379577636719,-4.650000095367432,22.5,-20.700000762939453
6.17,59.26128005981445,-25.435998916625977,-15.85919189453125,-61.81929397583008,-63.151607513427734,-96.99234008789062,-3.1500000953674316,22.200000762939453,-21.150001525878906
6.18,59.22297286987305,-27.504589080810547,-19.613300323486328,-42.101070404052734,-46.497703552246094,-80.60489654541016,-2.700000047683716,22.5,-20.700000762939453
6.2,62.2109375,-25.972299575805664,-21.528661727905273,-13.456355094909668,-42.76722717285156,-52.626338958740234,-2.700000047683716,22.5,-20.700000762939453
6.203,62.555702209472656,-26.66183090209961,-17.161638259887695,-1.4655436277389526,-31.176109313964844,-30.776416778564453,-2.4000000953674316,22.5,-21.150001525878906
6.211,59.91250228881836,-30.109479904174805,-14.97812557220459,1.9984685182571411,-30.110260009765625,-1.5987749099731445,-1.9500000476837158,23.25,-19.950000762939453
6.22,61.82786560058594,-34.62973403930664,-13.828908920288086,-12.25727367401123,-0.7993874549865723,25.846860885620117,-2.25,23.55000114440918,-19.05000114440918
6.23,67.45903015136719,-37.234622955322266,-15.782577514648438,-34.24042892456055,28.911178588867188,61.01990509033203,-2.4000000953674316,23.25,-20.400001525878906
6.24,68.7997817993164,-37.96246337890625,-15.974113464355469,-59.55436325073242,43.43338394165039,92.86217498779297,-2.4000000953674316,23.25,-20.400001525878906
6.261,61.52140808105469,-34.93619155883789,-16.548721313476562,-76.60796356201172,83.26952362060547,118.30934143066406,-1.9500000476837158,24.150001525878906,-19.950000762939453
6.264,50.757076263427734,-26.815059661865234,-26.508602142333984,-48.22970962524414,133.36447143554688,142.4241943359375,-3.9000000953674316,23.25,-21.150001525878906
6.271,48.535255432128906,-14.97812557220459,-32.292991638183594,-17.053598403930664,135.62939453125,155.88055419921875,-4.200000286102295,24.900001525878906,-21.150001525878906
6.28,50.144161224365234,-11.453861236572266,-31.488540649414062,33.84073257446289,129.6339874267578,186.12403869628906,-6.150000095367432,22.5,-19.200000762939453
6.291,56.65638732910156,-7.086836814880371,-28.653806686401367,78.3399658203125,138.96017456054688,211.30474853515625,-5.550000190734863,23.55000114440918,-20.850000381469727
6.3,61.40648651123047,-12.258312225341797,-19.421764373779297,90.4640121459961,136.4287872314453,249.5421142578125,-5.550000190734863,23.55000114440918,-20.850000381469727
6.32,67.34410858154297,-22.37141990661621,-12.334927558898926,82.33690643310547,128.7013702392578,286.1806945800781,-7.500000476837158,23.100000381469727,-19.80000114440918
6.324,75.65677642822266,-32.52283477783203,-8.197746276855469,23.448698043823242,132.16539001464844,291.376708984375,-7.650000095367432,22.200000762939453,-19.650001525878906
6.331,83.20330047607422,-33.90189743041992,-12.48815631866455,-1.7320060729980469,135.4961700439453,304.96630859375,-10.050000190734863,21.150001525878906,-20.850000381469727
6.34,86.30618286132812,-28.309040069580078,-19.000385284423828,-28.911178588867188,130.83306884765625,343.6033630371094,-10.65000057220459,20.25,-19.650001525878906
6.35,91.28612518310547,-22.90772247314453,-24.36339569091797,-44.09954071044922,145.6217498779297,365.9862060546875,-10.65000057220459,20.25,-19.650001525878906
6.36,96.91728210449219,-19.38345718383789,-27.46628189086914,-71.2787094116211,164.14088439941406,399.6937255859375,-12.450000762939453,21.0,-18.450000762939453
6.38,104.7319564819336,-14.326903343200684,-31.028854370117188,-92.59571075439453,176.53138732910156,431.5359802246094,-14.40000057220459,18.30000114440918,-20.400001525878906
6.383,109.94174194335938,-11.91354751586914,-30.99054718017578,-115.77794647216797,196.64930725097656,464.444091796875,-15.15000057220459,19.05000114440918,-19.650001525878906
6.39,108.67760467529297,-8.197746276855469,-30.109479904174805,-127.36906433105469,212.37059020996094,461.9126892089844,-16.80000114440918,17.700000762939453,-18.75
6.4,106.53240203857422,-7.1251444816589355,-27.849353790283203,-131.63246154785156,226.35987854003906,483.62939453125,-16.80000114440918,17.700000762939453,-18.75
6.41,104.88518524169922,-5.784391403198242,-24.516624450683594,-127.76875305175781,222.62939453125,488.5589599609375,-16.80000114440918,17.700000762939453,-18.75
6.42,105.68963623046875,-6.320692539215088,-20.609289169311523,-115.77794647216797,216.50076293945312,480.2986145019531,-21.75,14.550000190734863,-15.450000762939453
6.44,104.04242706298828,-4.711789131164551,-19.613300323486328,-118.30934143066406,221.69677734375,472.1715087890625,-22.650001525878906,14.40000057220459,-15.600000381469727
6.443,100.25001525878906,5.363011837005615,-25.244462966918945,-91.3966293334961,195.050537109375,474.3031921386719,-27.30000114440918,11.550000190734863,-13.950000762939453
6.451,99.17741394042969,7.316680431365967,-24.59324073791504,-71.01225280761719,197.18223571777344,468.7074890136719,-27.30000114440918,11.550000190734863,-13.950000762939453
6.461,96.84066772460938,10.342951774597168,-28.117504119873047,-49.69525146484375,187.85604858398438,455.117919921875,-27.30000114440918,11.550000190734863,-13.950000762939453
6.47,94.5039291381836,13.254301071166992,-29.53487205505371,-30.643184661865234,180.79478454589844,450.7212829589844,-26.700000762939453,8.700000762939453,-12.300000190734863
6.48,91.24781799316406,13.139378547668457,-29.726408004760742,-4.263399600982666,167.73812866210938,452.0535888671875,-27.30000114440918,6.450000286102295,-11.40000057220459
6.496,89.90705871582031,11.951854705810547,-29.994558334350586,5.329249382019043,171.46859741210938,427.13934326171875,-29.700000762939453,4.050000190734863,-10.350000381469727
6.5,86.68925476074219,10.84094524383545,-33.05913543701172,3.3307809829711914,173.46707153320312,415.1485290527344,-29.700000762939453,4.050000190734863,-10.350000381469727
6.51,85.99972534179688,11.03248119354248,-32.599449157714844,8.526799201965332,162.94180297851562,411.151611328125,-29.700000762939453,4.050000190734863,-10.350000381469727
6.52,85.61665344238281,10.802638053894043,-31.90991973876953,12.523736000061035,160.6768798828125,392.4992370605469,-31.200000762939453,0.45000001788139343,-8.550000190734863
6.53,87.22555541992188,13.522451400756836,-28.998571395874023,4.663093090057373,158.81163024902344,366.78558349609375,-32.70000076293945,-0.15000000596046448,-8.25
6.54,88.29815673828125,13.139378547668457,-29.190107345581055,19.31852912902832,149.88514709472656,349.3323059082031,-33.75,-1.8000000715255737,-7.950000286102295
6.559,91.09458923339844,14.633360862731934,-29.22841453552246,20.784072875976562,146.28790283203125,311.62786865234375,-34.95000076293945,-5.550000190734863,-6.300000190734863
6.563,95.1551513671875,20.034679412841797,-31.871612548828125,20.650842666625977,144.68911743164062,317.49005126953125,-34.95000076293945,-5.550000190734863,-6.300000190734863
6.57,94.46562194824219,19.80483627319336,-32.905906677246094,8.926492691040039,137.8943328857422,306.96478271484375,-34.95000076293945,-5.550000190734863,-6.300000190734863
6.58,96.72574615478516,19.613300323486328,-32.599449157714844,7.9938740730285645,122.57273864746094,297.10565185546875,-34.5,-6.150000095367432,-5.100000381469727
6.59,100.55647277832031,19.306842803955078,-35.089420318603516,-3.4640121459960938,124.8376693725586,282.5834655761719,-34.5,-7.200000286102295,-5.400000095367432
6.6,102.51013946533203,17.92778205871582,-37.387855529785156,-27.578866958618164,140.6921844482422,270.0597229003906,-35.400001525878906,-9.0,-6.0
6.613,103.85089111328125,18.77054214477539,-39.533058166503906,-44.09954071044922,138.2940216064453,255.1378173828125,-35.25,-8.40000057220459,-5.100000381469727
6.621,106.76224517822266,21.528661727905273,-43.24885940551758,-41.701377868652344,122.57273864746094,248.2097930908203,-35.25,-8.40000057220459,-5.100000381469727
6.63,108.37114715576172,25.780763626098633,-47.117889404296875,-23.448698043823242,134.83001708984375,226.7595672607422,-34.95000076293945,-10.950000762939453,-4.950000286102295
6.64,103.27628326416016,31.29700469970703,-38.38384246826172,-22.249616622924805,130.03369140625,223.16232299804688,-35.25,-11.550000190734863,-2.5500001907348633
6.65,103.35289764404297,26.85336685180664,-36.315250396728516,-20.650842666625977,124.30474090576172,212.5038299560547,-34.5,-12.300000190734863,-1.8000000715255737
6.66,102.16537475585938,31.028854370117188,-36.88985824584961,-12.656967163085938,113.91270446777344,212.5038299560547,-35.70000076293945,-12.450000762939453,-3.450000047683716
6.676,100.55647277832031,34.51481246948242,-39.456443786621094,3.3307809829711914,101.12251281738281,182.12710571289062,-35.70000076293945,-12.450000762939453,-3.450000047683716
6.681,97.33866119384766,40.22258758544922,-50.68046188354492,18.91883659362793,94.72740936279297,176.53138732910156,-35.70000076293945,-12.450000762939453,-3.450000047683716
6.691,95.84468078613281,42.90409469604492,-51.21676254272461,47.163856506347656,89.39816284179688,147.4869842529297,-36.45000076293945,-18.30000114440918,-0.9000000357627869
6.7,94.73377227783203,44.5896110534668,-51.02522659301758,73.67687225341797,66.21592712402344,124.97090148925781,-36.900001525878906,-17.55000114440918,0.15000000596046448
6.71,92.24380493164062,42.90409469604492,-48.11387634277344,88.59877014160156,47.696781158447266,103.7871322631836,-36.900001525878906,-18.75,-0.9000000357627869
6.73,94.00593566894531,42.7508659362793,-50.144161224365234,97.12557220458984,23.182235717773438,90.06431579589844,-36.900001525878906,-18.75,-0.9000000357627869
6.734,95.07853698730469,44.5896110534668,-55.16240692138672,108.84992218017578,12.923430442810059,83.00305938720703,-37.80000305175781,-18.900001525878906,-0.6000000238418579
6.741,103.54443359375,43.01901626586914,-66.65457153320312,110.31546783447266,3.197549819946289,48.49617004394531,-35.70000076293945,-20.25,0.45000001788139343
6.75,107.18362426757812,42.21456527709961,-67.61225891113281,124.57120513916016,-22.51607894897461,20.650842666625977,-35.70000076293945,-19.5,-0.45000001788139343
6.76,111.70387268066406,38.07738494873047,-58.99312973022461,133.76416015625,-51.960182189941406,-23.581928253173828,-35.55000305175781,-22.350000381469727,-1.8000000715255737
6.77,111.12926483154297,33.05913543701172,-51.44660568237305,91.66309356689453,-60.88667678833008,-63.950992584228516,-35.55000305175781,-22.350000381469727,-1.8000000715255737
6.789,106.07271575927734,22.026655197143555,-42.82748031616211,41.434913635253906,-77.4073486328125,-107.65084075927734,-35.55000305175781,-22.350000381469727,-1.8000000715255737
6.794,102.47183227539062,13.867216110229492,-43.172245025634766,-15.188361167907715,-99.3905029296875,-170.26951599121094,-37.05000305175781,-19.650001525878906,-1.8000000715255737
6.8,98.44957733154297,12.641385078430176,-48.07556915283203,-48.22970962524414,-91.52986145019531,-205.7090301513672,-38.25,-19.200000762939453,-2.1000001430511475
6.81,98.44957733154297,13.10107135772705,-48.650177001953125,-76.74119567871094,-93.2618637084961,-248.34303283691406,-37.20000076293945,-19.05000114440918,-2.700000047683716
6.82,99.8286361694336,14.595053672790527,-47.2711181640625,-76.07503509521484,-105.65237426757812,-288.8453369140625,-38.55000305175781,-15.450000762939453,-2.1000001430511475
6.83,103.62104797363281,19.421764373779297,-43.593624114990234,-59.287899017333984,-106.98468017578125,-302.3016662597656,-38.55000305175781,-15.450000762939453,-2.1000001430511475
6.85,105.3831787109375,20.95405387878418,-44.85776138305664,-32.64165496826172,-117.64318084716797,-349.4655456542969,-36.150001525878906,-14.40000057220459,-4.200000286102295
6.854,106.14933013916016,21.835119247436523,-43.287166595458984,26.379785537719727,-144.82235717773438,-382.50689697265625,-38.25,-13.500000953674316,-4.350000381469727
6.861,111.3591079711914,17.276559829711914,-36.04710006713867,52.493106842041016,-159.47779846191406,-391.03369140625,-37.80000305175781,-11.550000190734863,-4.650000095367432
6.87,115.22814178466797,13.752294540405273,-33.48051834106445,74.20980072021484,-174.39968872070312,-419.9448547363281,-37.95000076293945,-11.40000057220459,-6.300000190734863
6.88,117.60318756103516,9.27034854888916,-29.496564865112305,88.46553802490234,-194.6508331298828,-441.66156005859375,-37.95000076293945,-11.40000057220459,-6.300000190734863
6.891,118.29271697998047,3.332728862762451,-26.393678665161133,94.59417724609375,-217.03369140625,-441.9280090332031,-37.95000076293945,-11.40000057220459,-6.300000190734863
6.91,119.28870391845703,1.2641384601593018,-25.167848587036133,102.32159423828125,-234.62020874023438,-449.921875,-37.20000076293945,-7.050000190734863,-7.800000190734863
6.914,119.90161895751953,-2.3367409706115723,-25.20615577697754,94.59417724609375,-252.3399658203125,-456.5834655761719,-36.900001525878906,-5.100000381469727,-9.300000190734863
6.921,121.01252746582031,-6.742072105407715,-24.171859741210938,93.12863159179688,-253.53904724121094,-456.983154296875,-35.55000305175781,-3.750000238418579,-10.950000762939453
6.93,120.20807647705078,-8.65743350982666,-21.835119247436523,68.88054656982422,-258.6018371582031,-458.5819091796875,-34.5,-0.75,-12.0
6.94,117.2584228515625,-11.41555404663086,-21.643583297729492,39.03675079345703,-250.87442016601562,-463.1117858886719,-34.5,-0.75,-12.0
6.95,113.84908294677734,-12.756306648254395,-18.502389907836914,11.724349021911621,-247.67686462402344,-461.1133117675781,-34.95000076293945,2.1000001430511475,-13.65000057220459
6.97,107.91146087646484,-11.951854705810547,-18.195932388305664,-6.395099639892578,-248.7427215576172,-454.05206298828125,-33.150001525878906,3.1500000953674316,-13.350000381469727
6.974,103.73596954345703,-10.41956615447998,-20.11129379272461,-34.64012145996094,-228.89126586914062,-454.05206298828125,-32.25,6.150000095367432,-16.05000114440918
6.98,97.22373962402344,-8.925583839416504,-17.31486701965332,-49.82848358154297,-211.1715087890625,-453.3858947753906,-30.30000114440918,6.900000095367432,-17.55000114440918
6.991,95.1551513671875,-8.236053466796875,-16.855180740356445,-53.69218826293945,-212.5038299560547,-451.92034912109375,-32.25,8.40000057220459,-18.0
7.0,94.08255004882812,-6.129156112670898,-16.625335693359375,-49.96171569824219,-203.04440307617188,-454.98468017578125,-32.25,8.40000057220459,-18.0
7.01,93.9676284790039,-4.290409564971924,-16.1656494140625,-45.96477508544922,-199.5803985595703,-460.0474548339844,-28.05000114440918,13.050000190734863,-17.55000114440918
7.03,92.78010559082031,-4.022258758544922,-15.85919189453125,-26.379785537719727,-209.03981018066406,-461.646240234375,-26.55000114440918,13.800000190734863,-18.30000114440918
7.034,92.85671997070312,-3.5625722408294678,-15.054739952087402,-0.39969372749328613,-214.50228881835938,-455.91729736328125,-25.05000114440918,15.450000762939453,-20.100000381469727
7.041,93.31640625,-3.44765043258667,-13.48414421081543,16.920366287231445,-220.09800720214844,-453.6523742675781,-23.400001525878906,17.55000114440918,-20.700000762939453
7.05,93.62286376953125,-4.32871675491333,-12.947842597961426,14.788667678833008,-228.6248016357422,-452.4532775878906,-23.400001525878906,17.55000114440918,-20.700000762939453
7.06,94.542236328125,-7.240066051483154,-11.530475616455078,19.31852912902832,-229.5574188232422,-432.3353576660156,-19.650001525878906,19.5,-21.75
