time,accel_x,accel_y,accel_z,gyro_x,gyro_y,gyro_z,mag_x,mag_y,mag_z
0.0,3.613162040710449,-8.926424980163574,1.8831512928009033,0.010842857882380486,-0.01313360221683979,0.010690141469240189,-50.0,47.89535140991211,-36.96287536621094
0.009,3.5712878704071045,-8.949155807495117,1.9130616188049316,0.013439035043120384,-0.0004581489192787558,0.005955935921519995,-50.65769958496094,48.216896057128906,-37.679039001464844
0.019,3.5605199337005615,-9.032905578613281,1.9166508913040161,0.01038470957428217,0.007635815534740686,0.0013744467869400978,-49.795379638671875,48.18766403198242,-37.065185546875
0.029,3.5784661769866943,-9.053244590759277,1.8855441808700562,0.011759155429899693,0.023060161620378494,-0.0009162978385575116,-49.86845779418945,48.17304992675781,-37.86904525756836
0.039,3.576073169708252,-9.013762474060059,1.9130616188049316,0.010690141469240189,0.04199698567390442,-0.0022907445672899485,-49.42999267578125,48.27535629272461,-37.079803466796875
0.058,3.5880372524261475,-8.944371223449707,1.8855441808700562,0.006872233934700489,0.04703662171959877,-0.012675453908741474,-49.41537857055664,47.866119384765625,-37.26980209350586
0.062,3.528217077255249,-8.907281875610352,1.8221343755722046,0.006872233934700489,0.04581489413976669,-0.012522736564278603,-49.605377197265625,48.17304992675781,-37.57673263549805
0.069,3.521038293838501,-8.908477783203125,1.8317056894302368,0.012828170321881771,0.03588833287358284,-0.013286319561302662,-49.37152862548828,48.845367431640625,-36.96287536621094
0.079,3.513859748840332,-8.97667407989502,1.8197414875030518,0.0177150908857584,0.01817324012517929,-0.006872233934700489,-49.795379638671875,48.289974212646484,-37.62057876586914
0.089,3.486342430114746,-9.038887023925781,1.8508483171463013,0.018936822190880775,0.007635815534740686,0.0007635815418325365,-49.95615005493164,48.085357666015625,-37.91289138793945
0.1,3.4779675006866455,-9.049654960632324,1.867598056793213,0.01038470957428217,0.006261368282139301,0.00809396430850029,-49.51768493652344,47.909969329833984,-37.69365692138672
0.118,3.480360507965088,-9.007781028747559,1.8508483171463013,-0.007941247895359993,0.025961771607398987,0.008704829961061478,-49.91230773925781,47.67612075805664,-38.015201568603516
0.122,3.5126636028289795,-8.957530975341797,1.8424733877182007,-0.010231993161141872,0.030085112899541855,0.009162978269159794,-49.41537857055664,47.77842712402344,-38.07366180419922
0.129,3.5581271648406982,-8.907281875610352,1.8424733877182007,-0.010537425056099892,0.033139437437057495,0.009010262787342072,-49.766151428222656,48.099971771240234,-37.78135299682617
0.139,3.617947816848755,-8.854640007019043,1.8149559497833252,-0.010995574295520782,0.029474247246980667,0.0064140851609408855,-49.50307083129883,47.80765914916992,-38.205204010009766
0.149,3.671786069869995,-8.831908226013184,1.8041881322860718,-0.004581489134579897,0.017562376335263252,0.0039706239476799965,-50.263084411621094,47.95381546020508,-38.395206451416016
0.159,3.783052444458008,-8.927620887756348,1.8233308792114258,0.0029016099870204926,0.0044287727214396,0.0025961773935705423,-49.73691940307617,47.77842712402344,-37.3867301940918
0.179,3.7423744201660156,-8.97667407989502,1.8484554290771484,0.015118913725018501,0.006566801108419895,-0.001527163083665073,-49.86845779418945,47.61765670776367,-37.91289138793945
0.183,3.6837503910064697,-8.901299476623535,1.8795621395111084,0.012675453908741474,0.008399397134780884,-0.005497787147760391,-49.82461166381836,47.79304122924805,-37.43057632446289
0.189,3.644268751144409,-8.900103569030762,1.8951154947280884,0.0064140851609408855,0.014966198243200779,-0.01313360221683979,-49.97077178955078,48.17304992675781,-36.86056900024414
0.199,3.597608804702759,-8.949155807495117,1.8424733877182007,-0.0006108652451075613,0.028557950630784035,-0.022602012380957603,-50.263084411621094,47.909969329833984,-37.664424896240234
0.209,3.568894863128662,-8.934799194335938,1.810170292854309,-0.0004581489192787558,0.039095375686883926,-0.0277943667024374,-50.49692916870117,48.18766403198242,-37.474422454833984
0.219,3.548555612564087,-8.96112060546875,1.7778671979904175,0.009010262787342072,0.02672535367310047,-0.01924225501716137,-49.86845779418945,47.8807373046875,-37.50365447998047
0.239,3.5509486198425293,-8.96949577331543,1.794616937637329,0.016951510682702065,-0.0064140851609408855,-0.006108652334660292,-50.40924072265625,47.76381301879883,-37.57673263549805
0.243,3.5545380115509033,-8.964709281921387,1.7898313999176025,0.01725694164633751,-0.009773843921720982,-0.0029016099870204926,-49.86845779418945,48.17304992675781,-37.664424896240234
0.249,3.5605199337005615,-9.016155242919922,1.8245272636413574,0.013591751456260681,-0.013439035043120384,-0.0012217304902151227,-50.19000244140625,47.82227325439453,-38.263668060302734
0.259,3.62153697013855,-8.95992374420166,1.8269200325012207,0.006261368282139301,-0.01160643994808197,-0.002138028386980295,-49.48845672607422,47.63227081298828,-37.53288269042969
0.269,3.6837503910064697,-8.940781593322754,1.8149559497833252,-0.0024434609804302454,-0.006108652334660292,-0.003359758760780096,-50.526161193847656,48.041507720947266,-37.7667350769043
0.279,3.723231792449951,-8.847461700439453,1.8221343755722046,-0.0010690141934901476,-0.0007635815418325365,-0.008246680721640587,-50.07307434082031,48.23151397705078,-37.591346740722656
0.298,3.779463291168213,-8.886942863464355,1.8113667964935303,0.007941247895359993,-0.018325956538319588,-0.018478674814105034,-49.91230773925781,47.77842712402344,-37.649810791015625
0.303,3.7363924980163574,-8.934799194335938,1.781456470489502,0.01114829070866108,-0.02168571576476097,-0.018478674814105034,-49.98538589477539,47.1791877746582,-37.18210983276367
0.309,3.6885359287261963,-8.96231746673584,1.8029918670654297,0.016798794269561768,-0.02687807008624077,-0.021991148591041565,-49.88307571411133,47.924583435058594,-37.26980209350586
0.319,3.5712878704071045,-8.958727836608887,1.8257235288619995,0.021532999351620674,-0.03833179175853729,-0.023518310859799385,-50.3800048828125,47.77842712402344,-38.13212585449219
0.329,3.4372897148132324,-8.939584732055664,1.8269200325012207,0.021991148591041565,-0.04871650040149689,-0.02367102913558483,-50.0584602355957,47.89535140991211,-38.263668060302734
0.339,3.3403801918029785,-8.943174362182617,1.8340984582901,0.02733621932566166,-0.04505131021142006,-0.01725694164633751,-49.839229583740234,47.60304260253906,-38.11751174926758
0.358,3.2961132526397705,-9.001798629760742,1.9250258207321167,0.03039054572582245,-0.03741549327969551,0.0012217304902151227,-50.08769607543945,47.529964447021484,-38.00058364868164
0.362,3.2817561626434326,-8.993423461914062,1.9405790567398071,0.031001411378383636,-0.036041051149368286,0.0036651913542300463,-49.53229904174805,47.1791877746582,-37.69365692138672
0.369,3.3260233402252197,-9.06401252746582,1.9657037258148193,0.024129178375005722,-0.025961771607398987,0.009926560334861279,-50.02922821044922,47.89535140991211,-38.08827590942383
0.379,3.4205398559570312,-9.075976371765137,1.9645073413848877,0.020158551633358,-0.013744467869400978,0.01725694164633751,-49.6199951171875,47.310726165771484,-37.34288024902344
0.389,3.4707889556884766,-9.030512809753418,1.9657037258148193,0.022449297830462456,0.0007635815418325365,0.02168571576476097,-50.43846893310547,47.661502838134766,-37.79596710205078
0.408,3.5126636028289795,-8.981459617614746,1.9728822708129883,0.02076941914856434,0.010079275816679,0.015882495790719986,-49.69307327270508,47.82227325439453,-37.92750549316406
0.412,3.542573928833008,-8.904889106750488,1.9070795774459839,0.022602012380957603,0.01970040239393711,0.0073303827084600925,-50.10231018066406,47.96842956542969,-37.591346740722656
0.419,3.607180118560791,-8.932406425476074,1.8867405652999878,0.02626720443367958,0.029626963660120964,0.0029016099870204926,-49.7223014831543,47.44226837158203,-37.839813232421875
0.429,3.644268751144409,-9.020940780639648,1.8927226066589355,0.03039054572582245,0.03756821155548096,-0.004123340360820293,-49.97077178955078,48.27535629272461,-38.11751174926758
0.439,3.6023943424224854,-9.014959335327148,1.8855441808700562,0.02626720443367958,0.04902193322777748,-0.01191187184303999,-49.86845779418945,47.734580993652344,-37.4451904296875
0.449,3.513859748840332,-8.98385238647461,1.7898313999176025,0.023060161620378494,0.06505714356899261,-0.018936822190880775,-50.39461898803711,48.50920867919922,-37.95673751831055
0.459,3.4755747318267822,-8.96112060546875,1.7670994997024536,0.019394971430301666,0.07498370856046677,-0.02626720443367958,-50.263084411621094,47.851505279541016,-37.91289138793945
0.477,3.5030922889709473,-9.0843505859375,1.7647066116333008,0.004734205547720194,0.07696902006864548,-0.025656340643763542,-49.780765533447266,48.056121826171875,-37.57673263549805
0.481,3.5222346782684326,-9.09152889251709,1.782652735710144,0.0029016099870204926,0.0754418596625328,-0.023518310859799385,-50.20461654663086,47.5591926574707,-37.664424896240234
0.49,3.5736804008483887,-9.056833267211914,1.7742778062820435,-0.004581489134579897,0.06139195337891579,-0.015271631069481373,-50.30692672729492,48.31920623779297,-38.278282165527344
0.499,3.6023943424224854,-8.963513374328613,1.769492268562317,-0.010842857882380486,0.04718933627009392,-0.009468411095440388,-50.2776985168457,48.17304992675781,-36.86056900024414
0.509,3.678964614868164,-8.890532493591309,1.7958134412765503,-0.01817324012517929,0.031612277030944824,-0.0088575454428792,-50.46770095825195,48.74305725097656,-37.4451904296875
0.528,3.6909286975860596,-8.85942554473877,1.794616937637329,-0.0138971833512187,0.013591751456260681,-0.003817907767370343,-49.766151428222656,48.041507720947266,-37.37211227416992
0.532,3.713660717010498,-8.804390907287598,1.7898313999176025,0.0024434609804302454,-0.006108652334660292,0.0025961773935705423,-50.45308303833008,48.289974212646484,-37.35749816894531
0.539,3.7316067218780518,-8.861818313598633,1.8544374704360962,0.009468411095440388,-0.016493361443281174,0.0032070425804704428,-50.2776985168457,47.836891174316406,-37.53288269042969
0.549,3.720839262008667,-8.95274543762207,1.8855441808700562,0.011301006190478802,-0.025656340643763542,0.002138028386980295,-50.51154327392578,48.56766891479492,-38.029815673828125
0.559,3.686143398284912,-8.9850492477417,1.9082759618759155,0.01542434748262167,-0.027641652151942253,0.0022907445672899485,-50.01461410522461,47.836891174316406,-38.029815673828125
0.569,3.6227335929870605,-8.9850492477417,1.9573287963867188,0.01618792861700058,-0.020922133699059486,0.0004581489192787558,-50.043846130371094,48.45074462890625,-37.605960845947266
0.579,3.5605199337005615,-8.95394229888916,1.9465612173080444,0.008399397134780884,-0.007177666295319796,-0.0022907445672899485,-50.233848571777344,48.50920867919922,-37.649810791015625
0.593,3.4683964252471924,-8.96949577331543,1.9334007501602173,0.005497787147760391,0.018936822190880775,-0.009010262787342072,-50.86231994628906,48.50920867919922,-38.015201568603516
0.599,3.5018956661224365,-8.989834785461426,1.939382791519165,0.0050396379083395,0.03176499158143997,-0.014813481830060482,-50.49692916870117,48.18766403198242,-37.78135299682617
0.609,3.5150563716888428,-9.013762474060059,1.9525432586669922,0.0006108652451075613,0.04398229718208313,-0.015271631069481373,-50.43846893310547,48.114585876464844,-37.401344299316406
0.619,3.535395383834839,-8.958727836608887,1.956132411956787,-0.0044287727214396,0.04505131021142006,-0.014355332590639591,-50.42385482788086,48.2607421875,-37.73750305175781
0.629,3.531806230545044,-8.906085968017578,1.9094724655151367,-0.0044287727214396,0.03039054572582245,-0.014508049935102463,-50.10231018066406,48.465362548828125,-38.49751663208008
0.649,3.511467218399048,-8.849854469299316,1.9154545068740845,0.002138028386980295,0.01970040239393711,-0.01878410577774048,-50.0584602355957,48.289974212646484,-38.04443359375
0.653,3.5090742111206055,-8.876174926757812,1.9118653535842896,0.01038470957428217,-0.0025961773935705423,-0.018478674814105034,-50.29231262207031,48.1584358215332,-38.05904769897461
0.659,3.5030922889709473,-8.888139724731445,1.9106688499450684,0.01725694164633751,-0.012980885803699493,-0.0177150908857584,-50.160770416259766,48.056121826171875,-37.25518798828125
0.669,3.451646566390991,-8.874979019165039,1.9130616188049316,0.02672535367310047,-0.016951510682702065,-0.011453723534941673,-50.350772857666016,47.89535140991211,-37.839813232421875
0.679,3.425325632095337,-8.889335632324219,1.9537396430969238,0.03405573591589928,-0.020922133699059486,-0.004123340360820293,-50.02922821044922,47.851505279541016,-37.854427337646484
0.689,3.462414264678955,-8.951549530029297,1.9848462343215942,0.035735614597797394,-0.017867807298898697,-0.0006108652451075613,-50.61385726928711,48.026893615722656,-37.839813232421875
0.709,3.493520736694336,-9.001798629760742,1.9609181880950928,0.03191770985722542,-0.007635815534740686,0.004581489134579897,-50.10231018066406,47.924583435058594,-38.1467399597168
0.713,3.500699520111084,-9.044869422912598,1.971685767173767,0.023060161620378494,0.020616700872778893,0.0006108652451075613,-50.24846649169922,48.1584358215332,-37.7228889465332
0.719,3.530609607696533,-9.05563735961914,1.97407865524292,0.020311269909143448,0.028557950630784035,-0.0027488935738801956,-50.160770416259766,48.01227569580078,-38.13212585449219
0.729,3.521038293838501,-9.028119087219238,1.92741858959198,0.013744467869400978,0.058795779943466187,-0.01191187184303999,-50.160770416259766,48.37766647338867,-37.45980453491211
0.739,3.4959137439727783,-8.919245719909668,1.817348837852478,0.014202617108821869,0.08552113175392151,-0.018325956538319588,-50.39461898803711,48.099971771240234,-37.51826858520508
0.749,3.4719855785369873,-8.863015174865723,1.8448662757873535,0.01542434748262167,0.0962112694978714,-0.022449297830462456,-51.02309036254883,48.33382034301758,-37.109031677246094
0.769,3.506681442260742,-8.940781593322754,1.8065810203552246,0.010079275816679,0.08933904021978378,-0.023365594446659088,-50.3215446472168,47.96842956542969,-38.04443359375
0.773,3.62153697013855,-9.043672561645508,1.769492268562317,0.0177150908857584,0.06536258012056351,-0.0177150908857584,-49.91230773925781,48.43613052368164,-37.54750061035156
0.779,3.6406795978546143,-9.056833267211914,1.7910276651382446,0.021838432177901268,0.0507018156349659,-0.013286319561302662,-49.91230773925781,47.9391975402832,-37.62057876586914
0.789,3.6646077632904053,-9.080760955810547,1.84965181350708,0.020616700872778893,0.02626720443367958,-0.003359758760780096,-49.97077178955078,48.406898498535156,-38.38058853149414
0.8,3.627518892288208,-9.097511291503906,1.852044701576233,0.012217304669320583,0.02474004216492176,-0.0018325956771150231,-50.10231018066406,48.421512603759766,-38.13212585449219
0.809,3.655036449432373,-9.109475135803223,1.8795621395111084,0.0007635815418325365,0.032681290060281754,-0.0088575454428792,-49.91230773925781,48.31920623779297,-38.62905502319336
0.829,3.686143398284912,-9.022137641906738,1.86520516872406,-0.012064589187502861,0.043676864355802536,-0.019547687843441963,-49.6784553527832,48.421512603759766,-37.474422454833984
0.832,3.6873395442962646,-8.837889671325684,1.8065810203552246,-0.025656340643763542,0.05955936014652252,-0.03634648025035858,-50.11692810058594,47.909969329833984,-37.95673751831055
0.839,3.702892780303955,-8.755337715148926,1.794616937637329,-0.028710665181279182,0.06215553730726242,-0.043676864355802536,-50.30692672729492,48.17304992675781,-37.45980453491211
0.849,3.726821184158325,-8.663214683532715,1.746760368347168,-0.02474004216492176,0.06001751124858856,-0.0503963828086853,-50.2776985168457,48.17304992675781,-38.234432220458984
0.859,3.741178274154663,-8.682356834411621,1.7371891736984253,-0.011453723534941673,0.044287726283073425,-0.046731188893318176,-50.29231262207031,47.99766159057617,-37.89827346801758
0.869,3.7363924980163574,-8.763712882995605,1.7611173391342163,0.0073303827084600925,0.011453723534941673,-0.03329215571284294,-50.70154571533203,48.43613052368164,-38.04443359375
0.889,3.6466617584228516,-8.922835350036621,1.8412768840789795,0.022143863141536713,-0.025656340643763542,-0.01542434748262167,-49.94153594970703,47.82227325439453,-37.664424896240234
0.893,3.61435866355896,-8.994619369506836,1.8963117599487305,0.03481931984424591,-0.07376197725534439,0.007788531482219696,-50.043846130371094,47.80765914916992,-37.31365203857422
0.899,3.535395383834839,-8.986245155334473,1.9489539861679077,0.03985895588994026,-0.0861319974064827,0.020311269909143448,-50.07307434082031,47.82227325439453,-38.190589904785156
0.909,3.5270204544067383,-8.994619369506836,2.00518536567688,0.03878994286060333,-0.0861319974064827,0.028099801391363144,-50.89155578613281,47.96842956542969,-37.15288162231445
0.919,3.455235719680786,-8.963513374328613,2.00518536567688,0.03405573591589928,-0.06918048858642578,0.02977968007326126,-50.10231018066406,48.1584358215332,-37.92750549316406
0.929,3.4205398559570312,-8.918049812316895,2.0099709033966064,0.02626720443367958,-0.038637224584817886,0.02321287989616394,-50.62847137451172,47.95381546020508,-37.035953521728516
0.949,3.476771354675293,-8.882157325744629,1.990828275680542,0.017562376335263252,-0.0012217304902151227,0.012522736564278603,-50.0,48.216896057128906,-38.17597198486328
0.953,3.579662799835205,-8.908477783203125,1.9154545068740845,0.015271631069481373,0.030085112899541855,0.001679879380390048,-50.3215446472168,48.45074462890625,-37.839813232421875
0.959,3.6119656562805176,-8.993423461914062,1.8795621395111084,0.016798794269561768,0.044745877385139465,-0.007177666295319796,-49.80999755859375,47.456886291503906,-37.474422454833984
0.969,3.676571846008301,-9.120243072509766,1.8795621395111084,0.02367102913558483,0.06643159687519073,-0.01542434748262167,-50.46770095825195,47.74919891357422,-38.13212585449219
0.979,3.6981072425842285,-9.105886459350586,1.8424733877182007,0.03039054572582245,0.08720101416110992,-0.02519819140434265,-50.540775299072266,47.80765914916992,-38.73136520385742
0.989,3.6023943424224854,-8.956335067749023,1.813759446144104,0.02672535367310047,0.10949759185314178,-0.037110064178705215,-50.70154571533203,47.836891174316406,-38.71674728393555
1.009,3.5258240699768066,-8.801998138427734,1.7443677186965942,0.004123340360820293,0.10995574295520782,-0.06185010448098183,-50.68693161010742,48.114585876464844,-38.234432220458984
1.013,3.5162527561187744,-8.8438720703125,1.6845470666885376,-0.001527163083665073,0.10064005106687546,-0.06612616032361984,-50.29231262207031,48.099971771240234,-37.854427337646484
1.019,3.5126636028289795,-8.903693199157715,1.6737794876098633,-0.0029016099870204926,0.07819075137376785,-0.06643159687519073,-50.01461410522461,47.69073486328125,-37.7667350769043
1.029,3.55932354927063,-8.998208999633789,1.714457392692566,0.003512475173920393,0.040622539818286896,-0.055894169956445694,-50.789241790771484,48.18766403198242,-38.789825439453125
1.039,3.5581271648406982,-8.995816230773926,1.7623138427734375,0.012675453908741474,-0.0012217304902151227,-0.028557950630784035,-50.233848571777344,47.98304748535156,-38.05904769897461
1.049,3.5330023765563965,-9.005387306213379,1.868794322013855,0.012217304669320583,-0.01817324012517929,-0.005497787147760391,-50.526161193847656,47.95381546020508,-37.62057876586914
1.069,3.5341989994049072,-8.96949577331543,1.9286149740219116,0.0050396379083395,-0.012828170321881771,0.009621127508580685,-50.46770095825195,47.924583435058594,-37.53288269042969
1.073,3.5365920066833496,-8.879764556884766,1.9142580032348633,-0.01313360221683979,0.006566801108419895,0.012828170321881771,-50.65769958496094,47.63227081298828,-37.95673751831055
1.079,3.589233875274658,-8.907281875610352,1.887937068939209,-0.015882495790719986,0.02519819140434265,0.00809396430850029,-50.68693161010742,47.456886291503906,-38.00058364868164
1.089,3.759124279022217,-9.060422897338867,1.9489539861679077,-0.021838432177901268,0.051770828664302826,0.006108652334660292,-50.555397033691406,47.99766159057617,-37.51826858520508
1.099,3.9003007411956787,-9.205188751220703,1.9669002294540405,-0.024892758578062057,0.06902776658535004,0.0019853119738399982,-50.233848571777344,47.41303634643555,-38.029815673828125
1.109,3.8835508823394775,-8.9850492477417,1.9453648328781128,-0.02321287989616394,0.06475171446800232,-0.009162978269159794,-50.71616744995117,48.085357666015625,-37.89827346801758
1.128,3.858426570892334,-8.592625617980957,1.8819550275802612,-0.023518310859799385,0.01038470957428217,-0.03191770985722542,-50.789241790771484,48.114585876464844,-37.92750549316406
1.132,3.909872055053711,-8.560322761535645,1.8867405652999878,-0.021991148591041565,0.002138028386980295,-0.03344487026333809,-50.68693161010742,47.924583435058594,-37.211341857910156
1.139,3.8835508823394775,-8.547162055969238,1.8843477964401245,-0.015271631069481373,-0.019547687843441963,-0.03451388329267502,-50.46770095825195,47.529964447021484,-37.62057876586914
1.149,3.8464622497558594,-8.599804878234863,1.887937068939209,0.0088575454428792,-0.05803219974040985,-0.035735614597797394,-50.350772857666016,47.57380676269531,-37.86904525756836
1.159,3.775874137878418,-8.785247802734375,1.935793399810791,0.032070424407720566,-0.08506298810243607,-0.033597588539123535,-50.3800048828125,47.58842468261719,-38.55597686767578
1.169,3.627518892288208,-8.870193481445312,1.932204246520996,0.05207626149058342,-0.10980302840471268,-0.02428189292550087,-50.49692916870117,47.500728607177734,-37.86904525756836
1.188,3.4480574131011963,-8.94556713104248,1.956132411956787,0.09651671350002289,-0.1368338167667389,-0.01542434748262167,-50.39461898803711,47.98304748535156,-37.474422454833984
1.192,3.2853453159332275,-9.053244590759277,2.0231313705444336,0.09972374886274338,-0.13805553317070007,-0.01237002108246088,-50.48231506347656,48.01227569580078,-37.75211715698242
1.199,3.2135608196258545,-9.102296829223633,2.060220241546631,0.10170906037092209,-0.1310305893421173,-0.009621127508580685,-50.30692672729492,47.89535140991211,-37.25518798828125
1.209,3.0867412090301514,-9.159724235534668,2.097308874130249,0.09392052888870239,-0.10613783448934555,-0.004734205547720194,-50.45308303833008,48.465362548828125,-38.1467399597168
1.219,3.019742250442505,-9.18604564666748,2.1332013607025146,0.0786488950252533,-0.07513642311096191,-0.0039706239476799965,-50.30692672729492,47.5591926574707,-37.98596954345703
1.229,3.1058835983276367,-9.182456970214844,2.1810576915740967,0.05696318298578262,-0.038026362657547,0.001679879380390048,-50.49692916870117,48.01227569580078,-38.1028938293457
1.249,3.1920251846313477,-8.979066848754883,2.1332013607025146,0.0003054326225537807,0.05146539583802223,0.005192354787141085,-49.82461166381836,48.655364990234375,-38.5267448425293
1.252,3.253042459487915,-8.9850492477417,2.0985054969787598,-0.009926560334861279,0.07101307809352875,0.001679879380390048,-50.08769607543945,48.845367431640625,-37.839813232421875
1.259,3.342773199081421,-9.103493690490723,2.080559253692627,-0.017867807298898697,0.09285151958465576,-0.004886921960860491,-50.0584602355957,48.34843444824219,-37.708274841308594
1.269,3.4755747318267822,-9.183652877807617,2.0410776138305664,-0.01878410577774048,0.11484266072511673,-0.0064140851609408855,-50.0,48.684593200683594,-37.89827346801758
1.279,3.517449140548706,-9.083154678344727,1.971685767173767,-0.0064140851609408855,0.13011428713798523,-0.0050396379083395,-49.70768737792969,47.866119384765625,-37.81058120727539
1.289,3.5365920066833496,-8.886942863464355,1.9214365482330322,0.007024950347840786,0.13240504264831543,-0.001527163083665073,-50.49692916870117,48.114585876464844,-38.08827590942383
1.305,3.6011979579925537,-8.943174362182617,1.9310078620910645,0.019853120669722557,0.09789115190505981,0.0006108652451075613,-49.94153594970703,48.17304992675781,-37.474422454833984
1.31,3.641875982284546,-9.025726318359375,1.9537396430969238,0.024587325751781464,0.0835358202457428,0.002138028386980295,-50.46770095825195,47.95381546020508,-37.635196685791016
1.319,3.600001335144043,-9.047262191772461,1.9657037258148193,0.03497203439474106,0.0555887334048748,0.0073303827084600925,-50.10231018066406,47.909969329833984,-38.17597198486328
1.329,3.5605199337005615,-8.986245155334473,2.032702684402466,0.033597588539123535,0.02428189292550087,0.014049900695681572,-50.81847381591797,48.45074462890625,-37.89827346801758
1.339,3.4432716369628906,-8.943174362182617,2.032702684402466,0.026114489883184433,-0.010842857882380486,0.014049900695681572,-50.263084411621094,47.96842956542969,-37.299034118652344
1.349,3.3990042209625244,-8.924031257629395,1.9968103170394897,0.025503622367978096,-0.020922133699059486,0.010231993161141872,-50.526161193847656,48.20227813720703,-37.854427337646484
1.368,3.3343982696533203,-9.037691116333008,2.043470621109009,0.02122756652534008,0.02275473065674305,-0.0027488935738801956,-50.3215446472168,47.544578552246094,-38.30751037597656
1.372,3.2997024059295654,-9.044869422912598,2.0470597743988037,0.012064589187502861,0.040164388716220856,-0.007635815534740686,-50.3215446472168,47.60304260253906,-38.55597686767578
1.379,3.2745776176452637,-9.040083885192871,2.0159530639648438,-0.0036651913542300463,0.06872233748435974,-0.018478674814105034,-50.146156311035156,47.74919891357422,-38.205204010009766
1.389,3.269791841506958,-8.97787094116211,1.978864312171936,-0.02428189292550087,0.10094548016786575,-0.03634648025035858,-50.13154220581055,48.041507720947266,-38.97983169555664
1.399,3.3092734813690186,-8.918049812316895,1.94297194480896,-0.042760565876960754,0.12767083942890167,-0.05146539583802223,-49.80999755859375,47.427650451660156,-39.16983413696289
1.418,3.376272678375244,-8.870193481445312,1.9142580032348633,-0.0607810914516449,0.1270599663257599,-0.06352998316287994,-50.65769958496094,47.98304748535156,-38.07366180419922
1.422,3.497110366821289,-8.840283393859863,1.8664016723632812,-0.06001751124858856,0.10842858254909515,-0.06658431142568588,-49.92692184448242,47.61765670776367,-38.29289627075195
1.429,3.5437703132629395,-8.85224723815918,1.8376877307891846,-0.05054909735918045,0.09529497474431992,-0.059406641870737076,-50.350772857666016,48.085357666015625,-37.45980453491211
1.439,3.6299118995666504,-8.906085968017578,1.832902193069458,-0.03329215571284294,0.07391469925642014,-0.03848451003432274,-50.3215446472168,48.12919998168945,-37.679039001464844
1.449,3.69930362701416,-8.95992374420166,1.88075852394104,-0.016951510682702065,0.05574145168066025,-0.01664607785642147,-50.30692672729492,48.37766647338867,-37.24057388305664
1.459,3.7016966342926025,-8.947959899902344,1.868794322013855,-0.004734205547720194,0.03405573591589928,0.005803219974040985,-50.30692672729492,47.96842956542969,-37.73750305175781
1.469,3.702892780303955,-8.885746002197266,1.8903299570083618,0.00015271631127689034,0.024434609338641167,0.016493361443281174,-50.42385482788086,48.056121826171875,-38.263668060302734
1.483,3.7076785564422607,-8.926424980163574,1.9489539861679077,0.0013744467869400978,0.019547687843441963,0.023976460099220276,-50.570011138916016,47.70534896850586,-38.89213943481445
1.49,3.678964614868164,-8.989834785461426,1.9704893827438354,0.0009162978385575116,0.02382374368607998,0.02275473065674305,-50.86231994628906,47.866119384765625,-39.4621467590332
1.499,3.6466617584228516,-9.022137641906738,1.9609181880950928,0.003817907767370343,0.0377209298312664,0.013591751456260681,-50.17538833618164,47.661502838134766,-38.4828987121582
1.509,3.645465135574341,-8.974281311035156,1.9441683292388916,0.0025961773935705423,0.05757404863834381,-0.0013744467869400978,-50.964630126953125,47.851505279541016,-39.023677825927734
1.519,3.6670005321502686,-8.85224723815918,1.9154545068740845,0.00015271631127689034,0.07437284290790558,-0.01863138936460018,-51.06694030761719,47.44226837158203,-38.29289627075195
1.539,3.7363924980163574,-8.70508861541748,1.8628122806549072,-0.0003054326225537807,0.09453140199184418,-0.039095375686883926,-50.584625244140625,47.67612075805664,-38.54136276245117
1.542,3.8261232376098633,-8.543573379516602,1.8245272636413574,0.0039706239476799965,0.10277807712554932,-0.057879481464624405,-50.584625244140625,47.74919891357422,-38.4244384765625
1.549,3.9014973640441895,-8.48614501953125,1.8041881322860718,0.01191187184303999,0.09728028625249863,-0.06368270516395569,-50.71616744995117,47.836891174316406,-37.91289138793945
1.559,3.9361932277679443,-8.469395637512207,1.7970097064971924,0.02977968007326126,0.07162395119667053,-0.07147122919559479,-50.87693786621094,48.041507720947266,-38.161354064941406
1.569,3.950549840927124,-8.569893836975098,1.86520516872406,0.03787364438176155,0.04856378585100174,-0.0731511116027832,-51.0815544128418,47.69073486328125,-38.71674728393555
1.579,3.9589247703552246,-8.822336196899414,1.8640087842941284,0.047800205647945404,0.036193765699863434,-0.07360926270484924,-50.62847137451172,47.486114501953125,-39.25752639770508
1.598,3.950549840927124,-9.043672561645508,1.9298113584518433,0.05314527824521065,0.02886338159441948,-0.07422012835741043,-51.09617233276367,47.734580993652344,-38.71674728393555
1.603,3.8739798069000244,-9.273384094238281,1.9848462343215942,0.039095375686883926,0.0277943667024374,-0.06444628536701202,-50.89155578613281,47.5591926574707,-39.1844482421875
1.609,3.8261232376098633,-9.292526245117188,1.9704893827438354,0.027183502912521362,0.031154125928878784,-0.06108652427792549,-51.0815544128418,47.851505279541016,-38.54136276245117
1.619,3.6598219871520996,-9.190832138061523,1.8927226066589355,0.010231993161141872,0.035735614597797394,-0.054367005825042725,-50.979244232177734,47.70534896850586,-38.05904769897461
1.629,3.5294132232666016,-9.117850303649902,1.8293129205703735,-0.0004581489192787558,0.035582900047302246,-0.04489859566092491,-50.950016021728516,47.77842712402344,-38.35136032104492
1.639,3.452842950820923,-9.156135559082031,1.836491346359253,-0.005192354787141085,0.029626963660120964,-0.02932153083384037,-51.02309036254883,47.67612075805664,-38.04443359375
1.659,3.46600341796875,-9.174081802368164,1.8257235288619995,-0.011759155429899693,0.012217304669320583,-0.0088575454428792,-51.22771453857422,47.79304122924805,-39.82753372192383
1.662,3.479163885116577,-9.001798629760742,1.872383713722229,-0.0138971833512187,-0.04841107130050659,0.030237827450037003,-50.68693161010742,47.99766159057617,-38.804443359375
1.669,3.5030922889709473,-8.939584732055664,1.9190436601638794,-0.009468411095440388,-0.07987063378095627,0.04764748737215996,-50.86231994628906,48.07073974609375,-39.023677825927734
1.679,3.5270204544067383,-8.85942554473877,1.9764714241027832,0.0006108652451075613,-0.11209376901388168,0.06887505203485489,-50.65769958496094,47.09149169921875,-39.418296813964844
1.689,3.542573928833008,-8.85942554473877,2.0362918376922607,0.008704829961061478,-0.12247847765684128,0.07925976812839508,-50.73078155517578,48.041507720947266,-39.4621467590332
1.7,3.6047871112823486,-8.883354187011719,2.091326951980591,0.015882495790719986,-0.11530081182718277,0.08032877743244171,-50.49692916870117,48.01227569580078,-39.4621467590332
1.719,3.675375461578369,-8.935996055603027,2.172683000564575,0.010079275816679,-0.08552113175392151,0.06887505203485489,-50.789241790771484,47.2230339050293,-39.19906234741211
1.723,3.7495527267456055,-8.947959899902344,2.179861307144165,-0.006261368282139301,-0.035124752670526505,0.047800205647945404,-50.87693786621094,47.500728607177734,-38.5267448425293
1.729,3.7746775150299072,-8.854640007019043,2.122433662414551,-0.013591751456260681,0.008246680721640587,0.03375030308961868,-50.365386962890625,47.5591926574707,-39.769073486328125
1.739,3.8333017826080322,-8.644071578979492,2.060220241546631,-0.014049900695681572,0.05619960278272629,0.010079275816679,-50.46770095825195,47.39842224121094,-39.35983657836914
1.749,3.920639753341675,-8.465806007385254,2.063809394836426,-0.00855211354792118,0.076052725315094,-0.008246680721640587,-50.3800048828125,47.661502838134766,-39.81291961669922
1.759,3.9864423274993896,-8.435895919799805,2.0865414142608643,-0.0029016099870204926,0.06475171446800232,-0.02626720443367958,-49.98538589477539,47.41303634643555,-38.89213943481445
1.78,4.12642240524292,-8.50169849395752,2.0961124897003174,0.010079275816679,0.01313360221683979,-0.04214970022439957,-50.789241790771484,47.909969329833984,-39.47676086425781
1.783,4.204189300537109,-8.798408508300781,2.194218397140503,0.02672535367310047,-0.03497203439474106,-0.04459316283464432,-50.29231262207031,47.71996307373047,-39.52061080932617
1.789,4.199403762817383,-8.912067413330078,2.2097716331481934,0.03878994286060333,-0.04398229718208313,-0.04337143152952194,-50.2776985168457,47.64688491821289,-39.038291931152344
1.799,4.097708702087402,-9.001798629760742,2.2468602657318115,0.051312681287527084,-0.03039054572582245,-0.04382958263158798,-50.65769958496094,47.33995819091797,-39.959075927734375
1.809,3.9948172569274902,-9.000602722167969,2.2576282024383545,0.04718933627009392,-0.0088575454428792,-0.0429132841527462,-51.0815544128418,47.71996307373047,-40.002925872802734
1.819,3.786641836166382,-8.861818313598633,2.203789472579956,0.036651913076639175,0.018936822190880775,-0.04612032324075699,-50.2776985168457,47.33995819091797,-39.91522979736328
1.839,3.597608804702759,-8.761320114135742,2.066202163696289,0.031154125928878784,0.03955352306365967,-0.04612032324075699,-51.02309036254883,47.281497955322266,-40.017539978027344
1.843,3.428914785385132,-8.788837432861328,2.0099709033966064,0.03222314268350601,0.048258356750011444,-0.038179077208042145,-50.49692916870117,47.51534652709961,-40.04676818847656
1.849,3.427718162536621,-8.831908226013184,2.008774518966675,0.029626963660120964,0.044287726283073425,-0.03145955875515938,-51.31540298461914,47.924583435058594,-39.49137496948242
1.859,3.393022298812866,-8.980262756347656,2.00518536567688,0.029016099870204926,0.0328340083360672,-0.022449297830462456,-50.80385971069336,47.74919891357422,-39.389068603515625
1.869,3.4301111698150635,-9.09272575378418,2.0374884605407715,0.023518310859799385,0.017867807298898697,-0.0025961773935705423,-50.83308792114258,47.836891174316406,-39.27214050292969
1.879,3.513859748840332,-9.102296829223633,2.029113531112671,0.021532999351620674,-0.0013744467869400978,0.012675453908741474,-50.745399475097656,47.924583435058594,-39.43291473388672
1.899,3.607180118560791,-8.992227554321289,2.069791555404663,0.023518310859799385,-0.020005837082862854,0.02535090781748295,-51.213096618652344,47.61765670776367,-39.19906234741211
1.903,3.779463291168213,-8.895318031311035,2.148754596710205,0.025503622367978096,-0.03436116874217987,0.03649919852614403,-50.67231750488281,47.77842712402344,-39.140602111816406
1.909,3.8081772327423096,-8.878567695617676,2.14516544342041,0.023976460099220276,-0.032681290060281754,0.03848451003432274,-50.86231994628906,47.851505279541016,-39.30137634277344
1.919,3.912264823913574,-8.858229637145996,2.137986898422241,0.022602012380957603,-0.018936822190880775,0.02932153083384037,-50.51154327392578,47.544578552246094,-39.1844482421875
1.929,3.975674629211426,-8.810372352600098,2.1332013607025146,0.021380282938480377,-0.0012217304902151227,0.01710422709584236,-50.65769958496094,47.529964447021484,-39.213680267333984
1.939,3.9840495586395264,-8.724230766296387,2.100898265838623,0.020158551633358,0.013286319561302662,0.0073303827084600925,-50.90616989135742,47.296112060546875,-39.593685150146484
1.958,3.9804604053497314,-8.577072143554688,2.0482561588287354,0.032681290060281754,0.0039706239476799965,-0.005955935921519995,-50.233848571777344,47.486114501953125,-39.65214920043945
1.962,3.9182469844818115,-8.522037506103516,1.9860427379608154,0.036193765699863434,-0.0022907445672899485,-0.007788531482219696,-50.5992431640625,47.79304122924805,-39.418296813964844
1.969,3.85483717918396,-8.591429710388184,2.0171494483947754,0.046273037791252136,-0.028405234217643738,-0.01664607785642147,-50.65769958496094,47.79304122924805,-38.97983169555664
1.979,3.810570001602173,-8.868996620178223,2.0398812294006348,0.04749477282166481,-0.044745877385139465,-0.02382374368607998,-50.65769958496094,47.456886291503906,-39.11137008666992
1.989,3.7531421184539795,-9.036494255065918,2.0614166259765625,0.044745877385139465,-0.04260785132646561,-0.02367102913558483,-50.350772857666016,48.026893615722656,-39.52061080932617
2.0,3.6574294567108154,-9.06999397277832,2.0614166259765625,0.04046982154250145,-0.03329215571284294,-0.02122756652534008,-50.46770095825195,47.500728607177734,-39.00905990600586
2.019,3.486342430114746,-8.868996620178223,1.9764714241027832,0.015118913725018501,-0.029168814420700073,-0.014202617108821869,-50.30692672729492,47.544578552246094,-38.70213317871094
2.022,3.4683964252471924,-8.870193481445312,1.9645073413848877,0.010842857882380486,-0.030695976689457893,-0.009010262787342072,-50.68693161010742,47.95381546020508,-39.023677825927734
2.029,3.4121649265289307,-8.885746002197266,1.9764714241027832,0.01664607785642147,-0.029626963660120964,0.0018325956771150231,-51.169246673583984,48.041507720947266,-38.848289489746094
2.039,3.3858439922332764,-9.06281566619873,2.0123636722564697,0.020463986322283745,-0.028405234217643738,0.012675453908741474,-50.555397033691406,47.60304260253906,-38.819061279296875
2.049,3.383450984954834,-9.168099403381348,2.053041696548462,0.014049900695681572,-0.021991148591041565,0.01863138936460018,-50.584625244140625,48.18766403198242,-38.24905014038086
2.059,3.4193434715270996,-9.049654960632324,2.0650060176849365,0.0,-0.0064140851609408855,0.02367102913558483,-49.853843688964844,48.026893615722656,-39.1259880065918
2.079,3.4959137439727783,-8.880961418151855,1.990828275680542,-0.007635815534740686,0.009468411095440388,0.0354301817715168,-50.19000244140625,47.64688491821289,-38.70213317871094
2.083,3.6681969165802,-8.799604415893555,2.001595973968506,-0.006566801108419895,0.011453723534941673,0.036193765699863434,-50.146156311035156,47.76381301879883,-38.93598175048828
2.089,3.6957144737243652,-8.848657608032227,2.025524377822876,-0.008704829961061478,0.010079275816679,0.03695734962821007,-50.71616744995117,48.041507720947266,-38.90675354003906
2.1,3.757927656173706,-8.935996055603027,2.0099709033966064,-0.012064589187502861,0.004123340360820293,0.027030786499381065,-49.766151428222656,47.486114501953125,-37.94212341308594
2.109,3.759124279022217,-8.925228118896484,1.9992032051086426,-0.012064589187502861,0.007024950347840786,0.0177150908857584,-50.45308303833008,47.70534896850586,-38.40982437133789
2.119,3.665804386138916,-8.785247802734375,1.92741858959198,-0.012980885803699493,0.0277943667024374,0.00855211354792118,-50.20461654663086,48.01227569580078,-38.17597198486328
2.139,3.387040376663208,-8.73499870300293,1.8352948427200317,-0.028710665181279182,0.08827002346515656,-0.031154125928878784,-50.19000244140625,47.734580993652344,-38.4828987121582
2.143,3.394218921661377,-8.825925827026367,1.8125630617141724,-0.03039054572582245,0.09560041129589081,-0.03649919852614403,-50.29231262207031,47.500728607177734,-38.263668060302734
2.149,3.4755747318267822,-9.011369705200195,1.8077774047851562,-0.03375030308961868,0.11423180252313614,-0.040622539818286896,-50.43846893310547,47.836891174316406,-38.599822998046875
2.159,3.616751194000244,-9.138189315795898,1.84965181350708,-0.027030786499381065,0.12324206531047821,-0.034666601568460464,-50.0584602355957,47.5591926574707,-39.24291229248047
2.169,3.6837503910064697,-9.10110092163086,1.9369899034500122,-0.01970040239393711,0.11423180252313614,-0.02519819140434265,-50.40924072265625,47.909969329833984,-38.819061279296875
2.179,3.862015724182129,-9.05444049835205,2.0099709033966064,-0.015882495790719986,0.0809396430850029,-0.010842857882380486,-50.993858337402344,47.60304260253906,-39.27214050292969
2.198,4.073780536651611,-8.93838882446289,2.0482561588287354,0.005650503095239401,0.009621127508580685,0.012675453908741474,-50.45308303833008,47.64688491821289,-38.68751907348633
2.203,4.095315933227539,-8.868996620178223,2.0614166259765625,0.017867807298898697,-0.0009162978385575116,0.016340645030140877,-50.24846649169922,47.456886291503906,-38.89213943481445
2.209,4.059423446655273,-8.785247802734375,2.049452543258667,0.03527746722102165,-0.02886338159441948,0.02076941914856434,-50.584625244140625,47.77842712402344,-38.13212585449219
2.219,3.961317777633667,-8.760123252868652,2.0721843242645264,0.05406157299876213,-0.06139195337891579,0.01924225501716137,-50.42385482788086,47.44226837158203,-38.51213073730469
2.229,3.864408493041992,-8.730213165283203,2.059023857116699,0.06383541971445084,-0.07254024595022202,0.008704829961061478,-50.526161193847656,47.9391975402832,-38.49751663208008
2.239,3.669393539428711,-8.751748085021973,2.011167287826538,0.0679587572813034,-0.047800205647945404,-0.0025961773935705423,-50.20461654663086,47.61765670776367,-38.49751663208008
2.257,3.452842950820923,-8.831908226013184,1.9453648328781128,0.057421330362558365,0.0277943667024374,-0.02580905519425869,-49.97077178955078,48.114585876464844,-37.8251953125
2.261,3.4408788681030273,-8.890532493591309,1.932204246520996,0.053908854722976685,0.04520402476191521,-0.030543262138962746,-50.2776985168457,47.64688491821289,-38.61444091796875
2.269,3.4504499435424805,-8.973084449768066,1.9465612173080444,0.046731188893318176,0.0607810914516449,-0.02825251594185829,-50.62847137451172,48.18766403198242,-38.62905502319336
2.279,3.445664644241333,-9.07119083404541,1.9776678085327148,0.04535674676299095,0.04566217586398125,-0.014813481830060482,-50.71616744995117,47.1791877746582,-38.33674621582031
2.289,3.4444680213928223,-9.110671997070312,2.0207386016845703,0.04489859566092491,0.008704829961061478,0.002138028386980295,-50.84770202636719,47.80765914916992,-38.1028938293457
2.308,3.407379150390625,-9.065208435058594,2.059023857116699,0.04398229718208313,-0.043218713253736496,0.021991148591041565,-50.65769958496094,47.529964447021484,-38.29289627075195
2.312,3.366701364517212,-8.981459617614746,2.084148406982422,0.03787364438176155,-0.10903944075107574,0.04734205827116966,-50.61385726928711,47.41303634643555,-37.649810791015625
2.319,3.3822548389434814,-8.933603286743164,2.108076810836792,0.03940080478787422,-0.14156801998615265,0.06230825185775757,-50.13154220581055,47.07687759399414,-38.43905258178711
2.329,3.40378999710083,-8.934799194335938,2.179861307144165,0.04657847434282303,-0.184939444065094,0.08460482954978943,-50.45308303833008,47.82227325439453,-38.29289627075195
2.339,3.4612178802490234,-8.876174926757812,2.2671992778778076,0.05314527824521065,-0.20295996963977814,0.10170906037092209,-50.21923065185547,47.20841979980469,-38.278282165527344
2.349,3.458824872970581,-8.801998138427734,2.2983059883117676,0.05619960278272629,-0.19226983189582825,0.11071932315826416,-50.42385482788086,48.056121826171875,-39.30137634277344
2.359,3.3810582160949707,-8.788837432861328,2.2959132194519043,0.06536258012056351,-0.1638645976781845,0.10583239793777466,-50.10231018066406,47.82227325439453,-38.4244384765625
2.371,3.298506021499634,-8.846264839172363,2.2803597450256348,0.06627887487411499,-0.09987646341323853,0.08521570265293121,-50.043846130371094,48.18766403198242,-38.599822998046875
2.379,3.180061101913452,-8.849854469299316,2.2468602657318115,0.06108652427792549,-0.0277943667024374,0.06902776658535004,-49.48845672607422,48.041507720947266,-38.89213943481445
2.389,3.0412774085998535,-8.830711364746094,2.163111686706543,0.04398229718208313,0.05009094625711441,0.04703662171959877,-50.19000244140625,48.099971771240234,-38.29289627075195
2.399,2.967099905014038,-8.842676162719727,2.0709879398345947,0.019547687843441963,0.12247847765684128,0.02733621932566166,-49.97077178955078,47.67612075805664,-38.99444580078125
2.409,2.9240291118621826,-8.815157890319824,1.9920247793197632,-0.012217304669320583,0.18829920887947083,0.006719517521560192,-50.07307434082031,48.2607421875,-38.658287048339844
2.429,2.8977081775665283,-8.658428192138672,1.8412768840789795,-0.04001167416572571,0.2457205355167389,-0.009621127508580685,-49.98538589477539,47.60304260253906,-38.789825439453125
2.433,3.1214370727539062,-8.895318031311035,1.753938913345337,-0.04612032324075699,0.2971859276294708,-0.024587325751781464,-50.80385971069336,48.33382034301758,-38.36597442626953
2.439,3.2781667709350586,-9.059226036071777,1.7754743099212646,-0.04382958263158798,0.30970868468284607,-0.026419920846819878,-50.43846893310547,47.96842956542969,-38.161354064941406
2.449,3.700500249862671,-9.260223388671875,1.8460626602172852,-0.038179077208042145,0.3126102685928345,-0.018478674814105034,-50.0,48.216896057128906,-38.585208892822266
2.459,4.003191947937012,-9.251848220825195,1.9453648328781128,-0.0328340083360672,0.29565879702568054,-0.0003054326225537807,-50.789241790771484,47.909969329833984,-38.92136764526367
2.469,4.265206336975098,-9.18604564666748,1.9824535846710205,-0.029474247246980667,0.2528982162475586,0.014355332590639591,-50.526161193847656,48.18766403198242,-38.819061279296875
2.488,4.460221290588379,-9.079565048217773,2.0027923583984375,-0.01878410577774048,0.18616119027137756,0.03145955875515938,-49.80999755859375,47.71996307373047,-38.1028938293457
2.492,4.467399597167969,-8.82951545715332,1.9381862878799438,0.021991148591041565,0.052839841693639755,0.05513058975338936,-50.51154327392578,47.500728607177734,-38.62905502319336
2.499,4.328616142272949,-8.723034858703613,1.8867405652999878,0.055894169956445694,-0.009621127508580685,0.06475171446800232,-50.146156311035156,47.64688491821289,-38.71674728393555
2.509,4.177868366241455,-8.629714965820312,1.8783657550811768,0.1036943718791008,-0.07819075137376785,0.07422012835741043,-50.365386962890625,48.026893615722656,-38.43905258178711
2.519,3.940978765487671,-8.608179092407227,1.8951154947280884,0.13759739696979523,-0.14782939851284027,0.07956519722938538,-50.2776985168457,47.9391975402832,-38.92136764526367
2.529,3.6813576221466064,-8.669196128845215,1.891526222229004,0.1638645976781845,-0.20494529604911804,0.07620543986558914,-50.336158752441406,48.114585876464844,-38.585208892822266
2.549,3.4133615493774414,-8.714659690856934,1.904686689376831,0.18387043476104736,-0.23869559168815613,0.0705549344420433,-49.839229583740234,48.085357666015625,-39.28675842285156
2.552,2.7840490341186523,-8.433503150939941,1.750349760055542,0.18600846827030182,-0.21945331990718842,0.07284567505121231,-50.17538833618164,48.12919998168945,-39.85676574707031
2.559,2.458625316619873,-8.234898567199707,1.696511149406433,0.18035796284675598,-0.18219056725502014,0.06169738993048668,-49.853843688964844,47.8807373046875,-39.5059928894043
2.569,2.1930220127105713,-8.093722343444824,1.6091731786727905,0.1511891484260559,-0.10766499489545822,0.027488935738801956,-50.08769607543945,48.36305236816406,-39.783687591552734
2.579,1.9764714241027832,-8.153542518615723,1.5792629718780518,0.10873401165008545,0.00427605677396059,-0.01542434748262167,-49.780765533447266,47.71996307373047,-38.848289489746094
2.589,2.1511476039886475,-8.333003997802734,1.5266207456588745,0.04718933627009392,0.19120082259178162,-0.06612616032361984,-50.07307434082031,48.596900939941406,-38.97983169555664
2.609,2.5746772289276123,-8.318647384643555,1.5086746215820312,-0.008704829961061478,0.33399054408073425,-0.08002334833145142,-49.853843688964844,48.494590759277344,-39.47676086425781
2.613,2.9970104694366455,-8.090132713317871,1.294516921043396,-0.05406157299876213,0.49327367544174194,-0.07895433157682419,-49.75153350830078,48.026893615722656,-39.579071044921875
2.619,3.2542386054992676,-8.181060791015625,1.1820544004440308,-0.058948494493961334,0.5816964507102966,-0.07635815441608429,-49.7223014831543,48.494590759277344,-40.134464263916016
2.629,3.6119656562805176,-8.47178840637207,0.9080761671066284,-0.05421429127454758,0.7055493593215942,-0.08032877743244171,-50.62847137451172,48.80152130126953,-40.762935638427734
2.639,4.061816215515137,-8.97667407989502,0.4905286133289337,-0.08155050873756409,0.8633052706718445,-0.09239336103200912,-49.97077178955078,48.30459213256836,-40.309852600097656
2.649,4.6193437576293945,-9.631111145019531,0.13998012244701385,-0.15943582355976105,0.8929322957992554,-0.11285734921693802,-50.146156311035156,48.465362548828125,-40.689857482910156
2.669,4.907679080963135,-9.899106979370117,0.27038896083831787,-0.27152958512306213,0.7531968355178833,-0.13255774974822998,-50.950016021728516,48.085357666015625,-40.66062545776367
2.673,4.977071285247803,-9.626324653625488,0.7130610942840576,-0.35552358627319336,0.4153883457183838,-0.08521570265293121,-50.62847137451172,47.734580993652344,-40.19292449951172
2.679,4.8538408279418945,-9.17288589477539,0.9152546525001526,-0.3344487249851227,0.19654588401317596,-0.053908854722976685,-50.46770095825195,47.80765914916992,-40.339080810546875
2.689,4.587040901184082,-8.556733131408691,1.2323036193847656,-0.18096882104873657,-0.15103644132614136,0.02672535367310047,-50.70154571533203,48.17304992675781,-39.65214920043945
2.699,4.2616167068481445,-8.233702659606934,1.5852450132369995,-0.01572977937757969,-0.4127922058105469,0.07070764899253845,-49.839229583740234,47.61765670776367,-39.564453125
2.709,3.9086756706237793,-8.172685623168945,1.7874385118484497,0.128434419631958,-0.6003278493881226,0.10125090926885605,-50.263084411621094,48.12919998168945,-40.64601135253906
2.729,3.6095728874206543,-8.092525482177734,1.7970097064971924,0.25503623485565186,-0.5688682198524475,0.1391245573759079,-50.146156311035156,48.114585876464844,-39.4621467590332
2.732,3.3104701042175293,-7.998009204864502,1.6546367406845093,0.2503020465373993,-0.5244278311729431,0.13836097717285156,-50.43846893310547,48.34843444824219,-39.66676330566406
2.739,3.1585259437561035,-7.895118236541748,1.4117653369903564,0.1999056488275528,-0.3433062732219696,0.11514809727668762,-49.590763092041016,48.20227813720703,-39.30137634277344
2.749,3.0855445861816406,-7.797012805938721,0.9188438653945923,-0.02535090781748295,0.0354301817715168,0.01863138936460018,-49.576148986816406,48.611515045166016,-39.4621467590332
2.759,3.008974552154541,-7.713263511657715,0.21296119689941406,-0.26862797141075134,0.23319780826568604,-0.10919215530157089,-50.0,48.45074462890625,-39.140602111816406
2.769,3.1166512966156006,-7.722835063934326,0.11844471842050552,-0.4167627990245819,0.2678644061088562,-0.2298380434513092,-50.43846893310547,48.099971771240234,-39.593685150146484
2.789,3.187239646911621,-8.02672290802002,0.31106695532798767,-0.4537201523780823,0.215482696890831,-0.28328877687454224,-50.40924072265625,48.421512603759766,-39.140602111816406
2.793,3.0867412090301514,-8.737391471862793,0.8626124858856201,-0.3917173445224762,0.12461650371551514,-0.25014930963516235,-50.160770416259766,48.289974212646484,-39.140602111816406
2.8,3.07716965675354,-8.98385238647461,1.168893814086914,-0.34727686643600464,0.10674870014190674,-0.20876319706439972,-50.540775299072266,47.8807373046875,-39.25752639770508
2.809,3.1405797004699707,-9.43489933013916,1.8065810203552246,-0.3145955801010132,0.12461650371551514,-0.15363259613513947,-50.83308792114258,47.74919891357422,-38.70213317871094
2.819,3.46600341796875,-9.525826454162598,2.2157537937164307,-0.3150537610054016,0.18768833577632904,-0.08628471195697784,-50.0,47.8807373046875,-40.149078369140625
2.829,3.862015724182129,-8.97547721862793,2.4083759784698486,-0.3168863356113434,0.20906862616539001,0.015118913725018501,-50.540775299072266,47.924583435058594,-39.140602111816406
2.848,3.913461446762085,-7.768298149108887,2.008774518966675,-0.1310305893421173,0.03726277872920036,0.18509215116500854,-50.62847137451172,48.596900939941406,-38.45366668701172
2.852,3.933800458908081,-7.747959613800049,1.9896320104599,-0.06887505203485489,-0.0007635815418325365,0.20463986694812775,-50.10231018066406,48.2607421875,-38.33674621582031
2.859,4.016352653503418,-7.792226791381836,2.0997018814086914,0.0025961773935705423,0.0,0.23884831368923187,-49.82461166381836,47.69073486328125,-39.05290985107422
2.869,4.185046672821045,-8.264808654785156,2.293520450592041,0.07712173461914062,0.06948591768741608,0.2866485118865967,-50.263084411621094,48.2607421875,-38.950599670410156
2.879,4.409972190856934,-9.006584167480469,2.499303102493286,0.15546520054340363,0.1371392458677292,0.32009339332580566,-49.91230773925781,48.20227813720703,-39.19906234741211
2.889,4.67078971862793,-9.619146347045898,2.640479564666748,0.24098633229732513,0.20234911143779755,0.3323107063770294,-50.46770095825195,48.17304992675781,-38.54136276245117
2.908,5.450850009918213,-10.307083129882812,2.8462624549865723,0.3637702465057373,0.2658790946006775,0.33337968587875366,-49.780765533447266,48.83074951171875,-39.66676330566406
2.911,5.533401966094971,-10.242477416992188,2.8247268199920654,0.39446622133255005,0.26145032048225403,0.33200523257255554,-49.853843688964844,49.049983978271484,-39.593685150146484
2.919,5.8923258781433105,-10.006784439086914,2.660818576812744,0.4541782736778259,0.26481008529663086,0.3459024429321289,-49.663841247558594,48.27535629272461,-39.87138366699219
2.929,6.034698486328125,-9.621540069580078,2.4466609954833984,0.5484042763710022,0.3145955801010132,0.3998112976551056,-49.4007568359375,48.655364990234375,-39.72522735595703
2.939,5.832504749298096,-9.371489524841309,2.2947168350219727,0.6382014751434326,0.41859540343284607,0.44425174593925476,-49.07921600341797,48.845367431640625,-39.769073486328125
2.949,5.572883605957031,-9.282955169677734,2.190629005432129,0.7162394523620605,0.52702397108078,0.4460843503475189,-48.90382766723633,49.37152862548828,-41.3037109375
2.969,5.328815937042236,-9.955338478088379,2.0745770931243896,0.859029233455658,0.3735440969467163,0.4512766897678375,-49.07921600341797,49.649227142333984,-41.508331298828125
2.972,5.346762180328369,-10.057032585144043,2.11405873298645,0.8817839622497559,0.34865131974220276,0.46043968200683594,-48.88921356201172,49.25460433959961,-41.17217254638672
2.979,5.263012886047363,-10.15035343170166,2.146361827850342,0.940732479095459,0.28267788887023926,0.49754971265792847,-48.669979095458984,48.69921112060547,-42.10757064819336
2.989,5.216352939605713,-10.084550857543945,2.273181438446045,1.001055359840393,0.18600846827030182,0.5429064631462097,-48.5384407043457,50.3800048828125,-42.64834976196289
2.999,5.114657878875732,-9.986444473266602,2.310270071029663,1.042746901512146,0.014202617108821869,0.5824600458145142,-48.37766647338867,50.20461654663086,-43.17451095581055
3.009,4.77248477935791,-9.635896682739258,2.227717876434326,1.076497197151184,-0.08185594528913498,0.585667073726654,-48.5384407043457,50.979244232177734,-43.422977447509766
3.022,4.7641096115112305,-9.667003631591797,2.2851455211639404,1.094212293624878,-0.2635883390903473,0.5798638463020325,-48.099971771240234,50.555397033691406,-45.03069305419922
3.029,4.73300313949585,-9.974480628967285,2.2504496574401855,1.13926362991333,-0.3194825351238251,0.5561928153038025,-48.39228439331055,51.169246673583984,-44.606842041015625
3.039,4.609772682189941,-11.029715538024902,2.4287149906158447,1.2545644044876099,-0.27458393573760986,0.4827362596988678,-47.64688491821289,50.774627685546875,-45.3814697265625
3.049,4.759324073791504,-12.583853721618652,3.005384922027588,1.3662000894546509,-0.06979135423898697,0.32620203495025635,-48.041507720947266,51.154632568359375,-44.738380432128906
3.059,5.364708423614502,-14.0985107421875,3.796213150024414,1.3909401893615723,0.3568980097770691,0.12110403180122375,-47.544578552246094,50.80385971069336,-45.615318298339844
3.069,6.163910865783691,-15.160923957824707,4.31306266784668,1.2753338813781738,0.8248208165168762,0.03390302136540413,-48.289974212646484,50.93539810180664,-47.296112060546875
3.086,3.895514965057373,-15.318849563598633,-1.6809579133987427,0.7480044364929199,2.774702548980713,0.2554943859577179,-47.70534896850586,50.950016021728516,-48.24612808227539
3.09,4.025923728942871,-15.189637184143066,-1.7802599668502808,0.5561928153038025,3.0141615867614746,0.279928982257843,-47.67612075805664,50.64308547973633,-49.07921600341797
3.099,5.710471153259277,-14.063814163208008,-0.6532405614852905,-0.4505131244659424,3.1251864433288574,0.26145032048225403,-47.32534408569336,50.73078155517578,-48.94767761230469
3.109,6.812366008758545,-12.025130271911621,-0.07178467512130737,-1.2136363983154297,2.191326379776001,0.20204368233680725,-47.354576110839844,51.44694519042969,-49.91230773925781
3.119,8.006383895874023,-10.007980346679688,0.16869398951530457,-1.1042916774749756,1.6146694421768188,0.2997821271419525,-47.237648010253906,51.373870849609375,-50.01461410522461
3.138,8.636893272399902,-8.902496337890625,0.23330020904541016,-0.6876814961433411,1.229824423789978,0.5009095072746277,-47.529964447021484,51.27155685424805,-48.99152374267578
3.142,7.330411911010742,-7.599604606628418,-0.8207381367683411,-0.1918116807937622,0.8272642493247986,0.7435756921768188,-47.79304122924805,51.52002716064453,-49.6199951171875
3.149,6.409175395965576,-7.026523113250732,-2.234896183013916,-0.0555887334048748,0.7713701128959656,0.8266533613204956,-47.836891174316406,51.49079132080078,-48.81613540649414
3.159,5.729613304138184,-7.128218650817871,-4.086941242218018,-0.22937989234924316,1.1542298793792725,0.7736607789993286,-46.95995330810547,51.31540298461914,-48.713829040527344
3.169,7.024130821228027,-7.2813591957092285,-4.4374895095825195,-0.8037459254264832,1.1672108173370361,0.4740314185619354,-47.237648010253906,51.52002716064453,-50.0584602355957
3.179,7.575676441192627,-6.482156753540039,-4.587040901184082,-1.4899002313613892,0.6991352438926697,0.04948008432984352,-47.03303146362305,52.0169563293457,-49.70768737792969
3.198,7.347161769866943,-5.211567401885986,-4.383650779724121,-1.9723310470581055,0.2203696370124817,-0.32620203495025635,-47.281497955322266,52.16311264038086,-48.93306350708008
3.203,6.592226505279541,-3.555734395980835,-3.6670005321502686,-2.317317485809326,-0.38499781489372253,-0.6821837425231934,-47.44226837158203,51.344635009765625,-48.421512603759766
3.209,6.088537216186523,-3.0101706981658936,-3.576073169708252,-2.375654935836792,-0.7470881938934326,-0.8151996731758118,-47.8807373046875,51.476173400878906,-47.69073486328125
3.219,4.749752521514893,-2.4047865867614746,-3.0819554328918457,-2.3516786098480225,-1.1800389289855957,-0.9673051238059998,-48.27535629272461,50.68693161010742,-46.78456497192383
3.229,3.9050865173339844,-1.9597216844558716,-2.9551358222961426,-2.238515853881836,-1.5363260507583618,-1.0435105562210083,-48.9184455871582,50.540775299072266,-45.64455032348633
3.239,2.7936203479766846,-1.9657037258148193,-2.4741785526275635,-2.060142993927002,-1.8350391387939453,-1.065043568611145,-48.611515045166016,50.02922821044922,-44.53376388549805
3.259,1.8951154947280884,-2.2468602657318115,-1.4620145559310913,-1.9886716604232788,-1.9920315742492676,-1.1148290634155273,-49.38614273071289,50.0,-42.77988815307617
3.263,1.712064504623413,-3.8536407947540283,0.27756741642951965,-2.0163135528564453,-2.194075107574463,-1.2391400337219238,-49.576148986816406,49.73691940307617,-41.78602600097656
3.269,2.146361827850342,-4.825126647949219,0.9296115636825562,-1.9547687768936157,-2.356718063354492,-1.346805214881897,-50.61385726928711,50.17538833618164,-40.63139724731445
3.279,3.370290756225586,-6.417550086975098,1.6893328428268433,-1.6986634731292725,-2.6167938709259033,-1.4063644409179688,-50.73078155517578,48.90382766723633,-38.760597229003906
3.289,4.640879154205322,-8.164310455322266,2.234896183013916,-1.3474159240722656,-2.8290696144104004,-1.255022644996643,-51.09617233276367,48.75767135620117,-38.468284606933594
3.3,5.568098068237305,-9.629914283752441,2.891726016998291,-1.027169942855835,-2.967430591583252,-0.9532551765441895,-51.213096618652344,47.237648010253906,-36.59748840332031
3.319,6.094519138336182,-10.999804496765137,3.6119656562805176,-0.7751879692077637,-3.096170663833618,-0.6049093008041382,-51.1400146484375,47.106109619140625,-34.185909271240234
3.323,6.205785751342773,-13.213166236877441,4.127618789672852,-0.5736024975776672,-3.037221908569336,-0.4804455041885376,-51.22771453857422,47.32534408569336,-33.30897521972656
3.329,6.080162525177002,-14.228919982910156,3.803391456604004,-0.4222606122493744,-2.7479772567749023,-0.5351179242134094,-51.03771209716797,47.734580993652344,-33.002044677734375
3.339,4.914857387542725,-16.959129333496094,2.458625316619873,-0.5068654417991638,-0.9683740735054016,-0.8023715019226074,-50.760013580322266,46.930721282958984,-31.920490264892578
3.349,5.638686656951904,-18.37448501586914,2.963510751724243,-1.3348932266235352,1.7035503387451172,-1.4289665222167969,-51.65156173706055,47.04764938354492,-32.972816467285156
3.359,7.326822757720947,-18.293128967285156,2.362912178039551,-2.3823745250701904,3.109762191772461,-2.3996315002441406,-52.57234573364258,45.77608871459961,-32.85588836669922
3.379,6.991827487945557,-16.930416107177734,0.11126624792814255,-3.0414979457855225,3.034167528152466,-2.850297212600708,-54.077754974365234,45.191463470458984,-32.27126693725586
3.383,7.554140567779541,-15.944573402404785,-2.641676187515259,-2.852893352508545,2.3573288917541504,-2.945439338684082,-56.693946838378906,42.502193450927734,-32.5489616394043
3.389,8.48614501953125,-16.201801300048828,-3.631108045578003,-2.5083653926849365,1.3138184547424316,-2.8603763580322266,-57.38088607788086,41.946800231933594,-32.75358200073242
3.4,8.334200859069824,-16.56909942626953,-2.99222469329834,-1.9068158864974976,0.044745877385139465,-2.5813636779785156,-58.06781768798828,40.41215896606445,-31.891260147094727
3.409,6.299105644226074,-16.30828285217285,-2.179861307144165,-1.4004086256027222,-0.4938845634460449,-2.0784690380096436,-58.3162841796875,39.73984146118164,-31.876644134521484
3.419,4.95074987411499,-15.42174243927002,-0.9619146585464478,-0.972955584526062,-0.012064589187502861,-1.6238324642181396,-58.871673583984375,38.36597442626953,-31.365097045898438
3.44,5.146961212158203,-13.691730499267578,0.2560320198535919,-0.8387179970741272,0.5369505286216736,-1.3920091390609741,-59.894771575927734,37.51826858520508,-31.306636810302734
3.444,5.846861839294434,-11.456833839416504,-0.05862415209412575,-0.6754642128944397,0.37827828526496887,-1.3209960460662842,-60.24554443359375,37.31365203857422,-31.978952407836914
3.45,6.1950178146362305,-10.679167747497559,-0.7022933959960938,-0.628885805606842,0.29397889971733093,-1.351081132888794,-60.65477752685547,36.88979721069336,-31.65740966796875
3.459,7.39860725402832,-9.266205787658691,-0.8554341197013855,-0.41920626163482666,-0.0959058403968811,-1.3797918558120728,-60.72785949707031,36.34901809692383,-31.730487823486328
3.469,8.094919204711914,-8.605786323547363,-0.6281159520149231,-0.10537425428628922,-0.7475463151931763,-1.197906732559204,-61.38555908203125,35.9836311340332,-31.832796096801758
3.479,6.754938125610352,-7.933403015136719,0.02512463741004467,0.1414152979850769,-1.2018773555755615,-1.0103710889816284,-61.210174560546875,34.88745880126953,-31.379714965820312
3.499,5.936593055725098,-7.386643409729004,-0.2799602448940277,0.40653079748153687,-1.5676329135894775,-0.8753698468208313,-61.4732551574707,35.22361755371094,-31.482023239135742
3.504,3.943371534347534,-7.103094100952148,-0.02512463741004467,0.7907650470733643,-1.855350375175476,-0.5487096905708313,-61.400177001953125,34.84361267089844,-30.35662078857422
3.51,3.414557933807373,-6.908078670501709,0.27038896083831787,0.8594873547554016,-1.8183931112289429,-0.3136793076992035,-61.26863479614258,34.69745635986328,-30.298158645629883
3.519,2.2061824798583984,-6.2668023109436035,0.33858439326286316,0.9083565473556519,-1.7282904386520386,0.009773843921720982,-60.65477752685547,34.916690826416016,-30.166616439819336
3.529,0.8937192559242249,-5.589633464813232,0.09810572117567062,0.9358454942703247,-1.6256651878356934,0.3341432809829712,-60.65477752685547,35.20900344848633,-29.28968048095703
3.539,-0.064606212079525,-5.148157596588135,-0.09212366491556168,0.96257084608078,-1.4387402534484863,0.7028005123138428,-59.76322937011719,35.45746612548828,-29.523530960083008
3.559,-0.8925228118896484,-4.573880195617676,-0.0729810893535614,1.003498911857605,-1.1478157043457031,1.0783298015594482,-59.00321578979492,36.275943756103516,-30.678165435791016
3.563,-0.9080761671066284,-3.5940194129943848,0.08374878764152527,1.0282388925552368,-0.721737265586853,1.6213890314102173,-59.22244644165039,36.75825881958008,-30.181232452392578
3.569,-1.0564311742782593,-2.7385854721069336,-0.11126624792814255,1.0451903343200684,-0.5280929803848267,1.831526756286621,-58.79859924316406,37.54750061035156,-29.961999893188477
3.579,-1.6414762735366821,-1.3902299404144287,-0.3768695592880249,1.1087204217910767,-0.16233743727207184,1.9811886548995972,-58.433204650878906,38.05904769897461,-30.44431495666504
3.589,-1.057627558708191,-0.4666004180908203,-0.4462614059448242,1.2424999475479126,0.2548835277557373,2.01509165763855,-57.79011917114258,38.99444580078125,-29.78661346435547
3.6,-0.3613162338733673,0.3672982454299927,-0.4307080805301666,1.4616477489471436,0.6763805150985718,1.9686659574508667,-57.14703369140625,40.134464263916016,-31.072786331176758
3.618,1.0648061037063599,0.6460620760917664,0.7812565565109253,1.607797384262085,1.8767306804656982,1.592678427696228,-56.211631774902344,41.36217498779297,-33.045894622802734
3.622,1.3316056728363037,0.47258248925209045,0.9990034103393555,1.455997347831726,2.3582451343536377,1.4133893251419067,-56.28471374511719,41.6252555847168,-33.031280517578125
3.629,2.956332206726074,-0.008374879136681557,1.868794322013855,1.2705997228622437,3.034625768661499,1.018770456314087,-56.6793327331543,42.09295654296875,-34.799766540527344
3.639,5.436492443084717,-1.6450655460357666,2.880958318710327,0.8755226135253906,3.3466250896453857,0.3126102685928345,-57.322418212890625,42.37065124511719,-36.26132583618164
3.649,7.042076587677002,-2.7086751461029053,3.2243285179138184,0.3689625859260559,3.1503849029541016,-0.23869559168815613,-57.67319107055664,42.078338623046875,-37.51826858520508
3.659,7.5050883293151855,-3.276970386505127,3.049652338027954,-0.004123340360820293,2.819753885269165,-0.35552358627319336,-57.64396286010742,42.049110412597656,-38.08827590942383
3.678,4.969892501831055,-4.18145751953125,2.27677059173584,-1.441641926765442,3.958101272583008,-0.7472409009933472,-58.08243179321289,41.46448516845703,-41.01139831542969
3.682,7.061219215393066,-5.078765869140625,0.24406790733337402,-1.803579568862915,3.783241033554077,-0.9361509680747986,-58.60859298706055,41.522945404052734,-41.332942962646484
3.689,5.343172550201416,-6.687938690185547,-1.4883357286453247,-2.030057907104492,3.307987928390503,-1.3057243824005127,-59.14937210083008,41.84449005126953,-41.6252555847168
3.7,6.051447868347168,-9.196813583374023,-0.14835500717163086,-1.3506230115890503,1.7747161388397217,-1.7539467811584473,-59.660919189453125,40.777549743652344,-41.6252555847168
3.709,3.610769271850586,-15.6765775680542,-3.961317777633667,-0.25854870676994324,0.2690861225128174,-1.8878790140151978,-60.289390563964844,40.04676818847656,-41.727561950683594
3.719,4.704289436340332,-20.443078994750977,-2.2432711124420166,0.8019133806228638,0.12110403180122375,-1.8637498617172241,-60.31861877441406,39.66676330566406,-42.35603332519531
3.739,3.73041033744812,-15.239887237548828,3.974478244781494,0.9963212013244629,0.15027284622192383,-0.04612032324075699,-60.71324157714844,38.789825439453125,-43.379127502441406
3.743,2.3497517108917236,-13.11386489868164,3.400200843811035,0.9518807530403137,0.0985020250082016,0.10277807712554932,-60.66939163208008,38.93598175048828,-42.75065612792969
3.749,0.8793622851371765,-10.719844818115234,2.7553350925445557,0.8254316449165344,-0.0959058403968811,0.4027129113674164,-60.786319732666016,39.43291473388672,-43.01374053955078
3.759,-0.04307080805301666,-8.531608581542969,2.379662036895752,0.6879869699478149,-0.18646661937236786,0.6404921412467957,-60.45016098022461,38.99444580078125,-43.61297607421875
3.769,1.0372885465621948,-7.53021240234375,1.696511149406433,0.6582072973251343,-0.32650747895240784,0.9509645104408264,-60.66939163208008,39.69599533081055,-44.548377990722656
3.779,2.469392776489258,-7.8795647621154785,2.060220241546631,0.7489207983016968,-1.1901181936264038,1.415069341659546,-59.997074127197266,40.11984634399414,-44.24144744873047
3.798,2.606980323791504,-11.535797119140625,4.092923164367676,0.7522805333137512,-2.342820882797241,1.8043431043624878,-58.477054595947266,40.98217010498047,-43.53989791870117
3.803,2.922832727432251,-12.63171100616455,4.473381996154785,0.7457137107849121,-2.4938571453094482,1.9167424440383911,-58.30166244506836,41.128326416015625,-43.7445182800293
3.809,3.5330023765563965,-13.99801254272461,4.535595417022705,0.7791586518287659,-2.5926647186279297,2.077247142791748,-58.477054595947266,42.063724517822266,-43.11604690551758
3.819,4.743770599365234,-15.42174243927002,4.012763500213623,1.042746901512146,-2.5857925415039062,2.2595903873443604,-56.85471725463867,42.502193450927734,-42.38526916503906
3.829,6.083751201629639,-16.089338302612305,3.616751194000244,1.7365370988845825,-2.5807530879974365,2.3579399585723877,-56.76702880859375,43.34989929199219,-42.45834732055664
3.839,7.685746192932129,-14.943177223205566,3.3619158267974854,2.450791358947754,-2.5718953609466553,2.4182627201080322,-55.67085647583008,44.72376251220703,-42.41449737548828
3.858,8.297112464904785,-11.685348510742188,3.706482172012329,3.598759889602661,-2.4547619819641113,2.718655824661255,-53.741600036621094,46.03916931152344,-43.67144012451172
3.861,8.002795219421387,-11.234301567077637,4.0666022300720215,3.818976640701294,-2.3457224369049072,2.808300256729126,-53.2008171081543,46.112247467041016,-43.53989791870117
3.869,7.600800514221191,-11.211569786071777,4.78684139251709,4.00620698928833,-2.135432243347168,2.898097515106201,-52.8208122253418,46.667640686035156,-45.24992752075195
3.879,6.217749118804932,-11.714062690734863,5.157729148864746,3.9799396991729736,-1.653001308441162,2.780505895614624,-51.06694030761719,47.529964447021484,-45.41069793701172
3.889,2.7936203479766846,-12.939188003540039,6.171089172363281,3.766594886779785,-1.0016663074493408,2.2757785320281982,-49.89768981933594,48.406898498535156,-47.51534652709961
3.908,-0.8171489238739014,-14.517254829406738,8.58066177368164,3.257591724395752,0.3497203588485718,1.264643669128418,-49.26921844482422,49.19614028930664,-49.45922088623047
3.912,5.8683977127075195,-15.76870059967041,7.149754047393799,2.1311559677124023,2.7238481044769287,0.008704829961061478,-49.45922088623047,49.19614028930664,-50.789241790771484
3.919,7.892724990844727,-15.174084663391113,4.692325115203857,1.7692184448242188,3.291800022125244,-0.31184670329093933,-49.12306213378906,49.283836364746094,-52.57234573364258
3.929,9.741181373596191,-14.023137092590332,2.757727861404419,1.5968016386032104,3.8087449073791504,-0.389426589012146,-49.51768493652344,48.87459945678711,-53.87313461303711
3.939,-0.6544370055198669,-21.933807373046875,0.015553345903754234,-0.2808452844619751,5.003597259521484,0.25931230187416077,-49.34230041503906,48.94767761230469,-55.553932189941406
3.949,5.06680154800415,-17.545372009277344,-4.563112735748291,-3.33089542388916,5.003597259521484,0.6579018235206604,-48.976905822753906,49.45922088623047,-56.25548553466797
3.959,7.087540626525879,-10.29631519317627,-12.857831954956055,-3.536756992340088,5.003597259521484,0.23900103569030762,-47.909969329833984,49.50307083129883,-57.38088607788086
3.975,11.288141250610352,-8.652446746826172,-8.779266357421875,-1.245248794555664,4.7001495361328125,0.3188716471195221,-47.5591926574707,49.82461166381836,-58.550132751464844
3.98,11.035697937011719,-8.837889671325684,-5.560919761657715,-1.2779301404953003,3.4458906650543213,0.4338670074939728,-47.529964447021484,49.839229583740234,-58.4185905456543
3.989,9.078369140625,-5.113461494445801,-4.805984020233154,-1.707215666770935,1.797471046447754,0.8756753206253052,-47.1207275390625,49.91230773925781,-58.18474197387695
3.999,8.37129020690918,-3.1788647174835205,-5.0117669105529785,-1.792125940322876,1.1504119634628296,1.187827467918396,-46.1414794921875,50.17538833618164,-58.667057037353516
4.009,8.116454124450684,-2.667997121810913,-3.245863676071167,-1.7676912546157837,0.527634859085083,1.0141890048980713,-45.70301055908203,50.43846893310547,-58.28704833984375
4.028,6.9714884757995605,-1.4536396265029907,-1.7623138427734375,-1.7450892925262451,0.01970040239393711,0.4488332271575928,-46.097633361816406,50.87693786621094,-56.88395690917969
4.032,5.280959129333496,0.41156551241874695,-0.6197410225868225,-1.6500996351242065,-0.19364428520202637,-0.3891211450099945,-45.542240142822266,51.388484954833984,-55.89009094238281
4.039,4.575077056884766,0.9738787412643433,0.02871387079358101,-1.7336355447769165,-0.25702154636383057,-0.626136839389801,-45.83454895019531,50.950016021728516,-55.48085403442383
4.049,2.8450660705566406,2.124826431274414,0.17228323221206665,-1.903608798980713,-0.3309362530708313,-0.8604037165641785,-46.62379455566406,51.1400146484375,-55.393157958984375
4.059,2.090130567550659,3.018545627593994,0.10169495642185211,-1.9682077169418335,-0.360105037689209,-1.0441213846206665,-46.46302032470703,51.11078643798828,-53.814674377441406
4.069,1.8245272636413574,3.260220766067505,0.3409772217273712,-1.9387335777282715,-0.3475823402404785,-1.1769845485687256,-46.726104736328125,51.09617233276367,-53.77082824707031
4.088,1.94297194480896,3.355933427810669,0.5515456199645996,-1.9210184812545776,-0.4495968222618103,-1.235322117805481,-47.64688491821289,51.44694519042969,-53.39081954956055
4.092,2.234896183013916,3.0269205570220947,0.576670229434967,-1.8532124757766724,-0.819322943687439,-1.3092368841171265,-48.87459945678711,50.993858337402344,-51.82695388793945
4.099,3.0484561920166016,1.7264214754104614,0.6352943778038025,-1.792125940322876,-1.1088731288909912,-1.3716979026794434,-49.10844802856445,51.4177131652832,-51.95848846435547
4.109,4.291527271270752,-0.5180460810661316,0.882951557636261,-1.6798794269561768,-1.6734652519226074,-1.5558736324310303,-49.56153106689453,51.49079132080078,-50.81847381591797
4.119,5.19960355758667,-3.4947173595428467,0.5730810165405273,-1.5279265642166138,-2.2687535285949707,-1.9379699230194092,-50.01461410522461,50.90616989135742,-49.41537857055664
4.129,5.148157596588135,-6.739384651184082,-1.4739786386489868,-1.2008082866668701,-2.3162481784820557,-2.4494168758392334,-51.578487396240234,50.42385482788086,-48.684593200683594
4.149,5.24626350402832,-10.101300239562988,-4.2795634269714355,-0.32421672344207764,-1.059393048286438,-3.3038647174835205,-52.309268951416016,49.73691940307617,-48.23151397705078
4.153,8.687142372131348,-15.456438064575195,-3.4995031356811523,0.5145012736320496,0.2448042333126068,-4.151440143585205,-54.54545593261719,49.035369873046875,-48.78690719604492
4.159,12.851850509643555,-17.345569610595703,-1.6426726579666138,0.5073235630989075,-0.11667525768280029,-4.420373439788818,-55.70008850097656,48.50920867919922,-49.48845672607422
4.169,13.847265243530273,-19.05524253845215,-1.5361920595169067,0.05207626149058342,-1.9298760890960693,-4.307210922241211,-57.68781280517578,47.67612075805664,-49.42999267578125
4.179,12.263215065002441,-18.52642822265625,-0.6125625967979431,-0.07971791177988052,-3.82187819480896,-4.005290508270264,-59.57322692871094,46.112247467041016,-48.94767761230469
4.189,10.570293426513672,-19.265811920166016,1.3280165195465088,0.27030786871910095,-5.003597259521484,-3.765984058380127,-61.12247848510742,45.39608383178711,-48.07073974609375
4.209,10.497312545776367,-21.50309944152832,1.112662434577942,0.8063421249389648,-5.003597259521484,-3.5556938648223877,-63.54867172241211,43.83221435546875,-45.65916442871094
4.213,10.634900093078613,-27.13221549987793,4.649254322052002,1.4004086256027222,-4.523304462432861,-3.007136821746826,-64.0748291015625,42.98450469970703,-43.93452072143555
4.219,10.329814910888672,-31.740793228149414,8.157132148742676,1.047023057937622,-3.280193567276001,-2.5163066387176514,-64.77638244628906,42.41449737548828,-44.372989654541016
4.229,9.329615592956543,-33.32244873046875,13.067203521728516,-0.5711589455604553,-0.986852765083313,-1.867262363433838,-65.33177185058594,41.508331298828125,-44.47529983520508
4.239,8.931209564208984,-30.299116134643555,8.401200294494629,-2.482250928878784,0.7959573864936829,-1.2698360681533813,-66.42794799804688,41.05524826049805,-43.189125061035156
4.249,4.704289436340332,-24.039491653442383,1.643869161605835,-2.643213987350464,1.1514809131622314,-1.2015719413757324,-66.60333251953125,40.36831283569336,-43.72990417480469
4.269,2.4059829711914062,-17.676977157592773,-1.0109676122665405,-2.341904401779175,0.788627028465271,-1.224173903465271,-67.33411407470703,39.66676330566406,-43.13066482543945
4.273,2.557927370071411,-10.168299674987793,-2.0781664848327637,-1.797471046447754,0.23457224667072296,-1.3720033168792725,-68.18181610107422,38.278282165527344,-42.64834976196289
4.279,3.2195427417755127,-7.314858913421631,-3.311666488647461,-1.5613715648651123,0.04520402476191521,-1.3823879957199097,-68.35720825195312,38.278282165527344,-42.078338623046875
4.289,3.816551923751831,-4.770091533660889,-4.640879154205322,-0.7220426797866821,-0.5145012736320496,-1.3333660364151,-69.07337188720703,37.284420013427734,-41.9029541015625
4.299,4.82632303237915,-4.335794448852539,-3.864408493041992,0.01710422709584236,-1.0763444900512695,-1.200197458267212,-69.38029479980469,37.109031677246094,-41.6252555847168
4.309,5.2043890953063965,-3.950549840927124,-2.0614166259765625,0.5977316498756409,-1.7892242670059204,-0.8527678847312927,-69.78953552246094,37.021339416503906,-40.324466705322266
4.328,4.110869407653809,-3.4193434715270996,-0.7860422134399414,1.0297660827636719,-2.3680191040039062,-0.3969096839427948,-70.15492248535156,37.211341857910156,-39.418296813964844
4.332,2.1020946502685547,-3.342773199081421,1.124626636505127,1.3603968620300293,-2.715754270553589,0.222965806722641,-69.99414825439453,36.86056900024414,-39.53522491455078
4.339,0.9415756464004517,-3.3643083572387695,1.9106688499450684,1.452942967414856,-2.4999659061431885,0.7673994302749634,-70.03800201416016,37.065185546875,-39.038291931152344
4.349,-0.13878370821475983,-3.1334011554718018,2.557927370071411,1.4460707902908325,-2.0030272006988525,1.3280209302902222,-69.23414611816406,37.4451904296875,-38.5267448425293
4.359,-1.0456634759902954,-2.744567632675171,2.9730820655822754,1.381929874420166,-1.3478741645812988,1.7321083545684814,-68.09412384033203,38.33674621582031,-38.38058853149414
4.369,-1.56969153881073,-2.7876384258270264,2.6141586303710938,1.3544409275054932,-0.6146831512451172,1.923614501953125,-68.56182098388672,39.389068603515625,-38.1028938293457
4.389,-1.3878371715545654,-2.9479572772979736,2.2851455211639404,1.3947579860687256,0.06704245507717133,1.9355264902114868,-67.97720336914062,40.967552185058594,-38.70213317871094
4.393,-0.27397817373275757,-2.3497517108917236,1.6618152856826782,1.594358205795288,0.6884450912475586,1.8124371767044067,-67.94796752929688,41.04063034057617,-38.950599670410156
4.4,-0.10049854964017868,-1.7994025945663452,1.5672988891601562,1.8012889623641968,0.6632469296455383,1.700343370437622,-67.29026794433594,41.61064147949219,-39.75445556640625
4.409,0.9020940661430359,-0.3122633397579193,1.710868239402771,2.135890245437622,0.3280346393585205,1.4737123250961304,-67.62641906738281,42.73604202270508,-40.8652458190918
4.419,1.7575281858444214,0.989432156085968,1.7455641031265259,2.5697574615478516,-0.36102133989334106,1.2134836912155151,-66.88102722167969,42.823734283447266,-41.5814094543457
4.429,1.1365907192230225,1.451246976852417,2.3461625576019287,2.9990429878234863,-1.0025825500488281,0.9049968719482422,-67.10026550292969,44.007598876953125,-41.99064636230469
4.448,1.2299107313156128,0.6891329288482666,2.803191661834717,3.0187430381774902,-0.9669996500015259,0.1892155110836029,-66.64717864990234,44.738380432128906,-43.48143768310547
4.452,-1.8029918670654297,-1.4799607992172241,4.113262176513672,2.3153319358825684,0.2765692174434662,0.021074850112199783,-66.54487609863281,45.4837760925293,-43.978370666503906
4.459,-3.8189449310302734,-4.765305995941162,4.082155227661133,0.19425514340400696,4.240015506744385,-0.6430883407592773,-67.02719116210938,45.26454162597656,-44.91376876831055
4.469,3.373879909515381,-3.1585259437561035,2.221735715866089,-1.5792393684387207,5.003597259521484,-1.3309226036071777,-67.42180633544922,44.6799201965332,-46.53609848022461
4.479,6.695117950439453,-1.7371891736984253,1.0887342691421509,-1.7545576095581055,5.003597259521484,-1.262047529220581,-68.66413116455078,44.13914108276367,-50.92078399658203
4.489,4.622933387756348,-2.5363919734954834,0.4139583110809326,-1.31748366355896,5.003597259521484,-0.8834638595581055,-69.05875396728516,43.83221435546875,-52.908504486083984
4.509,2.748156785964966,-16.350156784057617,-4.511667251586914,-2.9213104248046875,3.275001287460327,-1.1785117387771606,-69.42414855957031,43.30604934692383,-55.90470504760742
4.513,1.8125630617141724,-9.565308570861816,-5.816951751708984,-3.5613443851470947,3.0781500339508057,-1.5247195959091187,-69.16106414794922,42.67757797241211,-55.51008605957031
4.519,4.309473514556885,-7.586443901062012,-2.366501569747925,-2.8913779258728027,2.306168794631958,-1.8865046501159668,-69.64337921142578,42.516807556152344,-55.68547058105469
4.529,4.2245283126831055,-13.568500518798828,-0.6005984544754028,-1.5821409225463867,0.19226983189582825,-2.0702221393585205,-71.16340637207031,41.27448272705078,-55.86085891723633
4.539,4.01754903793335,-17.26421356201172,0.8303093910217285,-0.5338962078094482,-0.8506298065185547,-1.9326248168945312,-71.9672622680664,40.762935638427734,-55.94855499267578
4.549,4.652843475341797,-16.36212158203125,2.5531415939331055,0.26343563199043274,-0.08078692108392715,-0.9837984442710876,-71.87956237792969,40.36831283569336,-55.393157958984375
4.568,2.4430718421936035,-11.271390914916992,2.2636101245880127,1.4456125497817993,1.1887437105178833,0.4918992221355438,-72.53726959228516,40.149078369140625,-56.06547546386719
4.572,2.9240291118621826,-11.337193489074707,3.3583264350891113,1.5793920755386353,1.1730139255523682,0.7524333000183105,-72.5665054321289,40.11984634399414,-57.07395553588867
4.579,4.412364959716797,-11.748759269714355,4.937589645385742,1.5451836585998535,0.7832819223403931,1.1662944555282593,-72.2157211303711,40.894474029541016,-57.62934875488281
4.589,7.299305438995361,-12.212965965270996,5.8779683113098145,1.2783881425857544,-0.42959097027778625,1.7899878025054932,-71.92341613769531,41.46448516845703,-58.19935607910156
4.599,7.244270324707031,-12.435498237609863,5.753541946411133,1.0364855527877808,-2.710561990737915,2.5269968509674072,-71.13417053222656,42.10757064819336,-58.33089828491211
4.609,4.561916351318359,-12.439087867736816,4.828715801239014,1.0488556623458862,-3.6427419185638428,2.691624879837036,-71.01725006103516,43.686058044433594,-56.09471130371094
4.628,4.249652862548828,-13.939387321472168,3.7256245613098145,1.435075044631958,-3.525914192199707,2.673757314682007,-70.05261993408203,45.93686294555664,-53.71236038208008
4.631,4.336990833282471,-14.671591758728027,3.3032915592193604,1.6649131774902344,-3.199712038040161,2.598620653152466,-69.57030487060547,45.84916687011719,-53.522361755371094
4.639,5.0464630126953125,-15.318849563598633,2.8737800121307373,2.0870211124420166,-2.5132522583007812,2.470033645629883,-68.94183349609375,46.44840621948242,-53.01081466674805
4.649,6.835097789764404,-15.144173622131348,3.0520453453063965,2.6978862285614014,-1.3590223789215088,2.3742804527282715,-68.41566467285156,47.39842224121094,-53.78544235229492
4.659,8.623732566833496,-13.701302528381348,4.393222332000732,3.190396308898926,-0.8449793457984924,2.5335636138916016,-67.5094985961914,48.23151397705078,-54.18006134033203
4.669,8.913264274597168,-12.429516792297363,5.321637153625488,3.2618675231933594,-0.9615018963813782,2.788752555847168,-66.70564270019531,49.049983978271484,-54.60391616821289
4.689,7.850851058959961,-12.618549346923828,4.996213436126709,3.126102924346924,-1.405906319618225,2.806314706802368,-64.70330047607422,50.950016021728516,-56.78164291381836
4.693,7.259823799133301,-12.723834037780762,4.796412467956543,3.1784846782684326,-1.338711142539978,2.6624560356140137,-64.54253387451172,50.570011138916016,-56.737796783447266
4.7,4.301098346710205,-13.441680908203125,5.052444934844971,3.3408217430114746,-0.7580837607383728,2.2574524879455566,-63.94329071044922,50.92078399658203,-57.8193473815918
4.709,4.19581413269043,-15.634702682495117,7.048058986663818,3.3677000999450684,0.3871358335018158,1.2585350275039673,-63.5925178527832,51.81233215332031,-59.19321823120117
4.719,7.81854772567749,-16.207782745361328,5.830111980438232,3.0665433406829834,1.6058119535446167,0.47051894664764404,-62.20403289794922,51.4177131652832,-60.596317291259766
4.729,8.60459041595459,-15.428919792175293,5.242674350738525,2.8761062622070312,2.4811818599700928,0.05696318298578262,-62.598655700683594,50.760013580322266,-62.26249313354492
4.745,8.647661209106445,-13.420145034790039,4.902893543243408,2.3490822315216064,4.6633453369140625,-0.375071257352829,-61.32709884643555,50.233848571777344,-66.48640441894531
4.75,1.5278172492980957,-20.006389617919922,5.166103839874268,0.5523748993873596,5.003597259521484,0.06673702597618103,-61.224788665771484,50.0,-68.09412384033203
4.759,0.4989035129547119,-23.794227600097656,0.22133608162403107,-5.003597259521484,5.003597259521484,0.9263771176338196,-59.60245895385742,50.263084411621094,-68.62028503417969
4.769,7.368697166442871,-5.172085762023926,-18.44866180419922,-5.003597259521484,5.003597259521484,0.1696678102016449,-53.317745208740234,52.484657287597656,-69.36567687988281
4.779,14.530415534973145,-2.6943180561065674,-16.987844467163086,-3.8293614387512207,5.003597259521484,-0.19120082259178162,-54.09237289428711,53.142356872558594,-70.84185791015625
4.789,16.107284545898438,-5.168496608734131,-4.913661479949951,-2.850908041000366,4.564384937286377,0.15332716703414917,-52.79158401489258,53.55158996582031,-71.54341125488281
4.803,11.767902374267578,-0.16031910479068756,-3.3511481285095215,-2.4950790405273438,-0.23854286968708038,0.8071057200431824,-52.294654846191406,54.472373962402344,-69.45337677001953
4.809,10.02592658996582,0.11246266216039658,-2.8462624549865723,-2.054797887802124,-0.8825475573539734,0.8103127479553223,-52.39695739746094,54.57468795776367,-67.933349609375
4.819,6.887739658355713,1.0013961791992188,-1.4751750230789185,-1.4272865056991577,-1.1725558042526245,0.4761694371700287,-52.0169563293457,55.13007736206055,-67.08564758300781
4.829,5.639883041381836,2.328216314315796,-0.8315058350563049,-0.9419541954994202,-1.4996742010116577,0.02076941914856434,-52.309268951416016,55.597774505615234,-65.87255096435547
4.839,4.535595417022705,3.0041887760162354,-0.18544374406337738,-0.7919867634773254,-1.659415364265442,-0.33719760179519653,-52.25080108642578,55.773162841796875,-65.20023345947266
4.858,3.115455150604248,3.7435710430145264,-0.1339980661869049,-0.9187412858009338,-1.5251778364181519,-0.4905247688293457,-52.718502044677734,55.71470260620117,-64.1186752319336
4.862,2.6536402702331543,4.724628448486328,-0.038285162299871445,-1.027169942855835,-1.514487624168396,-0.7910704612731934,-53.434669494628906,55.91931915283203,-62.554805755615234
4.869,2.251646041870117,4.993820667266846,0.02991028130054474,-0.9726501107215881,-1.5025757551193237,-0.9286679029464722,-54.033905029296875,55.802398681640625,-63.0371208190918
4.879,0.9966105818748474,3.0544381141662598,-0.46061834692955017,-0.8736900091171265,-1.2406672239303589,-1.1107057332992554,-55.02777099609375,55.67085647583008,-61.648643493652344
4.889,1.8556338548660278,3.104687213897705,0.787238597869873,-0.836885392665863,-0.957531213760376,-1.3410018682479858,-55.53931427001953,55.29084777832031,-61.18094253540039
4.9,2.3569302558898926,1.4715858697891235,1.1425727605819702,-0.9390525817871094,-1.0181596279144287,-1.6687310934066772,-56.51856231689453,55.188541412353516,-59.470916748046875
4.919,3.190828800201416,-1.0564311742782593,1.275374412536621,-1.150106430053711,-1.4718797206878662,-2.3099868297576904,-57.541656494140625,54.3408317565918,-59.96784591674805
4.923,3.3332018852233887,-6.363711833953857,-0.005982056725770235,-1.3266466856002808,-1.8058702945709229,-3.1864259243011475,-59.500144958496094,53.61005783081055,-58.06781768798828
4.929,2.706282138824463,-9.221938133239746,-1.7228323221206665,-1.364978313446045,-1.493718147277832,-3.7667479515075684,-60.68401336669922,53.478515625,-56.97164535522461
4.939,3.8763725757598877,-13.634303092956543,-4.542773723602295,-1.250441074371338,-0.4427245557308197,-4.341113567352295,-62.145572662353516,51.695411682128906,-56.6354866027832
4.949,8.769694328308105,-12.452248573303223,-4.444667816162109,-0.722959041595459,0.474642276763916,-5.003597259521484,-64.39637756347656,49.95615005493164,-56.06547546386719
4.959,12.502497673034668,-18.043079376220703,-3.6502509117126465,-0.21013763546943665,-0.4668537676334381,-5.003597259521484,-66.12101745605469,48.041507720947266,-55.62701416015625
4.978,16.827524185180664,-20.23729705810547,-1.4428720474243164,0.25366178154945374,-2.4501802921295166,-5.003597259521484,-68.05027770996094,45.556854248046875,-55.71470260620117
4.982,19.125829696655273,-24.745372772216797,1.657029628753662,0.6478225588798523,-4.620737552642822,-5.003597259521484,-70.95877838134766,42.01987838745117,-53.99005889892578
4.989,19.53021812438965,-25.852054595947266,1.6103696823120117,0.8045095205307007,-5.003597259521484,-4.612643241882324,-72.06956481933594,40.66062545776367,-52.323883056640625
5.0,18.48096466064453,-28.08575439453125,2.6261227130889893,1.4349223375320435,-5.003597259521484,-3.5721871852874756,-72.8149642944336,38.45366668701172,-49.88307571411133
5.009,15.906288146972656,-32.878578186035156,7.369893550872803,1.3686436414718628,-4.325231552124023,-2.339003086090088,-73.42881774902344,37.664424896240234,-47.456886291503906
5.019,13.306486129760742,-33.4576416015625,9.729216575622559,-0.4050036370754242,-1.7383697032928467,-0.9314167499542236,-73.54574584960938,37.15288162231445,-46.69687271118164
5.039,8.958727836608887,-29.405397415161133,6.4941205978393555,-1.737606167793274,-0.5564982295036316,-0.23716843128204346,-73.73574829101562,36.6851806640625,-45.746856689453125
5.043,4.944767951965332,-22.700708389282227,1.7192429304122925,-1.9058995246887207,0.15057827532291412,-0.002138028386980295,-72.88804626464844,36.18824768066406,-44.97222900390625
5.049,3.0317063331604004,-18.671194076538086,0.5455635190010071,-1.6097825765609741,-0.015882495790719986,0.17867808043956757,-73.28266143798828,36.21747970581055,-45.58608627319336
5.059,0.7657032608985901,-13.579268455505371,1.1258230209350586,-1.381929874420166,-0.4170682430267334,0.2580905556678772,-72.33264923095703,36.04209518432617,-44.27068328857422
5.069,-0.27397817373275757,-8.927620887756348,0.4821537435054779,-1.1484266519546509,-0.8077166080474854,-0.04046982154250145,-72.5080337524414,36.05670928955078,-43.29143524169922
5.079,-0.8015955090522766,-4.448256969451904,-1.4644074440002441,-0.7722863554954529,-0.9731083512306213,-0.25992316007614136,-72.24495697021484,35.969017028808594,-42.078338623046875
5.099,-0.672383189201355,-1.9369899034500122,-3.080759048461914,-0.07009679079055786,-1.2360858917236328,-0.4106541574001312,-71.57263946533203,36.290557861328125,-40.967552185058594
5.104,0.5443671345710754,-1.2693923711776733,-1.392622709274292,1.0085384845733643,-1.4285084009170532,-0.39614611864089966,-71.17801666259766,36.451332092285156,-40.777549743652344
5.11,0.3840480148792267,-1.576870083808899,-0.41874393820762634,1.2431107759475708,-1.3382529020309448,-0.14996741712093353,-71.17801666259766,36.495174407958984,-39.75445556640625
5.119,0.18424732983112335,-2.0781664848327637,0.802791953086853,1.2823587656021118,-1.0687086582183838,0.3338378667831421,-70.8272476196289,36.831336975097656,-40.42677688598633
5.129,-0.11365906894207001,-2.638087034225464,1.0360921621322632,1.254717230796814,-0.780380368232727,0.8034404516220093,-70.63723754882812,36.845951080322266,-39.68138122558594
5.139,-0.08255238085985184,-2.6847469806671143,1.3962119817733765,1.2971723079681396,-0.5146539211273193,1.175610065460205,-69.9356918334961,37.591346740722656,-39.85676574707031
5.159,-0.2560320198535919,-2.68953275680542,1.7850456237792969,1.3353514671325684,-0.279928982257843,1.4445436000823975,-68.67874908447266,39.16983413696289,-39.87138366699219
5.163,-0.5754737854003906,-2.480160713195801,1.743171215057373,1.3561207056045532,0.20723602175712585,1.6788103580474854,-68.83952331542969,39.82753372192383,-39.418296813964844
5.169,-0.5084748268127441,-2.0997018814086914,1.6809579133987427,1.3810136318206787,0.42531490325927734,1.7525724172592163,-68.21105194091797,40.572933197021484,-40.25138854980469
5.179,-0.03469592705368996,-1.2562319040298462,1.4009976387023926,1.4616477489471436,0.5366451144218445,1.7849481105804443,-67.94796752929688,41.2452507019043,-40.83601379394531
5.189,0.8781659007072449,-0.4223332107067108,1.25862455368042,1.616654872894287,0.337044894695282,1.7647895812988281,-67.07102966308594,42.633731842041016,-41.23063278198242
5.2,1.7922240495681763,1.0564311742782593,0.8745766282081604,1.8959729671478271,-0.28787022829055786,1.6560556888580322,-66.54487609863281,42.9406623840332,-41.873722076416016
5.218,2.816352128982544,2.581855535507202,0.7154539227485657,3.096170663833618,-2.3796255588531494,1.1745411157608032,-65.49254608154297,44.548377990722656,-41.93218231201172
5.222,1.223928689956665,3.562912940979004,1.277767300605774,3.380222797393799,-2.6392431259155273,0.9056077003479004,-65.28793334960938,44.38760757446289,-42.19526290893555
5.229,1.3878371715545654,2.0650060176849365,2.6835503578186035,3.489414930343628,-2.819448471069336,0.4966334402561188,-64.74714660644531,44.48991394042969,-42.0052604675293
5.239,-11.871988296508789,-5.216352939605713,6.820741176605225,2.353663682937622,-0.9266825914382935,-0.1014036312699318,-64.48406982421875,45.4837760925293,-42.56065368652344
5.249,-2.7936203479766846,-4.182653903961182,3.5641093254089355,-1.649794340133667,5.003597259521484,-1.9921842813491821,-65.55101013183594,45.556854248046875,-44.31452941894531
5.259,7.410571575164795,-0.5276173949241638,2.183450698852539,-2.6780331134796143,5.003597259521484,-2.8651106357574463,-66.413330078125,43.72990417480469,-47.77842712402344
5.28,10.409974098205566,-0.8841480016708374,1.8508483171463013,-2.163073778152466,5.003597259521484,-2.498897075653076,-67.7725830078125,41.756797790527344,-51.169246673583984
5.284,6.524030685424805,-6.991827487945557,1.2538390159606934,-2.0845775604248047,4.148996829986572,-1.8781051635742188,-68.7956771850586,41.78602600097656,-52.39695739746094
5.29,5.111069202423096,-11.1493558883667,-0.5419743061065674,-2.9969048500061035,3.2589662075042725,-1.905135989189148,-68.67874908447266,41.49371337890625,-52.74773406982422
5.299,6.26440954208374,-7.354340076446533,-0.3888336718082428,-2.7872252464294434,1.4056010246276855,-1.948660135269165,-69.07337188720703,40.98217010498047,-52.8208122253418
5.309,6.092126369476318,-14.25045394897461,-0.21296119689941406,-1.8678730726242065,-0.304210901260376,-1.8584047555923462,-69.86261749267578,40.339080810546875,-52.74773406982422
5.319,5.641078948974609,-19.103097915649414,0.8446664214134216,-1.020297646522522,-1.289841890335083,-1.626275897026062,-70.4764633178711,39.330604553222656,-50.789241790771484
5.339,3.785445213317871,-18.988243103027344,2.66560435295105,0.1576032191514969,0.6876814961433411,-0.6020076870918274,-71.17801666259766,38.68751907348633,-50.48231506347656
5.342,2.025524377822876,-13.788640022277832,2.069791555404663,0.43249258399009705,1.4873040914535522,-0.20525072515010834,-70.97340393066406,38.64366912841797,-50.964630126953125
5.349,2.847459077835083,-13.570893287658691,2.2229323387145996,0.8361217975616455,2.216066360473633,0.3926336169242859,-71.631103515625,38.73136520385742,-52.22157287597656
5.359,4.5786662101745605,-14.335400581359863,3.789034366607666,1.192256212234497,2.051438093185425,1.0850493907928467,-70.56416320800781,39.4621467590332,-53.01081466674805
5.369,7.3878397941589355,-13.761122703552246,5.187639236450195,1.3063353300094604,0.7840455174446106,1.726610541343689,-70.87109375,40.309852600097656,-53.639286041259766
5.379,8.877371788024902,-12.890134811401367,6.064609050750732,1.3049609661102295,-2.0676259994506836,2.540894031524658,-70.11107635498047,40.967552185058594,-53.1569709777832
5.398,5.619543552398682,-12.235697746276855,5.775076866149902,1.4347697496414185,-4.694957256317139,2.7985262870788574,-68.50336456298828,43.627593994140625,-51.03771209716797
5.403,4.466203212738037,-12.672388076782227,4.707878589630127,1.6111570596694946,-4.88539457321167,2.75836181640625,-68.02104949951172,44.16836929321289,-49.94153594970703
5.409,5.294119834899902,-13.60917854309082,4.284348964691162,1.9653061628341675,-4.830722332000732,2.6977336406707764,-67.20257568359375,45.41069793701172,-48.69921112060547
5.419,6.2536420822143555,-14.08295726776123,3.6047871112823486,2.5563182830810547,-4.413959503173828,2.6279423236846924,-66.69102478027344,47.06226348876953,-47.281497955322266
5.429,6.953542709350586,-13.194024085998535,2.9515466690063477,3.4191653728485107,-3.128851890563965,2.7484354972839355,-65.58023834228516,47.44226837158203,-47.500728607177734
5.439,7.306483745574951,-11.491530418395996,3.6538400650024414,3.9802451133728027,-2.3018929958343506,2.955671548843384,-64.98100280761719,49.093833923339844,-48.33382034301758
5.458,5.0117669105529785,-10.98784065246582,6.33380126953125,4.076303482055664,-1.0783298015594482,2.651613235473633,-61.80941390991211,51.05232620239258,-49.839229583740234
5.462,3.812962770462036,-11.651848793029785,6.697510242462158,4.034001350402832,-0.8846855759620667,2.4992024898529053,-61.70710372924805,51.373870849609375,-50.24846649169922
5.469,3.462414264678955,-14.482559204101562,8.26121997833252,3.827834367752075,-0.07651086896657944,1.9294178485870361,-60.74247360229492,51.82695388793945,-50.70154571533203
5.479,9.253045082092285,-17.327625274658203,9.168099403381348,3.1920762062072754,0.7380779385566711,1.0005972385406494,-60.1140022277832,51.94387435913086,-53.06927490234375
5.489,10.822736740112305,-17.931812286376953,8.429913520812988,2.634814500808716,1.2731958627700806,0.559857964515686,-60.12861633300781,52.265419006347656,-54.92546081542969
5.5,10.138389587402344,-15.290136337280273,6.355337142944336,2.222785711288452,2.5835015773773193,0.21563541889190674,-59.38322067260742,52.77696990966797,-56.606258392333984
5.518,5.480760097503662,-15.966108322143555,3.812962770462036,1.2278391122817993,5.003597259521484,0.10231993347406387,-58.81321334838867,52.484657287597656,-60.187076568603516
5.521,-9.291330337524414,-32.878578186035156,-0.21774685382843018,-0.5615379214286804,5.003597259521484,0.5485569834709167,-58.30166244506836,52.265419006347656,-61.66325759887695
5.529,0.3756731152534485,-24.083759307861328,-7.348358154296875,-5.003597259521484,5.003597259521484,1.207680583000183,-57.45396041870117,52.76234817504883,-62.08710479736328
5.539,10.384849548339844,0.5072783827781677,-29.014169692993164,-4.997488498687744,5.003597259521484,-0.2886338233947754,-55.20315933227539,53.93159866333008,-61.7947998046875
5.549,15.007782936096191,-5.142175674438477,-8.421539306640625,-2.344653367996216,4.8249192237854,-0.6357579827308655,-54.633148193359375,54.443145751953125,-62.160186767578125
5.559,12.954741477966309,-4.467399597167969,-1.7371891736984253,-1.7545576095581055,0.7893905639648438,0.18402314186096191,-54.70622634887695,54.37007141113281,-61.8971061706543
5.579,6.6006011962890625,-1.4261221885681152,0.09690931439399719,-1.3031282424926758,-0.18096882104873657,1.0758863687515259,-53.88775634765625,55.568546295166016,-59.14937210083008
5.583,6.654439926147461,-0.9918249249458313,0.7992027401924133,-1.3165671825408936,-0.018020525574684143,0.9882272481918335,-53.72698211669922,55.758548736572266,-58.28704833984375
5.589,6.285945415496826,-0.019142581149935722,1.3423734903335571,-1.341460108757019,0.02229658141732216,0.7548767328262329,-54.063140869140625,56.65010070800781,-57.950889587402344
5.6,5.897111415863037,1.5720844268798828,1.1222338676452637,-1.347263216972351,-0.21273382008075714,0.3582724630832672,-53.478515625,56.387020111083984,-58.140892028808594
5.609,4.759324073791504,3.3332018852233887,0.8925228118896484,-1.41384756565094,-0.398589551448822,-0.003359758760780096,-53.843902587890625,57.2347297668457,-56.03624725341797
5.619,3.988835334777832,4.328616142272949,0.31824538111686707,-1.593900203704834,-0.24297165870666504,-0.4072943925857544,-53.50774383544922,56.8985710144043,-54.80853271484375
5.634,4.201796531677246,5.223531246185303,-0.07657032459974289,-1.7595973014831543,-0.049785517156124115,-1.057865858078003,-54.954689025878906,57.27857208251953,-53.244667053222656
5.64,3.875175952911377,5.804987907409668,-0.6269195079803467,-1.7794504165649414,0.10506881773471832,-1.3466523885726929,-55.42238998413086,57.77550506591797,-52.8208122253418
5.649,3.9314074516296387,5.684150218963623,-0.7034898400306702,-1.832595705986023,0.5829181671142578,-1.570381760597229,-56.3577880859375,57.103187561035156,-52.294654846191406
5.659,3.671786069869995,3.923032522201538,-0.42711883783340454,-1.8252654075622559,0.7108944058418274,-1.7437148094177246,-56.65010070800781,56.810874938964844,-51.31540298461914
5.669,3.9385857582092285,3.308077335357666,-0.3936192989349365,-1.647045373916626,0.038179077208042145,-2.026240110397339,-57.87781524658203,56.372406005859375,-49.34230041503906
5.679,4.6779680252075195,1.6785650253295898,-0.3936192989349365,-1.4004086256027222,-1.140179991722107,-2.3104450702667236,-59.076290130615234,56.430870056152344,-47.96842956542969
5.698,2.334198474884033,-6.592226505279541,-1.605583906173706,-0.9715811610221863,-2.612823247909546,-3.322190523147583,-61.35633087158203,54.954689025878906,-46.24378967285156
5.702,0.6340979933738708,-9.927821159362793,-3.280559778213501,-0.997237503528595,-2.0454821586608887,-3.783241033554077,-61.721717834472656,54.9400749206543,-45.206077575683594
5.709,1.4859428405761719,-12.809975624084473,-6.221338748931885,-0.9950994253158569,-0.4960225820541382,-4.616155624389648,-64.06021881103516,53.27389907836914,-44.6799201965332
5.719,8.303093910217285,-16.467405319213867,-6.656832218170166,-0.8576547503471375,0.8530732989311218,-5.003597259521484,-66.39871215820312,51.973106384277344,-44.19760513305664
5.729,16.058231353759766,-17.700904846191406,-4.90408992767334,-0.6673702597618103,-0.5535966157913208,-5.003597259521484,-69.0879898071289,49.795379638671875,-43.56913375854492
5.748,16.516456604003906,-15.821342468261719,-3.0819554328918457,-0.128434419631958,-3.5976908206939697,-5.003597259521484,-71.0318603515625,47.32534408569336,-40.952938079833984
5.752,15.975680351257324,-16.4315128326416,0.9463613033294678,0.5717698335647583,-5.003597259521484,-5.003597259521484,-73.22420501708984,44.606842041015625,-38.29289627075195
5.759,17.174484252929688,-17.30967903137207,1.25862455368042,1.07771897315979,-5.003597259521484,-4.922504901885986,-73.77959442138672,42.76527404785156,-35.325927734375
5.769,17.144573211669922,-20.39522361755371,1.9142580032348633,1.9923368692398071,-5.003597259521484,-4.375322341918945,-74.5103759765625,41.069862365722656,-32.46126937866211
5.779,14.891731262207031,-27.73042106628418,7.401000499725342,2.6455044746398926,-4.570340633392334,-3.7342193126678467,-75.1534652709961,39.82753372192383,-31.408945083618164
5.789,16.9005069732666,-34.67678451538086,14.863017082214355,1.131933331489563,-0.7667886018753052,-1.991878867149353,-75.13884735107422,38.00058364868164,-29.81584358215332
5.809,16.109678268432617,-33.94816970825195,10.024730682373047,-0.8170322775840759,0.9468411207199097,-0.44226643443107605,-75.2265396118164,37.474422454833984,-29.640457153320312
5.813,8.73499870300293,-28.514070510864258,1.2526426315307617,-1.8474091291427612,0.42180243134498596,0.21578815579414368,-75.12423706054688,36.43671417236328,-29.275066375732422
5.819,6.303890705108643,-25.487150192260742,-1.3184452056884766,-1.8602373600006104,0.09957103431224823,0.2906191349029541,-75.88424682617188,36.3636360168457,-28.763521194458008
5.829,0.9966105818748474,-19.61396598815918,-2.0135602951049805,-1.6959145069122314,-0.5740606188774109,0.24465152621269226,-74.62730407714844,35.6474723815918,-27.901199340820312
5.839,-0.16510476171970367,-12.490533828735352,-2.121237277984619,-1.3576478958129883,-1.143081545829773,-0.3706424832344055,-74.20345306396484,34.741302490234375,-27.08272361755371
5.849,1.3411771059036255,-6.309872627258301,-2.5459630489349365,-0.7110471725463867,-1.3269519805908203,-0.6632469296455383,-73.9549789428711,33.84975051879883,-25.533470153808594
5.868,1.657029628753662,-3.3032915592193604,-2.225324869155884,0.051923543214797974,-1.1917980909347534,-0.7093672156333923,-73.56036376953125,33.64513397216797,-25.34346580505371
5.872,3.0317063331604004,-2.252842426300049,-2.2468602657318115,0.9414960145950317,-1.3810136318206787,-0.4014911651611328,-72.7272720336914,32.89973831176758,-24.174217224121094
5.879,2.3365912437438965,-1.7730815410614014,-1.392622709274292,1.3284791707992554,-1.5952744483947754,-0.10537425428628922,-72.24495697021484,32.72434997558594,-23.677288055419922
5.889,1.2478569746017456,-1.428515076637268,-0.7034898400306702,1.6203200817108154,-1.6473509073257446,0.5236642360687256,-72.30342102050781,33.425899505615234,-23.648056030273438
5.899,-0.015553345903754234,-1.8508483171463013,0.574277400970459,1.638493299484253,-1.3880385160446167,1.07771897315979,-71.23648071289062,33.64513397216797,-22.902660369873047
5.909,-0.5419743061065674,-2.6081764698028564,1.6402798891067505,1.5541938543319702,-0.9628763198852539,1.6088663339614868,-70.40338897705078,34.346683502197266,-22.888044357299805
5.929,-0.6269195079803467,-3.148954391479492,2.2648065090179443,1.4089607000350952,-0.4179845154285431,2.0257818698883057,-69.92107391357422,35.15053939819336,-22.610347747802734
5.933,-0.22492532432079315,-3.816551923751831,2.200200319290161,1.3200798034667969,0.37262779474258423,2.311056137084961,-68.45951843261719,36.69979476928711,-23.03420066833496
5.939,-0.01196411345154047,-4.040280818939209,2.0123636722564697,1.3373366594314575,0.7331910133361816,2.3715317249298096,-67.7287368774414,37.81058120727539,-23.01958465576172
5.949,0.07058826088905334,-4.405186176300049,1.8388842344284058,1.373683214187622,1.1287262439727783,2.3776400089263916,-67.2171859741211,39.00905990600586,-23.794212341308594
5.959,0.3254238963127136,-4.463810443878174,1.5816556215286255,1.4175127744674683,1.2910637855529785,2.238515853881836,-66.82256317138672,39.944461822509766,-24.94884490966797
5.969,-0.007178467698395252,-4.035495281219482,1.2263215780258179,1.4943290948867798,1.2151635885238647,1.9097174406051636,-66.20870971679688,40.74831771850586,-26.39579200744629
5.989,0.331405907869339,-2.9072792530059814,0.5407779216766357,1.627803087234497,1.0346529483795166,1.4427108764648438,-65.8140869140625,41.55217742919922,-27.15580177307129
5.993,-0.02512463741004467,-1.5086746215820312,0.1423729509115219,1.4408783912658691,1.1772900819778442,1.0532844066619873,-65.46331787109375,41.9614143371582,-28.368898391723633
5.999,-0.9810572266578674,-0.7597211599349976,-0.1902294009923935,0.10797043144702911,2.1792616844177246,1.2220358848571777,-65.2733154296875,42.53142547607422,-29.055830001831055
6.009,0.06699903309345245,0.14476576447486877,-3.9936206340789795,-2.434603214263916,4.2250494956970215,0.11682797223329544,-65.58023834228516,42.38526916503906,-30.035078048706055
6.019,6.594618797302246,2.6297121047973633,-6.057430744171143,-2.900846242904663,5.003597259521484,-1.563051462173462,-66.16486358642578,41.186790466308594,-31.49663734436035
6.029,10.131211280822754,1.2095718383789062,-2.0195422172546387,-1.3967432975769043,3.986812114715576,-2.0254764556884766,-67.91873931884766,40.04676818847656,-31.423559188842773
6.049,7.791029930114746,-1.7898313999176025,1.628315806388855,-0.23350323736667633,1.6392568349838257,-1.6007723808288574,-68.78105926513672,38.70213317871094,-33.07512283325195
6.053,3.1274189949035645,-2.2408783435821533,1.691725492477417,0.3865249752998352,0.03176499158143997,-0.8801040649414062,-68.25489044189453,38.51213073730469,-32.31510925292969
6.059,2.9515466690063477,-1.628315806388855,1.9286149740219116,0.5586362481117249,-0.35414913296699524,-0.6659957766532898,-68.5325927734375,38.33674621582031,-32.84127426147461
6.069,2.3712871074676514,-2.8965117931365967,2.5878376960754395,0.725249707698822,-1.0126618146896362,-0.5444336533546448,-68.21105194091797,37.88365936279297,-32.91435241699219
6.079,2.286341905593872,-5.064409255981445,2.5938196182250977,0.8439103364944458,-1.4996742010116577,-0.44089198112487793,-67.7725830078125,37.605960845947266,-32.73896408081055
6.089,2.5016961097717285,-8.48734188079834,2.4610180854797363,1.0282388925552368,-1.930486798286438,-0.352011114358902,-67.64103698730469,37.91289138793945,-31.81818199157715
6.108,3.8500516414642334,-12.175877571105957,3.847658634185791,1.2470813989639282,-2.046704053878784,0.30634891986846924,-66.04793548583984,37.75211715698242,-30.868165969848633
6.112,2.956332206726074,-17.867206573486328,6.58265495300293,1.1508700847625732,-1.6181819438934326,0.564592182636261,-66.01870727539062,37.708274841308594,-29.742765426635742
6.119,2.5734806060791016,-17.742778778076172,7.196413993835449,0.8936958909034729,-0.8874344229698181,0.9482155442237854,-65.63870239257812,38.49751663208008,-29.71353530883789
6.129,1.8257235288619995,-16.706687927246094,6.732206344604492,0.4466952085494995,-0.21792617440223694,1.153160810470581,-64.95176696777344,39.00905990600586,-29.698917388916016
6.139,1.56969153881073,-17.685352325439453,7.1509504318237305,0.07498370856046677,0.5059491395950317,1.211498498916626,-63.75328826904297,39.564453125,-29.78661346435547
6.149,3.410968542098999,-17.769100189208984,6.337390422821045,-0.14278973639011383,1.1893545389175415,1.3284791707992554,-64.20637512207031,39.82753372192383,-30.400466918945312
6.169,4.914857387542725,-14.790037155151367,3.7639100551605225,0.20387627184391022,1.1268937587738037,1.406822681427002,-63.5340576171875,41.157554626464844,-30.795087814331055
6.173,6.64486837387085,-13.202398300170898,3.975674629211426,0.7939720749855042,0.717308521270752,1.5624405145645142,-63.22712707519531,41.069862365722656,-31.014324188232422
6.179,7.765905857086182,-12.586247444152832,3.9804604053497314,1.114065408706665,0.2848159074783325,1.7382169961929321,-62.715576171875,42.37065124511719,-31.423559188842773
6.189,8.506484031677246,-11.730812072753906,3.5736804008483887,1.6288721561431885,-0.4395175576210022,2.105652332305908,-61.99941635131836,42.3414192199707,-31.49663734436035
6.199,8.58903694152832,-11.632707595825195,3.370290756225586,2.5422685146331787,-1.286634922027588,2.6537513732910156,-60.71324157714844,43.40835952758789,-32.1689567565918
6.209,8.00518798828125,-12.44985580444336,3.8739798069000244,3.2757647037506104,-1.5691601037979126,3.0334041118621826,-59.894771575927734,44.70914840698242,-33.5282096862793
6.228,5.882754325866699,-14.056636810302734,6.187839031219482,3.84386944770813,-1.1858421564102173,3.2420146465301514,-56.84010314941406,47.70534896850586,-35.179771423339844
6.232,4.95074987411499,-14.640485763549805,7.04925537109375,3.8127152919769287,-1.0503827333450317,3.1618385314941406,-56.59164047241211,48.34843444824219,-35.545162200927734
6.239,3.700500249862671,-15.266207695007324,8.055437088012695,3.6529741287231445,-0.5224425196647644,2.710408926010132,-55.51008605957031,49.38614273071289,-35.67670440673828
6.249,7.103094100952148,-16.825132369995117,8.474181175231934,3.207958936691284,0.40775254368782043,1.5277739763259888,-54.048526763916016,50.42385482788086,-37.7228889465332
6.259,10.175477981567383,-17.592031478881836,8.647661209106445,2.8568639755249023,1.067639708518982,0.7985535860061646,-53.40544128417969,50.979244232177734,-39.73984146118164
6.269,11.81216812133789,-16.025930404663086,8.597411155700684,2.448042392730713,2.1033616065979004,0.31093040108680725,-53.04004669189453,50.993858337402344,-41.639869689941406
6.288,11.572885513305664,-14.376077651977539,6.356533527374268,2.143984317779541,4.876079082489014,0.080634206533432,-53.39081954956055,51.54925537109375,-45.42531204223633
6.292,10.98784065246582,-12.91047477722168,4.241277694702148,2.1447479724884033,4.999474048614502,0.09117163717746735,-53.17158508300781,51.505409240722656,-45.65916442871094
6.299,0.04307080805301666,-20.50649070739746,4.370490550994873,0.33139437437057495,5.003597259521484,0.39874228835105896,-53.06927490234375,51.783103942871094,-47.500728607177734
6.309,6.248856067657471,-22.07857322692871,-10.231709480285645,-5.003597259521484,5.003597259521484,0.7286095023155212,-52.703887939453125,51.92926025390625,-49.31306457519531
6.319,17.065610885620117,0.08255238085985184,-32.91686248779297,-5.003597259521484,5.003597259521484,-0.24266621470451355,-52.484657287597656,52.002342224121094,-49.50307083129883
6.329,20.565114974975586,-1.4428720474243164,-18.696319580078125,-3.631746530532837,4.59492826461792,-0.18081609904766083,-52.35311508178711,51.7392578125,-48.50920867919922
6.349,9.65982437133789,-0.698704183101654,-1.9106688499450684,-0.6496551632881165,-2.6820037364959717,0.5911648273468018,-51.92926025390625,51.87080001831055,-47.39842224121094
6.353,6.781259536743164,-0.2309073656797409,-1.5984054803848267,-0.19578230381011963,-2.878702402114868,0.5342016220092773,-51.43233108520508,51.900028228759766,-46.726104736328125
6.359,4.469792366027832,-0.11485548317432404,-0.8207381367683411,0.1241583600640297,-2.456900119781494,0.3257438838481903,-51.12540054321289,51.85618591308594,-47.33995819091797
6.369,2.5878376960754395,1.270588755607605,0.4486542344093323,-0.06459899991750717,-1.567785620689392,0.06322455406188965,-51.00847625732422,52.22157287597656,-45.717628479003906
6.379,2.0506489276885986,2.438286066055298,0.8602197170257568,-0.6794348359107971,-1.0290025472640991,-0.07513642311096191,-50.80385971069336,52.1192626953125,-46.19994354248047
6.389,1.2646067142486572,3.7148568630218506,0.5934200286865234,-1.1359038352966309,-0.8155050873756409,-0.21349740028381348,-50.3215446472168,51.81233215332031,-45.08915710449219
6.403,1.2765707969665527,3.672982692718506,0.8255237936973572,-1.3243557214736938,-0.7693847417831421,-0.5971208214759827,-50.64308547973633,52.19234085083008,-44.41683578491211
6.409,1.357926845550537,4.303491592407227,-0.038285162299871445,-1.2316570281982422,-0.8538368940353394,-0.836885392665863,-51.03771209716797,51.578487396240234,-44.46068572998047
6.419,2.427518606185913,4.406383037567139,0.010767702013254166,-1.0567967891693115,-0.7962628602981567,-1.1386528015136719,-50.336158752441406,52.14849853515625,-42.92604446411133
6.429,3.3655049800872803,3.5880372524261475,0.05383851006627083,-1.0331257581710815,-0.4450153112411499,-1.2791517972946167,-50.789241790771484,51.63694763183594,-42.502193450927734
6.439,3.968496322631836,1.9058831930160522,0.3888336718082428,-1.224173903465271,0.17012597620487213,-1.4202616214752197,-51.56386947631836,51.373870849609375,-42.078338623046875
6.449,4.603790283203125,0.061016976833343506,0.17706885933876038,-1.5699236392974854,0.48380523920059204,-1.785559058189392,-52.338497161865234,51.0815544128418,-41.9614143371582
6.467,5.441278457641602,-5.30847692489624,-2.493321180343628,-2.041206121444702,-0.4686863422393799,-2.864805221557617,-53.69774627685547,49.89768981933594,-39.52061080932617
6.471,5.282155990600586,-5.980859756469727,-2.9204399585723877,-2.0248656272888184,-0.6893614530563354,-2.967125177383423,-54.048526763916016,49.7223014831543,-39.389068603515625
6.48,4.867001056671143,-9.026923179626465,-5.280959129333496,-1.750586986541748,-1.3921618461608887,-3.3687691688537598,-53.93159866333008,49.31306457519531,-39.30137634277344
6.489,5.383850574493408,-13.17248821258545,-7.353143692016602,-1.1568260192871094,-2.052049160003662,-3.5575263500213623,-55.83163070678711,48.099971771240234,-38.38058853149414
6.5,9.7124662399292,-12.448659896850586,-7.794619560241699,-0.20341812074184418,-2.6626086235046387,-4.072638511657715,-57.04472732543945,47.296112060546875,-36.59748840332031
6.518,12.52881908416748,-15.936198234558105,-5.525027275085449,0.8083274364471436,-4.0463714599609375,-4.504367351531982,-58.06781768798828,46.185325622558594,-35.42823791503906
6.522,17.050058364868164,-18.309877395629883,-1.592423439025879,1.4758503437042236,-5.003597259521484,-4.5210137367248535,-59.047061920166016,44.66530227661133,-34.85823059082031
6.529,18.427127838134766,-18.851852416992188,0.4139583110809326,1.9391916990280151,-5.003597259521484,-4.317290306091309,-60.33323287963867,43.379127502441406,-33.352821350097656
6.539,20.585453033447266,-22.877777099609375,4.533202171325684,2.473698616027832,-5.003597259521484,-3.880216121673584,-60.07015609741211,42.692195892333984,-31.218942642211914
6.549,17.815759658813477,-27.403799057006836,10.791630744934082,2.2728769779205322,-5.003597259521484,-2.796846389770508,-59.997074127197266,41.683719635009766,-29.625839233398438
6.559,17.1469669342041,-30.831518173217773,18.239290237426758,0.45433101058006287,-2.962085485458374,-1.1485792398452759,-60.65477752685547,40.689857482910156,-28.851213455200195
6.569,14.906088829040527,-28.619354248046875,11.682955741882324,-0.925613522529602,-1.6701055765151978,-0.2408336102962494,-60.099388122558594,41.27448272705078,-28.16427993774414
6.583,8.97787094116211,-26.557937622070312,5.273780822753906,-1.4353805780410767,-0.9783006906509399,0.05253440886735916,-60.08477020263672,40.23677444458008,-27.60888671875
6.59,4.863411903381348,-23.9581356048584,3.0041887760162354,-1.3716979026794434,-0.44944408535957336,-0.04489859566092491,-59.894771575927734,40.149078369140625,-27.214263916015625
6.6,3.4636106491088867,-20.30429458618164,2.1260228157043457,-1.327410101890564,0.023060161620378494,-0.2912300229072571,-60.099388122558594,39.579071044921875,-27.097341537475586
6.609,1.4249258041381836,-16.642080307006836,2.1511476039886475,-1.63467538356781,-0.1258382350206375,-0.31093040108680725,-59.96784591674805,39.579071044921875,-26.775794982910156
6.619,1.1976077556610107,-11.595619201660156,-0.2141576111316681,-1.8107572793960571,-0.08506298810243607,-0.5250386595726013,-60.50862121582031,38.1467399597168,-27.08272361755371
6.639,2.469392776489258,-6.70588493347168,-1.9549360275268555,-1.4088079929351807,-0.13225232064723969,-0.7186830043792725,-60.610931396484375,38.05904769897461,-26.585792541503906
6.643,3.4887354373931885,-4.207778453826904,-2.5196421146392822,-0.3871358335018158,-0.27840182185173035,-0.7293730974197388,-61.10786056518555,36.67056655883789,-26.936567306518555
6.649,3.696910858154297,-3.9038898944854736,-1.9417754411697388,0.23426681756973267,-0.34773504734039307,-0.5707008242607117,-61.28324890136719,36.539024353027344,-26.366558074951172
6.659,3.040081262588501,-3.806980848312378,-0.8685945868492126,0.7770205736160278,-0.3721696436405182,-0.28466320037841797,-60.85940170288086,36.59748840332031,-26.132709503173828
6.669,2.3497517108917236,-3.748356580734253,-0.2021934986114502,1.1163562536239624,-0.3145955801010132,0.036193765699863434,-60.800933837890625,36.71440887451172,-26.702720642089844
6.679,1.155733346939087,-3.693321704864502,-0.08853442966938019,1.3116803169250488,-0.3075706362724304,0.20555615425109863,-60.596317291259766,37.094417572021484,-27.15580177307129
6.698,0.17108681797981262,-5.088337421417236,1.168893814086914,1.3689489364624023,-0.10216721147298813,0.6171265840530396,-60.46477508544922,37.24057388305664,-27.798887252807617
