time,accel_x,accel_y,accel_z,gyro_x,gyro_y,gyro_z,mag_x,mag_y,mag_z
0.0,77.26567840576172,-10.457873344421387,14.901511192321777,3.197549819946289,-4.796324729919434,-9.592649459838867,-72.0,-22.350000381469727,-10.200000762939453
0.02,76.99752807617188,-11.60708999633789,13.982137680053711,-2.2649309635162354,-2.797856092453003,-1.0658499002456665,-72.0,-22.350000381469727,-10.200000762939453
0.023,76.30799865722656,-10.381258964538574,14.556746482849121,4.263399600982666,-4.396630764007568,5.728943347930908,-72.1500015258789,-22.950000762939453,-10.050000190734863
0.03,76.76768493652344,-10.917559623718262,15.85919189453125,-5.329249382019043,2.131699800491333,-5.995405673980713,-70.80000305175781,-21.600000381469727,-9.15000057220459
0.04,76.26969146728516,-11.798625946044922,14.058752059936523,-0.9326186776161194,-3.597243309020996,-4.130168437957764,-72.1500015258789,-24.150001525878906,-10.350000381469727
0.05,75.12047576904297,-11.760318756103516,14.288596153259277,-7.72741174697876,0.6661561727523804,-1.5987749099731445,-72.45000457763672,-23.700000762939453,-10.800000190734863
0.06,75.54185485839844,-10.84094524383545,14.633360862731934,-9.326186180114746,1.3323123455047607,-11.990811347961426,-72.45000457763672,-23.700000762939453,-10.800000190734863
0.07,76.23138427734375,-9.959878921508789,14.556746482849121,-5.595712184906006,2.131699800491333,-6.661561965942383,-72.75,-23.850000381469727,-10.200000762939453
0.086,75.65677642822266,-10.879252433776855,14.595053672790527,-5.462480545043945,4.130168437957764,-6.794793128967285,-71.55000305175781,-22.80000114440918,-9.90000057220459
0.09,77.1507568359375,-10.687716484069824,15.169661521911621,-7.594180583953857,4.663093090057373,-7.06125545501709,-70.6500015258789,-22.5,-9.75
0.1,76.19307708740234,-11.070788383483887,14.058752059936523,-0.6661561727523804,-0.2664624750614166,-4.929555892944336,-72.1500015258789,-22.5,-10.050000190734863
0.11,76.15476989746094,-12.373234748840332,14.36521053314209,-5.8621745109558105,-0.7993874549865723,0.2664624750614166,-72.1500015258789,-22.5,-10.050000190734863
0.12,76.26969146728516,-12.411541938781738,14.326903343200684,-7.594180583953857,1.5987749099731445,-4.929555892944336,-70.5,-23.55000114440918,-9.90000057220459
0.139,76.99752807617188,-11.30063247680664,14.020444869995117,-9.059723854064941,4.396630764007568,-9.192955017089844,-70.6500015258789,-22.5,-8.550000190734863
0.143,77.84028625488281,-10.572794914245605,14.67166805267334,0.5329249501228333,-4.263399600982666,1.5987749099731445,-71.4000015258789,-21.75,-10.050000190734863
0.15,75.81000518798828,-9.959878921508789,14.633360862731934,-1.1990811824798584,-2.2649309635162354,6.261868000030518,-70.6500015258789,-22.950000762939453,-10.800000190734863
0.16,76.65276336669922,-10.266336441040039,14.595053672790527,-2.398162364959717,2.531393527984619,-2.797856092453003,-70.6500015258789,-22.950000762939453,-10.800000190734863
0.17,77.64875030517578,-11.03248119354248,13.867216110229492,-1.0658499002456665,-3.7304747104644775,-1.3323123455047607,-72.1500015258789,-22.950000762939453,-10.800000190734863
0.18,76.19307708740234,-10.917559623718262,13.905523300170898,-1.4655436277389526,-8.526799201965332,-0.5329249501228333,-71.55000305175781,-23.100000381469727,-10.950000762939453
0.199,76.99752807617188,-11.224017143249512,15.591041564941406,-2.398162364959717,-5.595712184906006,2.6646246910095215,-72.9000015258789,-24.150001525878906,-10.350000381469727
0.204,77.07414245605469,-11.453861236572266,14.633360862731934,0.2664624750614166,-3.197549819946289,1.3323123455047607,-72.0,-22.80000114440918,-10.950000762939453
0.21,75.65677642822266,-11.951854705810547,14.020444869995117,-3.3307809829711914,-4.796324729919434,-5.462480545043945,-72.0,-22.80000114440918,-10.950000762939453
0.22,76.46122741699219,-11.41555404663086,13.21599292755127,-1.4655436277389526,-8.260336875915527,0.7993874549865723,-72.1500015258789,-24.150001525878906,-9.75
0.23,77.49552154541016,-11.645397186279297,14.518439292907715,-3.9969370365142822,-0.39969372749328613,-0.5329249501228333,-71.70000457763672,-23.25,-10.350000381469727
0.24,76.72937774658203,-11.683704376220703,13.943830490112305,-5.728943347930908,-0.2664624750614166,-7.194486618041992,-71.4000015258789,-24.150001525878906,-10.800000190734863
0.26,76.00154113769531,-10.84094524383545,14.135366439819336,-7.860642910003662,-2.2649309635162354,-2.531393527984619,-71.4000015258789,-24.150001525878906,-10.800000190734863
0.263,76.19307708740234,-11.683704376220703,14.288596153259277,-5.8621745109558105,7.327718257904053,0.5329249501228333,-70.95000457763672,-23.700000762939453,-10.350000381469727
0.27,76.65276336669922,-11.60708999633789,14.97812557220459,-8.926492691040039,2.531393527984619,-7.594180583953857,-71.70000457763672,-23.25,-10.050000190734863
0.28,76.88260650634766,-11.60708999633789,14.786589622497559,3.86370587348938,-0.7993874549865723,-1.5987749099731445,-72.0,-23.850000381469727,-10.200000762939453
0.29,76.537841796875,-10.572794914245605,15.284584045410156,1.7320060729980469,-4.796324729919434,1.8652373552322388,-71.25,-23.55000114440918,-10.200000762939453
0.3,77.22737121582031,-11.1474027633667,14.326903343200684,1.1990811824798584,-4.929555892944336,0.2664624750614166,-71.25,-23.55000114440918,-10.200000762939453
0.32,76.15476989746094,-11.070788383483887,15.24627685546875,-5.595712184906006,0.2664624750614166,-11.857580184936523,-72.1500015258789,-22.200000762939453,-8.550000190734863
0.324,76.72937774658203,-10.15141487121582,14.518439292907715,2.398162364959717,-5.196018218994141,21.45022964477539,-71.25,-23.55000114440918,-10.950000762939453
0.33,77.38059997558594,-11.109095573425293,14.36521053314209,-6.261868000030518,-1.0658499002456665,-9.326186180114746,-71.25,-23.55000114440918,-10.950000762939453
0.34,76.26969146728516,-11.683704376220703,13.982137680053711,-3.9969370365142822,-3.86370587348938,-0.6661561727523804,-72.1500015258789,-22.5,-9.75
0.35,76.61445617675781,-11.070788383483887,14.441824913024902,0.6661561727523804,-10.791729927062988,0.2664624750614166,-72.1500015258789,-22.5,-9.75
0.36,76.07815551757812,-10.879252433776855,14.824896812438965,-1.5987749099731445,-5.462480545043945,0.1332312375307083,-71.55000305175781,-21.900001525878906,-9.90000057220459
0.38,76.26969146728516,-11.224017143249512,15.093047142028809,-7.327718257904053,2.131699800491333,-4.929555892944336,-70.6500015258789,-23.700000762939453,-9.300000190734863
0.384,77.57213592529297,-11.338939666748047,13.905523300170898,-4.663093090057373,3.3307809829711914,-1.5987749099731445,-72.30000305175781,-23.55000114440918,-10.950000762939453
0.39,76.537841796875,-10.304644584655762,15.054739952087402,3.7304747104644775,-7.194486618041992,1.4655436277389526,-72.30000305175781,-23.55000114440918,-10.950000762939453
0.4,76.5761489868164,-11.185709953308105,14.480132102966309,-2.6646246910095215,2.398162364959717,-14.92189884185791,-72.30000305175781,-23.55000114440918,-10.950000762939453
0.41,76.99752807617188,-11.338939666748047,14.824896812438965,1.1990811824798584,2.398162364959717,-9.859111785888672,-73.05000305175781,-22.350000381469727,-9.450000762939453
0.42,77.26567840576172,-10.304644584655762,14.441824913024902,8.926492691040039,-6.794793128967285,2.398162364959717,-71.4000015258789,-22.950000762939453,-11.850000381469727
0.44,76.23138427734375,-11.836933135986328,13.982137680053711,-2.531393527984619,4.529861927032471,-1.8652373552322388,-71.25,-22.80000114440918,-10.65000057220459
0.443,75.81000518798828,-11.109095573425293,12.832921028137207,-6.9280242919921875,4.529861927032471,-5.462480545043945,-73.05000305175781,-22.350000381469727,-10.200000762939453
0.45,76.80599212646484,-11.338939666748047,13.522451400756836,-1.0658499002456665,3.4640121459960938,-6.5283308029174805,-73.05000305175781,-22.350000381469727,-10.200000762939453
0.46,77.34229278564453,-10.15141487121582,13.982137680053711,-3.197549819946289,-0.1332312375307083,-4.130168437957764,-72.45000457763672,-22.200000762939453,-10.800000190734863
0.47,76.537841796875,-9.921571731567383,14.556746482849121,3.597243309020996,-9.192955017089844,-0.39969372749328613,-71.4000015258789,-22.950000762939453,-11.100000381469727
0.48,77.45721435546875,-10.304644584655762,14.67166805267334,-3.597243309020996,0.0,-3.9969370365142822,-70.95000457763672,-23.700000762939453,-9.75
0.5,77.22737121582031,-11.224017143249512,14.556746482849121,1.8652373552322388,-2.9310872554779053,3.7304747104644775,-70.95000457763672,-22.5,-11.100000381469727
0.504,77.30398559570312,-10.955866813659668,13.828908920288086,3.3307809829711914,-6.261868000030518,-7.06125545501709,-72.75,-23.100000381469727,-10.950000762939453
0.51,76.15476989746094,-10.496180534362793,13.79060173034668,1.7320060729980469,-3.3307809829711914,-3.3307809829711914,-72.75,-23.100000381469727,-10.950000762939453
0.52,76.72937774658203,-11.070788383483887,13.867216110229492,7.594180583953857,-7.327718257904053,5.062787055969238,-71.4000015258789,-22.950000762939453,-10.800000190734863
0.53,77.30398559570312,-10.687716484069824,14.09705924987793,3.9969370365142822,-5.8621745109558105,2.6646246910095215,-71.55000305175781,-22.80000114440918,-10.200000762939453
0.54,75.9632339477539,-10.304644584655762,13.445837020874023,3.597243309020996,-4.130168437957764,3.3307809829711914,-72.45000457763672,-23.25,-11.100000381469727
0.561,77.8019790649414,-11.836933135986328,12.871228218078613,3.9969370365142822,2.797856092453003,-4.796324729919434,-72.45000457763672,-23.25,-11.100000381469727
0.565,76.80599212646484,-12.066776275634766,13.752294540405273,8.260336875915527,-6.661561965942383,8.127105712890625,-71.55000305175781,-24.30000114440918,-9.90000057220459
0.57,75.73339080810547,-11.875240325927734,14.748282432556152,-6.395099639892578,1.1990811824798584,0.9326186776161194,-71.55000305175781,-24.30000114440918,-9.90000057220459
0.58,76.80599212646484,-12.105083465576172,13.369222640991211,-3.3307809829711914,3.0643184185028076,-1.1990811824798584,-71.25,-24.30000114440918,-9.90000057220459
0.59,76.38461303710938,-12.60307788848877,13.292608261108398,2.6646246910095215,-3.9969370365142822,8.260336875915527,-71.25,-24.30000114440918,-9.90000057220459
0.6,77.03583526611328,-11.60708999633789,13.254301071166992,1.1990811824798584,-5.728943347930908,-10.392036437988281,-71.25,-24.30000114440918,-9.90000057220459
0.619,76.65276336669922,-11.377246856689453,13.024456977844238,-4.263399600982666,0.6661561727523804,-3.9969370365142822,-73.05000305175781,-23.850000381469727,-9.90000057220459
0.623,77.8019790649414,-10.036493301391602,13.522451400756836,5.196018218994141,-7.06125545501709,1.1990811824798584,-71.25,-24.30000114440918,-9.90000057220459
0.63,76.5761489868164,-11.798625946044922,13.867216110229492,-0.5329249501228333,-4.796324729919434,6.9280242919921875,-71.25,-24.30000114440918,-9.90000057220459
0.64,77.03583526611328,-11.568782806396484,13.560758590698242,-6.128636837005615,4.396630764007568,-8.660030364990234,-71.25,-24.30000114440918,-9.90000057220459
0.65,76.69107055664062,-12.871228218078613,13.79060173034668,-6.261868000030518,7.594180583953857,-0.9326186776161194,-72.1500015258789,-23.700000762939453,-12.600000381469727
0.66,75.8866195678711,-11.875240325927734,14.173673629760742,-1.8652373552322388,4.796324729919434,-7.9938740730285645,-71.4000015258789,-23.25,-10.800000190734863
0.68,76.38461303710938,-12.181697845458984,14.67166805267334,-3.9969370365142822,-1.7320060729980469,-6.5283308029174805,-71.70000457763672,-24.450000762939453,-11.100000381469727
0.683,75.54185485839844,-10.687716484069824,13.292608261108398,1.5987749099731445,-5.196018218994141,-2.9310872554779053,-71.70000457763672,-24.450000762939453,-11.100000381469727
0.69,76.30799865722656,-12.105083465576172,13.675680160522461,-6.261868000030518,2.797856092453003,-6.5283308029174805,-73.20000457763672,-23.25,-11.550000190734863
0.7,76.4995346069336,-11.760318756103516,13.828908920288086,-0.7993874549865723,-6.794793128967285,-2.2649309635162354,-70.6500015258789,-23.25,-9.0
0.71,75.84831237792969,-13.10107135772705,13.713987350463867,-1.0658499002456665,-7.460949420928955,5.062787055969238,-72.0,-21.900001525878906,-9.90000057220459
0.72,75.38862609863281,-11.41555404663086,13.445837020874023,1.5987749099731445,-0.2664624750614166,6.5283308029174805,-70.95000457763672,-22.5,-10.800000190734863
0.74,76.99752807617188,-12.48815631866455,14.173673629760742,-4.130168437957764,3.197549819946289,0.7993874549865723,-70.95000457763672,-22.5,-10.800000190734863
0.743,76.11646270751953,-12.258312225341797,13.062764167785645,-5.196018218994141,6.128636837005615,-7.327718257904053,-70.95000457763672,-22.950000762939453,-9.75
0.75,77.1507568359375,-12.258312225341797,14.326903343200684,1.4655436277389526,-0.1332312375307083,-4.663093090057373,-73.05000305175781,-23.100000381469727,-12.450000762939453
0.76,76.4995346069336,-11.30063247680664,13.48414421081543,-0.1332312375307083,-2.398162364959717,-3.7304747104644775,-72.75,-21.900001525878906,-10.65000057220459
0.77,76.38461303710938,-11.72201156616211,13.48414421081543,-1.9984685182571411,-0.39969372749328613,-2.797856092453003,-71.70000457763672,-23.700000762939453,-11.100000381469727
0.78,76.99752807617188,-11.645397186279297,14.09705924987793,2.9310872554779053,4.263399600982666,0.9326186776161194,-71.70000457763672,-23.700000762939453,-11.100000381469727
0.799,76.72937774658203,-10.764330863952637,14.020444869995117,-6.261868000030518,8.39356803894043,-5.062787055969238,-72.0,-23.850000381469727,-10.65000057220459
1.048,76.42292022705078,-12.181697845458984,13.905523300170898,-1.3323123455047607,5.062787055969238,-2.9310872554779053,-72.75,-21.900001525878906,-11.700000762939453
1.058,75.54185485839844,-11.91354751586914,13.560758590698242,-5.329249382019043,9.859111785888672,-5.995405673980713,-71.4000015258789,-22.5,-11.100000381469727
1.068,76.84429931640625,-11.798625946044922,13.330915451049805,-5.196018218994141,6.5283308029174805,0.1332312375307083,-71.4000015258789,-22.5,-11.100000381469727
1.078,77.45721435546875,-11.224017143249512,13.599065780639648,2.2649309635162354,-4.396630764007568,-1.5987749099731445,-71.55000305175781,-24.30000114440918,-11.40000057220459
1.098,75.81000518798828,-11.645397186279297,13.48414421081543,-0.39969372749328613,4.929555892944336,-1.4655436277389526,-71.4000015258789,-22.950000762939453,-12.600000381469727
1.101,76.00154113769531,-11.338939666748047,12.832921028137207,-4.796324729919434,3.86370587348938,1.4655436277389526,-71.55000305175781,-23.55000114440918,-10.950000762939453
1.108,77.07414245605469,-11.109095573425293,13.752294540405273,0.39969372749328613,-5.995405673980713,0.9326186776161194,-71.70000457763672,-22.5,-11.100000381469727
1.118,76.15476989746094,-11.683704376220703,14.786589622497559,0.0,-2.531393527984619,2.6646246910095215,-71.70000457763672,-22.5,-11.100000381469727
1.128,76.88260650634766,-12.373234748840332,14.67166805267334,-2.2649309635162354,3.9969370365142822,-1.9984685182571411,-70.95000457763672,-24.450000762939453,-11.100000381469727
1.138,76.4995346069336,-11.683704376220703,14.250288963317871,-5.595712184906006,5.728943347930908,-1.3323123455047607,-70.80000305175781,-23.850000381469727,-10.200000762939453
1.158,76.69107055664062,-11.30063247680664,13.79060173034668,-4.663093090057373,5.595712184906006,-3.597243309020996,-72.45000457763672,-24.150001525878906,-10.800000190734863
1.161,76.30799865722656,-12.526463508605957,14.748282432556152,-1.8652373552322388,6.9280242919921875,-3.7304747104644775,-71.25,-24.30000114440918,-11.700000762939453
1.168,76.65276336669922,-12.526463508605957,13.943830490112305,-7.860642910003662,3.86370587348938,-6.661561965942383,-71.25,-24.30000114440918,-11.700000762939453
1.178,77.1124496459961,-10.955866813659668,13.292608261108398,1.7320060729980469,-7.72741174697876,-11.457886695861816,-74.25,-25.05000114440918,-11.40000057220459
1.188,75.77169799804688,-11.41555404663086,14.709975242614746,4.529861927032471,-3.197549819946289,3.7304747104644775,-70.6500015258789,-22.950000762939453,-10.350000381469727
1.198,78.10843658447266,-11.03248119354248,15.935806274414062,-4.529861927032471,-1.4655436277389526,-6.128636837005615,-72.9000015258789,-23.700000762939453,-10.800000190734863
1.218,76.88260650634766,-11.185709953308105,13.024456977844238,-6.9280242919921875,0.2664624750614166,-9.859111785888672,-70.20000457763672,-23.700000762939453,-11.550000190734863
1.222,77.1507568359375,-11.72201156616211,11.798625946044922,-2.2649309635162354,5.196018218994141,-3.0643184185028076,-70.20000457763672,-23.700000762939453,-11.550000190734863
1.228,77.03583526611328,-11.453861236572266,13.905523300170898,0.7993874549865723,-3.86370587348938,-0.39969372749328613,-72.45000457763672,-23.25,-9.75
1.238,76.19307708740234,-12.22000503540039,13.752294540405273,-3.0643184185028076,0.1332312375307083,-9.192955017089844,-72.0,-23.850000381469727,-10.200000762939453
1.248,76.19307708740234,-10.955866813659668,13.254301071166992,1.3323123455047607,1.1990811824798584,-7.06125545501709,-71.55000305175781,-23.55000114440918,-9.90000057220459
1.258,75.61846923828125,-11.568782806396484,13.369222640991211,0.6661561727523804,-1.0658499002456665,6.128636837005615,-72.75,-23.55000114440918,-9.90000057220459
1.278,76.76768493652344,-10.917559623718262,13.752294540405273,-6.395099639892578,3.7304747104644775,-3.4640121459960938,-72.75,-23.55000114440918,-9.90000057220459
1.282,76.72937774658203,-11.60708999633789,13.79060173034668,2.6646246910095215,-1.0658499002456665,5.728943347930908,-72.30000305175781,-23.100000381469727,-10.65000057220459
1.288,76.07815551757812,-11.492168426513672,13.062764167785645,8.793261528015137,-0.39969372749328613,3.597243309020996,-70.80000305175781,-24.30000114440918,-11.40000057220459
1.298,75.61846923828125,-11.91354751586914,15.322891235351562,4.263399600982666,-0.9326186776161194,-0.1332312375307083,-71.4000015258789,-22.950000762939453,-10.350000381469727
1.308,77.30398559570312,-10.496180534362793,14.211980819702148,0.2664624750614166,5.995405673980713,3.9969370365142822,-71.4000015258789,-22.950000762939453,-10.350000381469727
1.318,76.34630584716797,-12.066776275634766,13.828908920288086,-2.398162364959717,4.396630764007568,-4.529861927032471,-72.75,-23.55000114440918,-10.950000762939453
1.338,75.77169799804688,-12.449849128723145,13.522451400756836,4.130168437957764,0.39969372749328613,0.9326186776161194,-70.95000457763672,-23.25,-11.550000190734863
1.342,76.4995346069336,-11.760318756103516,12.986149787902832,14.12251091003418,-7.72741174697876,4.529861927032471,-72.0,-24.750001907348633,-10.200000762939453
1.348,77.45721435546875,-13.177685737609863,13.943830490112305,8.660030364990234,1.1990811824798584,-7.327718257904053,-70.5,-25.05000114440918,-9.450000762939453
1.358,79.21934509277344,-9.500192642211914,14.901511192321777,25.7136287689209,-6.9280242919921875,6.395099639892578,-70.5,-25.05000114440918,-9.450000762939453
1.368,76.69107055664062,-7.546523571014404,14.595053672790527,28.644716262817383,-11.191424369812012,11.324655532836914,-71.70000457763672,-25.200000762939453,-10.050000190734863
1.378,76.38461303710938,-7.1251444816589355,14.748282432556152,20.650842666625977,-9.592649459838867,9.326186180114746,-72.45000457763672,-23.700000762939453,-10.800000190734863
1.398,76.30799865722656,-10.266336441040039,15.782577514648438,30.24349021911621,-22.51607894897461,11.724349021911621,-71.4000015258789,-24.150001525878906,-11.850000381469727
1.402,79.21934509277344,-9.308655738830566,15.016432762145996,11.857580184936523,-13.456355094909668,25.18070411682129,-72.0,-24.30000114440918,-13.200000762939453
1.408,77.1124496459961,-12.48815631866455,17.92778205871582,-1.4655436277389526,-18.119447708129883,29.84379768371582,-72.0,-24.30000114440918,-13.200000762939453
1.418,77.22737121582031,-14.518439292907715,18.04270362854004,-19.718223571777344,-17.053598403930664,28.111791610717773,-72.9000015258789,-25.200000762939453,-11.100000381469727
1.428,76.61445617675781,-12.526463508605957,16.318878173828125,-15.721285820007324,-26.379785537719727,39.70290756225586,-70.80000305175781,-25.05000114440918,-12.750000953674316
1.438,75.73339080810547,-12.334927558898926,13.522451400756836,-14.12251091003418,-30.776416778564453,32.90811538696289,-72.1500015258789,-22.950000762939453,-12.300000190734863
1.458,76.92091369628906,-10.687716484069824,12.334927558898926,-13.189892768859863,-20.38437843322754,33.84073257446289,-71.4000015258789,-23.700000762939453,-12.600000381469727
1.462,76.38461303710938,-12.411541938781738,7.814674377441406,2.9310872554779053,-17.32006072998047,51.560489654541016,-71.4000015258789,-23.700000762939453,-12.600000381469727
1.468,74.89063262939453,-12.947842597961426,5.899312973022461,5.196018218994141,-16.65390396118164,42.36753463745117,-72.0,-24.750001907348633,-12.0
1.478,74.2394027709961,-13.292608261108398,4.711789131164551,-0.6661561727523804,-3.7304747104644775,38.37059783935547,-71.25,-26.55000114440918,-10.950000762939453
1.488,75.9632339477539,-16.70195198059082,4.290409564971924,12.390504837036133,3.3307809829711914,35.972434997558594,-72.75,-26.250001907348633,-12.450000762939453
1.498,77.03583526611328,-18.502389907836914,5.20978307723999,11.457886695861816,2.6646246910095215,45.56508255004883,-70.6500015258789,-25.650001525878906,-13.350000381469727
1.518,75.2737045288086,-19.728221893310547,6.627150535583496,14.92189884185791,7.72741174697876,23.315465927124023,-70.6500015258789,-25.650001525878906,-13.350000381469727
1.521,75.23539733886719,-20.264522552490234,6.550535678863525,10.92496109008789,14.12251091003418,33.17457962036133,-70.5,-26.100000381469727,-13.350000381469727
1.528,75.3503189086914,-20.456058502197266,6.01423454284668,2.797856092453003,15.854516983032227,19.85145378112793,-70.5,-27.750001907348633,-11.700000762939453
1.538,76.07815551757812,-19.574993133544922,7.354987621307373,7.327718257904053,13.323123931884766,23.448698043823242,-70.80000305175781,-27.450000762939453,-10.950000762939453
1.548,75.84831237792969,-16.05072784423828,8.312667846679688,3.597243309020996,30.643184661865234,25.980091094970703,-70.6500015258789,-26.400001525878906,-11.850000381469727
1.558,76.11646270751953,-12.22000503540039,11.03248119354248,5.728943347930908,31.042879104614258,25.313934326171875,-70.6500015258789,-26.400001525878906,-11.850000381469727
1.578,75.12047576904297,-8.772355079650879,14.901511192321777,18.119447708129883,21.316997528076172,22.782541275024414,-71.70000457763672,-27.900001525878906,-12.600000381469727
1.581,74.77571105957031,-10.074800491333008,18.04270362854004,3.597243309020996,30.643184661865234,18.91883659362793,-71.55000305175781,-27.750001907348633,-13.200000762939453
1.588,75.61846923828125,-15.169661521911621,19.230228424072266,-1.9984685182571411,31.575803756713867,17.186830520629883,-71.55000305175781,-27.750001907348633,-13.200000762939453
1.598,76.69107055664062,-18.579004287719727,18.962078094482422,-7.860642910003662,31.309341430664062,14.522205352783203,-70.6500015258789,-27.900001525878906,-11.550000190734863
1.608,76.11646270751953,-18.77054214477539,17.92778205871582,-7.72741174697876,19.185298919677734,21.45022964477539,-70.6500015258789,-27.900001525878906,-11.550000190734863
1.618,74.58417510986328,-12.48815631866455,17.8128604888916,-9.859111785888672,21.716691970825195,17.852985382080078,-70.6500015258789,-28.350000381469727,-10.800000190734863
1.638,74.12448120117188,-10.496180534362793,15.514427185058594,1.4655436277389526,30.776416778564453,19.45176124572754,-70.95000457763672,-27.600000381469727,-11.850000381469727
1.641,76.00154113769531,-14.480132102966309,15.284584045410156,2.9310872554779053,26.912710189819336,7.460949420928955,-72.0,-29.250001907348633,-11.700000762939453
1.648,75.65677642822266,-16.66364288330078,12.334927558898926,15.588054656982422,16.78713607788086,34.50688934326172,-72.0,-29.250001907348633,-11.700000762939453
1.658,76.00154113769531,-16.970102310180664,15.85919189453125,11.058192253112793,22.51607894897461,22.649311065673828,-72.0,-29.250001907348633,-11.700000762939453
1.668,75.31201171875,-8.925583839416504,20.494365692138672,19.45176124572754,17.852985382080078,17.32006072998047,-71.4000015258789,-29.100000381469727,-10.800000190734863
1.678,74.43093872070312,-6.780379295349121,22.06496238708496,45.831546783447266,9.192955017089844,20.650842666625977,-71.4000015258789,-29.55000114440918,-11.550000190734863
1.698,74.16278839111328,-16.1656494140625,16.740259170532227,34.24042892456055,4.796324729919434,21.45022964477539,-70.80000305175781,-28.500001907348633,-10.950000762939453
1.702,75.81000518798828,-23.482330322265625,15.974113464355469,11.324655532836914,11.857580184936523,14.522205352783203,-70.95000457763672,-29.850000381469727,-10.350000381469727
1.708,76.99752807617188,-21.413740158081055,14.901511192321777,14.255742073059082,5.728943347930908,25.980091094970703,-70.95000457763672,-29.850000381469727,-10.350000381469727
1.718,77.03583526611328,-18.34916114807129,15.207969665527344,13.989279747009277,3.0643184185028076,22.116384506225586,-71.25,-30.150001525878906,-9.15000057220459
1.728,77.34229278564453,-18.11931800842285,12.334927558898926,-1.0658499002456665,18.119447708129883,14.255742073059082,-70.6500015258789,-30.30000114440918,-10.350000381469727
1.738,75.9632339477539,-19.345149993896484,15.820884704589844,-5.196018218994141,7.594180583953857,18.385910034179688,-71.25,-30.900001525878906,-9.15000057220459
1.757,75.81000518798828,-21.950040817260742,17.085023880004883,-16.25421142578125,4.663093090057373,7.72741174697876,-71.25,-30.900001525878906,-9.15000057220459
1.761,76.95922088623047,-24.66985511779785,14.250288963317871,-22.782541275024414,7.860642910003662,10.392036437988281,-71.55000305175781,-31.200000762939453,-10.65000057220459
1.768,76.23138427734375,-17.659631729125977,14.250288963317871,-25.04747200012207,6.261868000030518,11.591117858886719,-71.55000305175781,-31.200000762939453,-10.65000057220459
1.778,77.53382873535156,-14.135366439819336,16.318878173828125,-17.453292846679688,9.592649459838867,16.65390396118164,-70.05000305175781,-30.150001525878906,-10.200000762939453
1.788,76.11646270751953,-13.024456977844238,15.974113464355469,-8.926492691040039,0.39969372749328613,17.453292846679688,-70.05000305175781,-31.950000762939453,-9.90000057220459
1.798,75.8866195678711,-17.583017349243164,17.353174209594727,-25.18070411682129,4.929555892944336,27.84532928466797,-70.05000305175781,-31.950000762939453,-9.90000057220459
1.818,75.58016204833984,-20.609289169311523,17.73624610900879,-39.03675079345703,5.8621745109558105,18.2526798248291,-71.4000015258789,-31.05000114440918,-10.050000190734863
1.822,73.28172302246094,-20.609289169311523,19.728221893310547,-37.70444107055664,-1.1990811824798584,17.852985382080078,-71.55000305175781,-31.200000762939453,-10.65000057220459
1.828,75.12047576904297,-16.203956604003906,16.548721313476562,-28.24502182006836,-8.526799201965332,27.978559494018555,-71.55000305175781,-31.650001525878906,-9.90000057220459
1.839,75.9249267578125,-11.760318756103516,15.820884704589844,-15.854516983032227,-3.7304747104644775,31.309341430664062,-71.55000305175781,-31.650001525878906,-9.90000057220459
1.848,77.1890640258789,-13.139378547668457,16.548721313476562,-5.196018218994141,-4.396630764007568,46.764163970947266,-71.55000305175781,-33.150001525878906,-10.950000762939453
1.858,75.9632339477539,-18.310853958129883,13.867216110229492,-2.6646246910095215,-9.72588062286377,24.51454734802246,-70.6500015258789,-31.500001907348633,-10.350000381469727
1.877,76.03984832763672,-22.677879333496094,15.399505615234375,-14.92189884185791,-1.1990811824798584,21.316997528076172,-70.80000305175781,-33.150001525878906,-10.65000057220459
1.881,75.8866195678711,-24.59324073791504,10.074800491333008,-18.78560447692871,-4.130168437957764,21.183767318725586,-72.30000305175781,-33.150001525878906,-10.950000762939453
1.888,75.8866195678711,-21.643583297729492,12.641385078430176,-19.584991455078125,-5.062787055969238,19.85145378112793,-72.30000305175781,-33.150001525878906,-10.950000762939453
1.898,74.62248229980469,-20.341136932373047,12.526463508605957,-15.055130004882812,-2.6646246910095215,23.581928253173828,-71.4000015258789,-31.500001907348633,-10.800000190734863
1.908,74.7374038696289,-19.843143463134766,13.599065780639648,-23.848390579223633,7.860642910003662,28.24502182006836,-70.80000305175781,-33.60000228881836,-9.15000057220459
1.918,74.2777099609375,-19.613300323486328,14.633360862731934,-20.784072875976562,0.6661561727523804,26.64624786376953,-70.6500015258789,-34.20000076293945,-10.800000190734863
1.938,76.76768493652344,-20.11129379272461,16.81687355041504,-18.2526798248291,-2.531393527984619,33.84073257446289,-70.20000457763672,-33.45000076293945,-10.800000190734863
1.941,77.1890640258789,-21.796812057495117,15.629348754882812,-43.03369140625,-1.1990811824798584,32.24195861816406,-70.20000457763672,-33.45000076293945,-10.800000190734863
1.948,75.61846923828125,-16.47210693359375,20.64759635925293,-37.03828430175781,-4.663093090057373,43.16691970825195,-70.95000457763672,-34.20000076293945,-10.350000381469727
1.958,75.3503189086914,-14.748282432556152,20.95405387878418,-26.246553421020508,-15.055130004882812,52.89280319213867,-70.5,-35.10000228881836,-10.200000762939453
1.968,73.97125244140625,-16.28057098388672,19.038692474365234,-26.513015747070312,-19.31852912902832,50.76110076904297,-70.6500015258789,-34.95000076293945,-11.100000381469727
1.978,74.62248229980469,-20.800825119018555,15.744270324707031,-32.77488327026367,-9.192955017089844,56.889739990234375,-71.55000305175781,-34.35000228881836,-10.65000057220459
1.997,74.16278839111328,-24.286781311035156,14.09705924987793,-47.430320739746094,-6.794793128967285,56.62327575683594,-71.55000305175781,-34.35000228881836,-10.65000057220459
2.001,76.84429931640625,-21.14558982849121,12.871228218078613,-33.97396469116211,-18.119447708129883,70.74578857421875,-70.20000457763672,-35.25,-11.100000381469727
2.008,79.71733856201172,-16.931795120239258,18.310853958129883,-32.64165496826172,-21.716691970825195,65.016845703125,-70.5,-35.10000228881836,-11.40000057220459
2.018,77.45721435546875,-12.143390655517578,19.230228424072266,-2.9310872554779053,-24.11485481262207,70.61255645751953,-70.05000305175781,-35.85000228881836,-10.65000057220459
2.028,75.50354766845703,-13.177685737609863,17.046716690063477,19.31852912902832,-29.84379768371582,86.20060729980469,-69.9000015258789,-36.150001525878906,-11.550000190734863
2.038,76.92091369628906,-23.903709411621094,14.058752059936523,-2.9310872554779053,-34.64012145996094,81.53751373291016,-69.9000015258789,-36.150001525878906,-11.550000190734863
2.057,75.77169799804688,-33.32728576660156,13.062764167785645,-21.716691970825195,-35.03981399536133,79.80551147460938,-68.4000015258789,-37.20000076293945,-11.850000381469727
2.061,78.72135162353516,-21.835119247436523,18.464082717895508,-27.045940399169922,-34.64012145996094,79.13935852050781,-69.45000457763672,-38.400001525878906,-11.850000381469727
2.068,77.38059997558594,-18.004396438598633,17.966089248657227,-9.059723854064941,-31.44257164001465,96.32618713378906,-67.95000457763672,-37.20000076293945,-13.050000190734863
2.078,74.2394027709961,-23.788787841796875,18.464082717895508,-3.9969370365142822,-39.83613967895508,104.7197494506836,-70.05000305175781,-37.80000305175781,-12.750000953674316
2.088,81.32624053955078,-36.621707916259766,3.600879430770874,-67.01531219482422,-32.90811538696289,69.54670715332031,-70.05000305175781,-37.80000305175781,-12.750000953674316
2.098,77.57213592529297,-24.746469497680664,20.877439498901367,-37.17151641845703,-40.76875686645508,94.32771301269531,-69.30000305175781,-40.5,-12.750000953674316
2.117,80.29194641113281,-29.305028915405273,12.526463508605957,-56.356815338134766,-36.10566711425781,91.79632568359375,-67.5,-40.5,-11.700000762939453
2.121,87.07232666015625,-31.7183837890625,11.224017143249512,-64.75038146972656,-32.5084228515625,89.39816284179688,-67.95000457763672,-39.150001525878906,-13.65000057220459
2.128,82.4754638671875,-21.56696891784668,11.453861236572266,-53.95865249633789,-37.70444107055664,96.45941925048828,-67.95000457763672,-39.150001525878906,-13.65000057220459
2.138,85.08035278320312,-25.244462966918945,13.10107135772705,-58.222049713134766,-48.62940216064453,107.91730499267578,-67.20000457763672,-41.55000305175781,-13.050000190734863
2.148,87.4170913696289,-29.611486434936523,11.262324333190918,-84.4686050415039,-43.96630859375,101.2557373046875,-66.30000305175781,-42.150001525878906,-14.250000953674316
2.158,86.1912612915039,-30.79901123046875,9.040505409240723,-92.06278228759766,-47.297088623046875,114.57886505126953,-67.05000305175781,-41.25,-13.950000762939453
2.177,88.87276458740234,-26.585216522216797,6.358999729156494,-82.86982727050781,-58.888206481933594,119.10872650146484,-65.4000015258789,-43.05000305175781,-13.350000381469727
2.181,89.44737243652344,-20.83913230895996,7.6997528076171875,-79.40581512451172,-59.95405578613281,140.1592559814453,-65.4000015258789,-43.05000305175781,-13.350000381469727
2.188,90.2518310546875,-21.75850486755371,5.631162166595459,-86.73353576660156,-55.82388687133789,134.03062438964844,-64.80000305175781,-43.20000076293945,-16.80000114440918
2.198,92.93333435058594,-23.558944702148438,5.094861030578613,-83.40275573730469,-67.14854431152344,137.8943328857422,-64.6500015258789,-44.55000305175781,-16.350000381469727
2.208,99.06249237060547,-25.627534866333008,3.7158010005950928,-75.14241790771484,-81.67074584960938,151.084228515625,-64.95000457763672,-45.0,-17.100000381469727
2.218,99.36894989013672,-27.427974700927734,6.512228488922119,-86.86676788330078,-81.40428924560547,167.33843994140625,-63.900001525878906,-44.55000305175781,-15.90000057220459
2.237,94.73377227783203,-25.550920486450195,7.469909191131592,-104.45329284667969,-80.8713607788086,169.20367431640625,-63.900001525878906,-44.55000305175781,-15.90000057220459
2.241,94.04424285888672,-24.210166931152344,9.768342971801758,-122.17304229736328,-90.86370086669922,176.7978515625,-62.400001525878906,-45.75,-18.450000762939453
2.248,96.72574615478516,-20.11129379272461,13.407529830932617,-121.50688934326172,-98.05818939208984,193.7182159423828,-60.900001525878906,-47.25,-17.700000762939453
2.258,97.07051086425781,-18.195932388305664,14.288596153259277,-147.22052001953125,-100.18988800048828,196.1163787841797,-60.900001525878906,-46.95000076293945,-18.900001525878906
2.268,101.7439956665039,-14.824896812438965,15.093047142028809,-170.13629150390625,-98.05818939208984,200.646240234375,-60.45000076293945,-46.95000076293945,-20.400001525878906
2.278,105.22994995117188,-17.50640296936035,13.599065780639648,-179.86216735839844,-109.24961853027344,219.9647674560547,-60.45000076293945,-46.95000076293945,-20.400001525878906
2.298,104.65534210205078,-10.72602367401123,10.917559623718262,-188.78866577148438,-107.78407287597656,222.4961700439453,-58.650001525878906,-48.0,-22.950000762939453
2.301,104.46380615234375,-5.4013190269470215,10.074800491333008,-195.1837615966797,-107.25114440917969,233.68759155273438,-57.900001525878906,-48.45000076293945,-22.950000762939453
2.308,103.27628326416016,3.026270866394043,5.4013190269470215,-198.11485290527344,-111.64777374267578,241.14854431152344,-56.70000076293945,-49.95000076293945,-24.0
2.318,102.81659698486328,8.389283180236816,5.094861030578613,-199.84686279296875,-107.25114440917969,247.14395141601562,-55.650001525878906,-51.150001525878906,-24.450000762939453
2.328,103.27628326416016,13.943830490112305,5.056553840637207,-198.51454162597656,-94.19448852539062,253.00611877441406,-55.650001525878906,-51.150001525878906,-24.450000762939453
2.338,100.63308715820312,20.187908172607422,3.4093432426452637,-175.59877014160156,-98.05818939208984,272.8575744628906,-53.70000076293945,-50.400001525878906,-27.000001907348633
2.358,99.9052505493164,17.8128604888916,-0.19153612852096558,-134.69677734375,-103.7871322631836,279.6523742675781,-53.250003814697266,-51.30000305175781,-25.650001525878906
2.361,103.54443359375,-23.099258422851562,-6.167463779449463,-60.48698043823242,-122.70597076416016,300.30322265625,-52.20000076293945,-51.60000228881836,-26.55000114440918
2.368,103.62104797363281,-26.087221145629883,-5.439626216888428,-10.392036437988281,-114.3124008178711,295.50689697265625,-50.70000076293945,-52.35000228881836,-27.750001907348633
2.378,106.34086608886719,-23.980323791503906,6.090848922729492,86.73353576660156,-110.04900360107422,300.9693603515625,-50.70000076293945,-52.35000228881836,-27.750001907348633
2.388,101.62907409667969,-8.772355079650879,16.970102310180664,194.91729736328125,-102.8545150756836,304.4333801269531,-48.150001525878906,-55.35000228881836,-27.750001907348633
2.398,83.20330047607422,-5.286397457122803,32.40791320800781,250.87442016601562,-70.87902069091797,301.5022888183594,-46.650001525878906,-55.80000305175781,-27.750001907348633
2.418,62.32585906982422,-15.974113464355469,30.224401473999023,231.95558166503906,-37.304744720458984,295.107177734375,-46.20000076293945,-57.000003814697266,-27.000001907348633
2.421,43.55531692504883,-40.41412353515625,32.25468444824219,130.30015563964844,-7.594180583953857,184.92495727539062,-45.45000076293945,-59.250003814697266,-25.500001907348633
2.428,37.27293395996094,-68.26348114013672,19.421764373779297,74.20980072021484,9.059723854064941,132.16539001464844,-45.45000076293945,-59.250003814697266,-25.500001907348633
2.438,41.37180709838867,-52.4042854309082,21.490354537963867,-23.04900360107422,25.846860885620117,54.4915771484375,-42.150001525878906,-60.900001525878906,-24.450000762939453
2.448,50.450618743896484,-18.655620574951172,21.87342643737793,-39.83613967895508,21.583459854125977,-7.460949420928955,-43.05000305175781,-61.05000305175781,-23.100000381469727
2.458,42.674251556396484,12.48815631866455,19.728221893310547,-17.186830520629883,37.03828430175781,-62.75191116333008,-44.70000076293945,-60.900001525878906,-24.450000762939453
2.478,34.05512619018555,26.12552833557129,16.89348793029785,31.309341430664062,63.684532165527344,-108.58345794677734,-44.55000305175781,-59.55000305175781,-23.100000381469727
2.481,28.883649826049805,5.171475887298584,7.546523571014404,80.20520782470703,75.27565002441406,-152.1500701904297,-45.900001525878906,-57.000003814697266,-23.100000381469727
2.488,26.700138092041016,-4.405331134796143,8.887276649475098,80.73812866210938,86.60030364990234,-188.1225128173828,-45.900001525878906,-57.000003814697266,-22.200000762939453
2.498,28.270732879638672,-16.970102310180664,8.389283180236816,50.76110076904297,92.59571075439453,-246.8774871826172,-46.5,-56.400001525878906,-21.30000114440918
2.508,30.4925537109375,-23.903709411621094,7.929595947265625,5.995405673980713,96.72587585449219,-309.76263427734375,-47.25,-56.70000076293945,-19.5
2.518,33.71036148071289,-14.709975242614746,5.171475887298584,-2.797856092453003,99.3905029296875,-348.1332092285156,-47.25,-56.70000076293945,-19.5
2.538,36.04710006713867,-0.49799394607543945,3.2561142444610596,24.64777946472168,101.78866577148438,-371.4486999511719,-51.45000076293945,-51.60000228881836,-18.900001525878906
2.541,40.22258758544922,0.5746083855628967,3.6774938106536865,23.715160369873047,112.4471664428711,-420.34454345703125,-54.150001525878906,-47.70000076293945,-16.650001525878906
2.548,48.61186981201172,-10.72602367401123,0.8427590131759644,23.98162269592285,117.37671661376953,-436.4655456542969,-54.150001525878906,-47.70000076293945,-16.650001525878906
2.559,52.02121353149414,-16.70195198059082,1.37906014919281,29.577335357666016,105.78560638427734,-452.9862060546875,-55.80000305175781,-45.900001525878906,-15.750000953674316
2.568,56.69469451904297,-23.597251892089844,2.1068975925445557,8.660030364990234,113.77947998046875,-497.4854431152344,-55.80000305175781,-45.900001525878906,-15.750000953674316
2.578,61.52140808105469,-24.24847412109375,0.3447650372982025,3.9969370365142822,124.70443725585938,-516.404296875,-58.95000076293945,-39.900001525878906,-13.050000190734863
2.598,66.07996368408203,-20.877439498901367,0.15322890877723694,11.457886695861816,129.10107421875,-533.3246459960938,-60.30000305175781,-33.900001525878906,-11.700000762939453
2.601,80.7899398803711,-20.64759635925293,-0.5746083855628967,29.177640914916992,134.29708862304688,-548.7794799804688,-61.05000305175781,-29.250001907348633,-10.200000762939453
2.608,83.01176452636719,-23.75048065185547,0.2298433631658554,35.839202880859375,126.16998291015625,-562.5022583007812,-61.05000305175781,-29.250001907348633,-10.200000762939453
2.618,87.03401947021484,-30.0711727142334,-0.4213795065879822,34.50688934326172,124.57120513916016,-567.1654052734375,-61.05000305175781,-29.250001907348633,-10.200000762939453
2.628,92.47364807128906,-31.182083129882812,0.2298433631658554,35.705970764160156,114.04593658447266,-567.6983032226562,-61.650001525878906,-21.0,-6.750000476837158
2.638,96.4192886352539,-31.373619079589844,0.9193734526634216,42.36753463745117,107.51760864257812,-568.3644409179688,-63.150001525878906,-17.55000114440918,-7.050000190734863
2.652,101.55245971679688,-30.186094284057617,-0.3447650372982025,53.95865249633789,121.24042510986328,-569.163818359375,-61.95000076293945,-9.450000762939453,-3.0
2.658,109.63528442382812,-31.60346221923828,4.8267107009887695,64.61714935302734,108.983154296875,-548.9127197265625,-61.95000076293945,-9.450000762939453,-3.0
2.668,109.55867004394531,-33.59543991088867,7.6997528076171875,69.81317138671875,108.3169937133789,-540.5191040039062,-61.95000076293945,-9.450000762939453,-3.0
2.678,109.71189880371094,-38.000770568847656,7.2783732414245605,56.356815338134766,115.64471435546875,-536.7886352539062,-60.150001525878906,-2.8500001430511475,-1.6500000953674316
2.688,106.4557876586914,-38.422149658203125,7.891288757324219,41.967838287353516,119.5084228515625,-528.5283203125,-58.20000076293945,-1.350000023841858,0.15000000596046448
2.698,105.26825714111328,-41.48672866821289,6.550535678863525,34.373661041259766,112.18070220947266,-507.34454345703125,-57.30000305175781,2.25,0.30000001192092896
2.717,103.81258392333984,-42.71255874633789,6.358999729156494,0.7993874549865723,128.3016815185547,-493.6217346191406,-55.20000076293945,5.550000190734863,3.450000047683716
2.721,98.52619171142578,-42.252872467041016,1.5322890281677246,-0.2664624750614166,125.7702865600586,-494.5543518066406,-51.45000076293945,12.450000762939453,6.750000476837158
2.728,98.06649780273438,-39.80120849609375,2.5282769203186035,-9.326186180114746,127.63552856445312,-484.69525146484375,-51.45000076293945,12.450000762939453,6.750000476837158
2.738,100.4798583984375,-39.30321502685547,2.873042106628418,-4.263399600982666,118.04287719726562,-458.3154602050781,-49.500003814697266,12.300000190734863,6.150000095367432
2.748,102.66336822509766,-41.67826461791992,0.9959878921508789,-18.119447708129883,124.30474090576172,-436.5987548828125,-43.650001525878906,15.600000381469727,9.0
2.767,103.69766235351562,-48.458641052246094,0.4596867263317108,-41.83460998535156,118.97549438476562,-417.54669189453125,-43.650001525878906,15.600000381469727,9.0
2.771,103.65935516357422,-50.37400436401367,0.038307227194309235,-65.81623077392578,119.90811157226562,-376.1117858886719,-39.900001525878906,17.850000381469727,10.350000381469727
2.778,102.05045318603516,-47.96064758300781,-2.873042106628418,-67.68146514892578,108.3169937133789,-339.6064147949219,-37.95000076293945,20.25,10.350000381469727
2.788,100.5181655883789,-44.398075103759766,-4.8267107009887695,-65.016845703125,107.65084075927734,-296.9724426269531,-36.150001525878906,20.55000114440918,12.300000190734863
2.798,101.16938781738281,-37.88584899902344,-5.937620162963867,-41.035221099853516,89.13169860839844,-241.28176879882812,-34.5,21.600000381469727,12.450000762939453
2.808,101.78230285644531,-38.728607177734375,-10.036493301391602,-16.387441635131836,65.81623077392578,-170.93568420410156,-34.5,21.600000381469727,12.450000762939453
2.818,98.87095642089844,-42.559329986572266,-12.066776275634766,5.329249382019043,49.56201934814453,-103.92036437988281,-33.30000305175781,21.150001525878906,14.250000953674316
2.837,96.64913177490234,-48.42033386230469,-14.595053672790527,39.16998291015625,21.183767318725586,10.125574111938477,-32.25,21.900001525878906,13.950000762939453
2.841,96.26605987548828,-49.722782135009766,-9.883264541625977,52.493106842041016,8.526799201965332,34.24042892456055,-32.25,20.850000381469727,14.700000762939453
2.848,97.87496185302734,-46.77312469482422,-9.84495735168457,67.68146514892578,-7.860642910003662,77.94027709960938,-30.900001525878906,20.55000114440918,14.850000381469727
2.858,97.22373962402344,-35.5874137878418,-7.929595947265625,93.79479217529297,-16.78713607788086,123.63858795166016,-30.900001525878906,20.55000114440918,14.850000381469727
2.868,93.23979187011719,-30.645782470703125,-4.788403511047363,127.90198516845703,-36.238895416259766,182.52679443359375,-31.200000762939453,17.850000381469727,15.15000057220459
2.887,95.88298797607422,-32.063148498535156,-3.332728862762451,163.0750274658203,-67.814697265625,223.56201171875,-31.200000762939453,17.100000381469727,13.050000190734863
2.891,106.64732360839844,-37.656005859375,-3.907337188720703,175.9984588623047,-88.19908142089844,310.9617004394531,-31.650001525878906,16.80000114440918,13.350000381469727
2.898,126.64369201660156,-49.76108932495117,9.576807022094727,99.65696716308594,-76.87442779541016,319.8882141113281,-31.650001525878906,16.80000114440918,13.350000381469727
2.908,135.6075897216797,-39.11167907714844,15.820884704589844,-1.8652373552322388,-67.5482406616211,299.7702941894531,-34.05000305175781,13.800000190734863,12.750000953674316
2.918,107.33685302734375,11.109095573425293,-0.5746083855628967,-49.82848358154297,-27.71209716796875,280.4517517089844,-33.75,13.500000953674316,12.450000762939453
2.928,68.60824584960938,57.46084213256836,-17.276559829711914,21.716691970825195,-4.263399600982666,262.73199462890625,-32.70000076293945,11.40000057220459,12.300000190734863
2.938,48.841712951660156,59.98911666870117,-2.298433542251587,122.03981018066406,-21.45022964477539,240.21592712402344,-35.25,12.300000190734863,12.450000762939453
2.952,47.69249725341797,34.476505279541016,10.41956615447998,187.85604858398438,-23.715160369873047,229.4241943359375,-35.25,12.300000190734863,12.450000762939453
2.958,64.24121856689453,-22.37141990661621,8.734047889709473,215.56814575195312,-9.992342948913574,238.48391723632812,-34.95000076293945,8.700000762939453,11.550000190734863
2.968,72.05589294433594,-55.46886444091797,25.435998916625977,180.3950958251953,9.459418296813965,257.8024597167969,-35.70000076293945,7.050000190734863,11.550000190734863
2.978,89.71552276611328,-89.63890838623047,64.12629699707031,47.830013275146484,-9.192955017089844,218.49923706054688,-35.55000305175781,7.200000286102295,12.0
2.988,99.63710021972656,-78.989501953125,54.35795593261719,-40.76875686645508,-15.055130004882812,176.53138732910156,-33.75,4.950000286102295,9.15000057220459
2.998,68.45501708984375,-10.917559623718262,22.90772247314453,-27.978559494018555,-23.581928253173828,190.5206756591797,-33.75,4.950000286102295,9.15000057220459
3.011,69.71915435791016,12.334927558898926,21.413740158081055,32.5084228515625,-49.56201934814453,192.11944580078125,-36.30000305175781,4.200000286102295,10.950000762939453
3.018,83.35652923583984,2.911349296569824,7.354987621307373,26.113323211669922,-44.23276901245117,175.9984588623047,-35.55000305175781,2.700000047683716,10.200000762939453
3.028,81.441162109375,-9.232041358947754,5.669469833374023,38.77029037475586,-37.97090148925781,178.79632568359375,-36.150001525878906,2.1000001430511475,10.050000190734863
3.038,74.81401824951172,-14.403517723083496,8.848969459533691,23.848390579223633,-28.378253936767578,165.4731903076172,-37.80000305175781,3.450000047683716,9.450000762939453
3.048,76.00154113769531,-10.955866813659668,-2.75812029838562,23.848390579223633,-20.517610549926758,161.47625732421875,-37.80000305175781,3.450000047683716,9.450000762939453
3.068,75.23539733886719,-7.393294811248779,-6.090848922729492,45.56508255004883,-16.387441635131836,163.0750274658203,-37.05000305175781,1.5,10.950000762939453
3.071,77.38059997558594,-4.903325080871582,-2.5665841102600098,66.34915924072266,-5.462480545043945,149.08575439453125,-36.150001525878906,-0.45000001788139343,9.0
3.078,76.92091369628906,-10.5344877243042,-2.6815059185028076,77.54058074951172,2.131699800491333,150.2848358154297,-37.95000076293945,0.15000000596046448,10.350000381469727
3.088,73.54987335205078,-16.318878173828125,2.1068975925445557,84.4686050415039,-5.462480545043945,147.75344848632812,-37.80000305175781,-2.700000047683716,9.450000762939453
3.098,74.04786682128906,-16.855180740356445,12.60307788848877,77.4073486328125,-10.92496109008789,139.7595672607422,-37.80000305175781,-2.700000047683716,9.450000762939453
3.108,75.81000518798828,-11.72201156616211,12.449849128723145,64.88361358642578,-5.462480545043945,128.56814575195312,-37.20000076293945,-0.15000000596046448,9.300000190734863
3.118,80.21533203125,-13.675680160522461,15.974113464355469,58.4885139465332,-7.460949420928955,126.43644714355469,-37.80000305175781,-1.5,9.450000762939453
3.131,82.0157699584961,-21.45204734802246,12.258312225341797,33.57427215576172,-19.45176124572754,122.03981018066406,-36.900001525878906,-1.6500000953674316,9.75
3.138,75.54185485839844,-23.788787841796875,9.576807022094727,13.456355094909668,-1.5987749099731445,113.3797836303711,-37.5,-3.450000047683716,9.90000057220459
3.148,75.9632339477539,-18.34916114807129,13.905523300170898,14.255742073059082,-9.592649459838867,108.18376159667969,-37.5,-3.450000047683716,9.90000057220459
3.158,77.34229278564453,-10.994174003601074,9.998186111450195,32.37519073486328,-9.859111785888672,115.77794647216797,-36.0,-4.200000286102295,10.200000762939453
3.168,75.84831237792969,-11.1474027633667,11.530475616455078,46.63093185424805,-8.127105712890625,120.70750427246094,-36.45000076293945,-5.100000381469727,9.300000190734863
3.188,75.42693328857422,-15.399505615234375,10.381258964538574,43.96630859375,-0.6661561727523804,111.5145492553711,-38.25,-7.200000286102295,10.950000762939453
3.191,76.537841796875,-18.579004287719727,8.887276649475098,41.83460998535156,1.3323123455047607,110.58192443847656,-37.20000076293945,-4.800000190734863,10.800000190734863
3.198,77.34229278564453,-22.103269577026367,10.266336441040039,39.03675079345703,-4.529861927032471,109.11638641357422,-37.20000076293945,-4.800000190734863,10.800000190734863
3.208,78.3765869140625,-22.2948055267334,2.030282974243164,17.986217498779297,7.194486618041992,106.05206298828125,-37.80000305175781,-5.400000095367432,9.15000057220459
3.218,75.04386138916016,-23.63555908203125,8.389283180236816,-5.196018218994141,15.45482349395752,107.65084075927734,-37.5,-6.900000095367432,8.700000762939453
3.228,73.7031021118164,-22.562957763671875,6.780379295349121,-10.92496109008789,6.661561965942383,108.58345794677734,-36.900001525878906,-7.050000190734863,10.050000190734863
3.247,74.16278839111328,-20.532672882080078,9.576807022094727,-26.113323211669922,11.591117858886719,103.52066802978516,-37.650001525878906,-8.700000762939453,8.550000190734863
3.252,76.69107055664062,-22.37141990661621,10.189722061157227,-38.63705825805664,19.45176124572754,106.05206298828125,-37.650001525878906,-8.700000762939453,8.550000190734863
3.258,75.15878295898438,-24.44001007080078,6.89530086517334,-62.21898651123047,31.842266082763672,93.52832794189453,-37.5,-8.100000381469727,10.200000762939453
3.268,74.62248229980469,-24.746469497680664,3.485957622528076,-59.68759536743164,30.110260009765625,105.5191421508789,-37.650001525878906,-10.200000762939453,9.300000190734863
3.278,74.62248229980469,-21.720197677612305,8.389283180236816,-61.9525260925293,22.649311065673828,95.9264907836914,-36.45000076293945,-11.700000762939453,9.0
3.288,75.84831237792969,-11.951854705810547,14.36521053314209,-51.027565002441406,33.84073257446289,100.05665588378906,-36.45000076293945,-11.700000762939453,9.0
3.308,78.989501953125,-13.867216110229492,15.935806274414062,-24.64777946472168,19.31852912902832,109.78253936767578,-37.05000305175781,-10.050000190734863,9.90000057220459
3.313,79.41088104248047,-12.947842597961426,18.310853958129883,-15.987748146057129,26.113323211669922,118.04287719726562,-0.30000001192092896,-11.40000057220459,10.350000381469727
3.318,74.12448120117188,-19.07699966430664,16.127342224121094,-20.784072875976562,17.32006072998047,124.03828430175781,-38.70000076293945,-12.90000057220459,9.75
3.328,70.94498443603516,-21.107282638549805,16.47210693359375,-22.382848739624023,17.852985382080078,121.64012145996094,-37.650001525878906,-11.700000762939453,11.550000190734863
3.338,68.30178833007812,-25.435998916625977,14.748282432556152,-20.517610549926758,11.857580184936523,135.22970581054688,-37.650001525878906,-11.700000762939453,11.550000190734863
3.348,66.04165649414062,-27.849353790283203,13.407529830932617,-34.10719680786133,16.78713607788086,142.69065856933594,-37.20000076293945,-11.700000762939453,10.350000381469727
3.368,67.76548767089844,-27.46628189086914,9.883264541625977,-37.4379768371582,11.990811347961426,143.88973999023438,-37.5,-15.000000953674316,10.200000762939453
3.372,73.93294525146484,-23.82709503173828,15.591041564941406,-23.182235717773438,-4.663093090057373,158.545166015625,-36.900001525878906,-14.40000057220459,10.350000381469727
3.378,72.13250732421875,-8.006210327148438,14.288596153259277,-7.860642910003662,-6.9280242919921875,176.7978515625,-37.650001525878906,-15.15000057220459,10.050000190734863
3.388,71.67282104492188,-17.697938919067383,19.038692474365234,8.260336875915527,-4.396630764007568,174.1332244873047,-37.650001525878906,-15.15000057220459,10.050000190734863
3.398,70.94498443603516,-28.768728256225586,14.901511192321777,-5.196018218994141,-2.9310872554779053,184.1255645751953,-37.20000076293945,-16.350000381469727,10.350000381469727
3.408,71.59620666503906,-32.25468444824219,15.322891235351562,-13.856048583984375,-8.526799201965332,184.6584930419922,-36.900001525878906,-16.80000114440918,10.800000190734863
3.428,67.84210205078125,-19.68991470336914,13.522451400756836,-4.130168437957764,-14.255742073059082,216.76722717285156,-38.25,-15.450000762939453,10.65000057220459
3.431,74.6990966796875,-22.026655197143555,12.947842597961426,-7.194486618041992,0.0,217.03369140625,-36.75,-17.700000762939453,9.90000057220459
3.438,77.763671875,-30.952239990234375,11.72201156616211,-11.857580184936523,-0.7993874549865723,212.9035186767578,-36.75,-17.700000762939453,9.90000057220459
3.448,74.6607894897461,-37.88584899902344,12.105083465576172,-29.977027893066406,3.86370587348938,209.57273864746094,-36.900001525878906,-20.25,9.0
3.458,72.36235046386719,-38.07738494873047,9.998186111450195,-43.43338394165039,2.2649309635162354,228.75804138183594,-35.55000305175781,-20.400001525878906,8.40000057220459
3.468,72.74542236328125,-40.260894775390625,10.802638053894043,-45.831546783447266,1.3323123455047607,242.6140899658203,-37.05000305175781,-21.150001525878906,10.200000762939453
3.488,79.44918823242188,-36.27694320678711,6.550535678863525,-42.633995056152344,-4.396630764007568,255.9372100830078,-35.70000076293945,-21.75,9.75
3.492,83.39483642578125,-32.02484130859375,10.611102104187012,-42.76722717285156,-16.520673751831055,261.2664489746094,-35.70000076293945,-23.700000762939453,9.75
3.498,77.1124496459961,-32.56114196777344,22.90772247314453,-32.108726501464844,-16.65390396118164,257.26953125,-35.70000076293945,-23.700000762939453,9.75
3.508,73.97125244140625,-43.09563064575195,24.286781311035156,-58.888206481933594,-13.056661605834961,255.1378173828125,-34.80000305175781,-24.750001907348633,9.90000057220459
3.518,71.40467071533203,-51.1784553527832,21.14558982849121,-71.2787094116211,-10.92496109008789,273.6569519042969,-35.25,-26.250001907348633,9.15000057220459
3.528,68.30178833007812,-52.44259262084961,17.50640296936035,-94.0612564086914,-3.7304747104644775,271.5252685546875,-33.900001525878906,-26.850000381469727,7.050000190734863
3.548,75.3503189086914,-48.26710510253906,10.496180534362793,-98.05818939208984,-5.196018218994141,265.79632568359375,-33.900001525878906,-26.850000381469727,7.050000190734863
3.552,65.65858459472656,-50.642154693603516,6.512228488922119,-100.85604858398438,-12.523736000061035,268.8606262207031,-32.400001525878906,-30.600000381469727,9.0
3.558,66.38642120361328,-58.18867874145508,9.385271072387695,-89.13169860839844,-26.513015747070312,279.3858947753906,-32.400001525878906,-30.600000381469727,9.0
3.569,77.03583526611328,-60.1806526184082,10.496180534362793,-98.05818939208984,-28.644716262817383,283.11639404296875,-32.25,-30.450000762939453,8.700000762939453
3.578,113.08293151855469,-56.19670104980469,11.798625946044922,-94.0612564086914,-36.905052185058594,307.3644714355469,-31.500001907348633,-31.950000762939453,7.650000095367432
3.588,131.31716918945312,-41.79318618774414,5.975927352905273,-67.94792938232422,-54.35834503173828,326.5497741699219,-31.500001907348633,-31.950000762939453,7.650000095367432
3.608,112.35509490966797,-40.682273864746094,5.171475887298584,-76.74119567871094,-47.163856506347656,332.545166015625,-30.450000762939453,-35.25,8.25
3.612,60.1806526184082,-44.398075103759766,-0.038307227194309235,-64.21745300292969,-40.502296447753906,320.8208312988281,-28.200000762939453,-37.20000076293945,5.700000286102295
3.618,11.836933135986328,-57.76729965209961,-2.298433542251587,-61.81929397583008,-42.633995056152344,307.0979919433594,-28.200000762939453,-37.20000076293945,5.700000286102295
3.628,12.373234748840332,-65.00736236572266,-2.719813108444214,-61.552833557128906,-46.897396087646484,294.57427978515625,-28.500001907348633,-37.05000305175781,5.850000381469727
3.638,42.48271560668945,-61.67463684082031,1.37906014919281,-64.3506851196289,-42.633995056152344,280.7182312011719,-28.500001907348633,-37.05000305175781,5.850000381469727
3.648,54.66441345214844,-53.208740234375,10.074800491333008,-45.96477508544922,-58.62174606323242,276.5880432128906,-25.80000114440918,-38.55000305175781,5.850000381469727
3.668,65.46704864501953,-74.6607894897461,9.691728591918945,-69.81317138671875,-64.88361358642578,270.1929626464844,-25.200000762939453,-39.60000228881836,3.750000238418579
3.672,99.63710021972656,-78.29997253417969,7.891288757324219,-75.27565002441406,-73.14395141601562,269.2603454589844,-25.05000114440918,-40.5,5.100000381469727
3.678,124.00049591064453,-49.07155990600586,5.51624059677124,-74.34303283691406,-76.74119567871094,264.0643005371094,-25.05000114440918,-40.5,5.100000381469727
3.688,106.64732360839844,-41.29519271850586,4.137180328369141,-35.17304611206055,-80.33843994140625,267.66156005859375,-22.950000762939453,-41.10000228881836,4.200000286102295
3.698,61.866172790527344,-49.3397102355957,5.171475887298584,-35.17304611206055,-76.20826721191406,255.80397033691406,-22.05000114440918,-40.95000076293945,4.650000095367432
3.708,56.50315856933594,-67.22918701171875,13.407529830932617,-79.0061264038086,-63.151607513427734,239.5497589111328,-21.900001525878906,-42.60000228881836,3.450000047683716
3.728,78.72135162353516,-74.00955963134766,22.218191146850586,-124.70443725585938,-49.16232681274414,221.83001708984375,-21.150001525878906,-43.80000305175781,1.2000000476837158
3.732,99.33064270019531,-68.30178833007812,25.321077346801758,-178.5298614501953,-49.02909469604492,185.4578857421875,-17.55000114440918,-43.95000076293945,0.6000000238418579
3.738,109.55867004394531,-50.18246841430664,16.778566360473633,-187.3231201171875,-42.36753463745117,166.00611877441406,-17.55000114440918,-43.95000076293945,0.6000000238418579
3.748,103.88919830322266,-42.02302932739258,7.393294811248779,-181.3277130126953,-30.643184661865234,155.88055419921875,-15.90000057220459,-45.30000305175781,-0.15000000596046448
3.758,88.45138549804688,-38.000770568847656,-4.32871675491333,-102.45481872558594,-36.771820068359375,112.18070220947266,-14.550000190734863,-45.900001525878906,-1.8000000715255737
3.768,72.74542236328125,-48.765098571777344,-15.207969665527344,41.568145751953125,-43.30015182495117,119.90811157226562,-14.550000190734863,-45.900001525878906,-1.8000000715255737
3.788,62.63231658935547,-59.91250228881836,-27.27474594116211,115.2450180053711,12.523736000061035,145.0888214111328,-14.250000953674316,-45.60000228881836,-3.3000001907348633
3.792,33.40390396118164,-69.91069030761719,-16.012420654296875,185.0581817626953,41.967838287353516,133.49769592285156,-12.300000190734863,-46.650001525878906,-1.0500000715255737
3.798,8.925583839416504,-82.0157699584961,12.986149787902832,185.99081420898438,46.63093185424805,116.57733154296875,-13.65000057220459,-45.75,-2.25
3.808,-7.010222434997559,-70.5619125366211,21.98834800720215,171.60183715820312,35.839202880859375,94.32771301269531,-12.750000953674316,-47.55000305175781,-1.0500000715255737
3.818,-32.44622039794922,-50.029239654541016,13.828908920288086,55.82388687133789,32.24195861816406,-31.44257164001465,-12.750000953674316,-47.55000305175781,-1.0500000715255737
3.828,-42.674251556396484,-8.848969459533691,5.631162166595459,-73.27718353271484,17.586523056030273,-192.3859100341797,-12.15000057220459,-47.25,-1.9500000476837158
3.848,-30.0711727142334,51.867984771728516,-9.806650161743164,-56.889739990234375,35.972434997558594,-240.48239135742188,-12.15000057220459,-48.900001525878906,-3.450000047683716
3.852,-3.5625722408294678,116.76042938232422,0.49799394607543945,103.52066802978516,45.16539001464844,-283.3828430175781,-12.300000190734863,-45.900001525878906,-3.9000000953674316
3.858,23.405715942382812,88.0300064086914,13.599065780639648,166.00611877441406,65.54976654052734,-320.6875915527344,-12.15000057220459,-46.95000076293945,-2.25
3.868,17.62132453918457,65.08397674560547,19.230228424072266,203.97702026367188,57.15620040893555,-379.0428771972656,-12.15000057220459,-46.95000076293945,-2.25
3.878,5.822698593139648,24.095245361328125,14.09705924987793,151.75038146972656,73.0107192993164,-435.0,-15.450000762939453,-45.30000305175781,-1.2000000476837158
3.888,1.455674648284912,-2.3750481605529785,4.32871675491333,69.54670715332031,76.60796356201172,-510.5421142578125,-14.250000953674316,-45.60000228881836,-3.6000001430511475
3.908,14.901511192321777,-6.512228488922119,-0.15322890877723694,14.655436515808105,72.74425506591797,-561.9693603515625,-16.5,-42.45000076293945,-2.8500001430511475
3.912,27.619510650634766,6.971915245056152,-3.332728862762451,22.649311065673828,74.34303283691406,-594.6110229492188,-17.400001525878906,-44.55000305175781,-2.700000047683716
3.918,28.232425689697266,13.982137680053711,-3.485957622528076,25.980091094970703,91.66309356689453,-612.73046875,-17.400001525878906,-44.55000305175781,-2.700000047683716
3.928,27.925968170166016,5.899312973022461,0.727837324142456,23.98162269592285,81.40428924560547,-645.2388916015625,-18.75,-40.95000076293945,-1.350000023841858
3.938,29.075185775756836,-13.21599292755127,2.604891538619995,-2.398162364959717,87.26646423339844,-666.2894287109375,-20.700000762939453,-39.60000228881836,-2.25
3.948,30.645782470703125,-34.51481246948242,4.6734819412231445,-69.81317138671875,76.74119567871094,-668.421142578125,-21.0,-38.25,-1.0500000715255737
3.967,32.71437072753906,-43.32547378540039,4.596867084503174,-120.30780792236328,79.40581512451172,-690.6707153320312,-22.05000114440918,-36.60000228881836,0.30000001192092896
3.971,38.46045684814453,-39.226600646972656,0.26815059781074524,-139.35987854003906,73.0107192993164,-666.2894287109375,-22.05000114440918,-36.60000228881836,0.30000001192092896
3.978,41.180267333984375,-38.80522155761719,-1.072602391242981,-140.29249572753906,62.21898651123047,-658.8284912109375,-25.200000762939453,-33.45000076293945,-1.2000000476837158
3.988,47.2711181640625,-40.069358825683594,-5.861005783081055,-139.49310302734375,53.95865249633789,-642.0413208007812,-24.450000762939453,-31.500001907348633,-0.9000000357627869
3.998,58.15037155151367,-42.7508659362793,-15.131354331970215,-126.16998291015625,52.3598747253418,-629.2511596679688,-24.150001525878906,-29.850000381469727,-1.6500000953674316
4.008,64.20291137695312,-50.144161224365234,-22.7161865234375,-75.40888214111328,50.22817611694336,-592.4793090820312,-25.950000762939453,-27.600000381469727,-1.2000000476837158
4.027,70.71514129638672,-55.622093200683594,-30.645782470703125,-3.0643184185028076,45.56508255004883,-558.6385498046875,-25.950000762939453,-27.600000381469727,-1.2000000476837158
4.031,80.33025360107422,-62.13432312011719,-23.290794372558594,114.84532928466797,45.298622131347656,-509.343017578125,-27.150001525878906,-23.700000762939453,-1.2000000476837158
4.038,99.94355773925781,-67.53564453125,-12.986149787902832,192.65237426757812,38.50382614135742,-477.7672119140625,-28.05000114440918,-22.80000114440918,-0.30000001192092896
4.048,107.83484649658203,-76.07815551757812,-8.542511940002441,263.2649230957031,24.64777946472168,-425.9402770996094,-28.500001907348633,-21.900001525878906,0.6000000238418579
4.058,107.71992492675781,-103.39120483398438,8.925583839416504,307.76416015625,12.656967163085938,-391.4333801269531,-28.500001907348633,-21.900001525878906,0.6000000238418579
4.068,102.12706756591797,-132.9260711669922,17.42978858947754,279.7856140136719,-8.39356803894043,-361.8560485839844,-28.950000762939453,-19.80000114440918,0.15000000596046448
4.087,101.36092376708984,-155.6422576904297,19.881450653076172,180.3950958251953,-28.111791610717773,-297.37213134765625,-29.250001907348633,-19.200000762939453,0.6000000238418579
4.091,114.73014831542969,-178.66490173339844,24.59324073791504,13.989279747009277,-25.18070411682129,-250.20826721191406,-27.750001907348633,-18.150001525878906,0.30000001192092896
4.098,109.98004913330078,-175.21725463867188,24.095245361328125,-84.60183715820312,-17.186830520629883,-207.30780029296875,-27.900001525878906,-15.600000381469727,0.45000001788139343
4.108,97.98988342285156,-157.8640899658203,20.072986602783203,-196.64930725097656,-26.246553421020508,-157.34608459472656,-27.900001525878906,-15.600000381469727,0.45000001788139343
4.118,82.0157699584961,-123.08112335205078,4.175487995147705,-255.80397033691406,-24.51454734802246,-108.45022583007812,-28.650001525878906,-15.600000381469727,1.6500000953674316
4.128,77.41890716552734,-86.88079071044922,-0.1149216815829277,-294.7074890136719,-23.98162269592285,-75.14241790771484,-27.000001907348633,-15.000000953674316,1.350000023841858
4.147,85.76988220214844,-61.71294403076172,3.2561142444610596,-272.8575744628906,-29.444103240966797,-35.306278228759766,-28.200000762939453,-15.600000381469727,1.6500000953674316
4.152,95.88298797607422,-39.57136535644531,1.6855180263519287,-177.19754028320312,-34.373661041259766,24.248085021972656,-27.750001907348633,-16.5,1.0500000715255737
4.158,102.3569107055664,-19.613300323486328,10.72602367401123,-99.65696716308594,-38.37059783935547,66.48238372802734,-27.750001907348633,-16.5,1.0500000715255737
4.168,100.63308715820312,-18.34916114807129,10.113107681274414,-1.9984685182571411,-22.782541275024414,106.4517593383789,-27.30000114440918,-15.450000762939453,1.8000000715255737
4.178,89.56229400634766,-24.938005447387695,13.599065780639648,47.430320739746094,-15.45482349395752,124.70443725585938,-27.000001907348633,-16.950000762939453,2.8500001430511475
4.188,79.90887451171875,-28.19411849975586,14.556746482849121,124.57120513916016,20.117916107177734,189.5880584716797,-27.450000762939453,-15.90000057220459,2.700000047683716
4.207,71.51959228515625,-41.5633430480957,20.187908172607422,132.6983184814453,-2.398162364959717,278.4532775878906,-27.450000762939453,-18.30000114440918,2.25
4.211,89.63890838623047,-128.36752319335938,6.282385349273682,-160.01071166992188,54.75803756713867,117.37671661376953,-27.450000762939453,-18.30000114440918,2.25
4.218,83.24160766601562,-96.26605987548828,16.740259170532227,-246.8774871826172,54.35834503173828,60.88667678833008,-27.000001907348633,-19.200000762939453,4.350000381469727
4.228,96.87897491455078,-6.856993675231934,23.21417999267578,-246.61102294921875,21.183767318725586,92.86217498779297,-26.400001525878906,-19.80000114440918,2.700000047683716
4.238,149.16835021972656,88.41307830810547,23.865402221679688,-91.66309356689453,7.460949420928955,168.1378173828125,-26.700000762939453,-19.05000114440918,3.450000047683716
4.248,184.18115234375,109.78851318359375,-2.75812029838562,38.77029037475586,59.82082748413086,191.58651733398438,-27.750001907348633,-20.400001525878906,2.5500001907348633
4.267,151.7732391357422,94.38900756835938,47.50096130371094,125.37059783935547,69.28024291992188,208.77334594726562,-26.55000114440918,-21.600000381469727,4.350000381469727
4.271,110.28650665283203,68.1868667602539,11.03248119354248,165.4731903076172,68.34762573242188,221.16384887695312,-26.55000114440918,-21.600000381469727,4.350000381469727
4.278,105.49810028076172,52.51920700073242,1.0342950820922852,228.75804138183594,71.01225280761719,245.14547729492188,-25.950000762939453,-22.5,5.25
4.288,110.01835632324219,-4.367023944854736,28.38565444946289,266.8621826171875,59.287899017333984,236.08575439453125,-25.80000114440918,-21.900001525878906,5.400000095367432
4.298,114.07892608642578,-68.83808898925781,-17.046716690063477,133.36447143554688,81.27105712890625,221.83001708984375,-26.700000762939453,-24.900001525878906,5.700000286102295
4.308,81.441162109375,-54.01319122314453,-40.452430725097656,32.37519073486328,66.61561584472656,215.7013702392578,-26.700000762939453,-24.900001525878906,5.700000286102295
4.327,74.6607894897461,-47.730804443359375,-20.724210739135742,51.82695007324219,46.897396087646484,203.8437957763672,-26.55000114440918,-23.850000381469727,5.400000095367432
4.331,101.20769500732422,-13.21599292755127,21.183897018432617,107.51760864257812,43.03369140625,175.865234375,-25.950000762939453,-25.650001525878906,7.050000190734863
4.338,91.74581146240234,-13.254301071166992,29.4582576751709,132.83154296875,48.22970962524414,185.0581817626953,-25.650001525878906,-26.850000381469727,7.800000190734863
4.348,70.75344848632812,-23.099258422851562,46.35174560546875,125.10413360595703,28.111791610717773,159.3445587158203,-26.400001525878906,-26.400001525878906,7.500000476837158
4.358,61.866172790527344,-59.87419509887695,49.03324890136719,45.298622131347656,13.58958625793457,128.7013702392578,-26.400001525878906,-26.400001525878906,7.500000476837158
4.368,73.16680145263672,-80.56009674072266,31.450233459472656,-44.49923324584961,-4.396630764007568,98.99080657958984,-25.80000114440918,-25.500001907348633,7.650000095367432
4.388,91.86073303222656,-57.46084213256836,21.0689754486084,-57.689125061035156,-5.462480545043945,98.32465362548828,-25.500001907348633,-28.500001907348633,8.40000057220459
4.392,113.7341537475586,-3.907337188720703,4.8267107009887695,10.258805274963379,-24.914241790771484,132.29861450195312,-25.500001907348633,-28.950000762939453,5.850000381469727
4.398,113.23616027832031,-11.1474027633667,-0.5363011956214905,15.588054656982422,-24.914241790771484,150.6845245361328,-25.500001907348633,-28.950000762939453,5.850000381469727
4.408,116.0325927734375,-21.490354537963867,-8.312667846679688,-11.591117858886719,-8.660030364990234,146.68759155273438,-25.500001907348633,-28.950000762939453,5.850000381469727
4.418,99.71371459960938,-13.943830490112305,-3.141192674636841,2.531393527984619,14.788667678833008,151.75038146972656,-23.400001525878906,-28.80000114440918,6.0
4.428,64.54767608642578,-17.353174209594727,13.905523300170898,28.378253936767578,16.65390396118164,152.016845703125,-24.450000762939453,-29.55000114440918,7.050000190734863
4.447,60.985107421875,-42.82748031616211,13.713987350463867,6.395099639892578,3.597243309020996,129.10107421875,-24.30000114440918,-30.150001525878906,6.600000381469727
4.452,63.13031005859375,-67.19087982177734,14.786589622497559,-52.493106842041016,-0.9326186776161194,118.57579803466797,-25.500001907348633,-30.150001525878906,6.600000381469727
4.458,60.21895980834961,-57.23099899291992,15.591041564941406,-72.21133422851562,-1.0658499002456665,94.86064147949219,-25.500001907348633,-30.150001525878906,6.600000381469727
4.468,57.23099899291992,-42.09964370727539,13.982137680053711,-30.37672233581543,-7.860642910003662,96.72587585449219,-24.450000762939453,-30.600000381469727,7.500000476837158
4.478,65.3138198852539,-32.369606018066406,10.15141487121582,-5.062787055969238,-22.249616622924805,92.99540710449219,-24.30000114440918,-29.700000762939453,6.600000381469727
4.488,80.59840393066406,-41.98472213745117,8.695740699768066,-21.316997528076172,-16.920366287231445,94.19448852539062,-22.80000114440918,-30.900001525878906,5.850000381469727
4.507,85.5400390625,-48.57356262207031,6.703764915466309,-41.568145751953125,-26.113323211669922,101.12251281738281,-22.80000114440918,-32.400001525878906,5.850000381469727
4.511,75.61846923828125,-25.014619827270508,19.651607513427734,-27.17917251586914,-26.779478073120117,106.71822357177734,-22.650001525878906,-31.500001907348633,6.0
4.518,76.42292022705078,-26.048913955688477,22.90772247314453,-19.584991455078125,-39.43644714355469,116.84379577636719,-22.650001525878906,-31.500001907348633,6.0
4.528,81.13470458984375,-34.3615837097168,16.548721313476562,-19.85145378112793,-34.906585693359375,120.70750427246094,-22.80000114440918,-32.400001525878906,6.600000381469727
4.538,76.537841796875,-33.90189743041992,17.697938919067383,-9.059723854064941,-45.96477508544922,128.16845703125,-22.200000762939453,-32.25,5.700000286102295
4.548,72.55388641357422,-37.54108428955078,18.847156524658203,-25.313934326171875,-39.30321502685547,125.90351867675781,-22.200000762939453,-32.25,5.700000286102295
4.563,65.81181335449219,-49.3397102355957,14.211980819702148,-32.64165496826172,-47.56355285644531,119.37519073486328,-22.200000762939453,-33.0,4.5
4.569,57.84391403198242,-45.24083709716797,20.341136932373047,-36.63859176635742,-43.83307647705078,126.30321502685547,-22.200000762939453,-33.0,4.5
4.578,58.724979400634766,-41.37180709838867,14.556746482849121,-22.51607894897461,-39.43644714355469,151.88360595703125,-21.30000114440918,-31.950000762939453,6.600000381469727
4.588,69.25946807861328,-45.54729461669922,12.48815631866455,-32.37519073486328,-57.955589294433594,144.55589294433594,-21.30000114440918,-34.80000305175781,3.9000000953674316
4.598,76.80599212646484,-45.54729461669922,10.955866813659668,-51.4272575378418,-46.231239318847656,149.3522186279297,-21.30000114440918,-34.80000305175781,3.9000000953674316
4.608,79.10442352294922,-47.50096130371094,3.2561142444610596,-45.43185043334961,-58.08882141113281,170.8024444580078,-21.0,-37.05000305175781,3.6000001430511475
4.628,88.5663070678711,-36.58340072631836,0.19153612852096558,-39.569679260253906,-67.14854431152344,179.32923889160156,-20.25,-35.55000305175781,4.350000381469727
4.631,65.46704864501953,-35.93217849731445,0.5363011956214905,-10.125574111938477,-63.950992584228516,196.64930725097656,-20.400001525878906,-35.70000076293945,3.450000047683716
4.638,66.38642120361328,-44.398075103759766,1.7621324062347412,-29.577335357666016,-57.422664642333984,198.24807739257812,-20.400001525878906,-35.70000076293945,3.450000047683716
4.648,66.30980682373047,-52.71074295043945,2.4899697303771973,-46.63093185424805,-60.88667678833008,201.9785614013672,-20.400001525878906,-35.70000076293945,3.450000047683716
4.658,71.36636352539062,-46.390052795410156,6.627150535583496,-40.76875686645508,-66.21592712402344,220.8973846435547,-20.700000762939453,-36.900001525878906,3.0
4.668,87.03401947021484,-41.90810775756836,8.772355079650879,-47.9632453918457,-71.01225280761719,218.23277282714844,-17.55000114440918,-36.60000228881836,3.6000001430511475
4.681,61.06172180175781,-40.145973205566406,10.266336441040039,-26.779478073120117,-71.94486999511719,242.747314453125,-18.150001525878906,-36.45000076293945,1.6500000953674316
4.688,58.38021469116211,-59.91250228881836,9.002198219299316,-45.03215789794922,-71.01225280761719,247.2771759033203,-18.150001525878906,-36.45000076293945,1.6500000953674316
4.698,60.64033889770508,-56.733001708984375,8.35097599029541,-58.355281829833984,-64.48391723632812,225.96017456054688,-18.150001525878906,-36.45000076293945,1.6500000953674316
4.708,44.24484634399414,-44.28315353393555,3.907337188720703,-48.22970962524414,-56.889739990234375,224.09494018554688,-18.150001525878906,-37.650001525878906,-0.15000000596046448
4.718,37.617698669433594,-53.170433044433594,5.324704647064209,-42.500762939453125,-67.28177642822266,233.1546630859375,-17.400001525878906,-40.650001525878906,0.15000000596046448
4.728,45.470680236816406,-71.02159881591797,2.911349296569824,-56.756507873535156,-72.61102294921875,240.74884033203125,-16.5,-39.30000305175781,-0.30000001192092896
4.747,86.26787567138672,-64.24121856689453,4.252102375030518,-33.30780792236328,-90.33078002929688,272.32464599609375,-16.5,-39.30000305175781,-0.30000001192092896
4.751,69.64253997802734,-35.31926345825195,5.477933406829834,-15.987748146057129,-73.9433364868164,270.326171875,-15.000000953674316,-41.25,0.6000000238418579
4.758,61.29156494140625,-53.51519775390625,4.750096321105957,-13.456355094909668,-78.20673370361328,274.7228088378906,-15.300000190734863,-41.25,-2.5500001907348633
4.768,63.85814666748047,-78.75965881347656,8.08282470703125,-52.226646423339844,-74.20980072021484,264.59722900390625,-13.500000953674316,-42.150001525878906,-2.1000001430511475
4.778,85.46342468261719,-72.86034393310547,6.588842868804932,-67.68146514892578,-88.46553802490234,262.1990661621094,-13.500000953674316,-42.150001525878906,-2.1000001430511475
4.797,79.44918823242188,-43.785160064697266,6.703764915466309,-45.831546783447266,-85.93415069580078,271.39202880859375,-13.500000953674316,-42.150001525878906,-2.1000001430511475
4.801,31.641769409179688,-43.4020881652832,0.7661445140838623,-23.98162269592285,-70.47932434082031,257.26953125,-12.90000057220459,-42.30000305175781,-1.6500000953674316
4.808,14.288596153259277,-78.72135162353516,-1.5322890281677246,-56.09035110473633,-55.95711898803711,236.21897888183594,-10.950000762939453,-41.85000228881836,-3.450000047683716
4.819,35.35757064819336,-87.3404769897461,-0.49799394607543945,-82.6033706665039,-62.21898651123047,238.35067749023438,-10.800000190734863,-43.650001525878906,-2.8500001430511475
4.828,70.52360534667969,-75.73339080810547,-1.800439715385437,-90.4640121459961,-60.35375213623047,246.3445587158203,-10.800000190734863,-43.650001525878906,-2.8500001430511475
4.838,106.07271575927734,-52.63412857055664,-1.455674648284912,-78.47319793701172,-67.814697265625,241.814697265625,-9.300000190734863,-42.45000076293945,-5.400000095367432
4.858,109.21390533447266,-45.96867370605469,-1.8387469053268433,-41.035221099853516,-71.94486999511719,261.9326171875,-9.75,-43.20000076293945,-3.6000001430511475
4.861,108.98406219482422,-56.38823699951172,-1.2641384601593018,-55.29096221923828,-73.41041564941406,243.01377868652344,-9.0,-43.95000076293945,-5.100000381469727
4.868,134.3817596435547,-65.3138198852539,1.072602391242981,-65.016845703125,-90.06431579589844,212.23736572265625,-8.40000057220459,-43.80000305175781,-6.750000476837158
4.878,137.90602111816406,-56.80961608886719,-0.26815059781074524,-75.14241790771484,-80.47166442871094,191.58651733398438,-8.40000057220459,-43.80000305175781,-6.750000476837158
4.888,111.51233673095703,-50.68046188354492,-0.9959878921508789,-16.25421142578125,-95.66002655029297,151.084228515625,-7.650000095367432,-44.25,-7.050000190734863
4.898,81.82423400878906,-51.82967758178711,-13.139378547668457,59.68759536743164,-84.60183715820312,130.03369140625,-7.650000095367432,-45.75,-7.800000190734863
4.908,52.09782791137695,-46.54328155517578,-12.48815631866455,182.92648315429688,-63.551300048828125,151.6171417236328,-6.750000476837158,-43.650001525878906,-6.600000381469727
4.921,30.722396850585938,-46.619895935058594,-3.7158010005950928,208.90658569335938,-9.72588062286377,178.6630859375,-6.900000095367432,-44.25,-9.0
4.928,0.0,-54.894256591796875,7.316680431365967,211.9709014892578,6.395099639892578,168.27105712890625,-6.900000095367432,-44.25,-9.0
4.938,-18.808849334716797,-53.63011932373047,17.659631729125977,165.3399658203125,33.30780792236328,121.77335357666016,-6.450000286102295,-44.55000305175781,-7.050000190734863
4.948,-46.198516845703125,-42.09964370727539,21.835119247436523,37.57120895385742,41.168453216552734,27.045940399169922,-5.25,-45.150001525878906,-7.950000286102295
4.958,-51.7530632019043,-13.330915451049805,15.054739952087402,-102.98774719238281,27.31240463256836,-123.63858795166016,-5.550000190734863,-45.900001525878906,-7.950000286102295
4.978,-38.613685607910156,28.960264205932617,3.332728862762451,-142.4241943359375,27.578866958618164,-248.2097930908203,-5.700000286102295,-46.20000076293945,-7.800000190734863
4.981,-22.37141990661621,92.24380493164062,-11.338939666748047,-2.9310872554779053,41.30168533325195,-320.4211120605469,-5.700000286102295,-46.20000076293945,-7.800000190734863
4.988,3.2561142444610596,104.27227020263672,-3.869029998779297,102.05513000488281,65.15007781982422,-367.3185119628906,-9.0,-43.95000076293945,-7.950000286102295
4.998,5.975927352905273,90.51998138427734,3.064578056335449,214.23582458496094,60.88667678833008,-418.8789978027344,-9.300000190734863,-44.400001525878906,-8.700000762939453
5.008,3.9839515686035156,60.29557418823242,2.911349296569824,251.4073486328125,65.81623077392578,-469.3736572265625,-12.0,-43.20000076293945,-8.700000762939453
5.018,0.07661445438861847,22.946029663085938,-0.38307225704193115,220.8973846435547,73.54364013671875,-532.2587890625,-10.950000762939453,-43.5,-6.0
5.028,12.871228218078613,-1.9919757843017578,7.5848307609558105,136.4287872314453,76.4747314453125,-570.4961547851562,-10.950000762939453,-43.5,-6.0
5.041,27.925968170166016,-16.66364288330078,7.316680431365967,48.09647750854492,76.60796356201172,-623.2557373046875,-13.200000762939453,-41.55000305175781,-5.700000286102295
5.048,32.44622039794922,-22.946029663085938,9.040505409240723,12.124042510986328,85.53445434570312,-644.4395141601562,-14.40000057220459,-39.900001525878906,-7.500000476837158
5.058,30.530860900878906,-20.800825119018555,9.998186111450195,-13.056661605834961,85.93415069580078,-674.41650390625,-16.650001525878906,-37.650001525878906,-5.25
5.068,29.879636764526367,-18.579004287719727,6.512228488922119,-8.660030364990234,83.5359878540039,-675.2158813476562,-16.80000114440918,-37.5,-6.150000095367432
5.078,35.74064254760742,-22.83110809326172,3.332728862762451,-41.568145751953125,84.73506927490234,-687.2067260742188,-16.80000114440918,-37.5,-6.150000095367432
5.097,47.424346923828125,-29.76471519470215,3.5242648124694824,-97.65850067138672,82.20367431640625,-700.6630859375,-19.5,-33.60000228881836,-3.9000000953674316
5.101,57.192691802978516,-36.928165435791016,-5.018246650695801,-147.62020874023438,72.61102294921875,-699.0643310546875,-21.30000114440918,-33.900001525878906,-3.9000000953674316
5.108,66.73119354248047,-43.01901626586914,-10.72602367401123,-153.21592712402344,67.94792938232422,-687.4732055664062,-22.80000114440918,-31.200000762939453,-5.100000381469727
5.118,69.75746154785156,-46.35174560546875,-10.572794914245605,-165.60643005371094,68.4808578491211,-670.68603515625,-23.400001525878906,-29.850000381469727,-2.700000047683716
5.128,76.69107055664062,-59.18466567993164,-13.407529830932617,-176.13169860839844,68.61408996582031,-669.4869384765625,-23.400001525878906,-29.850000381469727,-2.700000047683716
5.138,82.28392028808594,-73.0135726928711,-18.34916114807129,-160.8101043701172,77.27411651611328,-635.646240234375,-23.700000762939453,-24.900001525878906,-4.200000286102295
5.158,87.80016326904297,-83.58637237548828,-16.012420654296875,-131.23277282714844,100.18988800048828,-629.6508178710938,-26.700000762939453,-24.900001525878906,-3.0
5.161,92.85671997070312,-83.27991485595703,-9.308655738830566,-44.49923324584961,81.13782501220703,-568.8973999023438,-26.700000762939453,-22.200000762939453,-2.700000047683716
5.168,104.38719177246094,-79.10442352294922,-15.093047142028809,20.650842666625977,65.41653442382812,-533.5911254882812,-26.250001907348633,-20.400001525878906,-4.350000381469727
5.178,113.46600341796875,-83.27991485595703,-19.843143463134766,111.38131713867188,41.434913635253906,-490.15771484375,-26.250001907348633,-20.400001525878906,-4.350000381469727
5.188,124.76663970947266,-100.13509368896484,-20.532672882080078,144.2894287109375,19.185298919677734,-433.66766357421875,-26.400001525878906,-17.850000381469727,-2.700000047683716
5.198,135.10958862304688,-116.6455078125,-19.766529083251953,139.7595672607422,1.0658499002456665,-388.10260009765625,-27.150001525878906,-14.850000381469727,-3.450000047683716
5.217,131.81517028808594,-131.2405548095703,-18.11931800842285,87.0,-20.251148223876953,-326.5497741699219,-26.700000762939453,-14.100000381469727,-2.25
5.221,118.94393920898438,-132.9260711669922,-8.542511940002441,-6.661561965942383,-37.97090148925781,-259.134765625,-26.700000762939453,-14.100000381469727,-2.25
5.228,101.78230285644531,-117.33503723144531,1.647210717201233,-60.35375213623047,-33.97396469116211,-224.62786865234375,-27.150001525878906,-13.65000057220459,-1.9500000476837158
5.238,94.27408599853516,-99.8286361694336,8.159439086914062,-94.86064147949219,-35.972434997558594,-173.6002960205078,-27.150001525878906,-12.90000057220459,-3.450000047683716
5.248,89.67721557617188,-81.17301177978516,14.518439292907715,-63.950992584228516,-40.102603912353516,-92.3292465209961,-25.950000762939453,-12.15000057220459,-1.6500000953674316
5.258,85.31019592285156,-73.664794921875,18.310853958129883,-67.68146514892578,-21.583459854125977,-32.24195861816406,-27.30000114440918,-11.850000381469727,-2.5500001907348633
5.278,77.64875030517578,-80.21533203125,20.494365692138672,-81.67074584960938,-2.398162364959717,24.781009674072266,-27.30000114440918,-11.850000381469727,-2.5500001907348633
5.282,77.64875030517578,-94.69546508789062,25.550920486450195,-143.09034729003906,8.39356803894043,61.552833557128906,-26.400001525878906,-11.40000057220459,-1.6500000953674316
5.288,81.78592681884766,-87.18724822998047,10.304644584655762,-148.55282592773438,11.058192253112793,96.8591079711914,-26.250001907348633,-11.850000381469727,-1.350000023841858
5.298,83.96944427490234,-73.35833740234375,-0.727837324142456,-103.25421142578125,25.313934326171875,238.6171417236328,-26.250001907348633,-13.050000190734863,-2.1000001430511475
5.308,97.49188995361328,-116.76042938232422,23.099258422851562,-140.42572021484375,-14.92189884185791,208.24041748046875,-28.05000114440918,-13.800000190734863,-1.0500000715255737
5.318,107.45177459716797,-128.520751953125,5.51624059677124,-255.80397033691406,56.889739990234375,103.12097930908203,-28.05000114440918,-13.800000190734863,-1.0500000715255737
5.337,84.8888168334961,-18.11931800842285,28.19411849975586,-260.3338317871094,28.77794647216797,87.79938507080078,-26.700000762939453,-12.90000057220459,-0.45000001788139343
5.341,106.3791732788086,72.63050079345703,47.845726013183594,-182.52679443359375,-12.923430442810059,161.6094970703125,-26.250001907348633,-12.750000953674316,0.30000001192092896
5.348,158.0556182861328,140.81736755371094,5.5545477867126465,-42.23430252075195,-10.392036437988281,198.6477813720703,-26.700000762939453,-13.200000762939453,-1.9500000476837158
5.358,166.2916717529297,130.70425415039062,0.8810662031173706,130.1669158935547,40.76875686645508,242.08116149902344,-27.150001525878906,-13.65000057220459,-0.45000001788139343
5.368,137.7144775390625,106.53240203857422,45.31745147705078,201.9785614013672,52.626338958740234,259.4012145996094,-27.150001525878906,-13.65000057220459,-0.45000001788139343
5.378,105.72794342041016,67.07595825195312,63.01538848876953,279.3858947753906,43.43338394165039,264.86370849609375,-27.150001525878906,-16.350000381469727,-0.9000000357627869
5.398,89.60060119628906,14.09705924987793,6.89530086517334,342.27105712890625,57.955589294433594,289.37823486328125,-26.250001907348633,-16.950000762939453,-0.30000001192092896
5.402,88.91107177734375,-41.90810775756836,14.709975242614746,220.49769592285156,70.47932434082031,223.16232299804688,-27.30000114440918,-18.900001525878906,-0.30000001192092896
5.408,87.30216979980469,-99.94355773925781,-10.228029251098633,90.06431579589844,85.00152587890625,187.72280883789062,-27.30000114440918,-18.900001525878906,-0.30000001192092896
5.418,68.68486022949219,-58.87820816040039,-12.29662036895752,-6.9280242919921875,53.95865249633789,210.37213134765625,-27.30000114440918,-18.900001525878906,-0.30000001192092896
5.428,73.35833740234375,-25.742456436157227,0.38307225704193115,46.231239318847656,38.23736572265625,222.62939453125,-25.80000114440918,-19.650001525878906,0.30000001192092896
5.438,85.27188873291016,-11.070788383483887,12.449849128723145,105.78560638427734,43.43338394165039,187.58958435058594,-27.30000114440918,-21.150001525878906,1.0500000715255737
5.458,84.19928741455078,-5.822698593139648,20.570980072021484,134.43031311035156,50.22817611694336,181.3277130126953,-27.000001907348633,-20.850000381469727,1.0500000715255737
5.462,72.82203674316406,-19.651607513427734,17.468095779418945,119.5084228515625,25.846860885620117,159.07809448242188,-26.250001907348633,-22.350000381469727,1.8000000715255737
5.468,80.63671112060547,-46.006980895996094,17.889474868774414,93.66156005859375,12.790199279785156,158.545166015625,-26.250001907348633,-22.350000381469727,1.8000000715255737
5.478,92.6651840209961,-45.35575866699219,15.131354331970215,74.8759536743164,11.058192253112793,134.96324157714844,-25.950000762939453,-22.950000762939453,1.9500000476837158
5.488,102.8932113647461,-26.585216522216797,30.415939331054688,76.4747314453125,-23.182235717773438,130.43338012695312,-27.30000114440918,-22.80000114440918,2.8500001430511475
5.498,120.3613052368164,-31.143775939941406,20.187908172607422,59.95405578613281,-35.439510345458984,157.612548828125,-25.650001525878906,-22.950000762939453,1.2000000476837158
5.518,141.08551025390625,-42.29117965698242,4.941632270812988,10.791729927062988,-27.978559494018555,156.14700317382812,-25.950000762939453,-24.450000762939453,2.25
5.522,116.41566467285156,-19.038692474365234,8.695740699768066,49.29555892944336,-17.186830520629883,169.33689880371094,-24.450000762939453,-25.650001525878906,0.45000001788139343
5.528,65.12228393554688,-0.1149216815829277,13.21599292755127,91.26339721679688,-32.77488327026367,189.45481872558594,-24.450000762939453,-25.650001525878906,0.45000001788139343
5.538,54.587799072265625,-35.97048568725586,21.45204734802246,81.13782501220703,-33.70750427246094,162.6753387451172,-25.05000114440918,-25.500001907348633,0.6000000238418579
5.548,58.03544998168945,-84.73558807373047,0.6129156351089478,-32.64165496826172,-19.584991455078125,125.37059783935547,-24.900001525878906,-26.400001525878906,0.45000001788139343
5.558,59.83588790893555,-70.6002197265625,6.780379295349121,-33.70750427246094,-21.84992218017578,111.11485290527344,-24.450000762939453,-26.400001525878906,2.25
5.578,60.90849304199219,-29.573179244995117,11.377246856689453,18.2526798248291,-27.71209716796875,115.51148223876953,-24.450000762939453,-26.400001525878906,2.25
5.583,72.93695831298828,-24.938005447387695,13.867216110229492,37.83767318725586,-34.906585693359375,102.98774719238281,-25.200000762939453,-27.150001525878906,2.25
5.588,82.97345733642578,-54.81764221191406,14.173673629760742,33.4410400390625,-41.701377868652344,104.5865249633789,-25.200000762939453,-27.150001525878906,2.25
5.598,84.46743774414062,-60.41049575805664,-2.183511972427368,-16.920366287231445,-44.89892578125,95.52679443359375,-22.650001525878906,-26.850000381469727,0.45000001788139343
5.608,72.32404327392578,-45.700523376464844,8.312667846679688,-0.1332312375307083,-38.37059783935547,88.865234375,-23.55000114440918,-26.55000114440918,1.0500000715255737
5.618,68.7997817993164,-34.43819808959961,7.4316020011901855,-1.7320060729980469,-33.97396469116211,97.65850067138672,-23.55000114440918,-26.55000114440918,1.0500000715255737
5.638,76.537841796875,-47.15619659423828,2.298433542251587,-16.25421142578125,-21.716691970825195,89.39816284179688,-24.0,-27.750001907348633,0.6000000238418579
5.642,75.73339080810547,-42.02302932739258,4.405331134796143,-9.326186180114746,-18.91883659362793,98.4578857421875,-24.150001525878906,-30.600000381469727,-0.15000000596046448
5.648,71.7877426147461,-35.31926345825195,9.423578262329102,-9.859111785888672,-20.784072875976562,106.18529510498047,-24.150001525878906,-30.600000381469727,-0.15000000596046448
5.658,67.15257263183594,-40.52904510498047,7.393294811248779,-15.188361167907715,-10.92496109008789,105.65237426757812,-24.150001525878906,-30.600000381469727,-0.15000000596046448
5.668,63.283538818359375,-48.11387634277344,8.044517517089844,-23.98162269592285,-17.986217498779297,115.77794647216797,-24.450000762939453,-29.100000381469727,-0.45000001788139343
5.678,74.81401824951172,-47.76911163330078,6.244078159332275,-30.509952545166016,-25.18070411682129,107.11791229248047,-24.150001525878906,-30.600000381469727,-0.6000000238418579
5.698,75.2737045288086,-31.794998168945312,12.679692268371582,-25.313934326171875,-18.385910034179688,126.7029037475586,-22.950000762939453,-29.850000381469727,-1.2000000476837158
5.702,74.6607894897461,-32.71437072753906,17.1999454498291,-29.84379768371582,-25.846860885620117,150.01837158203125,-22.950000762939453,-29.850000381469727,-1.2000000476837158
5.708,85.08035278320312,-51.7530632019043,12.143390655517578,-49.96171569824219,-32.24195861816406,158.9448699951172,-24.30000114440918,-31.200000762939453,-1.2000000476837158
5.718,91.36273956298828,-47.99895477294922,11.492168426513672,-63.684532165527344,-40.36906433105469,175.9984588623047,-22.05000114440918,-31.200000762939453,-1.350000023841858
5.728,92.20549774169922,-32.82929229736328,11.530475616455078,-62.75191116333008,-29.177640914916992,175.59877014160156,-22.05000114440918,-31.200000762939453,0.0
5.738,78.3382797241211,-22.677879333496094,9.385271072387695,-41.30168533325195,-35.57273864746094,186.12403869628906,-22.650001525878906,-32.55000305175781,-1.2000000476837158
5.758,59.98911666870117,-37.234622955322266,11.1474027633667,-51.960182189941406,-23.315465927124023,195.5834503173828,-22.650001525878906,-32.55000305175781,-1.2000000476837158
5.762,61.636329650878906,-62.555702209472656,8.810662269592285,-94.59417724609375,-20.91730499267578,186.3905029296875,-20.55000114440918,-34.80000305175781,0.30000001192092896
5.768,65.69689178466797,-51.29337692260742,6.358999729156494,-87.66615295410156,-21.316997528076172,197.9816131591797,-21.75,-33.60000228881836,-0.6000000238418579
5.778,74.16278839111328,-39.341522216796875,0.9193734526634216,-62.8851432800293,-33.4410400390625,211.9709014892578,-20.25,-32.85000228881836,-2.1000001430511475
5.788,72.66880798339844,-35.31926345825195,1.4173674583435059,-56.09035110473633,-41.035221099853516,218.76568603515625,-19.200000762939453,-33.45000076293945,-2.25
5.798,60.52541732788086,-45.20252990722656,3.907337188720703,-65.54976654052734,-30.509952545166016,230.62327575683594,-19.200000762939453,-33.45000076293945,-2.25
5.818,77.1124496459961,-59.18466567993164,7.967903137207031,-73.41041564941406,-46.09800720214844,235.55282592773438,-20.700000762939453,-36.45000076293945,-2.700000047683716
5.822,76.00154113769531,-45.04929733276367,8.427590370178223,-57.55589294433594,-47.830013275146484,253.80551147460938,-19.80000114440918,-35.10000228881836,-3.9000000953674316
5.828,60.7552604675293,-42.82748031616211,7.661445617675781,-58.888206481933594,-43.69984436035156,246.74424743652344,-19.5,-37.5,-2.5500001907348633
5.838,61.82786560058594,-52.05952072143555,10.342951774597168,-69.4134750366211,-40.36906433105469,252.4731903076172,-17.700000762939453,-38.400001525878906,-3.450000047683716
5.848,53.361968994140625,-63.168617248535156,7.354987621307373,-70.3460922241211,-52.626338958740234,245.67840576171875,-17.700000762939453,-38.400001525878906,-3.450000047683716
5.858,67.22918701171875,-60.44880294799805,6.933608055114746,-84.4686050415039,-58.754974365234375,249.5421142578125,-17.55000114440918,-39.0,-4.650000095367432
5.878,50.98691940307617,-44.78114700317383,7.469909191131592,-77.27411651611328,-42.36753463745117,238.35067749023438,-16.5,-37.05000305175781,-4.650000095367432
5.881,35.12772750854492,-53.51519775390625,7.967903137207031,-78.07350158691406,-41.30168533325195,240.21592712402344,-18.900001525878906,-37.95000076293945,-4.5
5.888,53.476890563964844,-79.71733856201172,9.691728591918945,-88.99846649169922,-50.76110076904297,232.48851013183594,-16.650001525878906,-37.95000076293945,-5.25
5.898,58.839900970458984,-77.84028625488281,3.3710360527038574,-108.71669006347656,-45.43185043334961,231.82235717773438,-16.650001525878906,-37.95000076293945,-5.25
5.908,90.59659576416016,-71.36636352539062,-0.6512228846549988,-104.85298156738281,-56.22358322143555,239.68299865722656,-14.40000057220459,-39.900001525878906,-6.750000476837158
5.918,115.34306335449219,-56.005165100097656,-8.427590370178223,-88.865234375,-74.34303283691406,249.27565002441406,-15.450000762939453,-39.60000228881836,-6.300000190734863
5.939,110.7078857421875,-46.0452880859375,-12.7946138381958,-63.28483963012695,-82.20367431640625,265.2633972167969,-14.700000762939453,-39.900001525878906,-7.800000190734863
5.942,106.11102294921875,-39.07337188720703,-14.173673629760742,-38.23736572265625,-90.4640121459961,262.4655456542969,-13.050000190734863,-40.5,-7.650000095367432
5.948,63.05369567871094,-44.05331039428711,-8.96389102935791,-24.914241790771484,-88.865234375,259.2679748535156,-13.050000190734863,-40.5,-7.650000095367432
5.958,66.65457153320312,-57.6906852722168,-2.4133553504943848,-13.189892768859863,-93.66156005859375,248.34303283691406,-12.450000762939453,-40.650001525878906,-9.0
5.968,88.68122863769531,-71.63451385498047,3.600879430770874,-61.01990509033203,-86.20060729980469,215.83460998535156,-10.800000190734863,-41.70000076293945,-8.700000762939453
5.978,98.87095642089844,-62.09601593017578,6.665457725524902,-90.4640121459961,-81.13782501220703,170.4027557373047,-10.950000762939453,-41.55000305175781,-8.550000190734863
5.998,90.67321014404297,-45.31745147705078,13.752294540405273,-68.08116149902344,-83.66921997070312,157.612548828125,-9.0,-39.30000305175781,-10.200000762939453
6.002,74.00955963134766,-30.454246520996094,19.919757843017578,-10.92496109008789,-67.28177642822266,133.49769592285156,-9.0,-39.30000305175781,-10.200000762939453
6.008,44.398075103759766,-27.58120346069336,26.700138092041016,20.91730499267578,-37.4379768371582,132.29861450195312,-9.450000762939453,-43.05000305175781,-9.75
6.018,31.450233459472656,-29.381643295288086,27.15982437133789,134.69677734375,-24.381317138671875,99.92343139648438,-10.050000190734863,-42.150001525878906,-10.950000762939453
6.028,15.054739952087402,-18.923770904541016,29.53487205505371,145.2220458984375,19.98468589782715,111.781005859375,-7.650000095367432,-42.60000228881836,-10.050000190734863
6.038,-15.629348754882812,-31.60346221923828,6.933608055114746,107.65084075927734,53.82542037963867,57.689125061035156,-7.650000095367432,-42.60000228881836,-10.050000190734863
6.058,-36.35355758666992,-41.333499908447266,9.040505409240723,-15.854516983032227,42.633995056152344,-38.50382614135742,-7.650000095367432,-42.60000228881836,-10.050000190734863
6.061,-57.42253494262695,-37.34954833984375,-17.31486701965332,-122.83920288085938,44.36600112915039,-157.87901306152344,-8.40000057220459,-41.85000228881836,-10.350000381469727
6.068,-41.065345764160156,15.361198425292969,-6.3973069190979,-147.8866729736328,61.9525260925293,-237.15159606933594,-9.15000057220459,-42.30000305175781,-12.300000190734863
6.078,-20.149600982666016,53.89826965332031,-5.439626216888428,-106.71822357177734,79.53904724121094,-320.28790283203125,-10.050000190734863,-41.70000076293945,-10.200000762939453
6.088,8.65743350982666,97.53019714355469,10.074800491333008,15.188361167907715,89.5313949584961,-346.00152587890625,-10.050000190734863,-41.70000076293945,-10.200000762939453
6.098,22.2948055267334,88.52799987792969,7.048529624938965,149.88514709472656,98.4578857421875,-371.3154602050781,-10.800000190734863,-42.150001525878906,-11.700000762939453
6.118,13.982137680053711,43.05732345581055,0.689530074596405,175.46554565429688,106.4517593383789,-430.20367431640625,-13.200000762939453,-40.650001525878906,-10.050000190734863
6.121,7.6997528076171875,4.175487995147705,1.723825216293335,112.31393432617188,94.32771301269531,-485.7610778808594,-14.40000057220459,-38.400001525878906,-10.050000190734863
6.128,19.268535614013672,-11.1474027633667,-6.742072105407715,73.54364013671875,104.45329284667969,-512.5405883789062,-13.950000762939453,-41.10000228881836,-10.050000190734863
6.138,25.742456436157227,-8.810662269592285,-7.469909191131592,42.23430252075195,109.11638641357422,-548.7794799804688,-13.950000762939453,-41.10000228881836,-10.050000190734863
6.148,28.270732879638672,-1.1109095811843872,-6.971915245056152,48.62940216064453,110.98162078857422,-569.5635375976562,-15.000000953674316,-37.80000305175781,-8.700000762939453
6.158,30.837318420410156,4.481945514678955,-4.6734819412231445,56.62327575683594,120.97396087646484,-612.4639892578125,-16.80000114440918,-37.05000305175781,-9.15000057220459
6.178,38.34553527832031,-3.600879430770874,-3.141192674636841,64.75038146972656,113.77947998046875,-616.4609375,-18.450000762939453,-35.25,-9.75
6.181,48.42033386230469,-19.153614044189453,-1.1492167711257935,19.31852912902832,111.64777374267578,-626.5864868164062,-19.80000114440918,-35.55000305175781,-9.90000057220459
6.188,58.26529312133789,-42.63594436645508,0.689530074596405,-20.117916107177734,109.915771484375,-639.1102294921875,-19.80000114440918,-35.55000305175781,-9.90000057220459
6.198,61.444793701171875,-54.281341552734375,-1.4173674583435059,-74.74272155761719,102.98774719238281,-636.578857421875,-21.900001525878906,-29.850000381469727,-7.500000476837158
6.208,61.78955841064453,-64.27952575683594,-10.72602367401123,-102.72128295898438,107.78407287597656,-643.64013671875,-22.5,-29.250001907348633,-7.350000381469727
6.218,62.40247344970703,-68.83808898925781,-14.173673629760742,-98.99080657958984,112.71363067626953,-633.3812866210938,-24.750001907348633,-27.750001907348633,-7.350000381469727
6.238,69.87238311767578,-73.6264877319336,-15.935806274414062,-86.3338394165039,113.11331939697266,-622.8560180664062,-26.400001525878906,-26.100000381469727,-6.300000190734863
6.242,80.90486145019531,-77.30398559570312,-14.748282432556152,-55.95711898803711,110.31546783447266,-594.3445434570312,-26.400001525878906,-26.100000381469727,-6.300000190734863
6.248,88.33646392822266,-76.46122741699219,-2.7964274883270264,-30.776416778564453,102.18836212158203,-597.4088745117188,-27.450000762939453,-22.950000762939453,-7.500000476837158
6.258,91.40104675292969,-76.19307708740234,3.5625722408294678,3.597243309020996,95.79325866699219,-578.7564697265625,-27.000001907348633,-20.850000381469727,-6.150000095367432
6.268,101.01615905761719,-79.90887451171875,3.7924153804779053,39.70290756225586,71.14547729492188,-553.4425659179688,-27.30000114440918,-19.200000762939453,-6.600000381469727
6.278,120.9742202758789,-89.10260772705078,-0.6129156351089478,79.40581512451172,56.356815338134766,-488.9586486816406,-27.000001907348633,-17.700000762939453,-5.400000095367432
6.298,141.08551025390625,-103.46781921386719,-14.633360862731934,92.46247863769531,52.093414306640625,-424.34149169921875,-27.000001907348633,-17.700000762939453,-5.400000095367432
6.301,147.8658905029297,-117.64149475097656,-15.629348754882812,60.08728790283203,15.721285820007324,-329.4808654785156,-27.30000114440918,-15.000000953674316,-4.350000381469727
6.308,127.98444366455078,-139.32337951660156,-8.772355079650879,19.584991455078125,-7.460949420928955,-288.578857421875,-26.400001525878906,-12.450000762939453,-6.0
6.318,113.88739013671875,-139.82138061523438,-5.5545477867126465,-40.502296447753906,-29.31087303161621,-223.29554748535156,-27.750001907348633,-12.300000190734863,-4.650000095367432
6.328,100.09678649902344,-131.54701232910156,-0.15322890877723694,-84.33537292480469,-36.771820068359375,-155.34762573242188,-27.000001907348633,-11.850000381469727,-5.400000095367432
6.338,91.01797485351562,-112.5849380493164,7.163451671600342,-77.54058074951172,-43.43338394165039,-91.66309356689453,-27.000001907348633,-11.850000381469727,-5.400000095367432
6.358,81.93915557861328,-89.7921371459961,12.22000503540039,-55.82388687133789,-33.57427215576172,-31.176109313964844,-26.400001525878906,-10.950000762939453,-3.450000047683716
6.361,75.04386138916016,-66.23319244384766,27.044902801513672,29.31087303161621,-40.102603912353516,60.48698043823242,-26.700000762939453,-11.40000057220459,-4.200000286102295
6.368,76.65276336669922,-71.02159881591797,20.64759635925293,41.83460998535156,-26.513015747070312,95.66002655029297,-26.700000762939453,-11.40000057220459,-4.200000286102295
6.378,77.1507568359375,-84.62066650390625,11.530475616455078,64.88361358642578,-9.992342948913574,179.4624786376953,-26.700000762939453,-10.950000762939453,-4.5
6.388,75.12047576904297,-106.07271575927734,0.9959878921508789,96.8591079711914,-0.5329249501228333,296.9724426269531,-26.700000762939453,-10.950000762939453,-4.5
6.398,79.33426666259766,-176.6729278564453,37.11970138549805,-155.88055419921875,6.128636837005615,182.39356994628906,-25.80000114440918,-11.550000190734863,-4.650000095367432
6.417,87.03401947021484,-141.5452117919922,6.358999729156494,-421.27716064453125,71.81163787841797,47.696781158447266,-26.700000762939453,-13.200000762939453,-5.25
6.421,64.0496826171875,-7.316680431365967,34.85957717895508,-440.595703125,31.575803756713867,49.96171569824219,-27.450000762939453,-12.450000762939453,-4.5
6.428,97.98988342285156,102.58675384521484,19.919757843017578,-271.2587890625,0.0,133.36447143554688,-27.450000762939453,-12.450000762939453,-4.5
6.438,139.20846557617188,136.25880432128906,7.661445617675781,-20.784072875976562,-17.586523056030273,210.90504455566406,-27.450000762939453,-12.450000762939453,-4.5
6.448,181.76779174804688,102.24198913574219,4.558559894561768,149.48544311523438,47.830013275146484,240.34915161132812,-26.250001907348633,-11.850000381469727,-4.350000381469727
6.458,139.39999389648438,76.26969146728516,19.766529083251953,131.0995330810547,51.693721771240234,237.2848358154297,-27.30000114440918,-14.250000953674316,-3.9000000953674316
6.478,107.33685302734375,74.3160171508789,56.15839385986328,171.60183715820312,36.63859176635742,227.02603149414062,-28.500001907348633,-16.200000762939453,-4.350000381469727
6.481,107.75823211669922,30.454246520996094,9.53849983215332,306.4318542480469,69.54670715332031,280.3185119628906,-24.900001525878906,-15.90000057220459,-3.0
6.488,112.96800994873047,-4.558559894561768,37.694313049316406,339.073486328125,52.75957107543945,287.1133117675781,-24.900001525878906,-15.90000057220459,-3.0
6.498,118.21610260009766,-60.64033889770508,21.298818588256836,246.61102294921875,84.86830139160156,232.35528564453125,-25.650001525878906,-18.30000114440918,-3.450000047683716
6.508,87.64693450927734,-69.56592559814453,-20.456058502197266,86.46707153320312,89.13169860839844,217.43338012695312,-27.30000114440918,-18.150001525878906,-2.8500001430511475
6.518,62.057708740234375,-69.52761840820312,-13.713987350463867,31.575803756713867,55.4241943359375,202.11178588867188,-26.700000762939453,-21.0,-2.700000047683716
6.537,67.5739517211914,-61.98109436035156,3.5242648124694824,-9.059723854064941,45.43185043334961,195.983154296875,-26.700000762939453,-21.0,-2.700000047683716
6.541,88.94937896728516,-30.4925537109375,2.3750481605529785,5.995405673980713,51.960182189941406,200.24655151367188,-26.250001907348633,-20.100000381469727,-2.8500001430511475
6.548,90.55828857421875,4.903325080871582,44.24484634399414,60.08728790283203,56.09035110473633,201.578857421875,-26.250001907348633,-20.100000381469727,-2.8500001430511475
6.558,84.04605865478516,-5.592854976654053,39.341522216796875,104.18682861328125,45.56508255004883,173.73353576660156,-27.750001907348633,-20.400001525878906,-2.5500001907348633
6.568,69.29777526855469,-48.68848419189453,36.08540725708008,61.41960144042969,42.76722717285156,137.3614044189453,-27.450000762939453,-21.450000762939453,-2.25
6.578,60.1806526184082,-65.96504211425781,14.36521053314209,-9.592649459838867,35.439510345458984,124.03828430175781,-27.450000762939453,-21.450000762939453,-2.25
6.598,72.4006576538086,-66.5013427734375,-6.780379295349121,-34.64012145996094,-10.658498764038086,126.96936798095703,-25.650001525878906,-22.950000762939453,-0.9000000357627869
6.602,130.66595458984375,-30.99054718017578,-16.625335693359375,-9.192955017089844,-19.584991455078125,120.4410400390625,-25.950000762939453,-23.700000762939453,-3.0
6.608,134.4583740234375,-21.528661727905273,-12.717999458312988,-1.9984685182571411,-13.722817420959473,124.57120513916016,-25.950000762939453,-23.700000762939453,-3.0
6.618,127.63967895507812,-18.195932388305664,-3.9456443786621094,42.500762939453125,-5.595712184906006,126.03675079345703,-27.150001525878906,-24.900001525878906,-2.700000047683716
6.628,96.03621673583984,-38.65199279785156,12.564770698547363,27.978559494018555,-7.194486618041992,123.2388916015625,-27.150001525878906,-24.900001525878906,-2.700000047683716
6.638,72.63050079345703,-56.92454147338867,11.530475616455078,-26.246553421020508,7.594180583953857,108.84992218017578,-25.200000762939453,-25.650001525878906,-2.25
6.658,65.9267349243164,-60.065731048583984,13.407529830932617,-31.709033966064453,5.995405673980713,76.07503509521484,-26.55000114440918,-24.750001907348633,-2.5500001907348633
6.661,52.97889709472656,-47.19450378417969,14.939818382263184,-20.650842666625977,6.661561965942383,72.61102294921875,-26.55000114440918,-26.250001907348633,-2.1000001430511475
6.668,51.063533782958984,-51.29337692260742,15.207969665527344,-18.119447708129883,-0.2664624750614166,60.62021255493164,-26.55000114440918,-26.250001907348633,-2.1000001430511475
6.678,55.58378601074219,-53.09381866455078,3.4093432426452637,-17.986217498779297,-5.728943347930908,34.10719680786133,-25.05000114440918,-25.80000114440918,-0.6000000238418579
6.688,70.75344848632812,-51.063533782958984,5.324704647064209,-11.324655532836914,-12.390504837036133,37.4379768371582,-25.80000114440918,-25.80000114440918,-2.8500001430511475
6.698,66.23319244384766,-47.38603973388672,5.631162166595459,4.663093090057373,-21.45022964477539,32.77488327026367,-26.55000114440918,-24.30000114440918,-3.6000001430511475
6.717,59.68265914916992,-43.63193130493164,10.496180534362793,-6.128636837005615,-20.38437843322754,23.98162269592285,-25.80000114440918,-25.80000114440918,-3.3000001907348633
6.721,58.3036003112793,-44.6279182434082,12.832921028137207,-8.926492691040039,-27.045940399169922,18.519142150878906,-25.80000114440918,-25.80000114440918,-3.3000001907348633
6.728,59.950809478759766,-44.93437576293945,11.530475616455078,-11.457886695861816,-22.51607894897461,17.186830520629883,-24.750001907348633,-25.80000114440918,-3.3000001907348633
6.738,60.44880294799805,-41.67826461791992,10.955866813659668,2.131699800491333,-28.111791610717773,25.846860885620117,-25.200000762939453,-25.650001525878906,-3.450000047683716
6.748,67.45903015136719,-41.41011428833008,7.661445617675781,-4.396630764007568,-25.447166442871094,38.63705825805664,-25.500001907348633,-27.750001907348633,-2.1000001430511475
6.758,79.10442352294922,-46.696510314941406,3.600879430770874,-27.31240463256836,-23.04900360107422,39.569679260253906,-24.900001525878906,-27.150001525878906,-2.700000047683716
6.777,83.0500717163086,-37.234622955322266,7.6997528076171875,-15.987748146057129,-27.445634841918945,68.88054656982422,-24.900001525878906,-27.150001525878906,-2.700000047683716
6.781,82.0923843383789,-20.915746688842773,14.403517723083496,-23.848390579223633,-21.716691970825195,65.15007781982422,-26.400001525878906,-26.850000381469727,-2.700000047683716
6.788,80.98147583007812,-25.474306106567383,14.595053672790527,-13.056661605834961,-17.453292846679688,72.87748718261719,-23.55000114440918,-27.450000762939453,-3.6000001430511475
6.798,79.75564575195312,-35.24264907836914,14.211980819702148,-12.25727367401123,-32.37519073486328,78.07350158691406,-25.200000762939453,-27.600000381469727,-3.750000238418579
6.808,71.90266418457031,-40.64396667480469,10.496180534362793,-19.98468589782715,-32.108726501464844,92.06278228759766,-24.0,-27.450000762939453,-5.100000381469727
6.818,63.589996337890625,-43.32547378540039,10.496180534362793,-35.439510345458984,-21.050535202026367,87.13323211669922,-24.0,-27.450000762939453,-5.100000381469727
6.837,65.62027740478516,-40.52904510498047,9.040505409240723,-36.372127532958984,-21.716691970825195,80.33843994140625,-24.150001525878906,-26.850000381469727,-4.200000286102295
6.841,65.9267349243164,-37.387855529785156,12.564770698547363,-27.445634841918945,-23.715160369873047,96.99234008789062,-25.05000114440918,-27.450000762939453,-5.100000381469727
6.848,68.34009552001953,-38.728607177734375,12.066776275634766,-14.655436515808105,-39.30321502685547,113.51301574707031,-24.150001525878906,-28.80000114440918,-4.5
6.858,75.73339080810547,-43.63193130493164,10.649409294128418,-31.042879104614258,-41.30168533325195,120.17457580566406,-25.650001525878906,-28.350000381469727,-4.200000286102295
6.868,85.04204559326172,-45.66221618652344,3.6774938106536865,-20.38437843322754,-61.552833557128906,140.82542419433594,-25.650001525878906,-28.350000381469727,-4.200000286102295
6.878,97.95157623291016,-33.212364196777344,1.723825216293335,-3.4640121459960938,-73.67687225341797,153.7488555908203,-22.200000762939453,-29.55000114440918,-3.750000238418579
6.897,88.41307830810547,-27.006595611572266,6.89530086517334,2.797856092453003,-69.94640350341797,189.1883544921875,-22.80000114440918,-29.250001907348633,-5.100000381469727
6.901,77.1124496459961,-51.29337692260742,15.629348754882812,-15.188361167907715,-65.54976654052734,185.85757446289062,-22.80000114440918,-29.250001907348633,-5.100000381469727
6.908,72.36235046386719,-51.52322006225586,15.093047142028809,-21.050535202026367,-72.21133422851562,193.58499145507812,-22.80000114440918,-29.250001907348633,-5.100000381469727
6.918,72.63050079345703,-47.34773254394531,15.016432762145996,-28.77794647216797,-65.28330993652344,204.90963745117188,-23.55000114440918,-30.900001525878906,-6.600000381469727
6.928,68.68486022949219,-39.954437255859375,14.556746482849121,-37.4379768371582,-54.35834503173828,194.2511444091797,-23.700000762939453,-31.500001907348633,-5.700000286102295
6.938,61.5980224609375,-44.16823196411133,14.748282432556152,-38.37059783935547,-58.888206481933594,198.6477813720703,-22.05000114440918,-31.650001525878906,-5.400000095367432
6.951,66.5396499633789,-59.5677375793457,11.990161895751953,-47.0306282043457,-67.68146514892578,208.90658569335938,-23.400001525878906,-33.0,-5.700000286102295
6.958,85.19527435302734,-51.1401481628418,2.298433542251587,-54.091880798339844,-67.01531219482422,224.3614044189453,-23.400001525878906,-33.0,-5.700000286102295
6.968,80.63671112060547,-31.488540649414062,3.332728862762451,-40.36906433105469,-67.41500854492188,236.08575439453125,-21.30000114440918,-33.900001525878906,-7.350000381469727
6.978,39.18829345703125,-28.577192306518555,0.6512228846549988,-10.125574111938477,-57.55589294433594,238.084228515625,-22.5,-33.900001525878906,-6.150000095367432
6.988,27.849353790283203,-66.73119354248047,5.2480902671813965,-45.96477508544922,-51.560489654541016,224.49462890625,-19.80000114440918,-33.60000228881836,-7.950000286102295
6.998,41.86980056762695,-80.29194641113281,5.51624059677124,-74.60948944091797,-42.90045928955078,216.76722717285156,-19.950000762939453,-34.5,-7.500000476837158
7.017,51.44660568237305,-53.170433044433594,4.405331134796143,-52.626338958740234,-52.626338958740234,219.9647674560547,-19.200000762939453,-36.45000076293945,-8.25
7.021,47.615882873535156,-52.595821380615234,8.65743350982666,-51.027565002441406,-55.69065856933594,227.95864868164062,-19.200000762939453,-36.45000076293945,-8.25
7.028,44.85776138305664,-62.555702209472656,8.772355079650879,-55.69065856933594,-45.298622131347656,224.09494018554688,-20.25,-34.80000305175781,-7.350000381469727
7.038,65.16059112548828,-80.40686798095703,11.453861236572266,-91.66309356689453,-46.897396087646484,224.49462890625,-19.200000762939453,-36.45000076293945,-7.800000190734863
7.048,94.46562194824219,-69.71915435791016,6.89530086517334,-98.85757446289062,-64.084228515625,225.16079711914062,-18.150001525878906,-36.900001525878906,-7.800000190734863
7.067,76.34630584716797,-39.30321502685547,-1.2641384601593018,-57.55589294433594,-67.01531219482422,241.41500854492188,-18.150001525878906,-36.900001525878906,-7.800000190734863
7.071,62.057708740234375,-46.313438415527344,-2.145204782485962,-53.69218826293945,-55.95711898803711,232.48851013183594,-16.5,-37.80000305175781,-9.15000057220459
7.078,38.95845031738281,-71.2514419555664,-8.427590370178223,-64.48391723632812,-51.29402542114258,221.16384887695312,-16.950000762939453,-37.650001525878906,-9.0
7.088,46.96466064453125,-80.36856079101562,-9.193734169006348,-75.94180297851562,-66.61561584472656,226.09341430664062,-15.450000762939453,-36.900001525878906,-9.75
7.098,65.12228393554688,-68.56993865966797,-9.576807022094727,-74.60948944091797,-56.356815338134766,206.1087188720703,-15.450000762939453,-37.20000076293945,-12.600000381469727
7.108,56.50315856933594,-52.44259262084961,-11.109095573425293,-41.967838287353516,-59.95405578613281,208.90658569335938,-15.450000762939453,-37.20000076293945,-12.600000381469727
7.118,70.33206939697266,-65.46704864501953,-8.465897560119629,-41.434913635253906,-71.54517364501953,218.49923706054688,-14.250000953674316,-37.80000305175781,-10.950000762939453
7.137,96.80236053466797,-73.7031021118164,-1.37906014919281,-82.20367431640625,-81.67074584960938,217.1669158935547,-12.450000762939453,-37.95000076293945,-11.100000381469727
7.141,121.89360046386719,-58.99312973022461,10.649409294128418,-71.01225280761719,-91.13016510009766,217.03369140625,-12.450000762939453,-37.95000076293945,-11.100000381469727
7.148,126.33723449707031,-53.93657684326172,12.832921028137207,-69.94640350341797,-84.60183715820312,193.45175170898438,-13.050000190734863,-39.0,-10.950000762939453
7.158,124.57510375976562,-43.09563064575195,24.171859741210938,-42.500762939453125,-91.3966293334961,185.19142150878906,-13.050000190734863,-39.0,-10.950000762939453
7.168,98.75603485107422,-40.49073791503906,19.268535614013672,-18.2526798248291,-77.94027709960938,155.34762573242188,-12.15000057220459,-41.85000228881836,-13.050000190734863
7.187,68.60824584960938,-46.27513122558594,15.629348754882812,32.37519073486328,-68.34762573242188,148.4196014404297,-12.300000190734863,-39.30000305175781,-11.40000057220459
7.191,48.458641052246094,-45.08760452270508,13.292608261108398,101.9218978881836,-57.822357177734375,148.0198974609375,-10.950000762939453,-41.10000228881836,-13.050000190734863
7.198,26.891674041748047,-51.29337692260742,15.016432762145996,148.0198974609375,-39.43644714355469,136.4287872314453,-11.700000762939453,-40.35000228881836,-11.850000381469727
7.208,12.564770698547363,-52.51920700073242,16.970102310180664,144.2894287109375,-6.261868000030518,134.29708862304688,-11.700000762939453,-40.35000228881836,-11.850000381469727
7.218,-5.20978307723999,-59.18466567993164,22.946029663085938,118.70903015136719,24.11485481262207,110.848388671875,-10.65000057220459,-40.650001525878906,-12.600000381469727
