time,accel_x,accel_y,accel_z,gyro_x,gyro_y,gyro_z,mag_x,mag_y,mag_z
0.0,4.025923728942871,-8.748159408569336,2.104487419128418,-0.018325956538319588,0.01038470957428217,-0.021991148591041565,-21.908798217773438,51.85618591308594,-60.1578483581543
0.01,3.9936206340789795,-8.746962547302246,2.1056838035583496,-0.007788531482219696,0.005192354787141085,-0.02672535367310047,-21.996492385864258,51.593101501464844,-59.909385681152344
0.02,3.933800458908081,-8.860621452331543,2.1032910346984863,0.00015271631127689034,-0.0073303827084600925,-0.03298672288656235,-22.493423461914062,51.403099060058594,-59.17860412597656
0.03,3.757927656173706,-8.885746002197266,2.066202163696289,0.007177666295319796,-0.007788531482219696,-0.03329215571284294,-22.215726852416992,51.65156173706055,-59.16398620605469
0.04,3.634697675704956,-8.860621452331543,2.0757734775543213,0.006261368282139301,-0.006719517521560192,-0.029932396486401558,-21.777257919311523,51.22771453857422,-59.7339973449707
0.059,3.5700912475585938,-8.831908226013184,2.063809394836426,-0.0029016099870204926,-0.016035212203860283,-0.015271631069481373,-21.221864700317383,51.31540298461914,-59.33937454223633
0.062,3.5365920066833496,-8.805586814880371,2.0925233364105225,-0.003817907767370343,-0.01542434748262167,-0.012675453908741474,-21.894182205200195,51.56386947631836,-59.71937942504883
0.07,3.531806230545044,-8.776873588562012,2.1583259105682373,-0.006719517521560192,-0.0088575454428792,-0.009926560334861279,-22.20111083984375,51.85618591308594,-60.201690673828125
0.08,3.6191442012786865,-8.778069496154785,2.1990039348602295,-0.012675453908741474,0.0036651913542300463,-0.00809396430850029,-22.157264709472656,51.783103942871094,-59.76322937011719
0.09,3.6813576221466064,-8.798408508300781,2.204986095428467,-0.007941247895359993,0.013744467869400978,-0.0018325956771150231,-21.908798217773438,51.84156799316406,-59.880149841308594
0.1,3.7256245613098145,-8.797212600708008,2.2600209712982178,-0.0032070425804704428,0.019089538604021072,-0.0018325956771150231,-21.514177322387695,51.783103942871094,-59.266300201416016
0.119,3.76151704788208,-8.895318031311035,2.27677059173584,0.014813481830060482,0.01572977937757969,0.005955935921519995,-22.011106491088867,51.4177131652832,-60.01169204711914
0.122,3.757927656173706,-8.902496337890625,2.2719850540161133,0.019089538604021072,0.011453723534941673,0.0073303827084600925,-21.967260360717773,51.82695388793945,-60.53785705566406
0.13,3.682553768157959,-8.870193481445312,2.1678972244262695,0.033597588539123535,0.0032070425804704428,0.016035212203860283,-22.230342864990234,51.885414123535156,-60.1578483581543
0.14,3.6011979579925537,-8.818747520446777,2.1571295261383057,0.051770828664302826,-0.0036651913542300463,0.024434609338641167,-21.528793334960938,51.710025787353516,-59.96784591674805
0.15,3.61435866355896,-8.822336196899414,2.1403796672821045,0.05360342189669609,-0.00931569468230009,0.029016099870204926,-22.09880256652832,52.13387680053711,-60.34785079956055
0.16,3.669393539428711,-8.82114028930664,2.115255117416382,0.0455094613134861,-0.003054326167330146,0.027030786499381065,-21.791873931884766,51.710025787353516,-60.187076568603516
0.179,3.750749349594116,-8.797212600708008,2.115255117416382,0.02076941914856434,0.023976460099220276,0.007941247895359993,-22.332651138305664,51.183860778808594,-59.80707550048828
0.182,3.9038898944854736,-8.781658172607422,2.0817556381225586,0.017562376335263252,0.028099801391363144,0.0029016099870204926,-21.938030242919922,51.710025787353516,-60.31861877441406
0.19,3.94815731048584,-8.830711364746094,2.1032910346984863,0.010995574295520782,0.03176499158143997,-0.0073303827084600925,-22.522653579711914,51.87080001831055,-60.27477264404297
0.2,3.9840495586395264,-8.834300994873047,2.0961124897003174,0.0027488935738801956,0.032070424407720566,-0.02122756652534008,-21.938030242919922,51.52002716064453,-60.1140022277832
0.21,3.954139232635498,-8.828319549560547,2.0303099155426025,0.0018325956771150231,0.028710665181279182,-0.02825251594185829,-21.748027801513672,52.1192626953125,-60.625545501708984
0.22,3.8727831840515137,-8.809176445007324,1.9728822708129883,0.010995574295520782,0.008704829961061478,-0.03039054572582245,-22.025724411010742,51.53464126586914,-60.201690673828125
0.239,3.6681969165802,-8.833104133605957,2.0135602951049805,0.028405234217643738,-0.0377209298312664,-0.009926560334861279,-21.353404998779297,51.900028228759766,-59.70476150512695
0.242,3.5916268825531006,-8.823533058166504,2.042273998260498,0.025961771607398987,-0.046273037791252136,-0.006719517521560192,-21.76264190673828,51.60771560668945,-60.1140022277832
0.25,3.5497522354125977,-8.855835914611816,2.0829520225524902,0.01863138936460018,-0.04932736977934837,0.0006108652451075613,-22.244956970214844,52.55773162841797,-60.56708526611328
0.26,3.55214524269104,-8.871389389038086,2.137986898422241,0.005803219974040985,-0.04092797264456749,0.006872233934700489,-21.499561309814453,51.213096618652344,-60.4940071105957
0.27,3.6705896854400635,-8.831908226013184,2.190629005432129,-0.006108652334660292,-0.020616700872778893,0.009010262787342072,-21.64571762084961,51.94387435913086,-59.82168960571289
0.28,3.7950165271759033,-8.764909744262695,2.2121644020080566,-0.01313360221683979,-0.004886921960860491,0.005650503095239401,-21.499561309814453,52.17772674560547,-60.1578483581543
0.299,3.88594388961792,-8.708678245544434,2.169093608856201,0.017562376335263252,-0.0074830991216003895,-0.0012217304902151227,-21.64571762084961,51.53464126586914,-59.792457580566406
0.303,3.8560335636138916,-8.724230766296387,2.225324869155884,0.02382374368607998,-0.01038470957428217,-0.0003054326225537807,-21.82110595703125,52.04618453979492,-59.880149841308594
0.31,3.7914273738861084,-8.757730484008789,2.252842426300049,0.02932153083384037,-0.018020525574684143,-0.0025961773935705423,-21.689563751220703,52.03157043457031,-59.76322937011719
0.32,3.7124643325805664,-8.799604415893555,2.266003131866455,0.03955352306365967,-0.029474247246980667,-0.0027488935738801956,-21.514177322387695,51.900028228759766,-59.96784591674805
0.33,3.6562328338623047,-8.834300994873047,2.252842426300049,0.059406641870737076,-0.035582900047302246,0.0036651913542300463,-21.178016662597656,51.94387435913086,-60.30400466918945
0.34,3.617947816848755,-8.69791030883789,2.1954145431518555,0.07177666574716568,-0.04489859566092491,0.004123340360820293,-21.952646255493164,51.43233108520508,-59.74861526489258
0.36,3.6813576221466064,-8.59501838684082,1.9884356260299683,0.09896016865968704,-0.09224064648151398,-0.0007635815418325365,-21.499561309814453,51.900028228759766,-60.1578483581543
0.363,3.693321704864502,-8.60459041595459,1.9692928791046143,0.10949759185314178,-0.10125090926885605,-0.003359758760780096,-21.83572006225586,51.87080001831055,-60.55247116088867
0.37,3.748356580734253,-8.684749603271484,1.9082759618759155,0.11652254313230515,-0.10690141469240189,-0.0074830991216003895,-21.92341423034668,51.6807975769043,-60.52324295043945
0.38,3.768695592880249,-8.835497856140137,1.813759446144104,0.15042555332183838,-0.09773843735456467,-0.024892758578062057,-21.82110595703125,51.505409240722656,-60.46477508544922
0.39,3.7974092960357666,-8.83669376373291,1.6857434511184692,0.17928895354270935,-0.07941248267889023,-0.043218713253736496,-22.069570541381836,51.75387191772461,-60.625545501708984
0.4,3.803391456604004,-8.671588897705078,1.5972089767456055,0.1823432743549347,-0.08078692108392715,-0.06108652427792549,-21.938030242919922,51.286170959472656,-60.830162048339844
0.412,3.7842490673065186,-8.542376518249512,1.1856435537338257,0.14065171778202057,-0.1417207270860672,-0.07590001076459885,-21.587255477905273,51.593101501464844,-59.95323181152344
0.42,3.7016966342926025,-8.556733131408691,0.8985048532485962,0.09789115190505981,-0.19318613409996033,-0.09529497474431992,-21.353404998779297,51.43233108520508,-60.75708770751953
0.43,3.5569305419921875,-8.86780071258545,0.7106683254241943,0.024892758578062057,-0.25915956497192383,-0.15561792254447937,-21.83572006225586,52.03157043457031,-60.435546875
0.44,3.2997024059295654,-9.495916366577148,0.9834501147270203,-0.027183502912521362,-0.25702154636383057,-0.18616119027137756,-22.318035125732422,51.27155685424805,-60.990936279296875
0.45,3.071187734603882,-9.810572624206543,1.428515076637268,-0.07956519722938538,-0.19746218621730804,-0.17776179313659668,-22.566499710083008,51.973106384277344,-60.362464904785156
0.46,2.748156785964966,-9.783055305480957,1.8616158962249756,-0.14828753471374512,-0.10797043144702911,-0.14798210561275482,-21.894182205200195,52.13387680053711,-60.391700744628906
0.476,2.3952155113220215,-9.339186668395996,2.331805467605591,-0.27748554944992065,0.08445211499929428,-0.14798210561275482,-22.37649917602539,51.84156799316406,-60.01169204711914
0.48,2.407179594039917,-9.286543846130371,2.342573404312134,-0.3019201457500458,0.14844025671482086,-0.156686931848526,-21.981876373291016,51.65156173706055,-60.289390563964844
0.49,2.7517459392547607,-9.097511291503906,2.3258235454559326,-0.32681289315223694,0.2716823220252991,-0.156686931848526,-22.44957733154297,52.1192626953125,-60.33323287963867
0.5,3.160918712615967,-8.947959899902344,2.2576282024383545,-0.3191770911216736,0.35185837745666504,-0.13469578325748444,-22.37649917602539,51.914642333984375,-59.93861389160156
0.51,3.5030922889709473,-8.796015739440918,2.124826431274414,-0.2808452844619751,0.36392295360565186,-0.10018189251422882,-22.66880989074707,52.22157287597656,-59.92399978637695
0.528,3.741178274154663,-8.687142372131348,1.9776678085327148,-0.2102903574705124,0.32879823446273804,-0.06062837690114975,-22.639577865600586,51.914642333984375,-59.865535736083984
0.532,3.912264823913574,-8.50169849395752,1.8400804996490479,-0.07498370856046677,0.25473082065582275,-0.0074830991216003895,-22.069570541381836,52.04618453979492,-59.80707550048828
0.54,3.9349966049194336,-8.468198776245117,1.8269200325012207,-0.007941247895359993,0.2272418737411499,0.01114829070866108,-22.11341667175293,52.19234085083008,-60.1140022277832
0.55,3.8596227169036865,-8.592625617980957,1.8963117599487305,0.06139195337891579,0.2174680233001709,0.025503622367978096,-22.186494827270508,52.44080352783203,-60.391700744628906
0.56,3.7746775150299072,-8.673981666564941,1.9334007501602173,0.1062905564904213,0.22602012753486633,0.02626720443367958,-21.733409881591797,51.885414123535156,-60.216312408447266
0.57,3.6155548095703125,-8.691927909851074,1.9154545068740845,0.12919799983501434,0.2590068578720093,0.02519819140434265,-22.025724411010742,52.20695877075195,-59.61707305908203
0.58,3.6023943424224854,-8.803194046020508,1.9262220859527588,0.13072516024112701,0.3017674386501312,0.011759155429899693,-21.8503360748291,51.7392578125,-59.57322692871094
0.592,3.7639100551605225,-8.97787094116211,1.9537396430969238,0.10567968338727951,0.34926217794418335,-0.02886338159441948,-21.704179763793945,51.95848846435547,-60.0555419921875
0.6,3.820141077041626,-8.886942863464355,1.875972867012024,0.08674286305904388,0.38117989897727966,-0.046731188893318176,-21.54340934753418,52.294654846191406,-60.68401336669922
0.61,3.906282901763916,-8.72782039642334,1.7335999011993408,0.06780604273080826,0.44944408535957336,-0.05574145168066025,-21.864952087402344,51.81233215332031,-60.201690673828125
0.62,3.9828531742095947,-8.63210678100586,1.6342978477478027,0.04444044828414917,0.5071708559989929,-0.06551529467105865,-21.38263702392578,51.82695388793945,-60.34785079956055
0.63,4.122833251953125,-8.553144454956055,1.4656038284301758,0.015118913725018501,0.5453499555587769,-0.07208210229873657,-21.864952087402344,52.0169563293457,-59.470916748046875
0.649,4.219742774963379,-8.449056625366211,1.0887342691421509,-0.025961771607398987,0.526413083076477,-0.05696318298578262,-21.221864700317383,52.265419006347656,-59.456298828125
0.653,4.1347975730896,-8.250452041625977,0.5443671345710754,-0.04886921867728233,0.3666718602180481,-0.014813481830060482,-21.00263023376465,52.35311508178711,-59.41244888305664
0.66,4.089333534240723,-8.218149185180664,0.5024927258491516,-0.050854530185461044,0.2148718386888504,0.03191770985722542,-21.514177322387695,52.513885498046875,-60.31861877441406
0.67,4.067798614501953,-8.407181739807129,0.7262216210365295,-0.04963279888033867,-0.0050396379083395,0.1336267739534378,-21.616485595703125,52.45542526245117,-59.792457580566406
0.68,4.0833516120910645,-8.751748085021973,1.2478569746017456,-0.05268712714314461,-0.18906280398368835,0.2448042333126068,-21.441099166870117,52.090030670166016,-60.172462463378906
0.69,4.192224979400635,-9.037691116333008,1.903490424156189,-0.06261368840932846,-0.275347501039505,0.37171149253845215,-21.031862258911133,52.20695877075195,-60.07015609741211
0.709,4.487738609313965,-9.399006843566895,2.458625316619873,-0.07391469925642014,-0.27488934993743896,0.4358523488044739,-21.455713272094727,52.19234085083008,-59.09090805053711
0.713,4.742574214935303,-9.327221870422363,2.6225335597991943,-0.08521570265293121,-0.24648413062095642,0.4639521539211273,-20.754165649414062,52.41157531738281,-59.792457580566406
0.72,4.7605204582214355,-9.008976936340332,2.6009981632232666,-0.08216137439012527,-0.21823160350322723,0.4473060667514801,-20.534931182861328,51.92926025390625,-59.8363037109375
0.73,4.758127689361572,-8.476573944091797,2.4394824504852295,-0.08216137439012527,-0.20143280923366547,0.3773620128631592,-20.593395233154297,52.86465835571289,-60.02630615234375
0.74,4.817948341369629,-7.852047443389893,2.2743778228759766,-0.07788532227277756,-0.2028072625398636,0.2838996350765228,-20.18415641784668,51.94387435913086,-59.42707061767578
0.75,4.884947299957275,-7.445267200469971,2.183450698852539,-0.05421429127454758,-0.20647244155406952,0.22510384023189545,-20.1110782623291,52.294654846191406,-60.08477020263672
0.769,4.959124565124512,-7.4632134437561035,2.214557409286499,-0.015118913725018501,-0.18585574626922607,0.18448129296302795,-19.71645736694336,51.76848602294922,-59.60245895385742
0.773,4.9639105796813965,-7.6558356285095215,2.3736801147460938,0.06032294034957886,-0.11682797223329544,0.12247847765684128,-19.599531173706055,52.543113708496094,-59.51476287841797
0.78,4.908875465393066,-7.877171516418457,2.5292134284973145,0.10415252298116684,-0.0555887334048748,0.10186177492141724,-19.46799087524414,52.075416564941406,-60.02630615234375
0.79,4.844269275665283,-8.130810737609863,2.713460922241211,0.16630806028842926,0.06582073122262955,0.044287726283073425,-19.891843795776367,52.1192626953125,-60.172462463378906
0.8,4.7796630859375,-8.149953842163086,2.688336133956909,0.21700987219810486,0.10781770944595337,0.019853120669722557,-19.599531173706055,52.075416564941406,-60.14323425292969
0.81,4.470988750457764,-8.059026718139648,2.544766664505005,0.29993483424186707,0.09651671350002289,0.02229658141732216,-19.774919509887695,52.83543014526367,-59.92399978637695
0.829,4.1623148918151855,-8.037490844726562,2.4502503871917725,0.4092797338962555,0.08017606288194656,0.032070424407720566,-19.789535522460938,52.36772918701172,-59.909385681152344
0.833,3.912264823913574,-8.00399112701416,2.5471596717834473,0.5539020299911499,0.04199698567390442,0.06230825185775757,-19.24875831604004,51.62232971191406,-59.51476287841797
0.84,3.7950165271759033,-8.081757545471191,2.620140552520752,0.6044511198997498,0.022143863141536713,0.07971791177988052,-19.0733699798584,51.75387191772461,-60.91786193847656
0.85,3.706482172012329,-8.195417404174805,2.695514678955078,0.6505715250968933,0.007024950347840786,0.1114829033613205,-19.204912185668945,52.17772674560547,-61.06401824951172
0.86,3.7184462547302246,-8.311469078063965,2.757727861404419,0.6950119137763977,0.0007635815418325365,0.144622340798378,-19.80415153503418,51.85618591308594,-61.45863342285156
0.87,3.757927656173706,-8.292326927185059,2.7397818565368652,0.7402159571647644,0.02168571576476097,0.16752979159355164,-19.19029426574707,51.213096618652344,-61.648643493652344
0.889,4.071387767791748,-8.187042236328125,2.623729705810547,0.7924449443817139,0.0656680166721344,0.1921171098947525,-18.941829681396484,51.53464126586914,-61.48787307739258
0.893,4.54636287689209,-8.206185340881348,2.403590202331543,0.8991936445236206,0.11759155988693237,0.25076019763946533,-18.868751525878906,52.13387680053711,-62.29172897338867
0.9,4.666004180908203,-8.140382766723633,2.2169501781463623,0.9531024694442749,0.12751811742782593,0.27641651034355164,-19.014907836914062,51.43233108520508,-62.29172897338867
0.91,4.828715801239014,-7.969295978546143,1.92741858959198,1.0393872261047363,0.1287398487329483,0.3208569884300232,-18.72259521484375,51.22771453857422,-63.12481689453125
0.92,4.890929222106934,-7.8484578132629395,1.534995675086975,1.1342240571975708,0.12812897562980652,0.37033703923225403,-18.664133071899414,50.61385726928711,-63.870216369628906
0.93,4.776073932647705,-7.787441253662109,-0.007178467698395252,1.2667818069458008,0.12965615093708038,0.413097620010376,-17.87489128112793,50.71616744995117,-64.06021881103516
0.95,5.155336380004883,-8.419146537780762,-1.1928220987319946,1.3767374753952026,0.04214970022439957,0.45952337980270386,-17.451038360595703,50.08769607543945,-65.21485137939453
0.954,5.1182475090026855,-9.45763111114502,-0.10289137810468674,0.9440922141075134,-0.3683517277240753,0.4946480989456177,-17.202571868896484,50.02922821044922,-65.0540771484375
0.96,4.595416069030762,-9.287740707397461,0.5682953596115112,0.6145303845405579,-0.44364088773727417,0.4570798873901367,-17.62642478942871,49.56153106689453,-65.15638732910156
0.97,4.085744380950928,-8.846264839172363,1.412961721420288,0.33276882767677307,-0.2817615866661072,0.40256020426750183,-16.939491271972656,49.53229904174805,-66.16486358642578
0.98,3.912264823913574,-8.489734649658203,2.1308083534240723,0.21059578657150269,0.06780604273080826,0.34162637591362,-16.398714065551758,49.2984504699707,-66.4571762084961
0.99,4.177868366241455,-8.24566650390625,2.455035924911499,0.17027868330478668,0.4242459237575531,0.2545780837535858,-17.071033477783203,49.63460922241211,-66.17948150634766
1.009,4.624129772186279,-8.067400932312012,2.3952155113220215,0.2399173229932785,0.6821837425231934,0.16325373947620392,-15.960245132446289,49.766151428222656,-65.84332275390625
1.013,5.225924491882324,-7.8556365966796875,2.1619153022766113,0.28496861457824707,0.6588181853294373,0.16508632898330688,-15.81408977508545,49.51768493652344,-65.84332275390625
1.02,5.280959129333496,-7.737191677093506,2.183450698852539,0.3539963960647583,0.6140722632408142,0.17623461782932281,-15.974861145019531,49.48845672607422,-66.86641693115234
1.03,5.225924491882324,-7.590033054351807,2.475374937057495,0.42500948905944824,0.573144257068634,0.18127425014972687,-16.208711624145508,49.54691696166992,-66.7494888305664
1.04,5.003392219543457,-7.4811601638793945,2.987438917160034,0.42638394236564636,0.5549710988998413,0.15882496535778046,-15.989476203918457,48.9622917175293,-66.80795288085938
1.05,4.823930263519287,-7.454838752746582,3.5018956661224365,0.3433062732219696,0.5471825003623962,0.11255192011594772,-16.194095611572266,49.45922088623047,-67.8164291381836
1.069,4.339384078979492,-7.511070251464844,3.805784225463867,0.2539672255516052,0.5595525503158569,0.06017022579908371,-15.931015014648438,49.19614028930664,-66.86641693115234
1.073,3.759124279022217,-7.922635555267334,3.899104356765747,0.1846340149641037,0.6566801071166992,-0.02168571576476097,-15.01023006439209,48.74305725097656,-67.80181884765625
1.08,3.586841106414795,-8.311469078063965,4.0558342933654785,0.16722436249256134,0.770606517791748,-0.06230825185775757,-15.214850425720215,48.93306350708008,-67.99181365966797
1.09,3.455235719680786,-8.963513374328613,4.182653903961182,0.16432274878025055,0.9308058619499207,-0.09346237778663635,-14.717918395996094,49.19614028930664,-68.18181610107422
1.1,3.300898551940918,-9.480362892150879,3.998406410217285,0.22357667982578278,0.9946413040161133,-0.1466076523065567,-14.805611610412598,48.14381790161133,-68.31336212158203
1.11,3.2171499729156494,-10.135995864868164,3.335594892501831,0.3709478974342346,0.9480628371238708,-0.17592918872833252,-14.586379051208496,48.94767761230469,-67.94796752929688
1.129,3.6981072425842285,-11.868399620056152,1.978864312171936,0.912327229976654,0.5145012736320496,0.03588833287358284,-14.542531967163086,48.83074951171875,-68.5764389038086
1.132,3.950549840927124,-12.324233055114746,1.7850456237792969,0.9763153791427612,0.41034871339797974,0.0962112694978714,-14.367143630981445,48.114585876464844,-68.62028503417969
1.14,4.447060585021973,-12.598211288452148,2.358126640319824,1.0725265741348267,0.1010981947183609,0.33017265796661377,-14.294065475463867,47.89535140991211,-69.54106903076172
1.15,4.809573173522949,-12.193824768066406,3.2889344692230225,0.7298312187194824,-0.01572977937757969,0.7111998200416565,-13.972522735595703,48.39228439331055,-69.27799224853516
1.16,5.600401401519775,-11.461620330810547,2.8893332481384277,0.2869539260864258,0.24129176139831543,0.7620543241500854,-13.417129516601562,47.310726165771484,-69.83338165283203
1.17,7.031309127807617,-11.00459098815918,2.779263496398926,-0.11026117950677872,0.6178901791572571,0.6495024561882019,-13.051739692687988,48.31920623779297,-69.9356918334961
1.189,8.831908226013184,-11.09910774230957,3.153740167617798,-0.7370089292526245,0.8836165070533752,0.417679101228714,-12.452499389648438,47.427650451660156,-69.52645111083984
1.192,10.867003440856934,-11.373085975646973,2.8869404792785645,-0.7703010439872742,0.8275696635246277,0.39217546582221985,-12.247880935668945,47.33995819091797,-70.14030456542969
1.2,12.094521522521973,-11.395817756652832,2.3641088008880615,-0.7670939564704895,0.46471571922302246,0.3335324227809906,-11.575562477111816,47.354576110839844,-69.39491271972656
1.21,12.512068748474121,-11.13021469116211,0.8327022790908813,-0.6013968586921692,0.011759155429899693,0.26145032048225403,-11.429407119750977,47.63227081298828,-68.5764389038086
1.22,11.192427635192871,-10.176674842834473,-1.8269200325012207,-0.3286454975605011,-0.4914410710334778,-0.04444044828414917,-11.429407119750977,47.44226837158203,-69.78953552246094
1.23,10.05463981628418,-10.449456214904785,-2.849851608276367,-0.24358251690864563,-1.2513574361801147,-0.4993823170661926,-10.990938186645508,48.041507720947266,-69.16106414794922
1.249,4.884947299957275,-11.700902938842773,1.357926845550537,-1.0705413818359375,-1.6284139156341553,-0.9850201606750488,-12.204033851623535,48.421512603759766,-68.94183349609375
1.252,4.48414945602417,-11.655439376831055,1.7192429304122925,-1.289841890335083,-1.4475979804992676,-1.0381654500961304,-12.42326831817627,48.2607421875,-69.30722045898438
1.26,3.6801609992980957,-11.467601776123047,2.194218397140503,-1.5760324001312256,-1.1928671598434448,-1.0687086582183838,-13.475592613220215,48.56766891479492,-68.21105194091797
1.27,2.943171739578247,-10.925627708435059,0.745364248752594,-1.894293189048767,-1.118188738822937,-1.070388674736023,-14.323297500610352,49.38614273071289,-68.51797485351562
1.28,2.54117751121521,-10.27358341217041,-1.1054840087890625,-2.1820106506347656,-1.300837516784668,-1.0322095155715942,-14.90792179107666,49.766151428222656,-68.00643157958984
1.29,2.097308874130249,-9.129814147949219,-1.8628122806549072,-2.456900119781494,-1.3435980081558228,-0.9618072509765625,-15.097925186157227,50.233848571777344,-68.05027770996094
1.309,2.908475875854492,-7.362715244293213,-0.4809573292732239,-2.858696460723877,-1.3347405195236206,-1.1056660413742065,-15.872551918029785,50.81847381591797,-64.99561309814453
1.312,3.0855445861816406,-7.208377838134766,-0.14476576447486877,-2.822197437286377,-1.4057536125183105,-1.1618657112121582,-15.79947280883789,51.198482513427734,-64.30867767333984
1.32,3.8871400356292725,-7.11984395980835,1.4895319938659668,-2.660928964614868,-1.5671747922897339,-1.1992812156677246,-16.311019897460938,51.11078643798828,-63.899444580078125
1.33,4.0319061279296875,-7.300501823425293,2.8450660705566406,-2.34480619430542,-1.7847955226898193,-1.1330022811889648,-17.100261688232422,51.52002716064453,-63.387901306152344
1.34,3.8177483081817627,-7.77906608581543,3.596412181854248,-1.9946277141571045,-1.9807305335998535,-0.9834929704666138,-17.31949806213379,52.0169563293457,-62.584041595458984
1.35,3.9661033153533936,-8.668000221252441,3.576073169708252,-1.638645887374878,-2.1404716968536377,-0.8119926452636719,-18.25489616394043,52.55773162841797,-62.20403289794922
1.369,4.5583271980285645,-11.467601776123047,3.7531421184539795,-0.701578676700592,-2.4433083534240723,-0.5859724879264832,-18.985675811767578,52.733116149902344,-61.8532600402832
1.373,4.898108005523682,-12.208181381225586,3.7938201427459717,-0.6137667894363403,-2.4135286808013916,-0.5717698335647583,-18.985675811767578,52.39695739746094,-61.82402801513672
1.38,5.61116886138916,-13.277772903442383,3.6430721282958984,-0.3911064863204956,-2.3287711143493652,-0.5096142888069153,-18.62028694152832,51.65156173706055,-61.88248825073242
1.39,6.311069488525391,-14.744573593139648,3.1860432624816895,-0.3799581825733185,-2.1534526348114014,-0.46547931432724,-19.482608795166016,52.309268951416016,-61.67787170410156
1.4,6.388835906982422,-15.3822603225708,2.823530673980713,-0.8103127479553223,-1.9091066122055054,-0.6298020482063293,-19.36568260192871,52.22157287597656,-62.20403289794922
1.41,6.439085483551025,-14.019548416137695,1.9992032051086426,-1.442100167274475,-1.4998267889022827,-1.0395399332046509,-19.774919509887695,52.543113708496094,-61.76556396484375
1.425,6.628118515014648,-10.749755859375,1.4237295389175415,-1.478293776512146,-1.3054189682006836,-1.3608551025390625,-20.92955207824707,52.57234573364258,-61.67787170410156
1.43,6.234498977661133,-10.287940979003906,1.6019947528839111,-1.3866640329360962,-1.288620114326477,-1.3932307958602905,-21.221864700317383,52.80619812011719,-60.94709014892578
1.44,4.759324073791504,-10.433902740478516,2.2612173557281494,-1.2851077318191528,-1.1056660413742065,-1.3631458282470703,-21.426483154296875,52.64542770385742,-60.55247116088867
1.45,3.6801609992980957,-10.313065528869629,2.6464619636535645,-1.3646730184555054,-0.8278751373291016,-1.3629930019378662,-22.814966201782227,53.36158752441406,-60.87401580810547
1.46,2.9623141288757324,-9.182456970214844,2.2671992778778076,-1.2971723079681396,-0.7557929754257202,-1.3846787214279175,-22.975738525390625,52.908504486083984,-60.0555419921875
1.47,1.8185451030731201,-8.39282512664795,2.328216314315796,-1.2548699378967285,-0.6116288304328918,-1.2973251342773438,-23.5895938873291,53.58082580566406,-60.46477508544922
1.488,0.6412764191627502,-6.349354267120361,2.2707886695861816,-1.1841623783111572,-0.36132678389549255,-1.0328203439712524,-24.831920623779297,53.36158752441406,-60.64016342163086
1.492,0.4989035129547119,-5.800201892852783,2.090130567550659,-1.1589640378952026,-0.30695977807044983,-0.9640980362892151,-24.539608001708984,53.624671936035156,-60.391700744628906
1.5,0.13160523772239685,-5.087141036987305,1.672582983970642,-1.0800096988677979,-0.29336804151535034,-0.8784242272377014,-25.518856048583984,53.653900146484375,-60.01169204711914
1.51,-0.4989035129547119,-4.353740692138672,1.3962119817733765,-0.8935431241989136,-0.23671028017997742,-0.8086328506469727,-25.650394439697266,54.13621520996094,-60.07015609741211
1.52,-0.30628129839897156,-3.8632121086120605,1.0277173519134521,-0.7006624341011047,-0.39477166533470154,-0.7919867634773254,-25.67962646484375,54.29698944091797,-59.92399978637695
1.538,0.10169495642185211,-3.5641093254089355,0.9762716293334961,-0.403781920671463,-0.9702066779136658,-0.8626943826675415,-25.97193717956543,54.82314682006836,-60.0555419921875
1.542,0.13998012244701385,-3.55214524269104,1.5637094974517822,-0.031154125928878784,-1.8422167301177979,-1.0325149297714233,-26.52733039855957,54.5600700378418,-60.099388122558594
1.55,0.2225324958562851,-3.693321704864502,1.712064504623413,0.0734565407037735,-2.0079140663146973,-1.0633636713027954,-27.62350082397461,54.54545593261719,-61.210174560546875
1.56,0.3242274522781372,-3.733999490737915,1.4919248819351196,0.08002334833145142,-1.8061758279800415,-0.9514226317405701,-27.988893508911133,53.843902587890625,-61.020172119140625
1.57,0.3002992272377014,-3.46600341796875,0.9236294627189636,0.06918048858642578,-1.2460123300552368,-0.7875579595565796,-29.143524169921875,53.77082824707031,-61.034786224365234
1.58,0.436690092086792,-3.273381233215332,0.9942178130149841,0.12476921826601028,-0.9453139305114746,-0.6192646622657776,-29.055830001831055,53.61005783081055,-60.90324401855469
1.59,0.37447673082351685,-3.1728827953338623,0.9619146585464478,0.2197587788105011,-0.6879869699478149,-0.42928555607795715,-29.625839233398438,54.004676818847656,-61.10786056518555
1.603,0.7740780711174011,-3.2889344692230225,0.5156532526016235,0.43249258399009705,-0.2070833146572113,-0.08659014105796814,-29.742765426635742,53.99005889892578,-61.99941635131836
1.61,1.0971091985702515,-3.5473594665527344,-0.05862415209412575,0.5287038683891296,-0.06291911751031876,0.03695734962821007,-29.45045280456543,53.80005645751953,-63.02250671386719
1.62,1.7742778062820435,-4.089333534240723,-1.1198409795761108,0.8159632682800293,0.23197607696056366,0.31642818450927734,-29.085063934326172,53.58082580566406,-63.12481689453125
1.63,2.851048231124878,-5.388636112213135,-2.8582265377044678,1.0302242040634155,0.4239404797554016,0.5366451144218445,-29.172758102416992,53.91698455810547,-63.62174606323242
1.64,3.6813576221466064,-7.0061845779418945,-4.524827480316162,1.2113457918167114,0.7426593899726868,0.7496843934059143,-28.354280471801758,52.96696853637695,-64.35253143310547
1.658,4.351347923278809,-9.678967475891113,-6.405585765838623,1.2539536952972412,1.394605278968811,0.9117163419723511,-27.842735290527344,52.923118591308594,-64.98100280761719
1.662,5.974877834320068,-14.662019729614258,-8.305486679077148,0.8607090711593628,2.7873780727386475,0.8675813674926758,-26.89272117614746,52.36772918701172,-66.01870727539062
1.67,8.276773452758789,-17.010576248168945,-7.828119277954102,0.2350304126739502,3.938858985900879,0.478765606880188,-26.074249267578125,52.44080352783203,-65.97486114501953
1.68,14.933606147766113,-16.925630569458008,-5.473581790924072,-0.17287485301494598,4.351803779602051,0.04612032324075699,-24.641918182373047,52.36772918701172,-66.1502456665039
1.69,19.432111740112305,-15.451651573181152,-3.6083762645721436,-0.2866485118865967,3.142901659011841,-0.35506540536880493,-24.48114585876465,52.57234573364258,-66.50102233886719
1.7,20.031513214111328,-12.675976753234863,-3.1764719486236572,-0.3940081000328064,1.2877038717269897,-0.7425066828727722,-23.808828353881836,52.543113708496094,-67.10026550292969
1.719,17.99761390686035,-10.272387504577637,-3.238685369491577,-0.4743368625640869,0.13026700913906097,-0.8300131559371948,-24.159603118896484,52.0169563293457,-67.62641906738281
1.723,13.848461151123047,-7.373482704162598,-4.831109046936035,-0.48380523920059204,-0.2474004179239273,-0.33979377150535583,-24.656532287597656,52.25080108642578,-67.07102966308594
1.73,11.475976943969727,-6.254837989807129,-5.137389659881592,-0.35781431198120117,-0.5293146967887878,-0.20372354984283447,-25.13884925842285,52.58695983886719,-66.95410919189453
1.74,8.85942554473877,-4.657629013061523,-4.67078971862793,-0.15042555332183838,-0.9732609987258911,-0.2255619913339615,-25.40192985534668,51.82695388793945,-67.49488830566406
1.75,7.141378879547119,-4.077369689941406,-2.100898265838623,0.06918048858642578,-1.4274393320083618,-0.28008171916007996,-25.986553192138672,52.55773162841797,-68.00643157958984
1.76,5.36351203918457,-5.613561630249023,1.3782658576965332,0.15531249344348907,-1.8901697397232056,-0.22739459574222565,-26.074249267578125,52.20695877075195,-68.63490295410156
1.778,4.065405368804932,-8.530412673950195,3.676571846008301,0.3039054572582245,-2.2711970806121826,0.17776179313659668,-26.702720642089844,52.77696990966797,-68.70797729492188
1.782,2.9754748344421387,-12.547961235046387,5.254638671875,0.7896960377693176,-1.8151861429214478,1.094059705734253,-27.097341537475586,52.1192626953125,-69.40953063964844
1.79,1.7778671979904175,-13.832906723022461,5.267798900604248,1.018923282623291,-1.17408287525177,1.7092009782791138,-27.06810760498047,52.499271392822266,-69.672607421875
1.8,-0.12681959569454193,-13.282557487487793,4.462614059448242,1.1653780937194824,-0.5328271985054016,2.175138473510742,-26.454252243041992,52.03157043457031,-70.02338409423828
1.81,-2.2683956623077393,-10.978270530700684,3.73758864402771,1.1184942722320557,-0.41401392221450806,2.0471620559692383,-25.76732063293457,52.44080352783203,-70.73954772949219
1.82,-3.6251261234283447,-8.70389175415039,3.2614171504974365,0.8055785298347473,-0.46639561653137207,1.281595230102539,-25.591930389404297,51.62232971191406,-71.6749496459961
1.839,-4.102494239807129,-7.160521507263184,2.029113531112671,0.5748242139816284,-0.2496911585330963,0.6175847053527832,-25.036537170410156,51.75387191772461,-72.23033905029297
1.843,-3.152543783187866,-7.2430739402771,2.221735715866089,0.3822489380836487,0.3197879493236542,0.09376781433820724,-24.40806770324707,51.3592529296875,-73.31189727783203
1.85,-1.8424733877182007,-7.99681282043457,2.2707886695861816,0.30695977807044983,0.7437283992767334,0.0277943667024374,-24.77345848083496,51.885414123535156,-73.151123046875
1.86,-0.503689169883728,-9.34875774383545,2.445464611053467,0.27122417092323303,1.2618948221206665,0.15974126756191254,-24.97807502746582,51.09617233276367,-73.85267639160156
1.87,0.3684946596622467,-10.48534870147705,2.8283162117004395,0.2532036304473877,1.7194329500198364,0.48288896679878235,-24.086524963378906,51.54925537109375,-73.28266143798828
1.88,0.7286145091056824,-11.01296615600586,3.3990042209625244,0.18860463798046112,1.8887953758239746,0.6831000447273254,-23.2095890045166,50.760013580322266,-74.14498901367188
1.898,1.098305583000183,-10.798808097839355,3.460021495819092,0.08399397134780884,1.9057468175888062,0.7791586518287659,-22.566499710083008,51.33001708984375,-73.89652252197266
1.903,1.9166508913040161,-10.301101684570312,3.0245277881622314,0.031154125928878784,1.7872389554977417,0.9086620211601257,-21.718795776367188,51.27155685424805,-73.01958465576172
1.91,2.3054845333099365,-10.045068740844727,2.768495798110962,0.05406157299876213,1.7304284572601318,0.9595165848731995,-21.29494285583496,51.06694030761719,-74.14498901367188
1.92,2.78165602684021,-9.647860527038574,2.51724910736084,0.1434006243944168,1.6047430038452148,1.0375546216964722,-20.2718505859375,50.24846649169922,-74.26190948486328
1.93,3.0723841190338135,-9.342775344848633,2.4945175647735596,0.30726519227027893,1.4422528743743896,1.0852020978927612,-19.760305404663086,50.540775299072266,-74.70037841796875
1.94,3.6801609992980957,-9.238687515258789,2.657229423522949,0.44058653712272644,1.3203850984573364,1.0870347023010254,-19.029523849487305,50.01461410522461,-74.0134506225586
1.96,4.2484564781188965,-9.33320426940918,2.9419755935668945,0.559857964515686,1.1464413404464722,1.092837929725647,-18.34259033203125,50.02922821044922,-74.52499389648438
1.963,4.00917387008667,-9.314062118530273,3.317648410797119,0.7310529351234436,0.9753990769386292,1.0320568084716797,-17.275650024414062,49.15229415893555,-75.02191925048828
1.97,3.576073169708252,-9.245866775512695,3.404986619949341,0.7867944240570068,1.0934487581253052,0.9906706809997559,-16.559486389160156,49.10844802856445,-75.63578033447266
1.98,3.366701364517212,-8.973084449768066,4.015156269073486,0.8483390808105469,1.9077321290969849,0.8576547503471375,-15.14177131652832,48.93306350708008,-74.83192443847656
1.99,6.344569206237793,-8.12841796875,3.76151704788208,0.7976372241973877,2.3241894245147705,0.9185885787010193,-14.937153816223145,48.37766647338867,-74.64192199707031
2.0,6.733402729034424,-7.319643974304199,3.3296124935150146,0.730900228023529,2.2380573749542236,1.0800096988677979,-13.665594100952148,47.851505279541016,-76.01578521728516
2.019,6.812366008758545,-6.245266914367676,2.51724910736084,0.7319692969322205,1.952936053276062,1.1427761316299438,-11.721718788146973,47.44226837158203,-75.59193420410156
2.023,7.369893550872803,-5.453242301940918,2.4011974334716797,0.9024006724357605,1.2142473459243774,1.2316570281982422,-11.531715393066406,47.00379943847656,-75.09500122070312
2.03,7.4392852783203125,-5.248656272888184,2.531606435775757,0.9644034504890442,0.8856018781661987,1.2857186794281006,-11.180940628051758,47.19380569458008,-75.72347259521484
2.04,6.547958850860596,-4.277170181274414,1.7862420082092285,1.1133018732070923,0.5910121202468872,1.3261884450912476,-9.82168960571289,45.83454895019531,-76.49810028076172
2.05,5.807380199432373,-4.1383867263793945,1.2538390159606934,1.3972015380859375,0.5279402732849121,1.2330315113067627,-9.660917282104492,45.922245025634766,-76.79041290283203
2.06,5.7547383308410645,-4.185046672821045,1.361515998840332,1.705383062362671,0.5448917746543884,1.0719157457351685,-9.003214836120605,45.45454788208008,-77.7842788696289
2.079,5.606383323669434,-4.459024906158447,1.5266207456588745,1.9567539691925049,0.5612324476242065,0.9224064946174622,-8.374743461608887,45.01607894897461,-77.37503814697266
2.083,5.374279499053955,-5.376672267913818,1.8735800981521606,2.1783454418182373,0.5094616413116455,0.6782131195068359,-7.483191967010498,43.3206672668457,-78.71967315673828
2.09,5.623133182525635,-5.931807041168213,2.187039852142334,2.2119429111480713,0.4053090810775757,0.5904012322425842,-6.8985676765441895,43.48143768310547,-79.33352661132812
2.1,5.285745143890381,-6.784848213195801,2.2265214920043945,2.216371774673462,0.24358251690864563,0.5083925724029541,-7.220110893249512,42.268341064453125,-80.80970764160156
2.11,4.573880195617676,-7.594818592071533,2.0506489276885986,2.252413034439087,0.2370157092809677,0.39446622133255005,-6.357789993286133,41.78602600097656,-81.17509460449219
2.12,3.957728624343872,-8.398807525634766,1.9848462343215942,2.3293817043304443,0.408974289894104,0.25106561183929443,-6.547792911529541,41.28909683227539,-82.4028091430664
2.14,3.7435710430145264,-9.20877742767334,2.23848557472229,2.4107797145843506,0.774118959903717,0.04856378585100174,-5.773165702819824,40.42677688598633,-83.36743927001953
2.143,4.01037073135376,-10.100104331970215,2.3976082801818848,2.394744634628296,1.025948166847229,-0.044287726283073425,-5.363928318023682,39.959075927734375,-83.51359558105469
2.15,2.671586275100708,-10.668399810791016,0.2919243574142456,2.342057466506958,1.1491901874542236,-0.06200282275676727,-5.860859394073486,39.710609436035156,-84.15667724609375
2.16,0.7776673436164856,-16.03908920288086,-6.860222339630127,1.715309500694275,0.8680394887924194,-0.03985895588994026,-4.750072956085205,39.27214050292969,-84.11283874511719
2.17,0.2967100143432617,-15.433706283569336,-3.0855445861816406,0.5720753073692322,-0.10064005106687546,-0.06505714356899261,-4.370067119598389,39.05290985107422,-84.62438201904297
2.18,1.0049854516983032,-12.860225677490234,2.0303099155426025,-0.057879481464624405,-0.04306599870324135,-0.09422595798969269,-4.1946797370910645,38.950599670410156,-85.47208404541016
2.2,2.857030153274536,-12.108878135681152,4.725824356079102,-0.3510947823524475,0.6372851133346558,-0.029168814420700073,-4.296989440917969,39.345218658447266,-85.10669708251953
2.204,3.750749349594116,-11.193623542785645,4.264009952545166,-0.5823072791099548,1.3266466856002808,0.1287398487329483,-3.9608304500579834,39.81291961669922,-84.59514617919922
2.21,4.061816215515137,-10.718648910522461,4.1144585609436035,-0.6021604537963867,1.350012183189392,0.12538009881973267,-3.3762056827545166,39.900611877441406,-85.53054809570312
2.22,4.218545913696289,-10.234102249145508,4.2795634269714355,-0.6125450730323792,1.1618657112121582,0.058337628841400146,-3.1862027645111084,39.66676330566406,-84.40514373779297
2.23,4.977071285247803,-9.940980911254883,4.517648696899414,-0.6461427211761475,1.0844385623931885,-0.014660765416920185,-2.3969600200653076,40.73370361328125,-83.60128784179688
2.24,6.413960933685303,-9.754341125488281,4.5475592613220215,-0.6997461318969727,0.9767735004425049,0.078343465924263,-2.2508037090301514,40.777549743652344,-83.35282135009766
2.259,8.0350980758667,-9.938589096069336,4.152743339538574,-0.6821837425231934,0.7038694620132446,0.22311851382255554,-2.2215726375579834,40.82139587402344,-82.62203979492188
2.263,8.992227554321289,-10.059426307678223,3.383450984954834,-0.4873177409172058,0.21853703260421753,0.3312416672706604,-1.900029182434082,41.099090576171875,-82.31510925292969
2.27,9.072386741638184,-9.68255615234375,2.967099905014038,-0.2869539260864258,-0.010079275816679,0.35185837745666504,-1.6807950735092163,41.84449005126953,-82.62203979492188
2.28,8.422735214233398,-8.971887588500977,2.210968017578125,0.014049900695681572,-0.03329215571284294,0.3396410644054413,-2.0608010292053223,41.756797790527344,-84.1420669555664
2.29,7.046862602233887,-8.352147102355957,-0.8243273496627808,0.41722097992897034,1.0606147050857544,0.32559117674827576,-1.8123356103897095,42.09295654296875,-83.90821075439453
2.3,7.75753116607666,-11.68175983428955,-0.8542376756668091,-0.08536841720342636,1.5835154056549072,0.053908854722976685,-0.7307804822921753,41.46448516845703,-83.86436462402344
2.319,10.820343971252441,-13.802997589111328,1.2023932933807373,-1.9049831628799438,-0.21868975460529327,-0.5377141237258911,-0.2192341536283493,43.01374053955078,-83.03128051757812
2.323,11.95932674407959,-13.177273750305176,1.8472589254379272,-1.920560359954834,-0.3859141170978546,-0.5311473608016968,-0.058462437242269516,43.48143768310547,-82.51973724365234
2.33,11.11226749420166,-12.301501274108887,0.9738787412643433,-1.7626516819000244,-0.773202657699585,-0.4657847285270691,-0.8038585186004639,44.066062927246094,-82.88512420654297
2.34,8.788837432861328,-10.883752822875977,-1.750349760055542,-1.4075862169265747,-1.2855658531188965,-0.4645630121231079,-0.891552209854126,44.76761245727539,-82.54896545410156
2.35,6.429513931274414,-10.945966720581055,-4.951946258544922,-1.7573065757751465,-1.7092009782791138,-0.6383541822433472,-2.3531131744384766,46.02455520629883,-82.30049896240234
2.36,5.304887771606445,-10.405189514160156,-3.4923245906829834,-2.4979805946350098,-2.1792616844177246,-1.0279334783554077,-3.5223617553710938,47.03303146362305,-83.23589324951172
2.379,4.570291042327881,-9.531808853149414,-1.4608181715011597,-2.8858802318573,-2.6164886951446533,-1.5819882154464722,-5.670856475830078,50.45308303833008,-81.78894805908203
2.382,4.317848205566406,-8.590232849121094,1.1449655294418335,-2.820211887359619,-2.6195428371429443,-1.6446019411087036,-6.620871067047119,50.774627685546875,-82.54896545410156
2.39,4.412364959716797,-7.869993209838867,2.8558335304260254,-2.4888176918029785,-2.4581215381622314,-1.7032450437545776,-8.184741020202637,52.499271392822266,-82.1104965209961
2.4,4.685146808624268,-7.4739813804626465,4.364508152008057,-2.178192615509033,-2.1705567836761475,-1.689195156097412,-9.719380378723145,53.94621658325195,-82.02279663085938
2.41,4.7401814460754395,-7.971688270568848,4.335794448852539,-1.9146044254302979,-2.0036380290985107,-1.5850425958633423,-11.692487716674805,55.11546325683594,-81.05816650390625
2.42,5.142175674438477,-9.036494255065918,3.867997646331787,-1.6424638032913208,-2.1474967002868652,-1.4385876655578613,-14.162525177001953,55.67085647583008,-80.54662322998047
2.439,5.771488189697266,-10.839487075805664,3.2781667709350586,-0.869719386100769,-3.0268373489379883,-1.1557570695877075,-17.100261688232422,56.97164535522461,-80.8681640625
2.442,5.751148700714111,-11.077571868896484,3.3403801918029785,-0.6017022132873535,-3.209791421890259,-1.0752755403518677,-17.9918155670166,57.14703369140625,-80.76585388183594
2.45,5.67218542098999,-12.525229454040527,4.073780536651611,-0.21838431060314178,-3.3041701316833496,-0.9500481486320496,-19.774919509887695,58.00935745239258,-80.83893585205078
2.46,6.063412666320801,-13.659427642822266,4.467399597167969,0.19074267148971558,-3.2734739780426025,-0.8500189781188965,-21.908798217773438,57.90704345703125,-81.37971496582031
2.47,6.558726787567139,-17.168502807617188,4.42193603515625,0.5700899958610535,-3.3483049869537354,-0.8393288254737854,-23.66267204284668,58.140892028808594,-80.80970764160156
2.48,8.133204460144043,-18.75853157043457,2.829512596130371,0.14324790239334106,-3.4271066188812256,-1.1702649593353271,-26.23501968383789,58.11166000366211,-82.12510681152344
2.499,8.133204460144043,-15.915860176086426,2.495713949203491,-1.0464122295379639,-3.6641223430633545,-1.303586483001709,-30.9266300201416,58.76936340332031,-81.93510437011719
2.503,3.2374887466430664,-14.364113807678223,3.355933427810669,-1.363603949546814,-3.5801284313201904,-1.211498498916626,-31.905874252319336,59.485530853271484,-81.07278442382812
2.51,1.998006820678711,-12.486944198608398,2.785245418548584,-1.691791296005249,-3.1314477920532227,-1.0093021392822266,-33.45513153076172,59.16398620605469,-80.67816162109375
2.52,0.5862414836883545,-10.74855899810791,2.5423738956451416,-1.7715091705322266,-2.8125760555267334,-0.7692320346832275,-35.311309814453125,59.58784103393555,-80.21046447753906
2.53,-1.0504491329193115,-8.904889106750488,2.825923442840576,-1.693013072013855,-2.302961826324463,-0.6304128766059875,-37.021339416503906,60.45016098022461,-78.48582458496094
2.54,-1.8245272636413574,-7.294519424438477,3.3200414180755615,-1.5195273160934448,-1.2756394147872925,-0.4821254014968872,-38.05904769897461,60.53785705566406,-76.73194885253906
2.559,-2.1738791465759277,-5.084747791290283,4.110869407653809,-1.1934778690338135,-0.08032877743244171,-0.42668935656547546,-39.783687591552734,61.15170669555664,-75.13884735107422
2.563,-2.44785737991333,-4.597808361053467,4.187439441680908,-1.168279767036438,0.04657847434282303,-0.44028112292289734,-39.75445556640625,61.604793548583984,-75.32884979248047
2.57,-2.2564315795898438,-3.972085475921631,3.733999490737915,-1.0926852226257324,0.3286454975605011,-0.523511528968811,-40.42677688598633,61.4732551574707,-74.18883514404297
2.58,-2.0542380809783936,-3.511467218399048,2.788834571838379,-0.9535605907440186,0.44486260414123535,-0.6604980230331421,-40.98217010498047,61.59017562866211,-72.9465103149414
2.59,-1.3148560523986816,-3.005384922027588,2.249253273010254,-0.8341364860534668,0.5187773108482361,-0.7480044364929199,-41.53756332397461,61.54633331298828,-73.9549789428711
2.6,-0.8805586695671082,-2.355733871459961,1.6019947528839111,-0.5444336533546448,0.289244681596756,-0.8991936445236206,-41.99064636230469,61.531715393066406,-73.44343566894531
2.615,0.2847459018230438,-1.8604196310043335,2.413161516189575,0.054367005825042725,-0.573144257068634,-1.1594221591949463,-43.84682846069336,61.18094253540039,-72.58111572265625
2.62,0.4414757788181305,-1.8448662757873535,2.8689942359924316,0.23457224667072296,-0.8431467413902283,-1.2015719413757324,-43.75913619995117,61.37094497680664,-73.16574096679688
2.63,0.5240281224250793,-2.142772674560547,3.783052444458008,0.4812090992927551,-1.1876747608184814,-1.1763737201690674,-45.51300811767578,61.16632843017578,-72.2157211303711
2.64,0.6735795140266418,-2.717050075531006,3.812962770462036,0.532369077205658,-1.1110111474990845,-1.0018190145492554,-46.43379211425781,60.435546875,-72.66880798339844
2.65,0.5970092415809631,-3.2554352283477783,3.2231318950653076,0.5838344097137451,-0.6415612101554871,-0.6398813128471375,-47.39842224121094,60.26015853881836,-71.99649047851562
2.66,0.2021934986114502,-3.623929738998413,2.218146562576294,0.7403686046600342,-0.3689625859260559,-0.3231476843357086,-47.96842956542969,59.61707305908203,-71.82110595703125
2.679,-0.6173481941223145,-3.314059257507324,0.6843472719192505,1.2105822563171387,0.13271047174930573,0.21135936677455902,-48.20227813720703,58.52090072631836,-72.171875
2.682,-0.6005984544754028,-3.2829525470733643,0.5108676552772522,1.2635747194290161,0.23609942197799683,0.2515237629413605,-48.37766647338867,59.00321578979492,-72.18649291992188
2.69,-0.07537391036748886,-3.3104701042175293,-0.05742774158716202,1.3991868495941162,0.599564254283905,0.3539963960647583,-48.39228439331055,58.74013137817383,-73.12189483642578
2.7,1.1856435537338257,-3.9768712520599365,-0.867398202419281,1.538464069366455,1.203404426574707,0.4671592116355896,-47.909969329833984,58.170127868652344,-73.64805603027344
2.71,3.1657042503356934,-6.930810928344727,-2.4741785526275635,1.5138766765594482,1.5514450073242188,0.5201517343521118,-47.74919891357422,58.345516204833984,-74.18883514404297
2.72,4.298705577850342,-12.788439750671387,-5.088337421417236,0.9450085163116455,2.0247128009796143,0.5836817622184753,-46.726104736328125,57.556270599365234,-74.75884246826172
2.732,5.170889377593994,-23.35993003845215,-14.645270347595215,-0.8358163237571716,4.059199333190918,0.2883284091949463,-45.790706634521484,57.96550369262695,-74.349609375
2.74,12.612567901611328,-23.971296310424805,-15.340385437011719,-1.2660181522369385,4.989394664764404,-0.11530081182718277,-44.86991882324219,58.49167251586914,-74.5542221069336
2.75,20.93001937866211,-22.265213012695312,-8.797212600708008,-0.5578727126121521,4.198629379272461,-0.4896084666252136,-44.27068328857422,58.30166244506836,-75.66500854492188
2.76,24.057437896728516,-17.446069717407227,-2.4981067180633545,-0.4450153112411499,1.9931005239486694,-0.8924740552902222,-44.10990905761719,57.746273040771484,-75.86962890625
2.77,19.850854873657227,-11.653045654296875,-2.124826431274414,-0.5951354503631592,0.7121161818504333,-1.2553280591964722,-44.4022216796875,58.11166000366211,-74.27652740478516
2.78,17.871992111206055,-7.7144598960876465,-2.768495798110962,-0.774118959903717,0.4147774875164032,-1.3049609661102295,-44.621456146240234,57.000877380371094,-73.13650512695312
2.795,14.656038284301758,-2.8618156909942627,-5.406582355499268,-0.6343835592269897,-0.17928895354270935,-0.6310237646102905,-45.805320739746094,56.51856231689453,-73.151123046875
2.8,13.512269020080566,-1.9070795774459839,-5.7547383308410645,-0.4430300295352936,-0.6647740602493286,-0.5114468932151794,-45.746856689453125,56.76702880859375,-72.82958221435547
2.81,9.586843490600586,-2.111665964126587,-3.823730707168579,-0.05009094625711441,-1.7760906219482422,-0.42867469787597656,-46.71148681640625,56.430870056152344,-72.06956481933594
2.82,7.588836669921875,-5.656632423400879,-0.004785645287483931,-0.05100724473595619,-2.6345088481903076,-0.483957976102829,-47.25226593017578,55.93394088745117,-70.94416809082031
2.83,6.81475830078125,-9.665806770324707,3.201596736907959,0.0507018156349659,-3.196505069732666,-0.28588491678237915,-47.79304122924805,55.992401123046875,-70.2280044555664
2.849,4.922036170959473,-13.61635684967041,6.902096748352051,0.6053674817085266,-3.481168270111084,0.46471571922302246,-47.98304748535156,56.13855743408203,-69.96492004394531
2.853,-0.2751745879650116,-13.479965209960938,7.592426300048828,1.1158980131149292,-2.4941627979278564,1.5277739763259888,-48.5822868347168,56.12394332885742,-68.69336700439453
2.86,-2.0506489276885986,-11.615957260131836,7.012166500091553,1.1578950881958008,-1.6452127695083618,1.6939293146133423,-48.30459213256836,55.93394088745117,-69.9356918334961
2.87,-4.390829086303711,-10.013962745666504,6.428317546844482,0.9447030425071716,-0.5816964507102966,1.4683672189712524,-47.99766159057617,56.76702880859375,-69.39491271972656
2.88,-3.9493536949157715,-9.017352104187012,5.083551406860352,0.5991060733795166,0.19776761531829834,1.006400465965271,-47.281497955322266,55.787784576416016,-70.02338409423828
2.89,-4.4027934074401855,-8.543573379516602,3.7316067218780518,0.413097620010376,0.6780603528022766,0.6860016584396362,-47.03303146362305,56.54779052734375,-70.24262237548828
2.909,-3.1956145763397217,-8.548358917236328,2.5328028202056885,0.3536909520626068,0.9147706627845764,0.37720927596092224,-46.755332946777344,56.12394332885742,-69.99414825439453
2.913,-1.8472589254379272,-9.190832138061523,2.287538528442383,0.45326200127601624,0.81581050157547,0.2275473028421402,-46.4191780090332,55.45161819458008,-70.75416564941406
2.92,-1.2574282884597778,-9.409774780273438,2.599801778793335,0.4781547486782074,0.7451028823852539,0.21899518370628357,-46.49225616455078,55.568546295166016,-71.14878845214844
2.93,-0.8566304445266724,-9.521040916442871,2.937189817428589,0.46731188893318176,0.7293730974197388,0.2883284091949463,-46.21455764770508,55.70008850097656,-70.66647338867188
2.94,-0.5994020700454712,-9.69810962677002,3.1824538707733154,0.4366159439086914,0.915534257888794,0.44287729263305664,-45.39608383178711,55.2762336730957,-71.11955261230469
2.95,-0.26440688967704773,-9.81535816192627,3.1920251846313477,0.403323769569397,1.3011430501937866,0.6783658266067505,-44.928382873535156,55.261619567871094,-71.66033172607422
2.969,-0.28953152894973755,-10.01874828338623,3.4779675006866455,0.3347541391849518,1.826792597770691,0.9295841455459595,-45.22069549560547,55.30546951293945,-71.77725982666016
2.973,0.33020952343940735,-9.69810962677002,3.4097721576690674,0.21578815579414368,2.2015583515167236,1.0193814039230347,-43.876060485839844,55.32008361816406,-72.65419006347656
2.98,0.906879723072052,-9.390631675720215,3.10109806060791,0.2079996019601822,2.2180516719818115,1.0465648174285889,-42.73604202270508,55.30546951293945,-72.8149642944336
2.99,1.3639088869094849,-8.941977500915527,2.7661027908325195,0.31413745880126953,2.0839667320251465,1.0586293935775757,-41.5814094543457,54.662376403808594,-73.39958953857422
3.0,2.3054845333099365,-9.263812065124512,2.9479572772979736,0.5247332453727722,1.9060522317886353,1.0482447147369385,-40.35369873046875,54.53084182739258,-73.00496673583984
3.01,3.2949166297912598,-9.805787086486816,3.263810157775879,0.7612908482551575,1.5862643718719482,1.0847439765930176,-39.403682708740234,54.22391128540039,-74.890380859375
3.03,2.8223342895507812,-10.188638687133789,4.612165451049805,0.8306240439414978,1.5183055400848389,1.1104003190994263,-38.07366180419922,54.16544723510742,-75.24115753173828
3.033,3.6430721282958984,-9.23031234741211,3.9457645416259766,0.7357872128486633,1.7353153228759766,1.0140362977981567,-37.45980453491211,53.56621170043945,-75.79654693603516
3.04,4.683949947357178,-8.681159973144531,3.4755747318267822,0.7281513810157776,1.6676621437072754,0.9650143384933472,-36.7436408996582,53.06927490234375,-76.46886444091797
3.05,5.570490837097168,-7.676174640655518,2.5088744163513184,0.7536550164222717,1.5082262754440308,0.9801332950592041,-36.34901809692383,54.019290924072266,-76.43963623046875
3.06,6.561119556427002,-6.538387298583984,1.9286149740219116,0.9480628371238708,1.2116512060165405,1.1746938228607178,-35.12131118774414,53.434669494628906,-77.828125
3.07,7.385447025299072,-5.937789440155029,2.2815563678741455,1.1549934148788452,1.0118982791900635,1.3122912645339966,-34.39052963256836,52.96696853637695,-77.50657653808594
3.09,8.679964065551758,-5.821736812591553,3.355933427810669,1.2357803583145142,0.7909177541732788,1.449125051498413,-33.38205337524414,52.8792724609375,-79.07044982910156
3.093,8.787640571594238,-5.335994243621826,3.4959137439727783,1.1885910034179688,0.645684540271759,1.7918204069137573,-32.2274169921875,52.22157287597656,-79.78661346435547
3.1,8.183452606201172,-4.883750915527344,3.208775043487549,1.2063060998916626,0.6765332818031311,1.8845192193984985,-31.072786331176758,51.92926025390625,-79.9912338256836
3.11,6.380461692810059,-4.393222332000732,2.091326951980591,1.4341588020324707,0.930347740650177,1.786780834197998,-30.678165435791016,52.528499603271484,-80.34201049804688
3.12,6.197410583496094,-4.401597023010254,1.0253244638442993,1.8327484130859375,1.1514809131622314,1.4677565097808838,-29.435836791992188,51.27155685424805,-80.28353881835938
3.13,6.409175395965576,-4.689931869506836,1.1318050622940063,2.2562308311462402,1.2003501653671265,1.203251838684082,-28.588130950927734,50.81847381591797,-81.77433776855469
3.149,6.272784233093262,-5.142175674438477,1.5230315923690796,2.556776285171509,1.0641272068023682,0.9732609987258911,-26.556564331054688,48.75767135620117,-84.24436950683594
3.153,5.8995041847229,-5.983253002166748,1.9417754411697388,2.733316421508789,0.6479753255844116,0.7396051287651062,-26.86349105834961,48.713829040527344,-84.62438201904297
3.16,5.1696929931640625,-6.533601760864258,2.0027923583984375,2.7763824462890625,0.5459607839584351,0.6352998614311218,-26.805028915405273,47.734580993652344,-85.23823547363281
3.17,4.328616142272949,-7.381857395172119,2.132004976272583,2.8124234676361084,0.5557346343994141,0.48487427830696106,-26.381174087524414,47.909969329833984,-85.95439910888672
3.18,4.157529354095459,-8.074579238891602,2.20737886428833,2.8180739879608154,0.6572909951210022,0.3572034239768982,-25.825780868530273,46.346099853515625,-87.35749816894531
3.19,2.3222343921661377,-9.565308570861816,0.0023928226437419653,2.800206184387207,0.8546004891395569,0.26832255721092224,-25.957321166992188,45.3814697265625,-88.70213317871094
3.209,0.2679961323738098,-17.678173065185547,-8.090132713317871,0.5395467281341553,1.1481212377548218,-0.23273965716362,-24.554224014282227,43.802982330322266,-89.4036865234375
3.212,3.6610186100006104,-15.802199363708496,-1.109073281288147,0.27718010544776917,0.7194464802742004,-0.35475999116897583,-24.86115074157715,43.55451583862305,-90.47062683105469
3.22,3.88594388961792,-12.686744689941406,2.502892255783081,-0.2831360399723053,0.33796119689941406,-0.3672827482223511,-24.77345848083496,43.466819763183594,-89.65215301513672
3.23,4.4135613441467285,-10.709076881408691,3.122633457183838,-0.39095374941825867,0.5752823352813721,-0.22937989234924316,-24.97807502746582,44.12452697753906,-89.33060455322266
3.24,4.524827480316162,-10.606185913085938,3.242274522781372,-0.2997821271419525,0.9538660645484924,-0.009162978269159794,-24.68576431274414,43.83221435546875,-88.90675354003906
3.25,4.403989791870117,-10.457830429077148,3.3894331455230713,-0.17547103762626648,1.037096381187439,0.09758572280406952,-24.68576431274414,44.548377990722656,-89.31598663330078
3.269,4.691128730773926,-10.447062492370605,3.6323046684265137,-0.10965030640363693,0.8295549750328064,0.07376197725534439,-24.071908950805664,44.256065368652344,-89.05290985107422
3.273,5.477170944213867,-10.472187995910645,3.7088749408721924,-0.09208793193101883,0.43478330969810486,0.06979135423898697,-24.21806526184082,44.72376251220703,-88.78982543945312
3.28,5.982056140899658,-10.363314628601074,3.682553768157959,-0.08399397134780884,0.29046642780303955,0.13729196786880493,-23.896520614624023,43.876060485839844,-88.6875228881836
3.29,6.868597030639648,-10.14197826385498,3.6526436805725098,-0.060933806002140045,0.11560624837875366,0.2871066629886627,-24.188833236694336,43.78836441040039,-88.64366912841797
3.3,7.616354465484619,-9.859625816345215,3.4911282062530518,-0.0607810914516449,-0.07681629806756973,0.4184426963329315,-24.334989547729492,43.53989791870117,-89.08213806152344
3.31,7.524230480194092,-9.349953651428223,2.8689942359924316,-0.0354301817715168,-0.1258382350206375,0.48685958981513977,-24.437299728393555,43.978370666503906,-88.27828216552734
3.329,7.440481662750244,-8.830711364746094,2.27677059173584,-0.06673702597618103,0.5297728776931763,0.3562871515750885,-24.70037841796875,43.33528137207031,-88.13212585449219
3.332,8.015955924987793,-8.790033340454102,1.8604196310043335,-0.1667662113904953,0.5803219676017761,0.26282477378845215,-25.065771102905273,43.48143768310547,-88.49751281738281
3.34,8.367700576782227,-9.089136123657227,1.6151552200317383,-0.39706239104270935,0.4521929919719696,0.1007927656173706,-24.305757522583008,43.40835952758789,-88.39521026611328
3.35,8.670392990112305,-9.881160736083984,1.4069796800613403,-0.6988298296928406,0.12095130980014801,-0.09056076407432556,-24.627302169799805,43.686058044433594,-88.65828704833984
3.36,9.779465675354004,-11.456833839416504,1.9992032051086426,-0.8290968537330627,-0.2583959996700287,-0.2376265674829483,-25.40192985534668,43.78836441040039,-86.75825500488281
3.37,10.892127990722656,-12.313465118408203,2.5184457302093506,-0.7104362845420837,-0.8607090711593628,-0.2845104932785034,-26.381174087524414,44.16836929321289,-87.1090316772461
3.39,9.45763111114502,-12.202198028564453,0.4055834412574768,-0.5470298528671265,-1.177900791168213,-0.2822197377681732,-28.310436248779297,44.3437614440918,-86.15901947021484
3.394,6.69870662689209,-12.532408714294434,-3.1345977783203125,-1.1456778049468994,-1.4819591045379639,-0.6427829265594482,-27.72580909729004,44.007598876953125,-85.8813247680664
3.4,5.449653625488281,-12.245269775390625,-3.4959137439727783,-1.6369661092758179,-1.7339410781860352,-0.8817839622497559,-29.31891441345215,44.38760757446289,-85.50131225585938
3.41,4.31306266784668,-10.956734657287598,-2.6081764698028564,-2.4721717834472656,-2.3012819290161133,-1.282817006111145,-30.809703826904297,45.46916198730469,-83.9666748046875
3.42,3.404986619949341,-10.078568458557129,-1.5780664682388306,-2.70766019821167,-2.694526433944702,-1.5097534656524658,-32.73896408081055,46.24378967285156,-82.68050384521484
3.43,2.9288148880004883,-9.250652313232422,0.9918249249458313,-2.436588764190674,-2.591137409210205,-1.6096298694610596,-35.06284713745117,46.8430290222168,-81.71586608886719
3.449,3.1310083866119385,-8.660820960998535,3.4169507026672363,-1.9147570133209229,-1.665218710899353,-1.7046195268630981,-38.32212829589844,47.8807373046875,-79.26045227050781
3.453,3.3439693450927734,-8.767301559448242,4.744967460632324,-1.8112154006958008,-1.4149165153503418,-1.677894115447998,-38.848289489746094,47.486114501953125,-78.54428100585938
3.46,3.920639753341675,-9.469594955444336,4.810770034790039,-1.7043139934539795,-1.2391400337219238,-1.624901533126831,-39.16983413696289,47.33995819091797,-78.06196594238281
3.47,4.616950988769531,-10.706684112548828,4.55354118347168,-1.4411838054656982,-1.2412781715393066,-1.426522970199585,-40.2660026550293,48.026893615722656,-76.23502349853516
3.48,4.825126647949219,-12.239288330078125,4.289134502410889,-1.2186760902404785,-1.5884023904800415,-1.3193161487579346,-40.83601379394531,47.79304122924805,-74.75884246826172
3.49,4.813162326812744,-13.161721229553223,4.234099388122559,-0.9563094973564148,-2.01035737991333,-1.27961003780365,-42.01987838745117,48.1584358215332,-74.32037353515625
3.509,6.082554817199707,-17.605192184448242,2.3676979541778564,-0.7150177359580994,-2.5634961128234863,-1.1606439352035522,-44.48991394042969,48.20227813720703,-72.53726959228516
3.513,6.013163089752197,-18.246469497680664,1.9298113584518433,-0.8106181621551514,-2.7088818550109863,-1.093143343925476,-44.86991882324219,48.406898498535156,-72.2157211303711
3.52,5.54177713394165,-18.65205192565918,1.4237295389175415,-0.9828821420669556,-2.805093288421631,-0.9856310486793518,-45.27915573120117,47.8807373046875,-70.46185302734375
3.53,4.194617748260498,-16.68634796142578,1.750349760055542,-1.0279334783554077,-2.9836184978485107,-0.9421069025993347,-46.8430290222168,48.20227813720703,-69.672607421875
3.54,3.851248025894165,-12.352946281433105,2.904886484146118,-0.9419541954994202,-3.3116531372070312,-0.95462965965271,-47.486114501953125,48.099971771240234,-67.75796508789062
3.55,3.5198421478271484,-9.738787651062012,3.8177483081817627,-0.7307475805282593,-3.755446672439575,-0.892779529094696,-48.52382278442383,48.24612808227539,-67.2171859741211
3.569,1.4141581058502197,-9.07119083404541,5.196014404296875,-1.1232284307479858,-3.373044967651367,-0.9676104784011841,-50.49692916870117,48.52382278442383,-65.24407958984375
3.572,1.039681315422058,-9.022137641906738,5.106283187866211,-1.376584768295288,-2.8822147846221924,-0.9738719463348389,-50.90616989135742,48.684593200683594,-64.61560821533203
3.58,0.47258248925209045,-8.60219669342041,4.2616167068481445,-1.632842779159546,-2.1510093212127686,-0.9894489645957947,-51.12540054321289,48.31920623779297,-63.94329071044922
3.59,0.9762716293334961,-7.381857395172119,2.7014968395233154,-1.6742287874221802,-1.3975069522857666,-0.9915869832038879,-52.20695877075195,49.239986419677734,-62.774044036865234
3.6,1.00259268283844,-6.656832218170166,2.2336997985839844,-1.4868459701538086,-0.9127854108810425,-0.8926268219947815,-52.63081359863281,48.87459945678711,-62.07249069213867
3.61,0.9008976817131042,-5.637490272521973,2.0123636722564697,-1.217149019241333,-0.5673410296440125,-0.7739662528038025,-53.0985107421875,48.90382766723633,-60.71324157714844
3.629,0.16510476171970367,-4.766502380371094,2.5220348834991455,-0.7590000629425049,-0.14049901068210602,-0.7078401446342468,-53.37620544433594,48.94767761230469,-60.625545501708984
3.632,-0.02153540402650833,-4.473381996154785,2.4873390197753906,-0.688903272151947,-0.08445211499929428,-0.7221954464912415,-53.69774627685547,48.94767761230469,-60.08477020263672
3.64,-0.2512463629245758,-4.0319061279296875,2.3150558471679688,-0.5688682198524475,-0.03252857178449631,-0.7834346890449524,-54.077754974365234,48.33382034301758,-59.8363037109375
3.65,-0.3086740970611572,-3.5150563716888428,2.1296122074127197,-0.3497203588485718,-0.04352414980530739,-0.9379835724830627,-54.764686584472656,48.75767135620117,-59.60245895385742
3.66,-0.34576284885406494,-3.177668571472168,2.3270199298858643,-0.0910189226269722,-0.10735956579446793,-1.1110111474990845,-55.46623992919922,47.866119384765625,-59.39783477783203
3.67,0.02392822690308094,-3.0005996227264404,2.720639228820801,0.14538592100143433,-0.1788308024406433,-1.2198978662490845,-55.61239242553711,48.085357666015625,-59.5586051940918
3.689,0.5778666734695435,-3.2243285179138184,3.2685956954956055,0.3419318199157715,-0.25793784856796265,-1.0926852226257324,-56.372406005859375,46.78456497192383,-59.19321823120117
3.693,0.7668996453285217,-3.2650065422058105,3.1166512966156006,0.36621370911598206,-0.31001412868499756,-1.0152579545974731,-56.10932540893555,46.550716400146484,-58.9739875793457
3.7,0.92482590675354,-3.242274522781372,2.878565549850464,0.4156937897205353,-0.403323769569397,-0.8665122985839844,-56.416255950927734,46.49225616455078,-58.6378288269043
3.71,0.4977070689201355,-3.1345977783203125,2.5052852630615234,0.5119050741195679,-0.4173736572265625,-0.6270532011985779,-57.43934631347656,46.667640686035156,-57.9947395324707
3.72,-0.03349951654672623,-2.8594231605529785,2.0338993072509766,0.6244570016860962,-0.2174680233001709,-0.34956762194633484,-57.17626190185547,45.995323181152344,-58.550132751464844
3.73,-0.7178468108177185,-2.6799612045288086,1.4404791593551636,0.8345946073532104,0.18219056725502014,0.008246680721640587,-57.541656494140625,46.38994216918945,-58.3747444152832
3.746,-1.0121638774871826,-3.456432342529297,0.3038884699344635,1.0926852226257324,0.5954408645629883,0.27122417092323303,-57.08857345581055,46.170711517333984,-59.13475799560547
3.75,-0.6879364848136902,-3.9278182983398438,-0.044267214834690094,1.13926362991333,0.665232241153717,0.3428480923175812,-56.927799224853516,45.922245025634766,-59.17860412597656
3.76,0.3158525824546814,-5.175675392150879,-0.7920242547988892,1.1797335147857666,0.6962336897850037,0.5082398653030396,-56.32855987548828,46.112247467041016,-59.74861526489258
3.77,1.836491346359253,-7.317251682281494,-1.4344971179962158,1.1073459386825562,0.6073527932167053,0.6994407176971436,-56.15317153930664,46.360713958740234,-60.55247116088867
3.78,3.4947173595428467,-11.576476097106934,-3.3272199630737305,0.4317289888858795,0.5942191481590271,0.9766207933425903,-55.14469909667969,45.717628479003906,-59.675533294677734
3.79,3.676571846008301,-21.147764205932617,-14.514861106872559,-1.0560332536697388,1.6858352422714233,1.078940749168396,-54.98392105102539,46.38994216918945,-60.1140022277832
3.803,10.442277908325195,-22.314268112182617,-16.975879669189453,-1.5322027206420898,4.538270473480225,0.7350236177444458,-53.97544479370117,46.4191780090332,-60.26015853881836
3.81,15.678970336914062,-19.37946891784668,-10.138389587402344,-0.7203628420829773,4.799415111541748,0.4082106947898865,-53.91698455810547,47.2230339050293,-60.53785705566406
3.82,20.81635856628418,-18.909278869628906,-2.451446771621704,0.26053401827812195,3.2363638877868652,-0.19792033731937408,-52.99620056152344,46.682254791259766,-61.619407653808594
3.83,21.2051944732666,-16.20539093017578,-0.31106695532798767,0.0835358202457428,1.2779301404953003,-1.2079859972000122,-53.04004669189453,47.310726165771484,-61.736331939697266
3.84,20.3689022064209,-11.247462272644043,-0.6927221417427063,-0.683863639831543,1.1673635244369507,-1.2867876291275024,-53.1569709777832,47.03303146362305,-61.049400329589844
3.858,17.23550033569336,-6.678368091583252,-2.51724910736084,-1.2260066270828247,1.4732542037963867,-0.8487972617149353,-53.59543991088867,47.07687759399414,-60.201690673828125
3.862,13.895119667053223,-1.9597216844558716,-4.405186176300049,-1.3519974946975708,0.7394523620605469,-0.3556762933731079,-52.96696853637695,46.682254791259766,-59.675533294677734
3.87,11.8528470993042,-0.6795615553855896,-5.712863922119141,-1.1339186429977417,-0.15622878074645996,-0.16982053220272064,-53.40544128417969,47.33995819091797,-59.36860275268555
3.88,9.891928672790527,-4.078566074371338,-2.5698914527893066,-0.9173668622970581,-1.2944234609603882,-0.018936822190880775,-52.77696990966797,47.16456985473633,-58.155513763427734
3.89,8.244470596313477,-8.431110382080078,1.3316056728363037,-0.5532912015914917,-2.7762298583984375,0.20525072515010834,-52.99620056152344,48.479976654052734,-55.802398681640625
3.9,5.19960355758667,-13.004990577697754,4.9423747062683105,0.27320948243141174,-3.3324224948883057,0.7063129544258118,-52.265419006347656,48.43613052368164,-56.09471130371094
3.919,1.9776678085327148,-12.600604057312012,6.181857109069824,0.9990701079368591,-2.96162748336792,1.306182622909546,-52.265419006347656,49.82461166381836,-54.85238265991211
3.923,-1.8628122806549072,-10.042675971984863,6.058626651763916,1.319010853767395,-1.5370895862579346,1.5563318729400635,-51.1400146484375,49.6199951171875,-55.05699920654297
3.93,-4.145565032958984,-9.169296264648438,5.880361557006836,1.1866058111190796,-1.0728321075439453,1.3726141452789307,-50.43846893310547,50.10231018066406,-54.82314682006836
3.94,-4.423132419586182,-8.075776100158691,5.040481090545654,0.6860016584396362,-0.15027284622192383,0.7043275833129883,-50.40924072265625,50.526161193847656,-53.78544235229492
3.95,-3.6299118995666504,-7.829315185546875,3.930211305618286,0.3358231484889984,0.3962987959384918,0.3283400535583496,-49.51768493652344,50.73078155517578,-54.472373962402344
3.96,-2.970689058303833,-8.149953842163086,3.1369903087615967,0.11209376901388168,0.8295549750328064,0.09712757170200348,-48.94767761230469,51.11078643798828,-54.85238265991211
3.978,-1.8448662757873535,-8.537590980529785,2.5292134284973145,0.055283304303884506,1.1143709421157837,-0.0029016099870204926,-48.37766647338867,51.505409240722656,-55.10084533691406
3.982,-0.589830756187439,-9.079565048217773,2.3509480953216553,0.1586722582578659,1.281595230102539,0.14217887818813324,-48.23151397705078,51.3592529296875,-55.83163070678711
3.99,-0.09212366491556168,-9.462416648864746,2.5986053943634033,0.2177734524011612,1.2637274265289307,0.28557947278022766,-47.734580993652344,51.09617233276367,-55.378543853759766
4.0,0.03469592705368996,-9.736394882202148,3.1334011554718018,0.22586742043495178,1.3124439716339111,0.49357911944389343,-47.13534164428711,51.578487396240234,-55.378543853759766
4.01,0.3086740970611572,-9.772287368774414,3.1106693744659424,0.20265454053878784,1.4640913009643555,0.6875288486480713,-47.07687759399414,52.55773162841797,-55.10084533691406
4.02,0.6185446381568909,-9.871589660644531,3.005384922027588,0.22937989234924316,1.6155859231948853,0.8807149529457092,-46.02455520629883,51.92926025390625,-55.817012786865234
4.04,0.6819544434547424,-9.790233612060547,3.0520453453063965,0.2742784917354584,1.7340936660766602,1.0103710889816284,-45.41069793701172,52.923118591308594,-56.12394332885742
4.043,0.7298108339309692,-9.410971641540527,3.2757742404937744,0.3283400535583496,1.8466455936431885,0.9766207933425903,-45.01607894897461,53.215431213378906,-55.84624481201172
4.05,0.9116654396057129,-9.281758308410645,3.5186455249786377,0.3481931984424591,1.9243782758712769,0.8906415104866028,-44.548377990722656,53.56621170043945,-56.44548416137695
4.06,2.2540388107299805,-9.608378410339355,3.5401811599731445,0.37048977613449097,1.9772180318832397,0.7742716670036316,-43.72990417480469,53.434669494628906,-56.46010208129883
4.07,3.1992037296295166,-9.79262638092041,3.568894863128662,0.3937026560306549,1.9523253440856934,0.8080219626426697,-42.58988571166992,53.814674377441406,-56.313941955566406
4.08,2.231307029724121,-9.315258026123047,4.137190341949463,0.4112650156021118,2.1533000469207764,0.9288205504417419,-42.253726959228516,53.77082824707031,-56.44548416137695
4.098,2.585444688796997,-8.646464347839355,4.488935470581055,0.3903428912162781,2.786156177520752,0.9805914163589478,-41.17217254638672,54.457759857177734,-56.98625946044922
4.104,4.579862117767334,-8.214560508728027,3.4205398559570312,0.36743542551994324,2.5466971397399902,0.9305005073547363,-40.36831283569336,54.282371520996094,-57.38088607788086
4.11,5.267798900604248,-7.769495010375977,3.078366279602051,0.36850446462631226,2.2067506313323975,0.901637077331543,-40.11984634399414,54.99854278564453,-58.3747444152832
4.12,6.000002861022949,-6.658028602600098,2.273181438446045,0.45356741547584534,1.6843081712722778,0.9695958495140076,-39.4621467590332,54.37007141113281,-58.6378288269043
4.13,7.080362319946289,-6.069394588470459,1.8484554290771484,0.6241515278816223,0.9665415287017822,1.1097893714904785,-38.395206451416016,55.261619567871094,-58.95936965942383
4.14,7.332805156707764,-5.42572546005249,1.6797614097595215,0.9640980362892151,0.14966197311878204,1.2435688972473145,-38.24905014038086,55.04238510131836,-58.53551483154297
4.159,8.163114547729492,-5.533401966094971,2.798405885696411,1.1687380075454712,-0.2347249537706375,1.36955988407135,-37.035953521728516,55.96316909790039,-59.456298828125
4.163,7.280162334442139,-5.063212871551514,3.177668571472168,1.2078332901000977,-0.10659598559141159,1.6253596544265747,-35.99824523925781,56.09471130371094,-60.50862121582031
4.17,6.7106709480285645,-4.445864677429199,2.8247268199920654,1.279762625694275,0.16462817788124084,1.7055357694625854,-35.545162200927734,55.992401123046875,-59.7339973449707
4.18,5.505885124206543,-4.53200626373291,2.282752752304077,1.4695889949798584,0.5754350423812866,1.6079500913619995,-34.33206558227539,55.68547058105469,-61.07863235473633
4.19,6.096912384033203,-4.986642360687256,1.8340984582901,1.8545868396759033,1.0254899263381958,1.3031282424926758,-33.27974319458008,56.24086380004883,-62.68634796142578
4.2,6.798008441925049,-5.6685967445373535,2.26959228515625,2.1671972274780273,1.2015719413757324,1.114065408706665,-32.242034912109375,56.182403564453125,-64.14791107177734
4.219,7.133004188537598,-6.659224987030029,2.7314069271087646,2.3486242294311523,1.180649757385254,1.0025825500488281,-30.83893585205078,55.68547058105469,-66.06256103515625
4.223,6.661618232727051,-7.384250640869141,2.825923442840576,2.4801130294799805,1.2249374389648438,0.8327620029449463,-30.415081024169922,55.1593132019043,-66.69102478027344
4.23,6.2536420822143555,-7.631907939910889,2.5387847423553467,2.534632682800293,1.2276864051818848,0.7115052938461304,-30.415081024169922,55.46623992919922,-68.05027770996094
4.24,5.875576019287109,-7.939384937286377,2.1882362365722656,2.610685348510742,1.1731666326522827,0.5627596378326416,-28.778135299682617,54.41391372680664,-68.89797973632812
4.25,5.2701921463012695,-8.044669151306152,1.7096717357635498,2.7591254711151123,0.9812023043632507,0.4398229718208313,-28.26658821105957,54.22391128540039,-71.0318603515625
4.26,4.0450663566589355,-8.72782039642334,1.3124631643295288,2.895043134689331,0.8976664543151855,0.33368512988090515,-28.251972198486328,53.23004913330078,-72.23033905029297
4.279,-1.0133603811264038,-15.614363670349121,-10.558329582214355,2.691777467727661,1.335962176322937,0.2538144886493683,-27.272727966308594,53.37620544433594,-74.43729400634766
4.283,-0.02273181453347206,-18.569499969482422,-6.7310099601745605,0.290313720703125,0.023518310859799385,0.20036378502845764,-26.61502456665039,53.127742767333984,-74.49576568603516
4.29,1.935793399810791,-14.701501846313477,-1.1102696657180786,-0.08338310569524765,-0.33429598808288574,0.11407908797264099,-26.118093490600586,53.08388900756836,-74.10113525390625
4.3,3.967299699783325,-11.316854476928711,3.06999135017395,-0.379652738571167,-0.32330042123794556,0.035124752670526505,-26.0304012298584,52.64542770385742,-74.68576049804688
4.31,5.337190628051758,-10.126425743103027,3.6287152767181396,-0.31123584508895874,0.10674870014190674,0.2168571650981903,-25.796550750732422,53.244667053222656,-74.0865249633789
4.32,4.8466620445251465,-9.672985076904297,3.772284984588623,-0.19165895879268646,0.4830417037010193,0.3335324227809906,-25.650394439697266,53.96083068847656,-74.62730407714844
4.339,5.26181697845459,-9.509077072143555,4.046262741088867,-0.14798210561275482,0.5342016220092773,0.24404066801071167,-24.729610443115234,53.478515625,-74.2472915649414
4.343,5.858826160430908,-9.014959335327148,4.240081787109375,-0.242513507604599,0.3168863356113434,0.16310101747512817,-24.56884002685547,54.12160110473633,-73.86729431152344
4.35,5.990431308746338,-8.822336196899414,4.286741733551025,-0.30833423137664795,0.2272418737411499,0.18799376487731934,-24.203449249267578,54.50160598754883,-73.47266387939453
4.36,6.546762466430664,-8.678768157958984,4.262813568115234,-0.3874412775039673,0.0933096632361412,0.2246456891298294,-23.83806037902832,54.282371520996094,-74.07190704345703
4.37,6.874579429626465,-8.86780071258545,4.098905086517334,-0.4098905920982361,-0.010995574295520782,0.25534167885780334,-23.253435134887695,54.282371520996094,-73.82344818115234
4.38,7.056434154510498,-8.992227554321289,3.620340585708618,-0.30726519227027893,-0.018020525574684143,0.2532036304473877,-23.10727882385254,54.443145751953125,-73.4142074584961
4.4,7.148557662963867,-9.181260108947754,3.521038293838501,-0.10277807712554932,0.07910704612731934,0.22021691501140594,-22.771120071411133,54.75007247924805,-73.370361328125
4.404,7.83410120010376,-8.934799194335938,3.3822548389434814,0.20647244155406952,-0.0012217304902151227,0.17211127281188965,-22.230342864990234,54.253143310546875,-73.32650756835938
4.41,7.137789726257324,-8.39162826538086,2.3976082801818848,0.3700316250324249,-0.04459316283464432,0.12492194026708603,-22.230342864990234,54.54545593261719,-73.89652252197266
4.42,4.147957801818848,-8.283951759338379,-2.7397818565368652,0.7912232279777527,0.6779077053070068,0.021532999351620674,-21.879568099975586,54.37007141113281,-73.72113800048828
4.43,6.203392505645752,-12.585049629211426,-1.6689937114715576,0.4934263825416565,1.0277807712554932,-0.02519819140434265,-21.411867141723633,54.443145751953125,-74.49576568603516
4.44,9.373882293701172,-15.224333763122559,1.590030550956726,-0.6609561443328857,0.004734205547720194,-0.0959058403968811,-21.148786544799805,53.71236038208008,-75.09500122070312
4.459,10.132407188415527,-14.178669929504395,2.493321180343628,-1.3723087310791016,-1.0697777271270752,-0.15714508295059204,-20.98801612854004,54.42852783203125,-72.87342834472656
4.463,7.910671234130859,-12.875778198242188,0.30149564146995544,-1.3431400060653687,-1.246165156364441,-0.25854870676994324,-20.92955207824707,54.969303131103516,-73.09266662597656
4.47,6.5072808265686035,-12.626924514770508,-0.9643074870109558,-1.4486669301986694,-1.2782355546951294,-0.4444044530391693,-21.221864700317383,55.45161819458008,-73.20958709716797
4.48,5.298905849456787,-12.057433128356934,-1.3734800815582275,-2.1560487747192383,-1.3466523885726929,-0.7898487448692322,-21.119556427001953,55.787784576416016,-72.14264678955078
4.49,4.449453830718994,-10.85743236541748,-1.4644074440002441,-2.8929049968719482,-1.4445436000823975,-1.2169963121414185,-21.938030242919922,56.79625701904297,-70.81262969970703
4.5,4.442275047302246,-10.070194244384766,-0.7561319470405579,-2.8761062622070312,-1.6238324642181396,-1.5880968570709229,-22.961122512817383,57.293190002441406,-69.40953063964844
4.519,4.563112735748291,-8.778069496154785,2.785245418548584,-2.197434902191162,-1.7762433290481567,-1.5968016386032104,-24.378835678100586,58.053199768066406,-68.41566467285156
4.522,4.222135543823242,-8.71944522857666,3.2243285179138184,-2.0166187286376953,-1.778228759765625,-1.5906931161880493,-24.788074493408203,58.49167251586914,-68.5325927734375
4.53,3.751945734024048,-8.910871505737305,3.5856447219848633,-1.7539467811584473,-1.7264578342437744,-1.5766431093215942,-25.913476943969727,58.50628662109375,-67.69950103759766
4.54,3.43489670753479,-9.641878128051758,3.7423744201660156,-1.4317153692245483,-1.6270396709442139,-1.5393803119659424,-26.483484268188477,59.280914306640625,-66.69102478027344
4.55,3.733999490737915,-10.548758506774902,3.6526436805725098,-1.1757628917694092,-1.6336063146591187,-1.4576772451400757,-27.228879928588867,59.880149841308594,-67.2171859741211
4.56,3.9493536949157715,-11.662616729736328,3.4396824836730957,-0.9579893946647644,-1.913382649421692,-1.3290901184082031,-28.105815887451172,59.280914306640625,-66.34024810791016
4.579,4.24367094039917,-12.902099609375,3.148954391479492,-0.9230173230171204,-2.447736978530884,-1.14705228805542,-30.108156204223633,60.23093032836914,-66.76410675048828
4.582,4.54636287689209,-14.36889934539795,3.644268751144409,-0.9558513760566711,-2.5305092334747314,-1.0806206464767456,-30.985092163085938,60.289390563964844,-67.11487579345703
4.59,5.065605640411377,-15.342779159545898,2.926422119140625,-1.0131200551986694,-2.526386022567749,-0.9787588119506836,-31.67202377319336,60.187076568603516,-66.63256072998047
4.6,4.867001056671143,-16.122838973999023,2.8378875255584717,-0.9291260242462158,-2.6555838584899902,-0.8544477224349976,-32.11049270629883,60.172462463378906,-65.82870483398438
4.61,4.218545913696289,-15.680166244506836,2.906083106994629,-0.8990408778190613,-2.6511549949645996,-0.9382889866828918,-33.38205337524414,60.581703186035156,-65.59485626220703
4.62,3.187239646911621,-12.610175132751465,3.6849467754364014,-0.9854783415794373,-2.699566125869751,-0.9767735004425049,-34.799766540527344,60.4940071105957,-65.21485137939453
4.639,2.730210542678833,-9.840482711791992,4.328616142272949,-1.1908817291259766,-3.249344825744629,-1.0754282474517822,-36.71440887451172,60.04092025756836,-64.3379135131836
4.642,2.390429735183716,-9.349953651428223,4.310669898986816,-1.2214250564575195,-3.202308177947998,-1.053742527961731,-37.50365447998047,60.1140022277832,-63.5340576171875
4.65,1.3363914489746094,-8.782855033874512,3.9050865173339844,-1.2767083644866943,-2.98697829246521,-0.9720392823219299,-38.36597442626953,60.45016098022461,-62.569419860839844
4.66,-0.041874393820762634,-8.57946491241455,3.6538400650024414,-1.285413146018982,-2.037388324737549,-0.9187412858009338,-39.27214050292969,60.02630615234375,-62.87635040283203
4.67,0.2309073656797409,-7.209574222564697,2.8354947566986084,-1.1817187070846558,-1.2006556987762451,-0.8903360962867737,-40.44139099121094,60.50862121582031,-60.96170425415039
4.68,0.20937196910381317,-6.634100437164307,2.8977081775665283,-1.0227410793304443,-0.6107125282287598,-0.8817839622497559,-40.529083251953125,60.3770866394043,-60.596317291259766
4.7,0.25004997849464417,-5.741578102111816,2.8342983722686768,-0.7504479885101318,-0.18936823308467865,-1.0722211599349976,-42.58988571166992,59.95323181152344,-59.60245895385742
4.704,0.6532405614852905,-4.535595417022705,2.6488544940948486,-0.6585127115249634,-0.23854286968708038,-1.1464413404464722,-42.3414192199707,59.95323181152344,-59.17860412597656
4.71,0.6496513485908508,-4.401597023010254,2.740978240966797,-0.545044481754303,-0.3344487249851227,-1.252273678779602,-42.896812438964844,59.909385681152344,-58.60859298706055
4.72,0.4893321990966797,-3.4265217781066895,2.3808584213256836,-0.4352414906024933,-0.3303253948688507,-1.3486377000808716,-43.992984771728516,59.80707550048828,-57.950889587402344
4.73,0.8566304445266724,-2.7529425621032715,2.427518606185913,-0.29077184200286865,-0.5195409059524536,-1.4537066221237183,-44.548377990722656,59.909385681152344,-58.25782012939453
4.74,1.2143574953079224,-2.555534601211548,2.5710878372192383,-0.17501288652420044,-0.8439103364944458,-1.523956060409546,-45.761470794677734,59.33937454223633,-58.21397399902344
4.759,1.2203395366668701,-2.3126630783081055,2.258824348449707,-0.07162395119667053,-0.9198102951049805,-1.3081679344177246,-47.544578552246094,59.17860412597656,-57.42472839355469
4.763,1.1928220987319946,-2.2947168350219727,2.1918253898620605,-0.04963279888033867,-0.7866417169570923,-1.1485792398452759,-47.866119384765625,58.9739875793457,-57.05934143066406
4.77,1.0791629552841187,-2.4526431560516357,1.5457634925842285,0.0064140851609408855,-0.5297728776931763,-0.8848382830619812,-48.5384407043457,59.14937210083008,-56.927799224853516
4.78,0.503689169883728,-2.4047865867614746,0.802791953086853,0.1696678102016449,-0.16264288127422333,-0.5262603759765625,-48.87459945678711,58.550132751464844,-57.67319107055664
4.79,-0.1902294009923935,-2.4466609954833984,0.3409772217273712,0.41462478041648865,0.20387627184391022,-0.24556781351566315,-49.6784553527832,58.667057037353516,-57.307804107666016
4.8,-0.6269195079803467,-2.662015199661255,0.0131605239585042,0.6893614530563354,0.569631814956665,-0.05910121276974678,-49.95615005493164,59.032447814941406,-58.02397155761719
4.812,-0.27756741642951965,-3.3822548389434814,-0.0011964113218709826,1.0071640014648438,0.7849618196487427,0.1394299864768982,-49.88307571411133,58.871673583984375,-58.22858810424805
4.82,0.14476576447486877,-4.249652862548828,-0.019142581149935722,1.0943650007247925,0.7521278262138367,0.24892757833003998,-49.31306457519531,58.3747444152832,-58.40397644042969
4.83,0.6795615553855896,-5.242674350738525,-0.4618147313594818,1.1722503900527954,0.5998696684837341,0.4352414906024933,-49.663841247558594,58.76936340332031,-59.12014389038086
4.84,1.3663017749786377,-6.725028038024902,-1.3052847385406494,1.1835514307022095,0.3543018102645874,0.6669121384620667,-49.15229415893555,58.4185905456543,-59.7339973449707
4.85,1.9956140518188477,-8.812766075134277,-2.1930220127105713,1.052215337753296,0.194713294506073,0.9315694570541382,-49.07921600341797,58.93013381958008,-60.34785079956055
4.86,2.8977081775665283,-12.108878135681152,-3.748356580734253,0.7168503403663635,0.5894849896430969,1.2095131874084473,-48.77228546142578,58.50628662109375,-60.800933837890625
4.878,6.831508159637451,-22.228124618530273,-12.798011779785156,-1.0118982791900635,2.531883716583252,0.9243918061256409,-47.14995574951172,59.41244888305664,-61.341712951660156
4.881,7.328019142150879,-21.804594039916992,-12.759726524353027,-1.1201741695404053,3.358689785003662,0.5946772694587708,-47.456886291503906,59.20783233642578,-60.64016342163086
4.89,14.36889934539795,-19.013368606567383,-8.34018325805664,-0.8381071090698242,4.186717510223389,-0.080634206533432,-47.661502838134766,59.71937942504883,-60.69862747192383
4.9,21.705293655395508,-17.059629440307617,-3.610769271850586,-0.19562958180904388,4.1219658851623535,-0.8631526231765747,-46.682254791259766,59.44168472290039,-60.596317291259766
4.91,25.65943145751953,-14.932409286499023,-1.4500504732131958,-0.10476338863372803,3.26629638671875,-1.3026700019836426,-47.01841354370117,59.792457580566406,-62.1163444519043
4.928,22.559532165527344,-10.339385986328125,-3.159722089767456,-0.7779368162155151,2.753016948699951,-1.1499537229537964,-47.529964447021484,59.076290130615234,-62.1748046875
4.932,18.387645721435547,-3.370290756225586,-5.931807041168213,-1.2822060585021973,2.070985794067383,-0.7747297883033752,-47.38380432128906,59.54399108886719,-61.736331939697266
4.94,15.701702117919922,-0.7764708995819092,-6.190232276916504,-1.1071932315826416,1.0897835493087769,-0.5537493228912354,-47.851505279541016,58.623207092285156,-61.239402770996094
4.95,12.128021240234375,-0.4749752879142761,-5.297708988189697,-0.7257079482078552,-0.16264288127422333,-0.4813618063926697,-48.24612808227539,59.33937454223633,-60.45016098022461
4.96,12.76211929321289,-4.403989791870117,-1.588834285736084,-0.6397286653518677,-1.200197458267212,-0.4657847285270691,-48.5384407043457,59.105525970458984,-58.9739875793457
4.97,12.281161308288574,-9.046065330505371,4.078566074371338,0.15851953625679016,-3.874870777130127,-0.06062837690114975,-49.049983978271484,59.35398864746094,-58.667057037353516
4.98,7.968099117279053,-13.51585865020752,8.629714965820312,0.8790351152420044,-5.003597259521484,0.774118959903717,-48.72844314575195,59.41244888305664,-57.05934143066406
4.996,0.9595218300819397,-11.401800155639648,7.668996334075928,1.3521502017974854,-4.4093780517578125,1.8078556060791016,-48.406898498535156,59.690147399902344,-56.79625701904297
5.0,-1.31365966796875,-10.269994735717773,7.079165935516357,1.3477214574813843,-4.102723598480225,1.779908537864685,-47.76381301879883,59.96784591674805,-56.15317153930664
5.01,-2.5770697593688965,-8.642874717712402,6.275177478790283,1.1833986043930054,-2.8823676109313965,1.556179165840149,-46.95995330810547,60.56708526611328,-56.2993278503418
5.02,-5.072783946990967,-7.963313102722168,6.311069488525391,0.6977607607841492,-0.9999863505363464,1.3584116697311401,-46.27302169799805,60.23093032836914,-55.46623992919922
5.03,-5.449653625488281,-7.324429988861084,5.010570526123047,0.24663683772087097,0.26022857427597046,1.158811330795288,-45.70301055908203,60.93247604370117,-55.62701416015625
5.048,-4.262813568115234,-7.561319828033447,3.538984537124634,-0.010079275816679,1.059393048286438,0.9020951986312866,-44.82607650756836,60.4940071105957,-55.43700408935547
5.052,-3.8213376998901367,-8.359325408935547,2.4430718421936035,0.007941247895359993,1.2660181522369385,0.6907358169555664,-43.802982330322266,60.85940170288086,-55.568546295166016
5.06,-4.094119548797607,-9.397810935974121,2.4945175647735596,0.06811147183179855,1.3697125911712646,0.5128213763237,-43.93452072143555,61.312477111816406,-55.94855499267578
5.07,-4.019941806793213,-9.961320877075195,2.3641088008880615,0.23090705275535583,1.6186401844024658,0.16401731967926025,-43.10143280029297,61.78017807006836,-56.606258392333984
5.08,-3.7363924980163574,-10.03310489654541,2.65842604637146,0.4213443100452423,2.085646629333496,-0.004886921960860491,-42.882198333740234,61.15170669555664,-56.48933029174805
5.09,-2.66560435295105,-9.56052303314209,2.8175485134124756,0.6459900140762329,2.6279423236846924,0.04184426739811897,-42.53142547607422,61.56094741821289,-57.60011672973633
5.109,-1.7335999011993408,-9.588040351867676,3.4671998023986816,0.8761334419250488,2.947730302810669,0.29993483424186707,-42.10757064819336,61.35633087158203,-58.19935607910156
5.113,-0.25722840428352356,-10.097711563110352,4.681557655334473,0.8300131559371948,2.937040090560913,0.7327328324317932,-41.069862365722656,61.911720275878906,-59.54399108886719
5.12,0.41874393820762634,-10.429117202758789,5.08953332901001,0.6395758986473083,2.6791021823883057,0.8936958909034729,-40.66062545776367,61.80941390991211,-60.26015853881836
5.13,1.920240044593811,-11.144571304321289,5.376672267913818,0.28817567229270935,2.135890245437622,1.013425350189209,-40.11984634399414,62.320960998535156,-59.982460021972656
5.14,2.6297121047973633,-11.066803932189941,4.612165451049805,-0.0138971833512187,1.5685491561889648,1.0532844066619873,-39.213680267333984,61.59017562866211,-60.04092025756836
5.15,3.022134780883789,-10.381260871887207,3.315255641937256,-0.11499537527561188,1.119410514831543,0.9926559925079346,-38.760597229003906,62.45249938964844,-59.57322692871094
5.168,3.5820553302764893,-9.43489933013916,2.2229323387145996,0.038026362657547,0.8294023275375366,0.8895725011825562,-37.54750061035156,62.24787902832031,-59.997074127197266
5.172,2.5435705184936523,-7.895118236541748,2.224128484725952,0.5528330206871033,0.9677632451057434,0.8758280277252197,-36.67056655883789,62.62788772583008,-61.26863479614258
5.18,1.3710873126983643,-7.147360801696777,3.7974092960357666,0.7473936080932617,1.5447254180908203,0.8074111342430115,-36.100555419921875,62.584041595458984,-60.201690673828125
5.19,3.6849467754364014,-6.917649745941162,3.73758864402771,0.7608326077461243,2.219120740890503,0.7348708510398865,-35.45746612548828,63.051734924316406,-60.830162048339844
5.2,5.449653625488281,-6.6759748458862305,2.3186450004577637,0.7651087045669556,2.462244987487793,0.8585711121559143,-34.96053695678711,62.68634796142578,-61.86787414550781
5.21,6.625725269317627,-6.839883327484131,2.644068956375122,0.8148941993713379,2.3127357959747314,1.0662652254104614,-33.9082145690918,63.32943344116211,-62.160186767578125
5.229,8.648857116699219,-7.179664134979248,3.053241491317749,0.8274169564247131,2.0059287548065186,1.1630873680114746,-32.66588592529297,62.48173141479492,-63.3148193359375
5.233,9.282955169677734,-7.543373107910156,3.8321051597595215,0.7945829629898071,1.455997347831726,1.1934778690338135,-31.233558654785156,63.00789260864258,-63.5340576171875
5.24,11.230712890625,-7.123432636260986,3.479163885116577,0.7993171811103821,1.0445795059204102,1.2405145168304443,-31.160480499267578,62.67173385620117,-63.49020767211914
5.25,9.190832138061523,-6.504888534545898,3.5198421478271484,0.858418345451355,0.627358615398407,1.348484992980957,-30.254310607910156,63.02250671386719,-64.23560333251953
5.26,8.329415321350098,-5.712863922119141,1.5625131130218506,1.1105530261993408,0.6017022132873535,1.374904990196228,-28.82198143005371,62.51095962524414,-65.66793060302734
5.27,7.548158645629883,-5.314458847045898,0.9427720904350281,1.5771013498306274,1.0725265741348267,1.3900238275527954,-27.842735290527344,62.87635040283203,-66.38410186767578
5.288,6.3768720626831055,-4.356133460998535,0.8255237936973572,2.152994394302368,1.5363260507583618,1.3475686311721802,-26.60040855407715,61.8532600402832,-67.49488830566406
5.293,5.423332214355469,-4.2281174659729,0.8973084688186646,2.5870144367218018,1.7218763828277588,1.1954632997512817,-25.021923065185547,61.26863479614258,-69.73107147216797
5.3,5.702096462249756,-4.515256404876709,1.2131609916687012,2.705064058303833,1.52273428440094,1.058171272277832,-24.071908950805664,60.93247604370117,-70.81262969970703
5.31,5.572883605957031,-5.399404048919678,1.1904292106628418,2.7763824462890625,1.0399980545043945,0.8961393237113953,-23.83806037902832,60.34785079956055,-71.95264434814453
5.32,5.662614822387695,-6.732206344604492,1.2059825658798218,2.8548786640167236,0.5694791078567505,0.736245334148407,-22.595731735229492,59.792457580566406,-74.59806823730469
5.33,5.063212871551514,-7.859225749969482,1.1497513055801392,2.9798004627227783,0.1267545372247696,0.6085745096206665,-22.157264709472656,58.90090560913086,-75.24115753173828
5.349,1.057627558708191,-13.325629234313965,-5.546562671661377,2.8440358638763428,0.2687807083129883,0.4671592116355896,-21.64571762084961,58.22858810424805,-76.81964874267578
5.353,1.4919248819351196,-17.109878540039062,-4.179064750671387,1.4234685897827148,-0.8429940342903137,0.44776421785354614,-21.19263458251953,57.05934143066406,-78.7050552368164
5.36,1.5254243612289429,-14.773286819458008,-0.891326367855072,0.7385360598564148,-1.2095131874084473,0.41493022441864014,-20.871089935302734,56.76702880859375,-79.20198822021484
5.37,1.672582983970642,-12.435498237609863,2.1678972244262695,0.2791654169559479,-0.9686795473098755,0.24266621470451355,-21.4703311920166,56.88395690917969,-79.6843032836914
5.38,3.129812002182007,-11.95095157623291,3.376272678375244,0.041691552847623825,-0.15073098242282867,0.078343465924263,-21.01724624633789,55.992401123046875,-80.85355377197266
5.39,4.018745422363281,-11.233105659484863,4.23649263381958,-0.0708603635430336,0.39843684434890747,0.1114829033613205,-21.616485595703125,56.85471725463867,-80.9120101928711
5.409,4.110869407653809,-10.287940979003906,4.424328804016113,-0.15913039445877075,0.7849618196487427,0.1449277698993683,-20.476469039916992,56.182403564453125,-80.28353881835938
5.413,4.151546955108643,-9.396614074707031,4.516452789306641,-0.35292738676071167,0.883005678653717,0.11499537527561188,-19.789535522460938,56.197017669677734,-80.6635513305664
5.42,4.063012599945068,-9.06161880493164,4.650450706481934,-0.4407392740249634,0.8805622458457947,0.07987063378095627,-19.55568504333496,55.94855499267578,-80.7512435913086
5.43,4.7605204582214355,-8.657232284545898,4.443471431732178,-0.6505715250968933,0.8258897662162781,0.022449297830462456,-19.36568260192871,56.2993278503418,-80.12277221679688
5.44,5.771488189697266,-8.358129501342773,3.933800458908081,-0.7283040285110474,0.702189564704895,0.04398229718208313,-18.766441345214844,56.22624588012695,-80.45893096923828
5.45,6.14716100692749,-8.267202377319336,3.425325632095337,-0.6782131195068359,0.5864306092262268,0.11392636597156525,-18.751827239990234,56.75241470336914,-79.14352416992188
5.47,6.198606967926025,-8.202595710754395,3.1956145763397217,-0.5106833577156067,0.5151121020317078,0.16462817788124084,-18.43028450012207,56.372406005859375,-79.4650650024414
5.473,7.0815582275390625,-8.367700576782227,3.317648410797119,-0.19257526099681854,0.369878888130188,0.14355333149433136,-17.69950294494629,56.3577880859375,-80.59046936035156
5.48,7.621140003204346,-8.465806007385254,3.4408788681030273,-0.0682641938328743,0.2422080636024475,0.15027284622192383,-17.88950538635254,56.15317153930664,-78.82198333740234
5.49,8.71944522857666,-8.997013092041016,2.3090739250183105,0.13744467496871948,0.07024950534105301,0.22098049521446228,-17.933351516723633,56.021629333496094,-79.24583435058594
5.5,10.295119285583496,-11.139785766601562,2.667997121810913,0.43447789549827576,0.0277943667024374,0.275347501039505,-17.377958297729492,55.48085403442383,-80.67816162109375
5.51,11.797811508178711,-12.746564865112305,3.126222848892212,0.5685628056526184,-0.28008171916007996,0.29565879702568054,-17.3341121673584,55.2177734375,-80.29815673828125
5.531,10.365707397460938,-13.677373886108398,0.5814558863639832,0.4873177409172058,-0.7822129726409912,0.21639901399612427,-17.641040802001953,54.39929962158203,-81.43817901611328
5.534,7.107879161834717,-15.738790512084961,-4.423132419586182,-0.8344419598579407,-1.5942054986953735,-0.42684206366539,-17.553346633911133,54.238529205322266,-81.4235610961914
5.54,6.27876615524292,-15.358331680297852,-3.476771354675293,-1.6959145069122314,-1.9921842813491821,-0.9419541954994202,-17.59719467163086,54.39929962158203,-81.39432525634766
5.55,4.785645008087158,-12.497712135314941,-0.8422735333442688,-2.2731821537017822,-2.202932834625244,-1.3700178861618042,-19.307220458984375,55.30546951293945,-80.41508483886719
5.56,3.844069242477417,-10.348958015441895,1.4045867919921875,-2.3664917945861816,-2.018604278564453,-1.4466814994812012,-20.388774871826172,55.378543853759766,-79.14352416992188
5.57,3.8632121086120605,-9.269794464111328,3.3020951747894287,-2.3182334899902344,-1.5328136682510376,-1.4868459701538086,-21.324174880981445,56.620872497558594,-77.57965087890625
5.589,4.022334575653076,-9.067601203918457,3.7495527267456055,-2.2768473625183105,-1.0801624059677124,-1.523039698600769,-23.048816680908203,57.07395553588867,-76.41040802001953
5.593,4.201796531677246,-9.732806205749512,3.093919515609741,-2.0276143550872803,-0.7389942407608032,-1.41690194606781,-23.998830795288086,58.0970458984375,-76.14732360839844
5.6,4.254438400268555,-10.255638122558594,3.1573293209075928,-1.8409950733184814,-0.8063421249389648,-1.3964380025863647,-24.349605560302734,57.556270599365234,-75.24115753173828
5.61,4.004388809204102,-10.668399810791016,2.9204399585723877,-1.6134477853775024,-1.072068452835083,-1.4428637027740479,-25.270387649536133,58.94475555419922,-73.94036865234375
5.62,3.5712878704071045,-11.249855041503906,2.421536445617676,-1.3920091390609741,-1.398881435394287,-1.5323554277420044,-26.32271385192871,58.30166244506836,-73.53113555908203
5.63,3.504288673400879,-12.338589668273926,1.588834285736084,-1.2994630336761475,-1.7052302360534668,-1.6105461120605469,-28.003507614135742,58.0385856628418,-72.2157211303711
5.65,3.744767427444458,-13.036097526550293,0.8709874153137207,-1.3391693830490112,-1.9394971132278442,-1.64414381980896,-30.57585334777832,58.71090316772461,-71.17801666259766
5.654,4.576272964477539,-13.451251983642578,1.4309078454971313,-1.3347405195236206,-2.0980165004730225,-1.4931074380874634,-30.722009658813477,58.7547492980957,-71.26570892333984
5.66,4.839483737945557,-13.302897453308105,1.6223337650299072,-1.2738066911697388,-2.2374465465545654,-1.3350459337234497,-31.072786331176758,58.98860168457031,-70.84185791015625
5.67,5.148157596588135,-13.27538013458252,1.7324036359786987,-1.090088963508606,-2.5696043968200684,-1.1635456085205078,-33.11897277832031,59.63168716430664,-70.33030700683594
5.68,4.955535411834717,-13.63789176940918,2.4610180854797363,-0.792750358581543,-2.920393943786621,-0.9613491296768188,-33.805904388427734,58.9739875793457,-69.0879898071289
5.69,4.621737003326416,-12.786046981811523,3.2590243816375732,-0.35643988847732544,-3.40832257270813,-0.7693847417831421,-35.106693267822266,59.64630126953125,-69.64337921142578
5.709,4.310669898986816,-11.444869995117188,4.912464618682861,-0.14874568581581116,-3.8508944511413574,-1.061989188194275,-36.655948638916016,59.54399108886719,-67.69950103759766
5.713,4.29750919342041,-10.407581329345703,5.635097026824951,-0.18295413255691528,-3.843716621398926,-1.1354458332061768,-36.88979721069336,59.41244888305664,-68.13796997070312
5.72,3.6466617584228516,-10.87178897857666,6.1124653816223145,-0.43676862120628357,-3.428481101989746,-1.1884382963180542,-38.161354064941406,59.19321823120117,-66.12101745605469
5.73,3.2207393646240234,-11.058429718017578,5.7439703941345215,-0.9880744814872742,-2.5247058868408203,-1.1281154155731201,-39.24291229248047,59.51476287841797,-66.29640197753906
5.74,2.025524377822876,-9.879964828491211,4.427917957305908,-1.432478904724121,-1.5387694835662842,-0.9961684346199036,-39.60830307006836,59.16398620605469,-66.16486358642578
5.75,1.5134602785110474,-8.33898639678955,3.1094729900360107,-1.5089898109436035,-1.05404794216156,-0.9169087409973145,-40.952938079833984,59.690147399902344,-64.61560821533203
5.769,1.1521440744400024,-7.162914276123047,2.403590202331543,-1.4141530990600586,-0.8077166080474854,-0.8200865387916565,-42.19526290893555,59.8363037109375,-62.949432373046875
5.773,0.5647060871124268,-5.935396194458008,1.6522438526153564,-1.0809260606765747,-0.8284859657287598,-0.7783950567245483,-42.10757064819336,59.61707305908203,-62.64250183105469
5.78,0.12921242415905,-5.632704257965088,1.7216358184814453,-0.8729264140129089,-0.8202393054962158,-0.7780895829200745,-42.502193450927734,58.871673583984375,-61.54633331298828
5.79,0.5850450992584229,-5.4448676109313965,2.2983059883117676,-0.664315938949585,-0.8448265790939331,-0.7108944058418274,-43.7445182800293,59.92399978637695,-61.35633087158203
5.8,-0.9367900490760803,-4.506881237030029,1.9405790567398071,-0.5789475440979004,-0.8417722582817078,-0.526107668876648,-43.40835952758789,59.237064361572266,-61.4732551574707
5.81,-2.0997018814086914,-4.145565032958984,2.400001049041748,-0.5684100985527039,-0.3436116874217987,-0.5247332453727722,-43.61297607421875,59.60245895385742,-60.87401580810547
5.829,-2.26959228515625,-3.7292141914367676,2.4059829711914062,-0.6151412725448608,0.12171489745378494,-0.7067710757255554,-44.29991149902344,59.660919189453125,-60.786319732666016
5.832,-2.1068801879882812,-3.5341989994049072,2.242074728012085,-0.6276640295982361,0.1437060534954071,-0.7168503403663635,-44.051448822021484,58.98860168457031,-60.391700744628906
5.84,-1.636690616607666,-3.304487705230713,1.872383713722229,-0.6149886250495911,0.07925976812839508,-0.7137960195541382,-44.13914108276367,59.39783477783203,-59.52937698364258
5.85,-1.0995019674301147,-3.2781667709350586,1.2957134246826172,-0.5207626223564148,-0.1287398487329483,-0.6064364910125732,-45.001461029052734,59.500144958496094,-59.93861389160156
5.86,-1.3280165195465088,-3.2949166297912598,0.9738787412643433,-0.3599523603916168,-0.30466902256011963,-0.43050727248191833,-44.928382873535156,58.95936965942383,-59.96784591674805
5.87,-1.7898313999176025,-3.1381869316101074,1.0253244638442993,-0.15515977144241333,-0.3321579694747925,-0.23900103569030762,-45.60070037841797,59.456298828125,-58.9739875793457
5.889,-1.6869399547576904,-2.657229423522949,0.8865407705307007,0.3628539741039276,-0.20876319706439972,0.09911288321018219,-45.60070037841797,58.667057037353516,-58.88629150390625
5.892,-1.5960125923156738,-2.262413740158081,0.9128617644309998,0.47800207138061523,-0.10934487730264664,0.1699732542037964,-45.52762222290039,58.82782745361328,-59.09090805053711
5.9,-1.113858938217163,-2.39401912689209,0.7956134676933289,0.611934244632721,0.06322455406188965,0.27030786871910095,-45.132999420166016,58.56474685668945,-59.280914306640625
5.91,0.064606212079525,-3.018545627593994,0.13519448041915894,0.7504479885101318,0.25076019763946533,0.4011857509613037,-44.986846923828125,59.01782989501953,-59.7339973449707
5.92,1.0600204467773438,-4.012763500213623,-0.9930213689804077,0.8762862086296082,0.4242459237575531,0.5218316316604614,-44.358375549316406,58.871673583984375,-60.08477020263672
5.93,2.0721843242645264,-6.059823036193848,-2.8247268199920654,0.9370672702789307,0.7209736704826355,0.6534730792045593,-44.24144744873047,58.90090560913086,-60.23093032836914
5.949,2.025524377822876,-20.583059310913086,-17.56690788269043,-0.9132435321807861,3.6523633003234863,0.523511528968811,-43.437591552734375,58.7547492980957,-60.74247360229492
5.952,3.5330023765563965,-21.872791290283203,-19.1844539642334,-1.387580394744873,4.971374034881592,0.13377948105335236,-43.379127502441406,58.57936096191406,-60.581703186035156
5.96,14.983854293823242,-20.32942008972168,-13.412967681884766,-1.256091594696045,5.003597259521484,-0.26190847158432007,-42.41449737548828,58.4185905456543,-60.800933837890625
5.97,24.41875457763672,-19.783857345581055,-4.526023864746094,-0.41401392221450806,4.851491928100586,-0.5146539211273193,-42.078338623046875,58.95936965942383,-61.78017807006836
5.98,26.57707977294922,-19.130617141723633,-0.8135596513748169,-0.2330450862646103,2.1641428470611572,-0.9605855345726013,-41.82987594604492,58.170127868652344,-61.70710372924805
5.99,24.13041877746582,-14.520843505859375,-1.239482045173645,-0.6592763066291809,1.1044442653656006,-1.3246612548828125,-42.18064880371094,57.9947395324707,-61.98480224609375
6.009,19.150955200195312,-3.253042459487915,-3.676571846008301,-1.5121968984603882,0.9644034504890442,-0.8999572396278381,-42.77988815307617,58.40397644042969,-60.990936279296875
6.012,16.60618782043457,-0.9571290016174316,-4.107280254364014,-1.4230105876922607,0.4970915913581848,-0.6621778607368469,-42.79450607299805,58.21397399902344,-60.71324157714844
6.02,13.453644752502441,1.0325030088424683,-4.90408992767334,-1.09024178981781,-0.1463022232055664,-0.39538252353668213,-43.466819763183594,57.84858322143555,-60.289390563964844
6.03,10.786844253540039,-0.0406779870390892,-2.5914268493652344,-0.5893322229385376,-0.9230173230171204,-0.23029619455337524,-43.466819763183594,57.90704345703125,-60.52324295043945
6.04,9.025726318359375,-4.135993957519531,1.2442678213119507,-0.18325957655906677,-2.0958786010742188,-0.1365283876657486,-43.422977447509766,57.2347297668457,-60.201690673828125
6.05,7.093522548675537,-9.024530410766602,4.8777689933776855,0.6101016402244568,-3.3437235355377197,0.4024074673652649,-43.7445182800293,57.20549774169922,-59.7778434753418
6.069,0.9643074870109558,-12.272787094116211,6.199802875518799,1.5813772678375244,-2.324953079223633,1.898263692855835,-42.92604446411133,57.0154914855957,-58.71090316772461
6.073,-0.8877371549606323,-11.856435775756836,6.074179649353027,1.616349458694458,-2.0259344577789307,1.9550741910934448,-42.6045036315918,56.913185119628906,-58.4185905456543
6.08,-1.8340984582901,-11.224730491638184,5.7678985595703125,1.617876648902893,-1.302364706993103,2.0218112468719482,-42.078338623046875,57.03010559082031,-60.30400466918945
6.09,-4.429114818572998,-10.74616527557373,5.722434997558594,1.3810136318206787,-0.6038402915000916,1.8645133972167969,-40.99678421020508,57.307804107666016,-60.50862121582031
6.1,-5.304887771606445,-10.436296463012695,5.663811206817627,0.8084800839424133,0.2269364297389984,1.2777773141860962,-40.499855041503906,56.47471618652344,-61.005558013916016
6.11,-4.563112735748291,-9.68375301361084,4.139583110809326,0.3911064863204956,0.5371032357215881,0.7365507483482361,-39.91522979736328,56.25548553466797,-60.786319732666016
6.127,-3.393022298812866,-9.043672561645508,2.3270199298858643,0.2073887437582016,0.5073235630989075,0.1059851199388504,-39.593685150146484,56.46010208129883,-61.195556640625
6.131,-3.262613534927368,-9.026923179626465,2.324627161026001,0.2408336102962494,0.5474879741668701,-0.011301006190478802,-39.62291717529297,56.021629333496094,-61.648643493652344
6.14,-2.7146570682525635,-9.287740707397461,2.5399811267852783,0.30024024844169617,0.7577782869338989,-0.08246680349111557,-39.783687591552734,55.42238998413086,-61.838645935058594
6.15,-1.951346755027771,-9.739984512329102,2.93001127243042,0.38377609848976135,1.4575245380401611,0.0685696229338646,-39.85676574707031,55.393157958984375,-62.320960998535156
6.16,-0.9571290016174316,-10.0462646484375,3.1441688537597656,0.4150829017162323,2.045940399169922,0.3387247622013092,-38.97983169555664,55.173927307128906,-62.978660583496094
6.17,-0.4737788736820221,-10.097711563110352,3.0580272674560547,0.42149701714515686,2.5059218406677246,0.6082690358161926,-38.43905258178711,54.98392105102539,-62.92020034790039
6.189,0.3517449200153351,-9.945767402648926,3.2578277587890625,0.35292738676071167,2.9385671615600586,0.8903360962867737,-37.15288162231445,54.22391128540039,-64.68869018554688
6.193,0.4618147313594818,-9.90748119354248,3.2997024059295654,0.30604347586631775,2.936276435852051,0.9103419184684753,-36.43671417236328,54.6185302734375,-64.74714660644531
6.2,1.155733346939087,-9.710074424743652,3.424129009246826,0.25564709305763245,2.875648021697998,0.9109527468681335,-36.100555419921875,53.99005889892578,-65.66793060302734
6.21,2.197807550430298,-9.504291534423828,3.592823028564453,0.15454889833927155,2.447736978530884,0.9214901924133301,-35.179771423339844,54.32621765136719,-65.25869750976562
6.22,2.3748762607574463,-9.284152030944824,3.906282901763916,0.13225232064723969,2.110234022140503,0.9876163601875305,-33.995906829833984,53.69774627685547,-65.72639465332031
6.23,1.6474583148956299,-9.272187232971191,4.431507587432861,0.10613783448934555,2.1710150241851807,1.0125091075897217,-33.89359664916992,53.843902587890625,-66.77871704101562
6.245,2.5459630489349365,-8.815157890319824,4.067798614501953,0.09544768929481506,2.648864507675171,0.9531024694442749,-31.730487823486328,52.79158401489258,-66.51564025878906
6.25,3.8632121086120605,-8.707481384277344,3.786641836166382,0.11438451707363129,2.5254695415496826,0.9108000993728638,-31.540485382080078,53.0985107421875,-67.14410400390625
6.26,5.630311489105225,-8.401200294494629,3.0340988636016846,0.19120082259178162,1.913535237312317,0.8355109095573425,-30.824321746826172,51.900028228759766,-67.48026275634766
6.27,6.32542610168457,-7.562515735626221,2.449054002761841,0.32268956303596497,1.40437912940979,0.8998044729232788,-30.327388763427734,52.23618698120117,-68.03565979003906
6.28,7.086344242095947,-7.167700290679932,2.702692985534668,0.42821651697158813,1.0974193811416626,1.0490082502365112,-29.275066375732422,51.388484954833984,-67.1294937133789
6.29,7.774280071258545,-6.70588493347168,2.874976396560669,0.5038110613822937,0.8530732989311218,1.2157745361328125,-28.982751846313477,51.63694763183594,-67.3487319946289
6.303,8.316254615783691,-6.2081780433654785,4.073780536651611,0.5036584138870239,0.8972083330154419,1.4091134071350098,-28.04735565185547,51.183860778808594,-67.5533447265625
6.31,8.352147102355957,-5.881557941436768,4.094119548797607,0.42791110277175903,1.0422887802124023,1.4941763877868652,-27.316574096679688,51.11078643798828,-67.84565734863281
6.32,8.842676162719727,-5.344368934631348,3.665804386138916,0.4245513379573822,1.241125464439392,1.6551393270492554,-26.39579200744629,50.3215446472168,-67.97720336914062
6.33,7.2741804122924805,-5.0117669105529785,2.5184457302093506,0.5354233980178833,1.2710578441619873,1.6781994104385376,-25.78193473815918,49.98538589477539,-68.32797241210938
6.34,6.535995006561279,-4.88853645324707,1.5852450132369995,0.9028587937355042,1.455844521522522,1.4388929605484009,-24.656532287597656,49.649227142333984,-68.56182098388672
6.358,6.533601760864258,-4.774877548217773,1.361515998840332,1.3461942672729492,1.5859588384628296,1.1911872625350952,-23.881906509399414,49.590763092041016,-68.78105926513672
6.362,6.86261510848999,-4.914857387542725,1.6737794876098633,1.8301522731781006,1.647045373916626,0.9996809363365173,-22.94650650024414,49.283836364746094,-69.5556869506836
6.37,6.524030685424805,-5.4556355476379395,1.8975082635879517,2.0896172523498535,1.525635838508606,0.8904888033866882,-22.44957733154297,49.020755767822266,-70.40338897705078
6.38,6.729813575744629,-5.777470111846924,1.746760368347168,2.2794435024261475,1.3211487531661987,0.824362576007843,-22.157264709472656,47.500728607177734,-71.26570892333984
6.39,6.129214763641357,-6.659224987030029,1.384247899055481,2.5109615325927734,1.0453431606292725,0.8142833113670349,-21.397253036499023,47.544578552246094,-72.28880310058594
6.4,5.5692949295043945,-7.630711555480957,1.4237295389175415,2.7594308853149414,0.8396342396736145,0.7513642311096191,-20.724933624267578,46.03916931152344,-72.47880554199219
6.419,5.296512603759766,-8.48614501953125,1.2203395366668701,3.087160348892212,0.5542075037956238,0.626136839389801,-20.46185302734375,45.995323181152344,-73.61882019042969
6.423,4.218545913696289,-9.92303466796875,0.7393822073936462,3.383735179901123,0.38438695669174194,0.437226802110672,-20.169540405273438,44.577606201171875,-74.890380859375
6.43,0.19262221455574036,-16.7198486328125,-11.906685829162598,3.190701961517334,1.008844017982483,0.25473082065582275,-20.2718505859375,44.12452697753906,-74.39344787597656
6.44,1.683350682258606,-19.92024803161621,-5.550151824951172,1.0699304342269897,0.2817615866661072,-0.06291911751031876,-19.64337921142578,43.11604690551758,-76.55656433105469
6.45,3.267399311065674,-14.554343223571777,1.210768222808838,-0.40805795788764954,-0.3245221674442291,-0.27809640765190125,-20.257234573364258,43.247589111328125,-76.32270812988281
6.46,3.8081772327423096,-10.692327499389648,3.6466617584228516,-0.8054258227348328,-0.12980885803699493,-0.15073098242282867,-19.99415397644043,43.20374298095703,-75.54808044433594
6.478,4.29033088684082,-9.315258026123047,3.0245277881622314,-0.6583600044250488,0.29825496673583984,-0.029016099870204926,-19.7310733795166,43.7445182800293,-75.81116485595703
6.482,4.53200626373291,-8.672784805297852,3.7220354080200195,-0.413555771112442,0.5560400485992432,-0.05497787147760391,-20.315698623657227,42.867584228515625,-75.6942367553711
6.49,5.167300701141357,-8.653642654418945,4.179064750671387,-0.389426589012146,0.5303837656974792,-0.08078692108392715,-20.09646224975586,43.057586669921875,-74.56884002685547
6.5,5.96889591217041,-8.636893272399902,4.4027934074401855,-0.47280970215797424,0.3312416672706604,-0.03084869496524334,-19.935691833496094,42.47296142578125,-74.53960418701172
6.51,6.240480899810791,-8.488537788391113,4.2006001472473145,-0.5522221326828003,0.012064589187502861,0.09819658100605011,-20.125694274902344,43.08681869506836,-74.65653228759766
6.52,6.588636875152588,-8.301898002624512,3.893122434616089,-0.5381722450256348,-0.20876319706439972,0.17470745742321014,-20.491085052490234,42.838348388671875,-75.19731140136719
6.539,6.936792850494385,-8.530412673950195,3.772284984588623,-0.42577308416366577,-0.33368512988090515,0.20494529604911804,-20.681087493896484,42.53142547607422,-74.2472915649414
6.543,7.609175682067871,-8.97667407989502,3.462414264678955,-0.1420261561870575,-0.21624629199504852,0.2073887437582016,-20.257234573364258,42.77988815307617,-74.8465347290039
6.55,7.897511005401611,-9.111868858337402,3.4480574131011963,0.049785517156124115,-0.07483098655939102,0.19837848842144012,-20.37415885925293,42.882198333740234,-74.97808074951172
6.56,8.428717613220215,-9.119047164916992,3.4636106491088867,0.25305092334747314,0.054825153201818466,0.16340644657611847,-20.344928741455078,42.049110412597656,-74.75884246826172
6.57,8.368897438049316,-9.166903495788574,2.940778970718384,0.4418082535266876,0.006566801108419895,0.11163561791181564,-20.841859817504883,42.47296142578125,-74.70037841796875
6.58,5.2283172607421875,-12.190234184265137,-3.019742250442505,0.704022228717804,0.5361869931221008,-0.0039706239476799965,-20.754165649414062,41.59602355957031,-74.40806579589844
6.598,8.321040153503418,-17.447265625,-2.660818576812744,0.12522737681865692,0.637132465839386,-0.14095714688301086,-21.09032440185547,41.698333740234375,-75.109619140625
6.604,9.93140983581543,-16.65165138244629,-0.7657032608985901,-1.82404363155365,-0.8251261711120605,-0.32528576254844666,-21.134170532226562,42.01987838745117,-74.32037353515625
6.61,9.181260108947754,-15.187244415283203,-1.3411771059036255,-2.1649065017700195,-1.178359031677246,-0.40225476026535034,-21.54340934753418,42.253726959228516,-73.51651763916016
6.62,7.531408786773682,-12.242877006530762,-1.5708880424499512,-2.428952932357788,-1.779908537864685,-0.6330090761184692,-21.908798217773438,42.57527160644531,-73.56036376953125
6.63,5.042873382568359,-9.979266166687012,-0.6029912829399109,-2.5955662727355957,-2.023643732070923,-0.9002626538276672,-23.531131744384766,43.11604690551758,-72.82958221435547
6.64,3.806980848312378,-9.153742790222168,0.1256231814622879,-2.6555838584899902,-2.154827117919922,-1.2893837690353394,-24.39345359802246,43.04296875,-72.4349594116211
6.659,3.610769271850586,-8.892925262451172,1.4632110595703125,-2.4694228172302246,-2.2009475231170654,-1.6215417385101318,-25.957321166992188,44.0806770324707,-70.72493743896484
6.663,3.94815731048584,-8.449056625366211,3.1968109607696533,-2.071902275085449,-1.754404902458191,-1.6430747509002686,-27.886581420898438,44.46068572998047,-69.84799194335938
6.67,3.6849467754364014,-8.461020469665527,3.676571846008301,-1.8610010147094727,-1.4663820266723633,-1.5888605117797852,-28.953521728515625,44.76761245727539,-69.45337677001953
6.68,3.8727831840515137,-9.028119087219238,3.968496322631836,-1.5949691534042358,-1.2544116973876953,-1.5347988605499268,-29.961999893188477,44.738380432128906,-68.47412872314453
6.69,4.431507587432861,-9.796216011047363,3.7567315101623535,-1.3753629922866821,-1.356884479522705,-1.5025757551193237,-31.175094604492188,45.26454162597656,-66.8371810913086
6.7,4.60020112991333,-10.72582721710205,3.5736804008483887,-1.1775954961776733,-1.6701055765151978,-1.4833334684371948,-32.066646575927734,45.0599250793457,-67.62641906738281
6.719,4.6432719230651855,-12.068201065063477,3.6011979579925537,-1.013272762298584,-1.923156499862671,-1.4581352472305298,-34.52206802368164,44.69453430175781,-65.66793060302734
6.723,5.004588603973389,-15.119049072265625,2.031506299972534,-1.0603092908859253,-2.0557143688201904,-1.2690725326538086,-34.989768981933594,45.191463470458984,-65.36100769042969
6.73,4.967499732971191,-15.643077850341797,1.0480562448501587,-1.1873693466186523,-2.0865628719329834,-1.2021827697753906,-35.74978256225586,45.176849365234375,-64.76176452636719
6.74,5.319244384765625,-16.1910343170166,0.7573283314704895,-1.2521209716796875,-2.2230913639068604,-1.2021827697753906,-36.275943756103516,45.29377365112305,-63.41712951660156
6.75,7.470392227172852,-14.514861106872559,0.26919254660606384,-0.9187412858009338,-2.7282769680023193,-1.1074986457824707,-37.299034118652344,46.1414794921875,-63.18327713012695
