time,accel_x,accel_y,accel_z,gyro_x,gyro_y,gyro_z,mag_x,mag_y,mag_z
0.0,114.1555404663086,61.67463684082031,0.49799394607543945,-3.4640121459960938,-5.995405673980713,0.6661561727523804,-35.400001525878906,-14.850000381469727,18.150001525878906
0.01,70.6385269165039,30.722396850585938,14.518439292907715,-4.396630764007568,-1.4655436277389526,0.1332312375307083,-33.0,-16.200000762939453,18.75
0.02,69.9489974975586,29.611486434936523,13.48414421081543,4.929555892944336,-6.794793128967285,-3.3307809829711914,-34.20000076293945,-16.350000381469727,18.900001525878906
0.03,71.55789947509766,30.0711727142334,14.326903343200684,-6.128636837005615,2.398162364959717,-7.72741174697876,-34.20000076293945,-16.350000381469727,18.900001525878906
0.04,71.71112823486328,28.040889739990234,13.713987350463867,0.39969372749328613,-2.9310872554779053,-9.459418296813965,-33.900001525878906,-15.90000057220459,19.950000762939453
0.059,70.14053344726562,28.38565444946289,13.943830490112305,3.597243309020996,-5.329249382019043,-5.462480545043945,-33.900001525878906,-16.350000381469727,19.650001525878906
0.062,70.6385269165039,27.044902801513672,14.901511192321777,-2.6646246910095215,7.327718257904053,-4.663093090057373,-34.80000305175781,-16.5,19.05000114440918
0.07,70.98329162597656,26.393678665161133,14.824896812438965,-2.2649309635162354,2.6646246910095215,-3.3307809829711914,-34.80000305175781,-16.5,19.05000114440918
0.08,69.83407592773438,26.54690933227539,14.97812557220459,0.39969372749328613,-4.130168437957764,4.796324729919434,-34.80000305175781,-16.5,19.05000114440918
0.09,70.83006286621094,27.696125030517578,15.514427185058594,-2.797856092453003,0.6661561727523804,-9.459418296813965,-33.150001525878906,-17.100000381469727,18.450000762939453
0.1,70.21714782714844,28.423961639404297,15.705963134765625,-6.794793128967285,3.197549819946289,-1.4655436277389526,-33.45000076293945,-16.350000381469727,19.200000762939453
0.119,70.44699096679688,29.15180015563965,15.820884704589844,-1.8652373552322388,-0.5329249501228333,1.8652373552322388,-33.900001525878906,-15.600000381469727,17.700000762939453
0.122,72.20912170410156,27.77273941040039,15.322891235351562,7.06125545501709,-2.797856092453003,5.196018218994141,-33.30000305175781,-15.750000953674316,19.80000114440918
0.13,71.8260498046875,27.925968170166016,15.514427185058594,-3.7304747104644775,11.058192253112793,0.7993874549865723,-33.30000305175781,-15.750000953674316,19.80000114440918
0.14,71.44297790527344,27.27474594116211,15.820884704589844,-9.192955017089844,11.990811347961426,-1.1990811824798584,-34.5,-15.750000953674316,19.05000114440918
0.15,70.6002197265625,27.542896270751953,14.556746482849121,4.130168437957764,1.5987749099731445,3.4640121459960938,-34.05000305175781,-16.200000762939453,16.80000114440918
0.16,71.13652038574219,27.351360321044922,14.250288963317871,-1.0658499002456665,-2.6646246910095215,6.261868000030518,-34.650001525878906,-15.90000057220459,18.150001525878906
0.179,70.21714782714844,27.964275360107422,14.633360862731934,-9.859111785888672,6.128636837005615,-0.9326186776161194,-33.30000305175781,-16.200000762939453,18.0
0.182,71.40467071533203,28.61549949645996,14.480132102966309,-1.4655436277389526,-0.7993874549865723,-0.7993874549865723,-33.30000305175781,-16.200000762939453,18.0
0.19,70.83006286621094,29.803022384643555,14.211980819702148,-4.929555892944336,0.9326186776161194,-4.396630764007568,-33.30000305175781,-16.200000762939453,18.0
0.2,71.2514419555664,30.032865524291992,14.250288963317871,-9.059723854064941,10.125574111938477,2.531393527984619,-34.20000076293945,-15.15000057220459,18.450000762939453
0.21,71.13652038574219,30.032865524291992,14.211980819702148,-7.9938740730285645,5.462480545043945,-11.457886695861816,-33.75,-15.750000953674316,18.75
0.22,70.86837005615234,29.266721725463867,13.828908920288086,-3.197549819946289,-2.9310872554779053,-0.7993874549865723,-34.650001525878906,-16.80000114440918,19.200000762939453
0.239,70.40868377685547,28.423961639404297,14.020444869995117,0.39969372749328613,9.859111785888672,-9.192955017089844,-34.650001525878906,-16.80000114440918,19.200000762939453
0.242,71.1748275756836,27.88766098022461,14.901511192321777,-0.1332312375307083,8.39356803894043,2.6646246910095215,-34.05000305175781,-15.450000762939453,19.05000114440918
0.25,71.94097137451172,26.96828842163086,14.748282432556152,5.728943347930908,-1.7320060729980469,7.06125545501709,-33.150001525878906,-15.15000057220459,18.900001525878906
0.26,71.13652038574219,27.044902801513672,14.633360862731934,0.7993874549865723,-8.260336875915527,-0.39969372749328613,-32.55000305175781,-16.950000762939453,19.05000114440918
0.27,71.09821319580078,27.27474594116211,14.480132102966309,1.0658499002456665,1.5987749099731445,-7.460949420928955,-35.25,-15.000000953674316,19.05000114440918
0.28,71.09821319580078,27.811046600341797,15.705963134765625,-7.72741174697876,1.7320060729980469,-7.9938740730285645,-35.25,-15.000000953674316,19.05000114440918
0.299,70.94498443603516,28.347347259521484,15.399505615234375,1.3323123455047607,-8.260336875915527,-0.2664624750614166,-34.20000076293945,-15.600000381469727,18.900001525878906
0.303,70.6385269165039,29.4582576751709,14.824896812438965,5.196018218994141,3.7304747104644775,6.395099639892578,-33.30000305175781,-16.5,17.25
0.31,70.0256118774414,28.998571395874023,15.24627685546875,-6.128636837005615,8.926492691040039,-8.260336875915527,-34.05000305175781,-16.200000762939453,18.75
0.32,70.40868377685547,28.270732879638672,16.318878173828125,5.196018218994141,4.396630764007568,3.0643184185028076,-35.25,-15.450000762939453,17.55000114440918
0.33,71.2514419555664,27.811046600341797,16.58702850341797,3.7304747104644775,3.86370587348938,-2.2649309635162354,-35.25,-15.450000762939453,17.55000114440918
0.34,70.83006286621094,27.121517181396484,15.744270324707031,1.3323123455047607,12.523736000061035,-1.7320060729980469,-33.30000305175781,-16.5,18.30000114440918
0.36,68.7231674194336,26.96828842163086,15.399505615234375,4.929555892944336,11.191424369812012,-5.995405673980713,-33.900001525878906,-15.600000381469727,19.200000762939453
0.363,69.87238311767578,28.309040069580078,14.020444869995117,9.72588062286377,19.185298919677734,-4.796324729919434,-33.75,-16.200000762939453,18.0
0.37,68.68486022949219,27.58120346069336,13.10107135772705,8.260336875915527,17.053598403930664,-6.5283308029174805,-33.0,-15.450000762939453,20.100000381469727
0.38,70.6385269165039,28.577192306518555,12.756306648254395,6.661561965942383,20.517610549926758,-9.592649459838867,-33.0,-15.450000762939453,20.100000381469727
0.39,71.1748275756836,28.53888511657715,12.564770698547363,15.188361167907715,16.65390396118164,-1.3323123455047607,-34.05000305175781,-15.750000953674316,19.5
0.4,71.59620666503906,28.692113876342773,11.875240325927734,9.859111785888672,19.185298919677734,-4.396630764007568,-33.30000305175781,-17.700000762939453,20.100000381469727
0.412,69.83407592773438,28.8453426361084,10.381258964538574,17.453292846679688,14.255742073059082,-12.390504837036133,-34.05000305175781,-15.450000762939453,19.80000114440918
0.42,68.07194519042969,28.002582550048828,6.89530086517334,29.84379768371582,5.8621745109558105,-9.459418296813965,-33.45000076293945,-15.90000057220459,18.450000762939453
0.43,69.18285369873047,26.2021427154541,4.750096321105957,33.30780792236328,-3.0643184185028076,-17.186830520629883,-33.45000076293945,-15.90000057220459,18.450000762939453
0.44,71.59620666503906,25.359384536743164,3.5625722408294678,26.113323211669922,-4.130168437957764,-26.379785537719727,-33.150001525878906,-15.600000381469727,18.150001525878906
0.45,75.2737045288086,25.435998916625977,6.971915245056152,16.920366287231445,-12.124042510986328,-25.04747200012207,-34.650001525878906,-15.600000381469727,18.900001525878906
0.46,78.68304443359375,22.83110809326172,9.691728591918945,13.456355094909668,-23.98162269592285,-14.788667678833008,-34.650001525878906,-15.15000057220459,18.900001525878906
0.476,77.07414245605469,20.494365692138672,13.867216110229492,-16.65390396118164,-32.37519073486328,-25.447166442871094,-34.80000305175781,-15.450000762939453,19.05000114440918
0.48,74.16278839111328,19.574993133544922,17.238252639770508,-28.511484146118164,-36.771820068359375,-19.85145378112793,-34.80000305175781,-15.450000762939453,19.05000114440918
0.49,74.92893981933594,20.187908172607422,16.433799743652344,-43.03369140625,-35.972434997558594,-20.784072875976562,-34.80000305175781,-15.450000762939453,19.05000114440918
0.5,73.12849426269531,22.06496238708496,17.085023880004883,-49.16232681274414,-37.304744720458984,-12.790199279785156,-34.05000305175781,-16.200000762939453,19.80000114440918
0.51,71.32805633544922,24.631547927856445,15.322891235351562,-49.96171569824219,-30.776416778564453,-17.986217498779297,-33.30000305175781,-14.250000953674316,18.75
0.528,70.94498443603516,26.700138092041016,14.939818382263184,-41.568145751953125,-24.248085021972656,-11.191424369812012,-34.20000076293945,-14.100000381469727,19.200000762939453
0.532,70.29376220703125,28.423961639404297,13.10107135772705,-32.90811538696289,-3.4640121459960938,-5.062787055969238,-34.05000305175781,-14.550000190734863,18.0
0.54,69.10623931884766,29.64979362487793,11.836933135986328,-32.77488327026367,-1.8652373552322388,6.261868000030518,-34.05000305175781,-14.550000190734863,18.0
0.55,69.3743896484375,29.879636764526367,11.875240325927734,-33.97396469116211,12.523736000061035,-0.6661561727523804,-34.20000076293945,-15.90000057220459,18.900001525878906
0.56,69.4126968383789,29.075185775756836,12.181697845458984,-31.842266082763672,21.983154296875,-0.5329249501228333,-33.75,-16.950000762939453,18.75
0.57,70.29376220703125,28.040889739990234,13.139378547668457,-32.64165496826172,9.459418296813965,5.8621745109558105,-33.45000076293945,-15.15000057220459,17.700000762939453
0.58,69.75746154785156,27.849353790283203,13.139378547668457,-44.09954071044922,20.517610549926758,-4.263399600982666,-34.5,-16.950000762939453,18.75
0.592,71.36636352539062,27.121517181396484,13.599065780639648,-47.9632453918457,15.588054656982422,-1.9984685182571411,-34.5,-16.950000762939453,18.75
0.6,72.70711517333984,29.879636764526367,13.292608261108398,-51.027565002441406,5.196018218994141,-2.398162364959717,-33.45000076293945,-15.90000057220459,18.150001525878906
0.61,71.63451385498047,29.84132957458496,12.22000503540039,-56.62327575683594,4.130168437957764,-5.196018218994141,-33.45000076293945,-14.850000381469727,19.950000762939453
0.62,69.4126968383789,29.994558334350586,11.836933135986328,-72.61102294921875,9.859111785888672,-5.196018218994141,-34.05000305175781,-14.250000953674316,19.05000114440918
0.63,67.88040924072266,31.90991973876953,11.070788383483887,-69.01377868652344,-6.661561965942383,-6.9280242919921875,-34.5,-15.750000953674316,19.05000114440918
0.649,67.76548767089844,31.29700469970703,8.236053466796875,-63.018375396728516,-9.192955017089844,-0.6661561727523804,-34.5,-15.750000953674316,19.05000114440918
0.653,67.26749420166016,31.7183837890625,4.6734819412231445,-37.70444107055664,-11.191424369812012,-0.1332312375307083,-33.75,-16.200000762939453,19.5
0.66,66.19488525390625,28.960264205932617,1.9153614044189453,-24.11485481262207,-3.0643184185028076,-1.4655436277389526,-33.75,-14.550000190734863,18.75
0.67,65.42874145507812,28.500577926635742,1.2258312702178955,11.324655532836914,-7.327718257904053,21.050535202026367,-35.400001525878906,-16.350000381469727,17.100000381469727
0.68,68.83808898925781,28.462270736694336,4.596867084503174,28.77794647216797,-10.392036437988281,37.304744720458984,-34.650001525878906,-15.600000381469727,17.700000762939453
0.69,70.25545501708984,30.79901123046875,10.228029251098633,29.7105655670166,-2.6646246910095215,42.633995056152344,-34.650001525878906,-15.600000381469727,17.700000762939453
0.709,73.54987335205078,32.44622039794922,14.020444869995117,30.643184661865234,-11.724349021911621,49.69525146484375,-33.75,-16.200000762939453,18.75
0.713,75.2737045288086,35.204341888427734,17.92778205871582,25.18070411682129,-4.263399600982666,47.163856506347656,-34.80000305175781,-16.950000762939453,17.55000114440918
0.72,74.77571105957031,37.08139419555664,19.268535614013672,25.580398559570312,-4.130168437957764,55.15773391723633,-34.95000076293945,-17.100000381469727,18.150001525878906
0.73,71.90266418457031,37.19631576538086,19.153614044189453,20.91730499267578,-4.263399600982666,41.568145751953125,-34.20000076293945,-16.350000381469727,18.900001525878906
0.74,66.9227294921875,36.736629486083984,17.046716690063477,25.18070411682129,-9.992342948913574,36.771820068359375,-34.20000076293945,-16.350000381469727,18.900001525878906
0.75,62.51739501953125,36.8132438659668,15.897499084472656,25.980091094970703,-11.591117858886719,26.113323211669922,-34.05000305175781,-16.950000762939453,17.25
0.769,59.41450881958008,38.115692138671875,15.399505615234375,15.188361167907715,3.7304747104644775,14.788667678833008,-33.900001525878906,-17.100000381469727,18.450000762939453
0.773,60.7935676574707,38.115692138671875,15.514427185058594,8.127105712890625,11.457886695861816,8.926492691040039,-33.150001525878906,-17.850000381469727,17.100000381469727
0.78,62.977081298828125,39.26490783691406,17.697938919067383,7.860642910003662,6.9280242919921875,20.251148223876953,-32.55000305175781,-18.150001525878906,18.0
0.79,64.66259765625,38.80522155761719,18.502389907836914,-13.989279747009277,25.846860885620117,2.398162364959717,-32.55000305175781,-18.150001525878906,18.0
0.8,67.26749420166016,38.57537841796875,19.49837875366211,-14.12251091003418,30.90964698791504,-5.062787055969238,-33.0,-18.900001525878906,20.100000381469727
0.81,66.76950073242188,36.58340072631836,19.80483627319336,-8.660030364990234,38.90352249145508,0.5329249501228333,-32.70000076293945,-19.5,17.700000762939453
0.829,66.30980682373047,33.32728576660156,18.310853958129883,-5.062787055969238,45.831546783447266,4.929555892944336,-35.400001525878906,-17.55000114440918,18.150001525878906
0.833,65.65858459472656,30.415939331054688,17.046716690063477,-0.39969372749328613,68.21439361572266,9.859111785888672,-34.05000305175781,-18.150001525878906,18.30000114440918
0.84,65.50535583496094,28.998571395874023,19.460071563720703,-3.4640121459960938,71.14547729492188,8.260336875915527,-34.05000305175781,-18.150001525878906,18.30000114440918
0.85,66.27149963378906,27.811046600341797,18.88546371459961,0.1332312375307083,79.67227935791016,22.249616622924805,-34.05000305175781,-18.150001525878906,18.30000114440918
0.86,66.80780792236328,28.38565444946289,19.80483627319336,-2.797856092453003,92.59571075439453,9.326186180114746,-33.75,-17.700000762939453,19.80000114440918
0.87,66.9227294921875,29.266721725463867,19.728221893310547,-7.06125545501709,99.12403869628906,13.722817420959473,-34.95000076293945,-18.75,19.200000762939453
0.889,67.34410858154297,28.692113876342773,19.919757843017578,-7.72741174697876,97.25880432128906,23.182235717773438,-34.5,-18.900001525878906,20.850000381469727
0.893,66.61626434326172,32.676063537597656,18.4257755279541,-19.31852912902832,120.4410400390625,26.912710189819336,-34.20000076293945,-17.850000381469727,21.150001525878906
0.9,66.4630355834961,34.9744987487793,16.931795120239258,-17.986217498779297,120.4410400390625,29.31087303161621,-34.20000076293945,-17.850000381469727,21.150001525878906
0.91,67.22918701171875,36.46847915649414,15.054739952087402,-14.92189884185791,128.96783447265625,42.76722717285156,-33.45000076293945,-19.5,21.450000762939453
0.92,64.77751922607422,36.621707916259766,12.411541938781738,-5.062787055969238,141.4915771484375,69.4134750366211,-33.0,-18.900001525878906,22.80000114440918
0.93,64.31783294677734,38.230613708496094,7.7763671875,-17.986217498779297,172.6676788330078,56.49004364013672,-34.05000305175781,-18.900001525878906,23.100000381469727
0.95,64.73921203613281,36.88985824584961,-8.389283180236816,2.6646246910095215,174.39968872070312,55.4241943359375,-33.150001525878906,-20.25,22.950000762939453
0.954,67.4973373413086,37.46446990966797,-10.955866813659668,53.42572784423828,101.2557373046875,65.41653442382812,-31.80000114440918,-20.850000381469727,24.150001525878906
0.96,70.79175567626953,36.430171966552734,-0.1149216815829277,48.49617004394531,73.0107192993164,53.159263610839844,-31.80000114440918,-20.850000381469727,24.150001525878906
0.97,68.99131774902344,35.28095626831055,4.443638324737549,16.65390396118164,38.63705825805664,42.500762939453125,-33.30000305175781,-20.100000381469727,25.350000381469727
0.98,69.52761840820312,34.782962799072266,11.30063247680664,-21.050535202026367,21.183767318725586,40.635528564453125,-32.400001525878906,-20.55000114440918,25.500001907348633
0.99,67.03765106201172,34.01681900024414,15.476119995117188,-68.08116149902344,15.45482349395752,30.37672233581543,-30.450000762939453,-21.0,25.500001907348633
1.009,65.42874145507812,35.74064254760742,17.697938919067383,-85.93415069580078,28.24502182006836,9.72588062286377,-30.450000762939453,-21.0,25.500001907348633
1.013,63.85814666748047,37.617698669433594,15.552734375,-85.80091857910156,38.50382614135742,16.12097930908203,-32.55000305175781,-20.850000381469727,25.650001525878906
1.02,63.589996337890625,40.682273864746094,14.173673629760742,-72.34455871582031,42.76722717285156,21.316997528076172,-32.55000305175781,-20.850000381469727,25.650001525878906
1.03,62.93877410888672,41.10365295410156,14.863204002380371,-70.07962799072266,51.82695007324219,25.580398559570312,-31.500001907348633,-19.650001525878906,26.100000381469727
1.04,59.83588790893555,39.18829345703125,18.732234954833984,-73.14395141601562,62.35221862792969,18.78560447692871,-31.80000114440918,-20.850000381469727,26.100000381469727
1.05,59.37620162963867,37.77092742919922,23.290794372558594,-64.21745300292969,40.9019889831543,11.058192253112793,-31.80000114440918,-20.850000381469727,26.100000381469727
1.069,58.99312973022461,36.430171966552734,27.925968170166016,-64.75038146972656,26.912710189819336,6.261868000030518,-32.55000305175781,-22.350000381469727,26.400001525878906
1.073,59.49112319946289,33.05913543701172,27.964275360107422,-91.79632568359375,24.914241790771484,-8.127105712890625,-31.950000762939453,-21.0,27.30000114440918
1.08,64.58598327636719,29.34333610534668,29.611486434936523,-108.18376159667969,25.18070411682129,-6.261868000030518,-31.950000762939453,-21.0,27.30000114440918
1.09,67.80379486083984,28.73042106628418,31.29700469970703,-116.57733154296875,15.055130004882812,-9.992342948913574,-31.950000762939453,-21.75,28.05000114440918
1.1,74.6990966796875,26.43198585510254,31.373619079589844,-128.03521728515625,35.03981399536133,-25.447166442871094,-31.950000762939453,-21.75,28.05000114440918
1.11,78.79796600341797,24.44001007080078,27.198131561279297,-119.90811157226562,56.22358322143555,-24.914241790771484,-30.900001525878906,-22.950000762939453,27.30000114440918
1.129,85.69326782226562,22.026655197143555,21.720197677612305,-93.52832794189453,84.73506927490234,-7.06125545501709,-30.30000114440918,-23.55000114440918,26.850000381469727
1.132,101.39923095703125,25.129541397094727,11.377246856689453,-39.43644714355469,139.89280700683594,24.248085021972656,-32.70000076293945,-22.950000762939453,27.750001907348633
1.14,101.16938781738281,26.66183090209961,12.22000503540039,-3.9969370365142822,137.49464416503906,50.62786865234375,-32.70000076293945,-22.950000762939453,27.750001907348633
1.15,98.18142700195312,34.13174057006836,20.41775131225586,-2.131699800491333,89.5313949584961,85.4012222290039,-31.80000114440918,-25.05000114440918,28.650001525878906
1.16,91.59258270263672,41.67826461791992,24.861391067504883,-33.30780792236328,22.915773391723633,94.46094512939453,-31.650001525878906,-24.150001525878906,29.55000114440918
1.17,86.42110443115234,48.91832733154297,21.75850486755371,-85.80091857910156,-18.2526798248291,76.34149932861328,-31.05000114440918,-22.80000114440918,28.200000762939453
1.189,84.42913055419922,61.29156494140625,21.14558982849121,-122.43950653076172,-61.68606185913086,57.689125061035156,-29.400001525878906,-22.5,28.500001907348633
1.192,86.38279724121094,72.09420013427734,24.78477668762207,-95.9264907836914,-96.8591079711914,31.575803756713867,-29.250001907348633,-25.80000114440918,28.200000762939453
1.2,91.4393539428711,86.22956848144531,18.272546768188477,-52.89280319213867,-102.18836212158203,38.77029037475586,-29.250001907348633,-25.80000114440918,28.200000762939453
1.21,93.16317749023438,93.31640625,12.7946138381958,5.062787055969238,-64.3506851196289,24.781009674072266,-30.000001907348633,-27.450000762939453,28.200000762939453
1.22,90.97966766357422,90.86474609375,-0.5746083855628967,70.47932434082031,-35.03981399536133,-20.650842666625977,-30.450000762939453,-27.150001525878906,27.750001907348633
1.23,83.7012939453125,75.73339080810547,-21.6818904876709,180.3950958251953,-40.502296447753906,-66.882080078125,-30.150001525878906,-26.850000381469727,28.05000114440918
1.249,82.66699981689453,66.34811401367188,-23.099258422851562,211.5712127685547,-90.73047637939453,-110.04900360107422,-30.30000114440918,-26.55000114440918,27.450000762939453
1.252,88.98768615722656,39.456443786621094,11.453861236572266,173.6002960205078,-175.59877014160156,-136.16232299804688,-30.30000114440918,-26.55000114440918,27.450000762939453
1.26,87.53201293945312,35.16603469848633,15.169661521911621,143.75650024414062,-206.6416473388672,-130.1669158935547,-29.250001907348633,-25.05000114440918,28.200000762939453
1.27,87.30216979980469,27.006595611572266,14.633360862731934,138.2940216064453,-250.87442016601562,-138.42726135253906,-31.80000114440918,-22.80000114440918,27.900001525878906
1.28,82.74361419677734,19.19192123413086,1.9153614044189453,156.28024291992188,-279.9188232421875,-133.76416015625,-31.950000762939453,-22.200000762939453,27.30000114440918
1.29,77.53382873535156,17.085023880004883,-13.10107135772705,150.151611328125,-319.4884948730469,-124.03828430175781,-31.05000114440918,-22.350000381469727,26.400001525878906
1.309,67.45903015136719,16.70195198059082,-16.855180740356445,154.0153045654297,-359.32464599609375,-148.68606567382812,-33.30000305175781,-21.900001525878906,23.850000381469727
1.312,59.37620162963867,20.30282974243164,-4.022258758544922,165.73965454101562,-353.595703125,-154.14854431152344,-33.30000305175781,-21.900001525878906,23.850000381469727
1.32,59.29958724975586,23.252487182617188,-0.1149216815829277,193.45175170898438,-328.5482177734375,-153.882080078125,-33.0,-22.350000381469727,24.150001525878906
1.33,59.950809478759766,27.46628189086914,10.266336441040039,222.89585876464844,-294.0413513183594,-135.4961700439453,-33.150001525878906,-20.55000114440918,22.5
1.34,61.90447998046875,29.190107345581055,20.494365692138672,247.67686462402344,-246.74424743652344,-120.30780792236328,-34.20000076293945,-20.25,20.700000762939453
1.35,68.1868667602539,28.040889739990234,25.550920486450195,260.3338317871094,-187.98927307128906,-101.9218978881836,-34.20000076293945,-20.25,20.700000762939453
1.369,77.53382873535156,29.879636764526367,24.13355255126953,295.3736572265625,-138.02755737304688,-83.13629150390625,-34.20000076293945,-20.55000114440918,18.900001525878906
1.373,100.17340087890625,37.809234619140625,25.89568519592285,285.1148376464844,-67.814697265625,-80.20520782470703,-34.650001525878906,-19.05000114440918,21.150001525878906
1.38,104.08073425292969,42.02302932739258,25.435998916625977,280.98468017578125,-41.434913635253906,-71.2787094116211,-33.45000076293945,-19.05000114440918,20.700000762939453
1.39,110.32481384277344,46.77312469482422,24.89969825744629,255.9372100830078,-50.62786865234375,-70.61255645751953,-34.95000076293945,-20.55000114440918,21.75
1.4,116.87535095214844,52.02121353149414,22.869415283203125,223.9617156982422,-130.30015563964844,-84.06890869140625,-34.95000076293945,-20.55000114440918,21.75
1.41,115.68782806396484,51.82967758178711,18.579004287719727,178.39662170410156,-191.0535888671875,-130.56661987304688,-33.150001525878906,-18.30000114440918,20.700000762939453
1.425,103.65935516357422,50.91030502319336,12.29662036895752,148.95252990722656,-179.72894287109375,-193.05206298828125,-35.400001525878906,-18.75,21.150001525878906
1.43,88.18323516845703,51.29337692260742,7.354987621307373,146.9540557861328,-168.80397033691406,-182.92648315429688,-34.95000076293945,-16.80000114440918,19.950000762939453
1.44,84.08436584472656,48.88002014160156,9.84495735168457,114.44563293457031,-160.01071166992188,-178.92955017089844,-35.55000305175781,-17.400001525878906,19.05000114440918
1.45,82.97345733642578,37.08139419555664,16.548721313476562,86.3338394165039,-174.26646423339844,-168.0045928955078,-35.55000305175781,-17.400001525878906,19.05000114440918
1.46,79.94718170166016,28.309040069580078,17.238252639770508,81.8039779663086,-161.6094970703125,-176.6646270751953,-36.30000305175781,-16.200000762939453,19.5
1.47,73.16680145263672,19.268535614013672,15.667655944824219,72.34455871582031,-162.40887451171875,-156.94639587402344,-34.95000076293945,-14.40000057220459,19.950000762939453
1.488,66.57795715332031,15.437812805175781,15.974113464355469,30.37672233581543,-142.29095458984375,-120.17457580566406,-36.150001525878906,-14.850000381469727,18.150001525878906
1.492,48.037261962890625,4.098873138427734,16.58702850341797,29.577335357666016,-140.82542419433594,-116.9770278930664,-36.150001525878906,-14.850000381469727,18.150001525878906
1.5,45.12591552734375,2.7964274883270264,11.990161895751953,33.57427215576172,-134.03062438964844,-107.78407287597656,-36.150001525878906,-14.850000381469727,18.150001525878906
1.51,40.91211700439453,-1.9536685943603516,10.457873344421387,27.445634841918945,-111.64777374267578,-106.4517593383789,-36.150001525878906,-11.40000057220459,16.650001525878906
1.52,35.74064254760742,-5.51624059677124,6.244078159332275,47.9632453918457,-81.67074584960938,-102.58805084228516,-35.400001525878906,-12.15000057220459,17.400001525878906
1.538,35.089420318603516,-9.078812599182129,5.70777702331543,134.69677734375,-42.633995056152344,-113.24655151367188,-37.05000305175781,-11.550000190734863,17.25
1.542,32.44622039794922,-12.02846908569336,5.669469833374023,233.9540557861328,1.3323123455047607,-144.2894287109375,-34.95000076293945,-12.15000057220459,18.150001525878906
1.55,30.569168090820312,-3.4093432426452637,11.990161895751953,244.612548828125,8.260336875915527,-132.56507873535156,-36.0,-10.800000190734863,18.75
1.56,30.875625610351562,2.873042106628418,12.526463508605957,200.11331176757812,10.658498764038086,-127.23583221435547,-36.0,-10.800000190734863,18.75
1.57,29.305028915405273,7.316680431365967,7.4316020011901855,145.75497436523438,3.3307809829711914,-96.59264373779297,-36.45000076293945,-10.200000762939453,19.200000762939453
1.58,27.121517181396484,5.477933406829834,4.443638324737549,110.71515655517578,9.72588062286377,-70.74578857421875,-37.650001525878906,-9.0,17.400001525878906
1.59,26.623523712158203,3.7924153804779053,5.899312973022461,67.28177642822266,35.306278228759766,-55.55742645263672,-36.0,-8.850000381469727,18.75
1.603,26.96828842163086,6.89530086517334,4.750096321105957,11.857580184936523,63.018375396728516,-22.782541275024414,-36.30000305175781,-9.600000381469727,20.100000381469727
1.61,29.4582576751709,10.496180534362793,-0.8427590131759644,-4.396630764007568,74.34303283691406,12.25727367401123,-36.30000305175781,-9.600000381469727,20.100000381469727
1.62,32.063148498535156,11.530475616455078,-5.286397457122803,-29.31087303161621,105.38591003417969,45.69831466674805,-34.80000305175781,-9.600000381469727,20.100000381469727
1.63,38.307228088378906,18.11931800842285,-15.24627685546875,-56.62327575683594,140.5589599609375,66.34915924072266,-36.150001525878906,-8.25,19.950000762939453
1.64,47.117889404296875,26.815059661865234,-28.998571395874023,-103.38744354248047,149.21897888183594,110.58192443847656,-35.25,-10.050000190734863,24.150001525878906
1.658,59.950809478759766,36.2003288269043,-43.24885940551758,-207.17457580566406,155.747314453125,114.84532928466797,-35.70000076293945,-10.950000762939453,22.5
1.662,81.70931243896484,47.539268493652344,-58.68667221069336,-388.9019775390625,85.80091857910156,113.77947998046875,-35.70000076293945,-10.950000762939453,22.5
1.67,117.18180847167969,66.00334930419922,-68.68486022949219,-504.1470031738281,23.848390579223633,75.67534637451172,-33.900001525878906,-12.15000057220459,24.0
1.68,134.3817596435547,86.42110443115234,-62.01940155029297,-507.7442321777344,-33.57427215576172,-4.263399600982666,-33.900001525878906,-11.700000762939453,24.450000762939453
1.69,132.50469970703125,113.31277465820312,-48.38202667236328,-339.6064147949219,-32.90811538696289,-72.47779083251953,-34.5,-14.250000953674316,24.900001525878906
1.7,119.6717758178711,131.5853271484375,-32.25468444824219,-107.51760864257812,-51.4272575378418,-81.67074584960938,-34.80000305175781,-14.250000953674316,25.350000381469727
1.719,96.11283111572266,139.66815185546875,-28.92195701599121,-0.7993874549865723,-67.94792938232422,-90.59724426269531,-34.80000305175781,-14.250000953674316,25.350000381469727
1.723,76.03984832763672,133.845458984375,-32.292991638183594,31.975496292114258,-65.15007781982422,-36.63859176635742,-34.05000305175781,-13.800000190734863,24.900001525878906
1.73,59.06974411010742,100.97785186767578,-43.4020881652832,65.15007781982422,-37.03828430175781,-31.842266082763672,-33.150001525878906,-13.65000057220459,25.500001907348633
1.74,50.29738998413086,81.09639739990234,-45.394065856933594,125.50382232666016,-10.92496109008789,-36.238895416259766,-35.400001525878906,-12.90000057220459,25.80000114440918
1.75,38.19230651855469,61.21495056152344,-38.80522155761719,197.9816131591797,5.062787055969238,-36.905052185058594,-36.0,-12.300000190734863,24.600000381469727
1.76,35.31926345825195,46.77312469482422,-13.254301071166992,249.1424102783203,16.78713607788086,-13.58958625793457,-36.0,-12.300000190734863,24.600000381469727
1.778,51.02522659301758,34.01681900024414,16.28057098388672,281.91729736328125,44.76569747924805,9.326186180114746,-35.25,-11.550000190734863,25.350000381469727
1.782,82.16899871826172,31.52684783935547,29.419950485229492,196.38284301757812,95.79325866699219,187.4563446044922,-35.400001525878906,-10.950000762939453,27.30000114440918
1.79,106.34086608886719,33.557132720947266,39.41813659667969,114.71209716796875,131.89892578125,232.2220458984375,-35.400001525878906,-10.950000762939453,27.30000114440918
1.8,114.46199798583984,21.37543296813965,37.84754180908203,61.28636932373047,160.2771759033203,291.376708984375,-34.5,-10.800000190734863,29.700000762939453
1.81,101.97383880615234,-4.520252704620361,31.373619079589844,45.69831466674805,136.0290985107422,236.3522186279297,-34.5,-10.800000190734863,29.700000762939453
1.82,78.10843658447266,-31.29700469970703,27.849353790283203,62.618682861328125,101.9218978881836,70.3460922241211,-34.95000076293945,-11.40000057220459,29.850000381469727
1.839,63.51338195800781,-38.65199279785156,21.528661727905273,25.580398559570312,69.94640350341797,89.39816284179688,-34.05000305175781,-13.800000190734863,28.200000762939453
1.843,54.93256378173828,-33.672054290771484,14.36521053314209,-64.21745300292969,50.62786865234375,3.0643184185028076,-35.25,-13.500000953674316,30.900001525878906
1.85,58.07375717163086,-16.47210693359375,16.855180740356445,-107.11791229248047,32.5084228515625,7.327718257904053,-35.25,-13.500000953674316,30.900001525878906
1.86,65.888427734375,-7.201758861541748,16.855180740356445,-166.1393585205078,26.379785537719727,31.575803756713867,-35.25,-13.500000953674316,30.900001525878906
1.87,76.72937774658203,1.9919757843017578,18.655620574951172,-217.96630859375,35.972434997558594,62.618682861328125,-35.25,-13.500000953674316,30.900001525878906
1.88,85.96141815185547,6.129156112670898,21.490354537963867,-241.68145751953125,26.912710189819336,80.8713607788086,-34.5,-14.250000953674316,31.200000762939453
1.898,87.76185607910156,5.1331682205200195,26.163835525512695,-231.1562042236328,9.859111785888672,102.98774719238281,-33.75,-13.500000953674316,31.950000762939453
1.903,85.38681030273438,7.469909191131592,25.20615577697754,-227.1592559814453,12.390504837036133,118.57579803466797,-31.80000114440918,-16.200000762939453,33.0
1.91,81.86254119873047,14.020444869995117,20.379444122314453,-215.43490600585938,19.718223571777344,118.44257354736328,-31.80000114440918,-16.200000762939453,33.0
1.92,80.36856079101562,16.242263793945312,19.153614044189453,-192.3859100341797,27.045940399169922,133.09800720214844,-31.80000114440918,-16.200000762939453,33.0
1.93,77.68705749511719,18.617311477661133,17.353174209594727,-169.0704345703125,33.70750427246094,123.63858795166016,-33.0,-16.950000762939453,32.25
1.94,76.80599212646484,22.639572143554688,17.31486701965332,-164.4073486328125,67.5482406616211,133.6309356689453,-33.0,-18.900001525878906,31.500001907348633
1.96,75.58016204833984,27.006595611572266,18.77054214477539,-143.3568115234375,71.94486999511719,154.28176879882812,-34.05000305175781,-18.450000762939453,32.70000076293945
1.963,76.42292022705078,31.258697509765625,20.992361068725586,-116.84379577636719,86.0673828125,110.98162078857422,-32.55000305175781,-20.850000381469727,32.25
1.97,76.61445617675781,31.794998168945312,23.903709411621094,-159.21133422851562,112.04747009277344,120.4410400390625,-32.55000305175781,-20.850000381469727,32.25
1.98,74.89063262939453,30.0711727142334,24.095245361328125,-253.1393585205078,115.2450180053711,112.98008728027344,-32.55000305175781,-21.150001525878906,33.75
1.99,70.33206939697266,39.954437255859375,30.224401473999023,-282.983154296875,102.18836212158203,107.65084075927734,-31.80000114440918,-22.350000381469727,33.75
2.0,63.51338195800781,51.369991302490234,27.351360321044922,-274.18988037109375,84.06890869140625,123.63858795166016,-30.150001525878906,-24.900001525878906,34.35000228881836
2.019,55.12409973144531,49.722782135009766,24.478317260742188,-229.29095458984375,106.98468017578125,145.35528564453125,-30.150001525878906,-24.900001525878906,34.35000228881836
2.023,48.68848419189453,50.68046188354492,14.173673629760742,-135.89585876464844,118.70903015136719,174.26646423339844,-28.950000762939453,-26.100000381469727,33.30000305175781
2.03,43.67023849487305,53.01720428466797,17.468095779418945,-99.25727081298828,122.9724349975586,172.93414306640625,-30.150001525878906,-26.850000381469727,34.35000228881836
2.04,40.567352294921875,53.13212585449219,16.203956604003906,-71.41194152832031,149.48544311523438,148.95252990722656,-30.000001907348633,-27.000001907348633,34.5
2.05,36.88985824584961,48.228797912597656,10.611102104187012,-68.88054656982422,191.71975708007812,145.35528564453125,-29.400001525878906,-28.80000114440918,33.900001525878906
2.06,37.234622955322266,43.93838882446289,6.320692539215088,-61.41960144042969,226.7595672607422,126.16998291015625,-29.400001525878906,-28.80000114440918,33.900001525878906
2.079,37.387855529785156,44.43638229370117,7.163451671600342,-67.41500854492188,254.60488891601562,119.24195861816406,-27.000001907348633,-29.250001907348633,36.30000305175781
2.083,39.72459411621094,41.98472213745117,9.308655738830566,-59.287899017333984,278.9862060546875,75.14241790771484,-28.500001907348633,-31.200000762939453,37.5
2.09,44.16823196411133,40.41412353515625,12.564770698547363,-48.62940216064453,280.5849914550781,65.28330993652344,-26.700000762939453,-29.850000381469727,38.70000076293945
2.1,47.922340393066406,41.639957427978516,14.595053672790527,-22.116384506225586,271.65850830078125,73.9433364868164,-25.950000762939453,-31.05000114440918,40.20000076293945
2.11,56.46485137939453,38.537071228027344,14.441824913024902,-32.90811538696289,294.9739685058594,44.89892578125,-25.950000762939453,-31.05000114440918,40.20000076293945
2.12,62.59400939941406,35.47249221801758,13.48414421081543,-59.82082748413086,300.83612060546875,20.517610549926758,-25.950000762939453,-31.05000114440918,40.20000076293945
2.14,71.213134765625,32.790985107421875,12.947842597961426,-96.45941925048828,302.96783447265625,8.660030364990234,-24.750001907348633,-30.150001525878906,40.80000305175781
2.143,75.73339080810547,31.680076599121094,14.97812557220459,-127.23583221435547,293.9081115722656,-4.796324729919434,-23.25,-30.900001525878906,42.60000228881836
2.15,81.4794692993164,30.99054718017578,15.361198425292969,-148.8192901611328,293.37518310546875,-14.255742073059082,-22.05000114440918,-32.85000228881836,42.30000305175781
2.16,87.91508483886719,14.020444869995117,-23.252487182617188,-69.94640350341797,181.99386596679688,-9.192955017089844,-22.80000114440918,-32.85000228881836,43.05000305175781
2.17,116.76042938232422,-12.143390655517578,-51.02522659301758,29.977027893066406,43.69984436035156,-15.854516983032227,-22.80000114440918,-32.85000228881836,43.05000305175781
2.18,110.28650665283203,-0.8427590131759644,-12.373234748840332,-11.457886695861816,-11.191424369812012,-19.718223571777344,-22.05000114440918,-33.900001525878906,44.400001525878906
2.2,95.42330169677734,17.92778205871582,25.550920486450195,-97.92495727539062,-43.16691970825195,-11.324655532836914,-21.0,-33.150001525878906,44.10000228881836
2.204,91.86073303222656,30.99054718017578,35.43418502807617,-174.9326171875,-69.81317138671875,15.987748146057129,-22.5,-33.900001525878906,44.10000228881836
2.21,87.64693450927734,30.301015853881836,31.488540649414062,-167.87135314941406,-67.94792938232422,12.124042510986328,-22.80000114440918,-32.85000228881836,43.650001525878906
2.22,85.23358154296875,29.84132957458496,30.224401473999023,-145.0888214111328,-74.47626495361328,3.597243309020996,-22.80000114440918,-32.85000228881836,43.650001525878906
2.23,80.98147583007812,31.335311889648438,33.25067138671875,-139.2266387939453,-77.80704498291016,2.9310872554779053,-24.450000762939453,-33.75,41.70000076293945
2.24,78.9511947631836,42.09964370727539,34.01681900024414,-119.10872650146484,-89.7978515625,17.986217498779297,-24.0,-35.55000305175781,43.650001525878906
2.259,78.83627319335938,52.595821380615234,33.863590240478516,-88.99846649169922,-81.27105712890625,21.050535202026367,-24.30000114440918,-35.55000305175781,43.05000305175781
2.263,81.67100524902344,59.72096633911133,29.266721725463867,-16.65390396118164,-49.42878723144531,43.16691970825195,-24.0,-34.80000305175781,42.30000305175781
2.27,82.85853576660156,67.15257263183594,21.835119247436523,14.655436515808105,-32.24195861816406,42.76722717285156,-24.0,-34.80000305175781,42.30000305175781
2.28,80.7899398803711,67.84210205078125,18.157625198364258,-12.656967163085938,13.189892768859863,38.63705825805664,-24.0,-36.60000228881836,41.85000228881836
2.29,73.89463806152344,70.14053344726562,7.201758861541748,-156.81317138671875,59.15467071533203,38.77029037475586,-25.950000762939453,-35.70000076293945,42.45000076293945
2.3,70.52360534667969,62.74723815917969,-14.020444869995117,-183.05972290039062,-37.97090148925781,7.72741174697876,-26.250001907348633,-35.55000305175781,41.55000305175781
2.319,83.31822204589844,55.27732849121094,-2.6815059185028076,-59.02143859863281,-191.8529815673828,-63.018375396728516,-25.650001525878906,-37.650001525878906,42.0
2.323,101.93553161621094,75.61846923828125,12.7946138381958,61.68606185913086,-235.9525146484375,-72.74425506591797,-25.650001525878906,-37.650001525878906,42.0
2.33,106.87716674804688,86.38279724121094,8.542511940002441,101.65543365478516,-203.97702026367188,-65.016845703125,-27.30000114440918,-37.5,42.30000305175781
2.34,99.36894989013672,76.34630584716797,-3.5242648124694824,159.21133422851562,-183.32618713378906,-65.54976654052734,-29.400001525878906,-36.900001525878906,41.25
2.35,84.04605865478516,55.698707580566406,-27.542896270751953,214.7687530517578,-243.5467071533203,-96.19295501708984,-29.400001525878906,-35.25,40.95000076293945
2.36,77.91690063476562,40.49073791503906,-40.567352294921875,269.52679443359375,-332.8116455078125,-142.29095458984375,-29.700000762939453,-35.25,39.900001525878906
2.379,75.08216857910156,33.7486686706543,-25.70414924621582,306.96478271484375,-378.50994873046875,-182.92648315429688,-29.700000762939453,-35.25,39.900001525878906
2.382,73.93294525146484,30.91393280029297,-11.836933135986328,319.7549743652344,-351.4640197753906,-207.0413360595703,-32.55000305175781,-33.60000228881836,40.05000305175781
2.39,69.25946807861328,35.510799407958984,10.266336441040039,289.7779541015625,-314.1592712402344,-221.69677734375,-34.650001525878906,-31.500001907348633,40.20000076293945
2.4,64.12629699707031,38.34553527832031,22.562957763671875,257.9356689453125,-266.46246337890625,-223.29554748535156,-36.45000076293945,-28.80000114440918,40.20000076293945
2.41,62.44078063964844,38.76691436767578,31.450233459472656,244.07962036132812,-244.87901306152344,-196.915771484375,-36.30000305175781,-27.450000762939453,39.0
2.42,69.4126968383789,36.88985824584961,30.454246520996094,268.0612487792969,-202.24502563476562,-178.92955017089844,-36.30000305175781,-27.450000762939453,39.0
2.439,77.87859344482422,36.35355758666992,25.780763626098633,325.2174377441406,-147.8866729736328,-162.80857849121094,-36.30000305175781,-27.450000762939453,39.0
2.442,94.00593566894531,39.839515686035156,20.915746688842773,394.3644714355469,-77.67381286621094,-131.89892578125,-38.70000076293945,-22.950000762939453,39.900001525878906
2.45,98.6028060913086,40.988731384277344,22.83110809326172,406.8882141113281,-28.24502182006836,-127.76875305175781,-38.70000076293945,-20.55000114440918,39.150001525878906
2.46,107.37516021728516,44.97268295288086,28.040889739990234,398.0949401855469,37.03828430175781,-119.64165496826172,-39.45000076293945,-18.30000114440918,40.95000076293945
2.47,118.29271697998047,47.19450378417969,28.998571395874023,399.6937255859375,66.21592712402344,-153.21592712402344,-40.05000305175781,-16.200000762939453,39.0
2.48,142.5028839111328,52.71074295043945,28.232425689697266,432.2021484375,-10.392036437988281,-182.6600341796875,-40.05000305175781,-16.200000762939453,39.0
2.499,137.82940673828125,62.01940155029297,17.00840950012207,442.0612487792969,-97.12557220458984,-166.67227172851562,-39.900001525878906,-12.90000057220459,40.650001525878906
2.503,113.08293151855469,58.61005783081055,16.89348793029785,415.814697265625,-194.51760864257812,-148.8192901611328,-39.900001525878906,-9.75,40.20000076293945
2.51,102.9698257446289,27.657817840576172,23.597251892089844,377.0444030761719,-220.09800720214844,-120.4410400390625,-41.70000076293945,-5.850000381469727,39.45000076293945
2.52,95.65314483642578,18.617311477661133,16.548721313476562,331.8789978027344,-230.22357177734375,-83.66921997070312,-41.25,-4.950000286102295,38.25
2.53,82.4371566772461,5.746084213256836,17.42978858947754,243.679931640625,-207.5742645263672,-87.13323211669922,-41.25,-4.950000286102295,38.25
2.54,69.29777526855469,-1.2641384601593018,20.072986602783203,144.68911743164062,-185.4578857421875,-60.75344467163086,-42.900001525878906,-1.350000023841858,36.150001525878906
2.559,56.733001708984375,-5.669469833374023,24.325088500976562,64.48391723632812,-164.4073486328125,-41.83460998535156,-42.75,-0.75,34.95000076293945
2.563,39.533058166503906,-14.901511192321777,31.182083129882812,-29.84379768371582,-134.03062438964844,-64.61714935302734,-43.95000076293945,2.1000001430511475,33.900001525878906
2.57,36.8515510559082,-15.782577514648438,31.450233459472656,-57.15620040893555,-131.89892578125,-71.41194152832031,-42.900001525878906,2.4000000953674316,33.60000228881836
2.58,32.75267791748047,-16.510414123535156,26.393678665161133,-63.551300048828125,-109.51607513427734,-82.07044219970703,-42.900001525878906,2.4000000953674316,33.60000228881836
2.59,31.29700469970703,-12.947842597961426,22.333112716674805,-69.67993927001953,-83.40275573730469,-122.57273864746094,-43.95000076293945,2.4000000953674316,32.85000228881836
2.6,24.78477668762207,-11.836933135986328,12.871228218078613,-38.63705825805664,-55.95711898803711,-109.11638641357422,-45.150001525878906,2.4000000953674316,31.350000381469727
2.615,21.87342643737793,-13.445837020874023,7.5848307609558105,88.46553802490234,13.58958625793457,-145.35528564453125,-43.20000076293945,6.300000190734863,30.600000381469727
2.62,19.306842803955078,-5.70777702331543,18.272546768188477,117.24349212646484,37.17151641845703,-155.6140899658203,-43.20000076293945,6.300000190734863,30.600000381469727
2.63,18.464082717895508,-1.8387469053268433,22.103269577026367,145.88819885253906,62.35221862792969,-149.21897888183594,-43.20000076293945,6.300000190734863,30.600000381469727
2.64,19.651607513427734,4.175487995147705,29.879636764526367,112.98008728027344,69.94640350341797,-123.2388916015625,-44.400001525878906,5.850000381469727,31.80000114440918
2.65,22.48634147644043,9.461885452270508,27.619510650634766,74.07656860351562,73.9433364868164,-67.814697265625,-41.70000076293945,8.25,31.350000381469727
2.66,28.309040069580078,7.891288757324219,20.456058502197266,46.364471435546875,94.19448852539062,-37.304744720458984,-43.20000076293945,8.700000762939453,31.350000381469727
2.679,31.488540649414062,2.719813108444214,13.369222640991211,-17.453292846679688,150.6845245361328,30.37672233581543,-41.70000076293945,9.75,31.05000114440918
2.682,29.22841453552246,-1.3024457693099976,2.2218191623687744,-54.75803756713867,169.73660278320312,30.110260009765625,-42.0,9.600000381469727,31.500001907348633
2.69,28.883649826049805,1.0342950820922852,-0.4213795065879822,-90.33078002929688,175.9984588623047,49.02909469604492,-42.0,9.600000381469727,31.500001907348633
2.7,29.34333610534668,7.661445617675781,-5.1331682205200195,-158.27871704101562,200.11331176757812,51.160797119140625,-42.0,10.050000190734863,33.45000076293945
2.71,36.08540725708008,17.31486701965332,-12.986149787902832,-201.84532165527344,193.3185272216797,64.084228515625,-39.30000305175781,10.050000190734863,33.0
2.72,56.618080139160156,29.190107345581055,-23.980323791503906,-275.2557373046875,78.47319793701172,78.87289428710938,-39.75,8.40000057220459,33.75
2.732,97.41527557373047,47.884033203125,-50.335697174072266,-558.1056518554688,-126.5696792602539,-81.93721008300781,-40.650001525878906,7.500000476837158,34.35000228881836
2.74,186.93927001953125,75.3503189086914,-132.50469970703125,-650.4348754882812,-134.69677734375,8.926492691040039,-40.650001525878906,7.500000476837158,34.35000228881836
2.75,195.59669494628906,118.94393920898438,-122.5448226928711,-490.8238830566406,-62.085758209228516,-56.356815338134766,-40.5,6.150000095367432,32.70000076293945
2.76,176.63462829589844,153.72689819335938,-56.50315856933594,-203.04440307617188,-61.81929397583008,-133.6309356689453,-40.80000305175781,4.5,34.95000076293945
2.77,132.42808532714844,166.1767578125,-22.7161865234375,-83.80245208740234,-88.73200225830078,-168.9372100830078,-40.5,4.950000286102295,33.75
2.78,83.43314361572266,147.1380615234375,-21.298818588256836,-55.82388687133789,-96.45941925048828,-148.28636169433594,-40.20000076293945,5.550000190734863,34.35000228881836
2.795,54.62610626220703,139.09353637695312,-29.15180015563965,30.110260009765625,-76.20826721191406,-81.40428924560547,-39.150001525878906,7.050000190734863,32.55000305175781
2.8,21.835119247436523,98.37296295166016,-50.29738998413086,94.59417724609375,-48.62940216064453,-69.94640350341797,-39.150001525878906,7.050000190734863,32.55000305175781
2.81,19.07699966430664,85.19527435302734,-48.152183532714844,229.4241943359375,-2.398162364959717,-57.422664642333984,-38.55000305175781,7.200000286102295,31.500001907348633
2.82,22.333112716674805,60.7935676574707,-30.032865524291992,339.073486328125,-13.989279747009277,-63.551300048828125,-37.95000076293945,7.500000476837158,31.80000114440918
2.83,51.369991302490234,48.650177001953125,2.298433542251587,420.8774719238281,23.315465927124023,-27.71209716796875,-38.25,8.100000381469727,31.500001907348633
2.849,92.35872650146484,49.14817428588867,27.351360321044922,412.6171569824219,100.45635223388672,102.8545150756836,-38.25,8.100000381469727,31.500001907348633
2.853,119.97823333740234,39.30321502685547,55.698707580566406,283.78253173828125,138.8269500732422,218.49923706054688,-36.0,10.800000190734863,28.650001525878906
2.86,106.91547393798828,7.6997528076171875,55.77532196044922,187.05665588378906,147.75344848632812,202.9111785888672,-37.5,10.050000190734863,29.400001525878906
2.87,89.94536590576172,-8.734047889709473,54.20472717285156,47.430320739746094,111.11485290527344,204.37672424316406,-39.150001525878906,8.700000762939453,27.750001907348633
2.88,75.23539733886719,-28.960264205932617,49.56955337524414,-32.5084228515625,74.47626495361328,129.36753845214844,-39.150001525878906,8.700000762939453,27.750001907348633
2.89,67.76548767089844,-27.58120346069336,35.6257209777832,-102.32159423828125,52.75957107543945,86.0673828125,-36.0,9.600000381469727,29.700000762939453
2.909,67.34410858154297,-30.68408966064453,26.355371475219727,-111.24808502197266,40.9019889831543,25.846860885620117,-36.75,6.450000286102295,27.150001525878906
2.913,70.86837005615234,-26.048913955688477,15.897499084472656,-98.32465362548828,55.82388687133789,41.035221099853516,-37.5,7.200000286102295,29.400001525878906
2.92,74.04786682128906,-16.203956604003906,16.47210693359375,-92.59571075439453,63.684532165527344,28.911178588867188,-36.75,8.40000057220459,28.950000762939453
2.93,75.9249267578125,-11.951854705810547,19.68991470336914,-86.46707153320312,53.558956146240234,38.63705825805664,-36.75,8.40000057220459,28.950000762939453
2.94,76.34630584716797,-4.903325080871582,22.333112716674805,-122.43950653076172,55.02450180053711,61.552833557128906,-36.45000076293945,7.050000190734863,31.350000381469727
2.95,77.1890640258789,0.0,24.13355255126953,-183.99234008789062,55.55742645263672,95.9264907836914,-36.75,6.900000095367432,30.900001525878906
2.969,79.6407241821289,1.723825216293335,24.478317260742188,-238.35067749023438,47.830013275146484,110.18223571777344,-36.150001525878906,5.100000381469727,30.600000381469727
2.973,79.21934509277344,0.727837324142456,26.585216522216797,-276.32159423828125,23.581928253173828,142.5574188232422,-37.20000076293945,5.100000381469727,32.10000228881836
2.98,75.8866195678711,3.600879430770874,23.82709503173828,-280.3185119628906,34.773353576660156,134.96324157714844,-37.20000076293945,5.100000381469727,32.10000228881836
2.99,74.2777099609375,5.861005783081055,22.218191146850586,-252.87289428710938,51.82695007324219,147.8866729736328,-37.20000076293945,5.100000381469727,32.10000228881836
3.0,74.08617401123047,8.389283180236816,18.77054214477539,-221.69677734375,76.74119567871094,150.01837158203125,-36.150001525878906,0.45000001788139343,33.900001525878906
3.01,78.68304443359375,17.12333106994629,20.95405387878418,-191.58651733398438,94.86064147949219,135.36293029785156,-36.900001525878906,0.9000000357627869,34.650001525878906
3.03,81.09639739990234,22.83110809326172,24.286781311035156,-189.72128295898438,110.58192443847656,150.2848358154297,-35.70000076293945,0.15000000596046448,33.30000305175781
3.033,80.59840393066406,23.367408752441406,36.96647262573242,-211.83766174316406,97.65850067138672,106.71822357177734,-35.25,0.0,32.25
3.04,71.2514419555664,29.688100814819336,27.27474594116211,-190.78712463378906,89.39816284179688,125.63705444335938,-35.25,0.0,32.25
3.05,66.9227294921875,35.510799407958984,23.82709503173828,-177.46400451660156,107.3843765258789,151.88360595703125,-34.05000305175781,-3.450000047683716,36.30000305175781
3.06,60.7552604675293,43.70854568481445,14.748282432556152,-137.09494018554688,131.63246154785156,137.3614044189453,-34.80000305175781,-3.450000047683716,36.75
3.07,53.859962463378906,51.063533782958984,10.879252433776855,-116.0444107055664,143.2235870361328,197.0489959716797,-36.30000305175781,-4.950000286102295,37.80000305175781
3.09,50.5655403137207,56.733001708984375,15.744270324707031,-91.13016510009766,152.41653442382812,182.39356994628906,-34.95000076293945,-4.800000190734863,37.650001525878906
3.093,45.24083709716797,66.99934387207031,26.393678665161133,-79.9387435913086,153.61561584472656,223.69525146484375,-34.95000076293945,-4.800000190734863,37.650001525878906
3.1,41.946414947509766,68.91470336914062,24.018630981445312,-84.60183715820312,157.0796356201172,231.4226531982422,-34.650001525878906,-7.050000190734863,39.45000076293945
3.11,39.533058166503906,62.13432312011719,20.41775131225586,-114.3124008178711,183.1929473876953,232.75497436523438,-33.150001525878906,-7.800000190734863,38.400001525878906
3.12,39.91613006591797,48.535255432128906,9.117119789123535,-145.75497436523438,253.1393585205078,172.00152587890625,-34.20000076293945,-8.700000762939453,39.900001525878906
3.13,41.67826461791992,49.49293899536133,4.252102375030518,-147.35374450683594,299.37060546875,140.5589599609375,-33.30000305175781,-9.15000057220459,40.05000305175781
3.149,42.21456527709961,48.42033386230469,4.63517427444458,-119.5084228515625,327.3491516113281,121.24042510986328,-33.30000305175781,-9.15000057220459,40.05000305175781
3.153,44.24484634399414,45.164222717285156,9.730035781860352,-71.01225280761719,340.13934326171875,100.58958435058594,-32.70000076293945,-11.700000762939453,42.75
3.16,51.40829849243164,40.758888244628906,12.29662036895752,-66.08269500732422,349.4655456542969,78.20673370361328,-30.450000762939453,-12.90000057220459,42.75
3.17,55.23902130126953,37.46446990966797,12.90953540802002,-69.28024291992188,356.7932434082031,66.48238372802734,-31.05000114440918,-13.050000190734863,44.85000228881836
3.18,60.52541732788086,33.94020462036133,13.599065780639648,-76.74119567871094,349.73199462890625,52.226646423339844,-29.400001525878906,-10.950000762939453,45.75
3.19,66.5396499633789,32.52283477783203,14.67166805267334,-138.42726135253906,349.3323059082031,26.64624786376953,-29.400001525878906,-10.950000762939453,45.75
3.209,85.34850311279297,11.798625946044922,-38.920143127441406,-198.24807739257812,205.04287719726562,0.2664624750614166,-27.000001907348633,-11.850000381469727,47.400001525878906
3.212,125.34124755859375,1.1492167711257935,-47.69249725341797,-86.20060729980469,11.457886695861816,-47.297088623046875,-27.900001525878906,-13.200000762939453,47.55000305175781
3.22,110.1332778930664,19.843143463134766,3.9839515686035156,-42.23430252075195,-45.96477508544922,-46.09800720214844,-27.000001907348633,-13.500000953674316,48.150001525878906
3.23,90.59659576416016,30.301015853881836,19.345149993896484,-89.39816284179688,-46.09800720214844,-22.51607894897461,-25.950000762939453,-14.850000381469727,48.750003814697266
3.24,85.76988220214844,38.99675750732422,21.222204208374023,-125.23736572265625,-35.972434997558594,8.660030364990234,-25.950000762939453,-14.850000381469727,48.750003814697266
3.25,86.45941162109375,36.16202163696289,22.792800903320312,-122.03981018066406,-19.85145378112793,13.189892768859863,-25.950000762939453,-14.850000381469727,48.750003814697266
3.269,85.19527435302734,31.7183837890625,24.938005447387695,-93.92802429199219,-5.462480545043945,3.197549819946289,-26.55000114440918,-13.800000190734863,47.10000228881836
3.273,85.08035278320312,33.02082824707031,27.849353790283203,-46.231239318847656,-14.788667678833008,9.326186180114746,-27.450000762939453,-12.450000762939453,47.55000305175781
3.28,83.7396011352539,40.7205810546875,27.121517181396484,-31.176109313964844,-7.194486618041992,24.11485481262207,-27.30000114440918,-12.300000190734863,46.650001525878906
3.29,83.16499328613281,46.58158874511719,27.121517181396484,-14.255742073059082,-10.258805274963379,46.764163970947266,-26.700000762939453,-13.65000057220459,47.55000305175781
3.3,80.36856079101562,52.787357330322266,27.504589080810547,9.859111785888672,-2.2649309635162354,49.69525146484375,-26.700000762939453,-13.65000057220459,47.55000305175781
3.31,78.87458038330078,59.452816009521484,24.018630981445312,4.130168437957764,-6.661561965942383,61.9525260925293,-25.650001525878906,-13.65000057220459,48.0
3.329,73.81802368164062,61.253257751464844,18.502389907836914,-40.9019889831543,-4.663093090057373,67.94792938232422,-25.950000762939453,-13.65000057220459,48.0
3.332,69.71915435791016,62.13432312011719,14.058752059936523,-70.61255645751953,-24.51454734802246,27.31240463256836,-26.700000762939453,-13.200000762939453,48.0
3.34,67.4973373413086,59.644351959228516,12.22000503540039,-54.35834503173828,-54.89126968383789,3.197549819946289,-25.80000114440918,-13.500000953674316,47.400001525878906
3.35,70.33206939697266,61.36817932128906,10.074800491333008,-3.86370587348938,-95.26033782958984,-10.125574111938477,-25.80000114440918,-13.500000953674316,47.400001525878906
3.36,81.17301177978516,63.62830352783203,9.461885452270508,42.500762939453125,-111.781005859375,-36.238895416259766,-27.450000762939453,-13.200000762939453,47.55000305175781
3.37,97.22373962402344,74.50755310058594,15.169661521911621,104.98621368408203,-85.66768646240234,-34.50688934326172,-25.80000114440918,-12.300000190734863,46.35000228881836
3.39,101.89722442626953,81.05809020996094,15.169661521911621,142.4241943359375,-75.8085708618164,-43.83307647705078,-25.650001525878906,-11.700000762939453,45.75
3.394,97.95157623291016,69.02962493896484,-4.865017890930176,189.5880584716797,-163.74119567871094,-90.19754791259766,-25.650001525878906,-10.5,46.05000305175781
3.4,87.99169921875,38.46045684814453,-28.270732879638672,224.09494018554688,-242.48085021972656,-131.49923706054688,-25.650001525878906,-10.5,46.05000305175781
3.41,84.19928741455078,30.415939331054688,-26.278757095336914,292.309326171875,-330.54669189453125,-175.0658416748047,-27.150001525878906,-7.500000476837158,44.70000076293945
3.42,80.29194641113281,24.24847412109375,-20.877439498901367,331.0796203613281,-347.2005920410156,-191.18682861328125,-28.80000114440918,-6.900000095367432,42.60000228881836
3.43,81.01978302001953,22.2948055267334,-12.60307788848877,310.9617004394531,-310.2955627441406,-211.30474853515625,-27.000001907348633,-5.400000095367432,41.55000305175781
3.449,76.61445617675781,25.435998916625977,5.20978307723999,254.2052001953125,-264.9969177246094,-215.96783447265625,-29.55000114440918,-3.0,40.05000305175781
3.453,71.28974914550781,30.454246520996094,26.31706428527832,165.4731903076172,-221.69677734375,-217.83306884765625,-29.55000114440918,-3.0,40.05000305175781
3.46,73.74140930175781,33.25067138671875,34.591426849365234,141.22511291503906,-211.30474853515625,-194.2511444091797,-30.000001907348633,-0.30000001192092896,36.75
3.47,81.63269805908203,33.13574981689453,33.94020462036133,142.5574188232422,-177.06431579589844,-179.9954071044922,-30.000001907348633,2.700000047683716,35.55000305175781
3.48,91.86073303222656,33.7869758605957,32.063148498535156,201.9785614013672,-155.34762573242188,-153.48239135742188,-29.55000114440918,2.700000047683716,35.55000305175781
3.49,101.47584533691406,31.29700469970703,29.803022384643555,257.26953125,-121.24042510986328,-158.67840576171875,-29.250001907348633,3.750000238418579,33.75
3.509,109.63528442382812,32.10145568847656,29.4582576751709,283.2496032714844,-82.20367431640625,-170.8024444580078,-29.250001907348633,3.750000238418579,33.75
3.513,143.23072814941406,44.512996673583984,12.871228218078613,327.882080078125,-111.5145492553711,-145.88819885253906,-30.750001907348633,5.700000286102295,31.200000762939453
3.52,147.4062042236328,42.7891731262207,10.994174003601074,349.73199462890625,-131.89892578125,-120.97396087646484,-30.750001907348633,5.700000286102295,31.200000762939453
3.53,144.9545440673828,39.72459411621094,7.010222434997559,369.050537109375,-133.89739990234375,-123.2388916015625,-29.250001907348633,6.900000095367432,29.700000762939453
3.54,123.57911682128906,26.738445281982422,10.879252433776855,408.6202087402344,-124.43797302246094,-121.50688934326172,-30.30000114440918,8.40000057220459,29.700000762939453
3.55,97.18543243408203,21.183897018432617,21.14558982849121,464.31085205078125,-88.06584930419922,-107.65084075927734,-30.30000114440918,9.15000057220459,28.200000762939453
3.569,76.72937774658203,22.754493713378906,28.653806686401367,470.8392028808594,-116.44409942626953,-118.70903015136719,-30.30000114440918,9.15000057220459,28.200000762939453
3.572,66.38642120361328,20.379444122314453,38.99675750732422,338.8070373535156,-189.0551300048828,-131.23277282714844,-30.450000762939453,11.700000762939453,24.750001907348633
3.58,65.62027740478516,16.740259170532227,36.39186477661133,246.3445587158203,-206.5084228515625,-129.2342987060547,-30.450000762939453,11.700000762939453,24.750001907348633
3.59,64.24121856689453,12.641385078430176,27.27474594116211,154.54823303222656,-212.1041259765625,-128.83460998535156,-29.700000762939453,12.90000057220459,23.700000762939453
3.6,59.79758071899414,13.982137680053711,17.889474868774414,99.3905029296875,-186.12403869628906,-101.52220153808594,-30.750001907348633,13.500000953674316,23.100000381469727
3.61,56.15839385986328,12.258312225341797,14.058752059936523,55.82388687133789,-138.42726135253906,-98.72434997558594,-30.750001907348633,13.500000953674316,23.100000381469727
3.629,47.46265411376953,7.623138427734375,12.526463508605957,9.859111785888672,-93.2618637084961,-76.60796356201172,-31.200000762939453,14.850000381469727,21.150001525878906
3.632,38.03907775878906,1.2258312702178955,17.73624610900879,10.392036437988281,-83.66921997070312,-96.72587585449219,-31.05000114440918,16.200000762939453,19.80000114440918
3.64,36.54509353637695,-0.4213795065879822,17.1999454498291,3.86370587348938,-62.618682861328125,-103.12097930908203,-31.05000114440918,16.200000762939453,19.80000114440918
3.65,35.395877838134766,-4.903325080871582,15.399505615234375,1.9984685182571411,-31.44257164001465,-130.03369140625,-29.55000114440918,14.250000953674316,19.5
3.66,31.60346221923828,-5.861005783081055,14.633360862731934,16.65390396118164,-7.327718257904053,-149.3522186279297,-29.55000114440918,14.250000953674316,19.5
3.67,28.270732879638672,-4.32871675491333,17.50640296936035,22.249616622924805,18.652372360229492,-141.22511291503906,-30.450000762939453,15.90000057220459,18.900001525878906
3.689,26.470293045043945,-1.800439715385437,20.800825119018555,21.050535202026367,43.96630859375,-149.08575439453125,-29.400001525878906,17.100000381469727,20.400001525878906
3.693,27.121517181396484,3.179499864578247,23.903709411621094,39.569679260253906,48.49617004394531,-123.9050521850586,-29.55000114440918,16.950000762939453,18.30000114440918
3.7,26.700138092041016,4.290409564971924,22.90772247314453,48.22970962524414,46.897396087646484,-98.32465362548828,-29.55000114440918,16.950000762939453,18.30000114440918
3.71,27.006595611572266,5.861005783081055,20.800825119018555,46.231239318847656,64.75038146972656,-76.20826721191406,-29.55000114440918,16.950000762939453,18.30000114440918
3.72,26.163835525512695,5.094861030578613,17.00840950012207,15.45482349395752,89.5313949584961,-20.117916107177734,-28.650001525878906,19.05000114440918,18.150001525878906
3.73,23.712173461914062,1.9153614044189453,11.875240325927734,-30.776416778564453,104.05359649658203,14.12251091003418,-27.30000114440918,18.900001525878906,19.5
3.746,24.78477668762207,-4.252102375030518,7.4316020011901855,-78.87289428710938,143.2235870361328,29.577335357666016,-28.200000762939453,17.55000114440918,18.900001525878906
3.75,30.4925537109375,-6.703764915466309,-2.1068975925445557,-79.67227935791016,151.88360595703125,67.41500854492188,-28.200000762939453,17.55000114440918,18.900001525878906
3.76,33.672054290771484,-4.022258758544922,-4.213795185089111,-87.53292083740234,152.949462890625,67.5482406616211,-27.000001907348633,18.900001525878906,19.05000114440918
3.77,44.091617584228516,3.6391866207122803,-9.308655738830566,-72.87748718261719,127.90198516845703,97.5252685546875,-26.55000114440918,18.450000762939453,20.850000381469727
3.78,60.33388137817383,17.046716690063477,-15.820884704589844,-77.94027709960938,38.23736572265625,124.30474090576172,-26.55000114440918,17.400001525878906,19.5
3.79,94.81038665771484,33.863590240478516,-37.84754180908203,-249.5421142578125,-157.612548828125,144.02296447753906,-27.30000114440918,16.200000762939453,20.850000381469727
3.803,162.1544952392578,56.34992980957031,-132.7345428466797,-593.0122680664062,-164.67381286621094,48.362937927246094,-27.30000114440918,16.200000762939453,20.850000381469727
3.81,184.21945190429688,98.33465576171875,-128.90382385253906,-558.3721313476562,-49.02909469604492,38.10413360595703,-27.30000114440918,16.200000762939453,20.850000381469727
3.82,167.24935913085938,118.71409606933594,-72.63050079345703,-345.2021484375,62.618682861328125,-113.64624786376953,-28.500001907348633,13.500000953674316,21.600000381469727
3.83,150.50909423828125,142.38796997070312,-14.97812557220459,-162.94180297851562,1.8652373552322388,-162.94180297851562,-27.900001525878906,15.15000057220459,22.5
3.84,111.47402954101562,166.75135803222656,-1.8770540952682495,-150.95098876953125,-104.5865249633789,-146.5543670654297,-28.650001525878906,14.850000381469727,21.450000762939453
3.858,77.763671875,165.71707153320312,-9.768342971801758,-190.25421142578125,-154.9479217529297,-95.79325866699219,-28.950000762939453,15.600000381469727,22.5
3.862,45.35575866699219,132.69622802734375,-25.167848587036133,-57.689125061035156,-166.40582275390625,-32.5084228515625,-28.950000762939453,15.600000381469727,22.5
3.87,14.020444869995117,90.67321014404297,-43.24885940551758,56.889739990234375,-135.0964813232422,-8.926492691040039,-28.05000114440918,13.800000190734863,21.30000114440918
3.88,11.070788383483887,73.81802368164062,-47.117889404296875,213.0367431640625,-116.84379577636719,-3.597243309020996,-28.05000114440918,14.250000953674316,18.75
3.89,47.117889404296875,58.9165153503418,-13.139378547668457,351.9969177246094,-56.09035110473633,34.373661041259766,-29.700000762939453,15.90000057220459,19.650001525878906
3.9,88.6046142578125,48.38202667236328,16.510414123535156,417.54669189453125,54.22511291503906,98.59111785888672,-29.250001907348633,16.5,18.0
3.919,116.79873657226562,38.99675750732422,35.5874137878418,345.73504638671875,138.16079711914062,189.45481872558594,-29.250001907348633,16.5,18.0
3.923,103.12305450439453,22.026655197143555,43.93838882446289,171.86830139160156,163.6079559326172,162.5421142578125,-30.000001907348633,12.750000953674316,15.000000953674316
3.93,74.77571105957031,-14.786589622497559,46.619895935058594,95.52679443359375,134.16384887695312,176.13169860839844,-30.900001525878906,13.200000762939453,13.65000057220459
3.94,65.39043426513672,-28.92195701599121,44.66622543334961,9.72588062286377,71.54517364501953,69.81317138671875,-30.30000114440918,11.100000381469727,15.000000953674316
3.95,57.84391403198242,-29.917943954467773,37.617698669433594,-62.085758209228516,27.578866958618164,35.705970764160156,-32.55000305175781,11.100000381469727,14.250000953674316
3.96,59.5294303894043,-25.665842056274414,30.301015853881836,-118.17610931396484,12.523736000061035,-2.398162364959717,-32.55000305175781,11.100000381469727,14.250000953674316
3.978,64.77751922607422,-20.76251792907715,21.183897018432617,-150.6845245361328,16.12097930908203,1.9984685182571411,-33.30000305175781,11.850000381469727,16.5
3.982,71.32805633544922,-11.875240325927734,17.92778205871582,-160.94332885742188,24.64777946472168,11.191424369812012,-32.70000076293945,10.5,15.90000057220459
3.99,75.69508361816406,-4.8267107009887695,17.1999454498291,-159.8774871826172,31.575803756713867,39.43644714355469,-31.950000762939453,9.450000762939453,15.15000057220459
4.0,77.57213592529297,-0.5746083855628967,20.11129379272461,-168.80397033691406,32.108726501464844,61.15313720703125,-33.30000305175781,9.15000057220459,16.05000114440918
4.01,77.30398559570312,0.6129156351089478,23.13756561279297,-183.7258758544922,21.316997528076172,92.3292465209961,-33.30000305175781,9.15000057220459,16.05000114440918
4.02,78.79796600341797,4.711789131164551,22.333112716674805,-199.84686279296875,31.44257164001465,125.63705444335938,-30.900001525878906,8.700000762939453,15.15000057220459
4.04,80.67501831054688,6.512228488922119,21.87342643737793,-220.8973846435547,43.83307647705078,128.3016815185547,-34.80000305175781,6.900000095367432,15.750000953674316
4.043,79.5641098022461,5.324704647064209,22.333112716674805,-232.48851013183594,43.69984436035156,123.10566711425781,-34.20000076293945,7.050000190734863,15.600000381469727
4.05,75.69508361816406,5.094861030578613,23.788787841796875,-237.41806030273438,43.30015182495117,109.11638641357422,-35.25,6.150000095367432,17.25
4.06,74.58417510986328,7.4316020011901855,25.39769172668457,-245.0122528076172,56.22358322143555,99.52373504638672,-35.25,6.150000095367432,17.25
4.07,79.29595947265625,17.73624610900879,26.2021427154541,-247.54364013671875,57.15620040893555,104.7197494506836,-35.400001525878906,5.100000381469727,17.100000381469727
4.08,78.10843658447266,24.78477668762207,26.776752471923828,-284.04901123046875,50.4946403503418,133.6309356689453,-34.650001525878906,5.100000381469727,16.350000381469727
4.098,72.59219360351562,21.298818588256836,31.756690979003906,-344.9356689453125,51.560489654541016,124.43797302246094,-34.05000305175781,3.0,17.25
4.104,68.87639617919922,24.89969825744629,30.760704040527344,-294.57427978515625,58.355281829833984,102.05513000488281,-34.95000076293945,1.6500000953674316,18.150001525878906
4.11,64.85413360595703,31.83330535888672,23.405715942382812,-266.595703125,57.15620040893555,114.57886505126953,-36.150001525878906,1.350000023841858,17.700000762939453
4.12,60.7552604675293,35.24264907836914,20.83913230895996,-188.65542602539062,62.75191116333008,126.96936798095703,-36.150001525878906,1.350000023841858,17.700000762939453
4.13,53.63011932373047,40.988731384277344,14.403517723083496,-81.67074584960938,92.46247863769531,124.17151641845703,-35.25,1.0500000715255737,18.75
4.14,49.26309585571289,48.343719482421875,9.461885452270508,-15.188361167907715,130.43338012695312,145.35528564453125,-36.150001525878906,-0.15000000596046448,20.400001525878906
4.159,46.88804626464844,55.35394287109375,12.181697845458984,31.042879104614258,146.5543670654297,178.39662170410156,-36.900001525878906,-0.45000001788139343,19.200000762939453
4.163,46.0452880859375,63.74322509765625,20.724210739135742,1.4655436277389526,152.81622314453125,216.50076293945312,-37.05000305175781,-0.75,19.5
4.17,38.99675750732422,61.21495056152344,20.95405387878418,-37.4379768371582,169.33689880371094,199.98008728027344,-37.05000305175781,-0.75,19.5
4.18,37.27293395996094,55.96685791015625,18.77054214477539,-88.46553802490234,200.91270446777344,195.1837615966797,-37.650001525878906,-3.1500000953674316,21.450000762939453
4.19,41.5250358581543,46.42835998535156,12.717999458312988,-122.9724349975586,234.4869842529297,163.87442016601562,-38.400001525878906,-3.6000001430511475,22.950000762939453
4.2,46.27513122558594,51.59983444213867,10.381258964538574,-158.545166015625,280.7182312011719,123.63858795166016,-36.900001525878906,-6.750000476837158,22.5
4.219,51.02522659301758,53.74504089355469,15.552734375,-148.28636169433594,307.0979919433594,125.90351867675781,-36.75,-6.450000286102295,23.55000114440918
4.223,56.38823699951172,54.97087097167969,18.847156524658203,-153.48239135742188,323.4854431152344,98.4578857421875,-36.75,-6.450000286102295,23.55000114440918
4.23,60.065731048583984,50.144161224365234,19.000385284423828,-148.15313720703125,318.15618896484375,82.7365951538086,-37.650001525878906,-8.25,25.80000114440918
4.24,63.51338195800781,45.892059326171875,15.552734375,-140.82542419433594,337.7411804199219,65.016845703125,-36.75,-9.600000381469727,26.850000381469727
4.25,65.73519897460938,42.44440841674805,13.254301071166992,-111.64777374267578,347.86676025390625,58.08882141113281,-36.45000076293945,-10.5,28.80000114440918
4.26,67.68887329101562,35.85556411743164,9.232041358947754,-100.3231201171875,363.32159423828125,40.502296447753906,-38.55000305175781,-8.40000057220459,28.650001525878906
4.279,72.43896484375,30.14778709411621,5.51624059677124,-155.48085021972656,286.713623046875,45.56508255004883,-38.55000305175781,-8.40000057220459,28.650001525878906
4.283,115.9942855834961,-23.405715942382812,-91.01797485351562,10.791729927062988,18.119447708129883,24.51454734802246,-34.5,-12.750000953674316,31.500001907348633
4.29,125.6860122680664,-1.5705963373184204,-30.032865524291992,60.08728790283203,-36.10566711425781,10.525267601013184,-35.25,-10.350000381469727,34.5
4.3,100.67139434814453,14.97812557220459,7.2783732414245605,33.57427215576172,-42.101070404052734,10.525267601013184,-34.05000305175781,-11.850000381469727,33.45000076293945
4.31,87.60862731933594,41.5633430480957,25.5892276763916,-27.445634841918945,-31.309341430664062,25.580398559570312,-36.150001525878906,-11.700000762939453,33.60000228881836
4.32,82.78192138671875,46.58158874511719,25.81907081604004,-65.949462890625,-19.45176124572754,39.9693717956543,-36.150001525878906,-11.700000762939453,33.60000228881836
4.339,78.3765869140625,38.80522155761719,29.075185775756836,-60.22052001953125,-21.050535202026367,31.042879104614258,-37.20000076293945,-14.100000381469727,33.30000305175781
4.343,76.92091369628906,38.49876403808594,30.4925537109375,-38.10413360595703,-33.70750427246094,21.983154296875,-35.70000076293945,-14.850000381469727,33.60000228881836
4.35,71.71112823486328,44.206539154052734,31.41192626953125,-30.24349021911621,-38.50382614135742,22.649311065673828,-35.70000076293945,-14.850000381469727,33.60000228881836
4.36,68.99131774902344,46.083595275878906,32.063148498535156,-4.929555892944336,-52.626338958740234,25.313934326171875,-35.70000076293945,-14.100000381469727,32.85000228881836
4.37,69.22116088867188,50.18246841430664,32.44622039794922,-1.3323123455047607,-48.62940216064453,31.176109313964844,-35.70000076293945,-14.100000381469727,32.85000228881836
4.38,72.55388641357422,53.783348083496094,30.415939331054688,-4.130168437957764,-30.90964698791504,23.182235717773438,-36.900001525878906,-13.65000057220459,33.900001525878906
4.4,75.46524047851562,55.315635681152344,24.78477668762207,-11.058192253112793,-0.9326186776161194,20.91730499267578,-36.30000305175781,-14.250000953674316,33.45000076293945
4.404,77.22737121582031,56.847923278808594,26.087221145629883,-1.5987749099731445,42.633995056152344,8.926492691040039,-35.400001525878906,-16.350000381469727,33.60000228881836
4.41,73.93294525146484,60.48711013793945,22.026655197143555,-3.197549819946289,57.15620040893555,10.525267601013184,-35.400001525878906,-16.350000381469727,33.60000228881836
4.42,71.28974914550781,56.96284866333008,8.810662269592285,-114.17916870117188,107.65084075927734,-5.196018218994141,-36.900001525878906,-15.90000057220459,32.55000305175781
4.43,72.63050079345703,40.33750915527344,-28.61549949645996,-103.7871322631836,22.649311065673828,-24.381317138671875,-36.900001525878906,-15.90000057220459,32.55000305175781
4.44,93.73778533935547,41.86980056762695,-3.754108190536499,42.90045928955078,-126.96936798095703,-18.119447708129883,-36.0,-16.5,34.20000076293945
4.459,112.08694458007812,63.36015319824219,15.591041564941406,124.17151641845703,-171.3353729248047,-26.912710189819336,-35.70000076293945,-17.55000114440918,33.900001525878906
4.463,108.8308334350586,73.77971649169922,16.625335693359375,152.68299865722656,-172.134765625,-38.23736572265625,-36.45000076293945,-18.30000114440918,34.35000228881836
4.47,102.01214599609375,56.92454147338867,-3.6774938106536865,158.9448699951172,-199.04747009277344,-68.08116149902344,-36.45000076293945,-18.30000114440918,34.35000228881836
4.48,93.77609252929688,46.313438415527344,-10.5344877243042,159.8774871826172,-305.6324462890625,-122.3062744140625,-36.45000076293945,-18.30000114440918,34.35000228881836
4.49,84.12267303466797,35.817256927490234,-12.334927558898926,172.134765625,-376.64471435546875,-169.8698272705078,-37.5,-16.5,32.70000076293945
4.5,81.82423400878906,30.760704040527344,-13.48414421081543,201.17916870117188,-361.45635986328125,-197.44869995117188,-38.70000076293945,-16.350000381469727,31.350000381469727
4.519,84.00775146484375,32.484527587890625,-6.703764915466309,211.70443725585938,-305.6324462890625,-206.90811157226562,-37.95000076293945,-14.850000381469727,31.350000381469727
4.522,74.6990966796875,34.13174057006836,19.49837875366211,218.49923706054688,-252.60643005371094,-202.64471435546875,-40.20000076293945,-15.15000057220459,28.80000114440918
4.53,73.0901870727539,32.40791320800781,21.528661727905273,212.1041259765625,-215.7013702392578,-197.31546020507812,-40.20000076293945,-15.15000057220459,28.80000114440918
4.54,76.34630584716797,29.917943954467773,25.20615577697754,194.38436889648438,-176.6646270751953,-198.51454162597656,-41.25,-13.050000190734863,26.400001525878906
4.55,81.70931243896484,26.700138092041016,25.857378005981445,203.71055603027344,-138.02755737304688,-185.85757446289062,-42.75,-12.300000190734863,26.400001525878906
4.56,90.44336700439453,26.66183090209961,24.89969825744629,233.28790283203125,-117.11026000976562,-166.93873596191406,-41.25,-11.100000381469727,25.350000381469727
4.579,96.993896484375,27.236438751220703,23.597251892089844,281.3843688964844,-130.43338012695312,-146.42112731933594,-41.55000305175781,-10.350000381469727,26.100000381469727
4.582,103.27628326416016,30.837318420410156,21.87342643737793,311.8943176269531,-138.56048583984375,-120.57427215576172,-41.70000076293945,-8.700000762939453,26.55000114440918
4.59,116.6838150024414,34.93619155883789,25.435998916625977,308.9632263183594,-126.83613586425781,-118.44257354736328,-41.70000076293945,-8.700000762939453,26.55000114440918
4.6,126.18400573730469,38.76691436767578,17.161638259887695,331.3460998535156,-115.91117858886719,-118.04287719726562,-41.70000076293945,-7.500000476837158,26.250001907348633
4.61,130.24456787109375,33.94020462036133,18.272546768188477,327.74884033203125,-116.31086730957031,-114.17916870117188,-42.900001525878906,-6.750000476837158,27.000001907348633
4.62,120.59114837646484,30.0711727142334,22.754493713378906,325.3506774902344,-132.43185424804688,-140.6921844482422,-42.900001525878906,-6.750000476837158,27.000001907348633
4.639,95.76806640625,18.004396438598633,28.07919692993164,389.03521728515625,-135.22970581054688,-134.69677734375,-43.80000305175781,-3.450000047683716,24.150001525878906
4.642,72.93695831298828,20.570980072021484,32.484527587890625,377.1776428222656,-162.5421142578125,-113.91270446777344,-41.400001525878906,-2.4000000953674316,24.450000762939453
4.65,72.13250732421875,19.613300323486328,29.305028915405273,343.6033630371094,-173.2006072998047,-112.31393432617188,-43.05000305175781,-1.5,20.850000381469727
4.66,69.3360824584961,12.90953540802002,26.85336685180664,228.4915771484375,-161.87594604492188,-123.9050521850586,-42.0,0.30000001192092896,20.850000381469727
4.67,66.65457153320312,9.078812599182129,24.516624450683594,131.36599731445312,-151.6171417236328,-116.17764282226562,-42.0,0.30000001192092896,20.850000381469727
4.68,59.98911666870117,7.5848307609558105,19.68991470336914,59.02143859863281,-132.56507873535156,-113.11331939697266,-42.0,0.30000001192092896,19.80000114440918
4.7,52.3659782409668,5.056553840637207,20.992361068725586,21.316997528076172,-103.7871322631836,-123.50535583496094,-43.20000076293945,3.1500000953674316,19.950000762939453
4.704,45.31745147705078,2.183511972427368,21.222204208374023,27.17917251586914,-71.94486999511719,-150.81776428222656,-42.45000076293945,3.6000001430511475,19.200000762939453
4.71,39.11167907714844,2.911349296569824,18.88546371459961,47.163856506347656,-68.61408996582031,-151.88360595703125,-40.95000076293945,4.350000381469727,18.900001525878906
4.72,34.70634841918945,1.4939818382263184,20.187908172607422,38.90352249145508,-47.696781158447266,-172.2679901123047,-40.95000076293945,4.350000381469727,18.900001525878906
4.73,28.347347259521484,1.1875240802764893,15.705963134765625,59.4211311340332,-35.57273864746094,-192.3859100341797,-42.0,6.450000286102295,16.5
4.74,23.175872802734375,2.2601263523101807,16.625335693359375,111.91423797607422,-25.313934326171875,-215.83460998535156,-40.05000305175781,6.450000286102295,16.80000114440918
4.759,21.107282638549805,4.213795185089111,20.30282974243164,101.52220153808594,-6.128636837005615,-157.34608459472656,-40.650001525878906,8.25,17.700000762939453
4.763,18.387468338012695,13.21599292755127,15.24627685546875,86.3338394165039,-7.06125545501709,-140.29249572753906,-40.650001525878906,8.25,17.700000762939453
4.77,20.341136932373047,12.258312225341797,14.863204002380371,58.888206481933594,8.793261528015137,-114.57886505126953,-40.650001525878906,8.25,17.700000762939453
4.78,20.532672882080078,12.641385078430176,8.236053466796875,11.324655532836914,24.51454734802246,-54.75803756713867,-40.650001525878906,8.25,17.700000762939453
4.79,22.677879333496094,7.2783732414245605,2.145204782485962,-41.30168533325195,69.54670715332031,-0.6661561727523804,-40.20000076293945,10.950000762939453,17.100000381469727
4.8,23.482330322265625,0.19153612852096558,-0.4596867263317108,-90.19754791259766,98.19142150878906,-5.8621745109558105,-40.5,10.350000381469727,16.05000114440918
4.812,24.938005447387695,-2.3750481605529785,-3.294421434402466,-92.99540710449219,128.7013702392578,38.50382614135742,-40.05000305175781,10.050000190734863,18.75
4.82,29.611486434936523,-1.9153614044189453,-2.451662540435791,-88.59877014160156,136.82847595214844,39.70290756225586,-38.25,10.050000190734863,19.80000114440918
4.83,35.817256927490234,-1.0342950820922852,-3.2178070545196533,-70.3460922241211,156.41346740722656,63.018375396728516,-38.25,10.050000190734863,19.80000114440918
4.84,45.279144287109375,3.7924153804779053,-7.8529815673828125,-35.03981399536133,154.9479217529297,89.7978515625,-39.75,9.600000381469727,18.75
4.85,55.77532196044922,8.925583839416504,-13.445837020874023,-19.718223571777344,117.11026000976562,142.29095458984375,-39.150001525878906,9.450000762939453,20.700000762939453
4.86,72.05589294433594,21.183897018432617,-21.183897018432617,-108.71669006347656,70.47932434082031,139.6263427734375,-39.45000076293945,10.950000762939453,19.950000762939453
4.878,103.65935516357422,36.315250396728516,-37.809234619140625,-345.6018371582031,-127.5022964477539,77.14088439941406,-40.05000305175781,8.100000381469727,21.600000381469727
4.881,174.79588317871094,75.8866195678711,-109.32882690429688,-422.343017578125,-132.83154296875,89.66461944580078,-40.05000305175781,8.100000381469727,21.600000381469727
4.89,170.08409118652344,85.99972534179688,-98.21973419189453,-517.736572265625,-69.81317138671875,-49.96171569824219,-41.55000305175781,8.850000381469727,22.05000114440918
4.9,158.86007690429688,126.87353515625,-65.2372055053711,-472.1715087890625,-3.3307809829711914,-93.52832794189453,-40.80000305175781,8.100000381469727,22.05000114440918
4.91,137.36972045898438,173.76158142089844,-24.746469497680664,-390.90045166015625,-29.84379768371582,-152.68299865722656,-40.650001525878906,8.25,20.700000762939453
4.928,103.39120483398438,197.3971405029297,-16.47210693359375,-336.1424255371094,-109.24961853027344,-129.2342987060547,-40.80000305175781,7.650000095367432,22.350000381469727
4.932,63.436767578125,168.05380249023438,-32.40791320800781,-240.882080078125,-166.2725830078125,-93.92802429199219,-40.80000305175781,7.650000095367432,22.350000381469727
4.94,23.367408752441406,127.60137176513672,-54.24303436279297,-99.25727081298828,-120.30780792236328,-67.94792938232422,-41.25,8.850000381469727,21.30000114440918
4.95,8.887276649475098,100.78631591796875,-54.24303436279297,50.36140823364258,-87.39968872070312,-58.08882141113281,-39.75,8.100000381469727,22.05000114440918
4.96,11.492168426513672,83.6629867553711,-38.99675750732422,208.5068817138672,-79.80551147460938,-57.422664642333984,-39.75,9.600000381469727,20.850000381469727
4.97,51.63814163208008,79.52580261230469,-6.090848922729492,510.8085632324219,33.30780792236328,-28.378253936767578,-40.5,9.15000057220459,20.100000381469727
4.98,99.06249237060547,63.398460388183594,42.7891731262207,688.2725830078125,109.64930725097656,108.45022583007812,-40.5,9.15000057220459,20.100000381469727
4.996,117.9096450805664,58.3419075012207,65.81181335449219,540.5191040039062,169.33689880371094,232.35528564453125,-40.80000305175781,10.800000190734863,16.80000114440918
5.0,86.84248352050781,6.627150535583496,55.392250061035156,466.9754943847656,155.08116149902344,193.05206298828125,-40.80000305175781,10.800000190734863,16.80000114440918
5.01,76.99752807617188,-4.290409564971924,50.757076263427734,310.69525146484375,138.02755737304688,184.25880432128906,-42.150001525878906,9.75,14.100000381469727
5.02,64.93074798583984,-8.65743350982666,48.228797912597656,112.04747009277344,76.87442779541016,159.74424743652344,-42.30000305175781,8.40000057220459,15.450000762939453
5.03,56.005165100097656,-26.048913955688477,49.3014030456543,-51.160797119140625,17.986217498779297,154.54823303222656,-42.30000305175781,8.40000057220459,15.450000762939453
5.048,55.0474853515625,-31.450233459472656,38.613685607910156,-144.1562042236328,-3.197549819946289,98.85757446289062,-42.150001525878906,7.500000476837158,17.100000381469727
5.052,61.52140808105469,-27.121517181396484,24.095245361328125,-161.87594604492188,-0.7993874549865723,62.21898651123047,-42.45000076293945,6.750000476837158,15.15000057220459
5.06,70.6002197265625,-33.13574981689453,17.73624610900879,-179.32923889160156,11.058192253112793,46.63093185424805,-43.5,4.5,15.450000762939453
5.07,78.07012939453125,-33.978511810302734,18.387468338012695,-202.64471435546875,31.842266082763672,18.652372360229492,-42.900001525878906,4.050000190734863,16.350000381469727
5.08,82.74361419677734,-30.301015853881836,17.50640296936035,-277.92034912109375,62.085758209228516,-5.196018218994141,-42.900001525878906,4.050000190734863,16.350000381469727
5.09,82.82022857666016,-23.405715942382812,18.23423957824707,-332.8116455078125,88.46553802490234,11.457886695861816,-43.05000305175781,4.5,16.05000114440918
5.109,79.25765228271484,-16.740259170532227,18.88546371459961,-367.5849914550781,110.71515655517578,51.4272575378418,-43.05000305175781,3.450000047683716,17.55000114440918
5.113,77.95520782470703,-11.530475616455078,27.083209991455078,-356.6600341796875,103.52066802978516,110.58192443847656,-42.30000305175781,3.450000047683716,18.30000114440918
5.12,78.07012939453125,-5.592854976654053,36.430171966552734,-323.08575439453125,77.80704498291016,114.57886505126953,-42.900001525878906,0.9000000357627869,19.950000762939453
5.13,79.71733856201172,0.1149216815829277,41.946414947509766,-256.4701232910156,24.51454734802246,129.10107421875,-42.900001525878906,0.9000000357627869,19.950000762939453
5.14,85.11865997314453,7.163451671600342,42.21456527709961,-190.5206756591797,0.7993874549865723,127.23583221435547,-43.5,0.30000001192092896,18.75
5.15,86.765869140625,13.675680160522461,33.557132720947266,-128.03521728515625,-8.660030364990234,117.9096450805664,-43.95000076293945,-0.45000001788139343,19.650001525878906
5.168,82.74361419677734,17.42978858947754,21.75850486755371,-90.19754791259766,10.92496109008789,111.5145492553711,-43.95000076293945,-0.9000000357627869,19.650001525878906
5.172,77.7253646850586,25.972299575805664,13.407529830932617,-127.90198516845703,70.07962799072266,102.32159423828125,-45.0,-0.30000001192092896,20.55000114440918
5.18,63.81983947753906,21.030668258666992,18.272546768188477,-209.1730499267578,99.92343139648438,91.92955017089844,-43.80000305175781,-1.8000000715255737,19.80000114440918
5.19,57.0777702331543,19.80483627319336,28.807035446166992,-291.9096374511719,104.18682861328125,95.9264907836914,-43.80000305175781,-1.8000000715255737,19.80000114440918
5.2,54.35795593261719,36.46847915649414,25.09123420715332,-298.7044372558594,101.2557373046875,117.77641296386719,-44.400001525878906,-3.1500000953674316,21.150001525878906
5.21,55.43055725097656,46.696510314941406,14.441824913024902,-286.58038330078125,124.17151641845703,130.43338012695312,-44.70000076293945,-5.550000190734863,22.200000762939453
5.229,55.928550720214844,48.765098571777344,18.081010818481445,-236.21897888183594,113.51301574707031,197.71514892578125,-44.70000076293945,-5.100000381469727,22.200000762939453
5.233,58.3419075012207,57.42253494262695,23.9420166015625,-161.6094970703125,103.12097930908203,191.4532928466797,-43.5,-5.700000286102295,24.150001525878906
5.24,59.41450881958008,69.48931121826172,28.653806686401367,-120.84072875976562,95.66002655029297,115.77794647216797,-43.5,-5.700000286102295,24.150001525878906
5.25,56.50315856933594,81.05809020996094,25.70414924621582,-69.01377868652344,122.17304229736328,203.04440307617188,-45.0,-7.200000286102295,23.100000381469727
5.26,52.51920700073242,72.59219360351562,20.95405387878418,-90.06431579589844,148.68606567382812,192.25267028808594,-46.20000076293945,-9.0,25.500001907348633
5.27,51.02522659301758,67.80379486083984,5.4013190269470215,-145.35528564453125,211.1715087890625,182.52679443359375,-46.20000076293945,-9.75,25.200000762939453
5.288,47.65419006347656,62.13432312011719,1.7621324062347412,-194.78407287597656,286.0474548339844,166.1393585205078,-45.30000305175781,-11.100000381469727,26.850000381469727
5.293,38.65199279785156,50.06754684448242,1.5322890281677246,-206.6416473388672,331.74578857421875,147.22052001953125,-43.80000305175781,-12.750000953674316,28.200000762939453
5.3,37.387855529785156,38.920143127441406,4.520252704620361,-172.93414306640625,344.13629150390625,129.2342987060547,-43.80000305175781,-12.750000953674316,28.200000762939453
5.31,38.000770568847656,38.99675750732422,6.971915245056152,-106.85145568847656,349.865234375,101.2557373046875,-42.30000305175781,-13.500000953674316,28.950000762939453
5.32,46.58158874511719,37.043087005615234,7.163451671600342,-52.89280319213867,363.7212829589844,79.80551147460938,-42.30000305175781,-16.5,30.450000762939453
5.33,58.9165153503418,37.00477981567383,7.201758861541748,-7.72741174697876,373.58038330078125,75.00918579101562,-41.70000076293945,-17.850000381469727,33.30000305175781
5.349,66.69288635253906,31.948226928710938,2.030282974243164,-27.84532928466797,338.6737976074219,63.81776428222656,-41.70000076293945,-17.850000381469727,33.30000305175781
5.353,103.00813293457031,1.647210717201233,-48.26710510253906,130.83306884765625,136.0290985107422,62.21898651123047,-39.75,-17.400001525878906,38.25
5.36,119.55685424804688,2.75812029838562,-22.026655197143555,151.2174530029297,70.61255645751953,33.04134750366211,-39.75,-17.400001525878906,38.25
5.37,104.23396301269531,10.266336441040039,0.727837324142456,93.79479217529297,20.251148223876953,22.649311065673828,-38.55000305175781,-18.150001525878906,36.75
5.38,96.03621673583984,22.83110809326172,17.659631729125977,12.124042510986328,-1.1990811824798584,10.392036437988281,-38.400001525878906,-16.80000114440918,38.70000076293945
5.39,93.66117095947266,33.7869758605957,27.121517181396484,-61.552833557128906,-7.860642910003662,15.987748146057129,-38.400001525878906,-16.80000114440918,38.70000076293945
5.409,87.57032012939453,35.89387130737305,32.75267791748047,-104.5865249633789,-24.51454734802246,15.188361167907715,-38.70000076293945,-16.350000381469727,39.150001525878906
5.413,80.33025360107422,34.24666213989258,34.13174057006836,-109.64930725097656,-46.231239318847656,16.520673751831055,-39.45000076293945,-18.75,40.20000076293945
5.42,72.43896484375,29.84132957458496,34.9744987487793,-115.11178588867188,-60.22052001953125,2.9310872554779053,-39.45000076293945,-18.75,40.20000076293945
5.43,69.48931121826172,31.450233459472656,35.395877838134766,-108.3169937133789,-74.8759536743164,3.3307809829711914,-38.70000076293945,-18.75,39.150001525878906
5.44,68.37840270996094,38.115692138671875,32.82929229736328,-85.66768646240234,-97.12557220458984,14.788667678833008,-38.70000076293945,-18.75,39.150001525878906
5.45,67.34410858154297,43.82346725463867,29.22841453552246,-72.21133422851562,-78.87289428710938,16.78713607788086,-38.70000076293945,-19.80000114440918,37.95000076293945
5.47,68.53163146972656,46.88804626464844,24.210166931152344,-66.882080078125,-51.160797119140625,20.251148223876953,-39.30000305175781,-20.100000381469727,38.25
5.473,68.49332427978516,47.50096130371094,22.37141990661621,-51.29402542114258,-17.852985382080078,14.522205352783203,-40.05000305175781,-20.400001525878906,39.0
5.48,69.10623931884766,54.81764221191406,24.286781311035156,-22.382848739624023,-6.261868000030518,16.387441635131836,-40.05000305175781,-20.400001525878906,39.0
5.49,69.56592559814453,60.90849304199219,24.018630981445312,-14.522205352783203,26.379785537719727,32.24195861816406,-40.05000305175781,-20.400001525878906,39.0
5.5,78.4148941040039,69.22116088867188,13.79060173034668,-2.131699800491333,64.61714935302734,35.839202880859375,-38.400001525878906,-21.75,76.35000610351562
5.51,95.04022979736328,81.74761962890625,18.77054214477539,40.76875686645508,66.21592712402344,49.42878723144531,-39.150001525878906,-21.0,39.150001525878906
5.531,105.26825714111328,86.7275619506836,20.264522552490234,111.64777374267578,42.101070404052734,30.90964698791504,-38.400001525878906,-22.200000762939453,39.45000076293945
5.534,106.07271575927734,69.06793212890625,-5.861005783081055,206.5084228515625,-155.88055419921875,-87.53292083740234,-37.80000305175781,-21.600000381469727,39.60000228881836
5.54,110.36312103271484,41.10365295410156,-33.44221115112305,252.87289428710938,-237.41806030273438,-134.83001708984375,-37.80000305175781,-21.600000381469727,39.60000228881836
5.55,107.56669616699219,38.2689208984375,-25.627534866333008,271.7917175292969,-295.7733459472656,-179.9954071044922,-37.650001525878906,-19.05000114440918,40.650001525878906
5.56,94.84869384765625,36.2386360168457,-6.435614109039307,226.49310302734375,-294.174560546875,-190.9203643798828,-39.150001525878906,-17.55000114440918,37.95000076293945
5.57,80.40686798095703,35.204341888427734,12.258312225341797,159.61102294921875,-290.57733154296875,-203.17764282226562,-39.0,-16.950000762939453,37.5
5.589,73.0901870727539,35.12772750854492,24.018630981445312,113.24655151367188,-291.2434997558594,-199.18069458007812,-37.80000305175781,-15.000000953674316,35.25
5.593,74.77571105957031,34.82126998901367,25.014619827270508,79.80551147460938,-246.74424743652344,-188.65542602539062,-37.80000305175781,-15.000000953674316,35.25
5.6,82.93515014648438,32.369606018066406,22.06496238708496,90.33078002929688,-218.36599731445312,-189.5880584716797,-40.650001525878906,-14.100000381469727,35.400001525878906
5.61,85.88480377197266,28.998571395874023,21.528661727905273,135.22970581054688,-204.6431884765625,-192.11944580078125,-38.55000305175781,-12.750000953674316,33.45000076293945
5.62,89.33245086669922,25.474306106567383,19.651607513427734,181.59417724609375,-179.595703125,-191.9862060546875,-40.05000305175781,-12.750000953674316,33.45000076293945
5.63,92.16719055175781,22.409727096557617,14.67166805267334,210.50535583496094,-163.20826721191406,-214.23582458496094,-40.5,-10.050000190734863,31.200000762939453
5.65,102.20368194580078,23.558944702148438,7.4316020011901855,234.8866729736328,-172.00152587890625,-214.10260009765625,-40.5,-10.050000190734863,31.200000762939453
5.654,103.77427673339844,30.301015853881836,3.2178070545196533,260.0673828125,-172.40121459960938,-185.72434997558594,-42.75,-8.100000381469727,31.950000762939453
5.66,109.09898376464844,34.85957717895508,6.320692539215088,278.85296630859375,-164.00765991210938,-161.07656860351562,-42.150001525878906,-7.500000476837158,29.55000114440918
5.67,108.48606872558594,34.70634841918945,9.84495735168457,324.4180603027344,-129.36753845214844,-150.6845245361328,-42.45000076293945,-6.300000190734863,29.850000381469727
5.68,110.86111450195312,35.77894973754883,8.848969459533691,374.51300048828125,-102.18836212158203,-128.43490600585938,-41.55000305175781,-6.450000286102295,28.950000762939453
5.69,111.51233673095703,36.08540725708008,17.046716690063477,425.6737976074219,-54.22511291503906,-88.33231353759766,-41.55000305175781,-6.450000286102295,28.950000762939453
5.709,103.88919830322266,28.270732879638672,26.700138092041016,450.8545227050781,-26.513015747070312,-134.16384887695312,-41.400001525878906,-3.6000001430511475,26.55000114440918
5.713,91.13289642333984,30.224401473999023,35.817256927490234,453.2526550292969,-31.975496292114258,-148.0198974609375,-41.55000305175781,-1.8000000715255737,27.450000762939453
5.72,80.44517517089844,36.69832229614258,44.74283981323242,396.0964660644531,-84.60183715820312,-150.41806030273438,-41.400001525878906,-1.350000023841858,26.55000114440918
5.73,80.8282470703125,38.537071228027344,48.458641052246094,265.79632568359375,-145.88819885253906,-158.27871704101562,-40.650001525878906,-0.45000001788139343,25.200000762939453
5.74,82.24561309814453,32.063148498535156,41.37180709838867,174.66615295410156,-178.79632568359375,-136.0290985107422,-40.650001525878906,-0.45000001788139343,25.200000762939453
5.75,74.16278839111328,20.149600982666016,29.496564865112305,119.10872650146484,-198.38131713867188,-111.38131713867188,-39.45000076293945,2.4000000953674316,24.0
5.769,65.96504211425781,14.09705924987793,21.337125778198242,94.59417724609375,-177.46400451660156,-97.92495727539062,-41.25,3.450000047683716,24.600000381469727
5.773,58.533443450927734,8.197746276855469,15.093047142028809,93.52832794189453,-122.9724349975586,-92.99540710449219,-42.30000305175781,3.0,23.850000381469727
5.78,48.88002014160156,0.9959878921508789,10.457873344421387,86.3338394165039,-103.25421142578125,-94.72740936279297,-41.70000076293945,4.800000190734863,21.75
5.79,46.006980895996094,-0.3064578175544739,11.338939666748047,119.10872650146484,-104.32006072998047,-9.859111785888672,-41.70000076293945,4.800000190734863,21.75
5.8,42.674251556396484,5.171475887298584,14.326903343200684,91.3966293334961,-73.67687225341797,-7.860642910003662,-42.150001525878906,3.6000001430511475,21.75
5.81,35.05111312866211,-7.5848307609558105,15.016432762145996,27.978559494018555,-68.4808578491211,-63.418067932128906,-40.650001525878906,4.350000381469727,21.450000762939453
5.829,32.292991638183594,-14.441824913024902,17.50640296936035,-4.796324729919434,-79.0061264038086,-77.54058074951172,-39.150001525878906,4.050000190734863,18.900001525878906
5.832,28.19411849975586,-17.73624610900879,17.1999454498291,-22.51607894897461,-73.27718353271484,-89.5313949584961,-40.650001525878906,4.050000190734863,19.200000762939453
5.84,28.117504119873047,-17.544710159301758,14.824896812438965,-17.852985382080078,-69.81317138671875,-96.99234008789062,-40.650001525878906,4.050000190734863,19.200000762939453
5.85,27.006595611572266,-14.173673629760742,12.717999458312988,10.658498764038086,-60.22052001953125,-73.27718353271484,-40.650001525878906,4.050000190734863,19.200000762939453
5.86,28.232425689697266,-12.22000503540039,8.35097599029541,34.373661041259766,-48.09647750854492,-45.03215789794922,-40.95000076293945,5.850000381469727,19.200000762939453
5.87,28.998571395874023,-13.177685737609863,5.20978307723999,35.17304611206055,-9.192955017089844,-29.444103240966797,-39.75,6.900000095367432,18.0
5.889,26.738445281982422,-14.288596153259277,5.631162166595459,27.84532928466797,23.182235717773438,2.531393527984619,-41.25,5.400000095367432,18.0
5.892,23.02264404296875,-14.863204002380371,3.754108190536499,5.062787055969238,65.016845703125,17.719755172729492,-41.400001525878906,7.500000476837158,18.900001525878906
5.9,20.800825119018555,-9.806650161743164,4.060565948486328,-10.392036437988281,79.80551147460938,38.63705825805664,-41.400001525878906,7.500000476837158,18.900001525878906
5.91,21.6818904876709,-5.4013190269470215,3.5242648124694824,-41.568145751953125,98.59111785888672,53.95865249633789,-42.0,6.900000095367432,18.30000114440918
5.92,27.46628189086914,1.8770540952682495,-2.719813108444214,-53.69218826293945,110.58192443847656,66.61561584472656,-40.650001525878906,5.850000381469727,18.900001525878906
5.93,34.93619155883789,12.756306648254395,-12.641385078430176,-101.65543365478516,117.24349212646484,87.26646423339844,-39.0,6.450000286102295,20.100000381469727
5.949,53.974884033203125,23.44402313232422,-29.76471519470215,-239.949462890625,25.04747200012207,94.19448852539062,-40.05000305175781,4.200000286102295,20.55000114440918
5.952,162.2694091796875,61.67463684082031,-158.86007690429688,-694.134765625,-174.0,43.56661605834961,-40.05000305175781,4.200000286102295,20.55000114440918
5.96,178.9713592529297,83.54806518554688,-155.22088623046875,-786.9969482421875,-100.3231201171875,23.715160369873047,-39.900001525878906,3.1500000953674316,19.950000762939453
5.97,173.8765106201172,123.8472671508789,-110.36312103271484,-537.9877319335938,-26.912710189819336,-63.81776428222656,-39.900001525878906,1.6500000953674316,20.400001525878906
5.98,168.78164672851562,162.0012664794922,-31.143775939941406,-187.05665588378906,-28.24502182006836,-181.72740173339844,-40.80000305175781,4.200000286102295,21.600000381469727
5.99,144.1884002685547,191.19137573242188,-6.512228488922119,-135.62939453125,-116.84379577636719,-157.0796356201172,-40.5,1.5,22.05000114440918
6.009,95.99790954589844,187.47557067871094,-18.387468338012695,-99.79019927978516,-179.86216735839844,-83.80245208740234,-39.900001525878906,4.800000190734863,20.700000762939453
6.012,18.655620574951172,131.62362670898438,-35.93217849731445,-44.89892578125,-169.60336303710938,-71.2787094116211,-39.900001525878906,4.800000190734863,20.700000762939453
6.02,10.113107681274414,115.30475616455078,-38.19230651855469,28.511484146118164,-120.04134368896484,-44.36600112915039,-38.25,4.5,18.75
6.03,-2.6815059185028076,94.35070037841797,-45.279144287109375,150.55130004882812,-66.882080078125,-25.447166442871094,-39.900001525878906,4.800000190734863,19.650001525878906
6.04,12.48815631866455,68.49332427978516,-17.046716690063477,308.0306091308594,-8.39356803894043,-11.457886695861816,-38.55000305175781,4.5,19.80000114440918
6.05,50.91030502319336,53.8216552734375,15.667655944824219,424.0750427246094,96.19295501708984,75.94180297851562,-38.55000305175781,4.5,19.80000114440918
6.069,91.36273956298828,50.48892593383789,39.26490783691406,391.6998291015625,168.27105712890625,185.0581817626953,-39.30000305175781,4.200000286102295,16.5
6.073,99.33064270019531,9.155426979064941,45.81544494628906,208.24041748046875,198.9142303466797,271.7917175292969,-38.400001525878906,4.800000190734863,18.900001525878906
6.08,92.81841278076172,5.975927352905273,43.55531692504883,146.0214385986328,215.16844177246094,266.46246337890625,-38.400001525878906,4.800000190734863,18.900001525878906
6.09,86.1146469116211,-9.002198219299316,45.394065856933594,44.49923324584961,164.67381286621094,205.97549438476562,-39.45000076293945,2.4000000953674316,18.450000762939453
6.1,80.8282470703125,-32.86759948730469,48.228797912597656,-22.649311065673828,95.26033782958984,150.01837158203125,-39.45000076293945,2.4000000953674316,18.450000762939453
6.11,76.30799865722656,-43.63193130493164,43.21055221557617,-66.08269500732422,41.701377868652344,87.9326171875,-38.55000305175781,1.0500000715255737,19.80000114440918
6.127,73.58818054199219,-39.26490783691406,31.41192626953125,-66.08269500732422,29.044410705566406,1.7320060729980469,-39.30000305175781,0.0,20.100000381469727
6.131,73.16680145263672,-28.040889739990234,16.970102310180664,-67.68146514892578,24.11485481262207,1.8652373552322388,-39.30000305175781,0.0,20.100000381469727
6.14,73.35833740234375,-23.290794372558594,16.81687355041504,-118.8422622680664,50.22817611694336,-11.324655532836914,-38.25,1.0500000715255737,20.850000381469727
6.15,75.31201171875,-14.595053672790527,19.881450653076172,-193.58499145507812,53.69218826293945,6.794793128967285,-37.05000305175781,-0.75,20.55000114440918
6.16,79.83226013183594,-6.512228488922119,21.298818588256836,-264.1975402832031,60.08728790283203,46.63093185424805,-37.05000305175781,-0.75,20.55000114440918
6.17,81.09639739990234,-1.3407529592514038,22.7161865234375,-314.29248046875,54.35834503173828,81.00459289550781,-37.05000305175781,2.25,22.80000114440918
6.189,80.71332550048828,0.2298433631658554,20.30282974243164,-351.73046875,56.22358322143555,106.85145568847656,-36.150001525878906,-1.350000023841858,22.950000762939453
6.193,78.3382797241211,1.5705963373184204,23.44402313232422,-363.05511474609375,40.76875686645508,128.83460998535156,-36.75,-1.8000000715255737,24.150001525878906
6.2,77.61044311523438,3.141192674636841,24.554933547973633,-344.6692199707031,23.715160369873047,113.11331939697266,-36.75,-1.8000000715255737,24.150001525878906
6.21,75.81000518798828,7.163451671600342,25.014619827270508,-299.1041259765625,23.98162269592285,150.2848358154297,-36.75,-1.8000000715255737,24.150001525878906
6.22,75.31201171875,14.288596153259277,26.929981231689453,-257.0030517578125,23.315465927124023,116.57733154296875,-35.55000305175781,-4.200000286102295,24.600000381469727
6.23,72.55388641357422,15.399505615234375,29.803022384643555,-284.4486999511719,17.986217498779297,109.915771484375,-36.150001525878906,-3.6000001430511475,24.450000762939453
6.245,74.00955963134766,15.667655944824219,32.02484130859375,-332.67840576171875,20.517610549926758,73.41041564941406,-35.70000076293945,-5.100000381469727,25.80000114440918
6.25,70.17884063720703,24.325088500976562,28.423961639404297,-310.0290832519531,14.12251091003418,140.29249572753906,-35.70000076293945,-5.100000381469727,25.80000114440918
6.26,70.17884063720703,28.653806686401367,24.286781311035156,-225.16079711914062,25.846860885620117,112.98008728027344,-35.70000076293945,-5.100000381469727,25.80000114440918
6.27,67.76548767089844,38.307228088378906,17.92778205871582,-168.80397033691406,49.82848358154297,194.6508331298828,-34.05000305175781,-7.200000286102295,24.900001525878906
6.28,61.67463684082031,46.42835998535156,16.127342224121094,-123.2388916015625,55.69065856933594,121.24042510986328,-34.5,-8.100000381469727,26.400001525878906
6.29,57.6906852722168,53.43858337402344,19.153614044189453,-105.38591003417969,67.814697265625,158.0122528076172,-34.5,-8.100000381469727,26.100000381469727
6.303,54.97087097167969,62.172630310058594,21.6818904876709,-112.84685516357422,59.95405578613281,192.65237426757812,-33.75,-10.050000190734863,26.100000381469727
6.31,48.956634521484375,68.03363800048828,31.41192626953125,-131.36599731445312,54.22511291503906,181.59417724609375,-33.75,-10.050000190734863,26.100000381469727
6.32,45.12591552734375,71.2514419555664,28.500577926635742,-158.4119415283203,57.02296829223633,205.7090301513672,-32.70000076293945,-11.700000762939453,25.80000114440918
6.33,44.0150032043457,70.25545501708984,27.083209991455078,-163.0750274658203,83.80245208740234,202.11178588867188,-32.55000305175781,-11.850000381469727,28.200000762939453
6.34,44.93437576293945,54.66441345214844,13.369222640991211,-184.25880432128906,131.36599731445312,172.2679901123047,-33.45000076293945,-12.90000057220459,27.750001907348633
6.358,44.12992477416992,50.79538345336914,8.35097599029541,-191.8529815673828,189.5880584716797,138.96017456054688,-33.45000076293945,-12.90000057220459,27.750001907348633
6.362,43.593624114990234,52.82566452026367,6.282385349273682,-198.51454162597656,242.21438598632812,125.10413360595703,-31.950000762939453,-14.850000381469727,28.80000114440918
6.37,43.86177444458008,51.63814163208008,10.496180534362793,-190.78712463378906,274.9892883300781,87.53292083740234,-32.55000305175781,-15.450000762939453,28.650001525878906
6.38,47.309425354003906,48.91832733154297,11.951854705810547,-150.81776428222656,297.10565185546875,107.78407287597656,-31.650001525878906,-16.350000381469727,30.30000114440918
6.39,49.76108932495117,48.42033386230469,10.496180534362793,-116.44409942626953,320.02142333984375,102.8545150756836,-30.000001907348633,-17.400001525878906,30.900001525878906
6.4,57.920528411865234,43.32547378540039,6.090848922729492,-93.39509582519531,369.3169860839844,83.66921997070312,-30.000001907348633,-17.400001525878906,30.900001525878906
6.419,66.4630355834961,40.33750915527344,5.746084213256836,-63.551300048828125,385.97088623046875,81.00459289550781,-30.000001907348633,-17.400001525878906,30.900001525878906
6.423,73.0135726928711,35.510799407958984,4.788403511047363,-52.75957107543945,434.4670715332031,51.29402542114258,-28.05000114440918,-18.150001525878906,33.0
6.43,84.9654312133789,25.627534866333008,-14.786589622497559,-124.57120513916016,404.3568115234375,14.388973236083984,-26.700000762939453,-19.05000114440918,35.10000228881836
6.44,139.4766082763672,-6.3973069190979,-98.87095642089844,-15.45482349395752,70.74578857421875,-12.656967163085938,-25.650001525878906,-18.75,35.10000228881836
6.45,128.6356658935547,6.665457725524902,-25.052927017211914,50.4946403503418,-75.8085708618164,-25.04747200012207,-25.950000762939453,-19.80000114440918,36.150001525878906
6.46,99.13910675048828,24.59324073791504,19.038692474365234,6.661561965942383,-100.3231201171875,-21.183767318725586,-25.950000762939453,-19.80000114440918,36.150001525878906
6.478,81.4794692993164,37.656005859375,26.393678665161133,-52.093414306640625,-72.0781021118164,-15.055130004882812,-26.55000114440918,-19.200000762939453,33.45000076293945
6.482,75.31201171875,36.27694320678711,20.685903549194336,-66.74884796142578,-51.027565002441406,-13.189892768859863,-27.750001907348633,-17.400001525878906,34.5
6.49,71.51959228515625,34.93619155883789,28.155811309814453,-60.88667678833008,-48.76263427734375,-9.459418296813965,-25.80000114440918,-17.400001525878906,33.45000076293945
6.5,69.22116088867188,39.57136535644531,32.56114196777344,-33.97396469116211,-59.82082748413086,4.929555892944336,-26.55000114440918,-17.400001525878906,34.20000076293945
6.51,67.42072296142578,45.31745147705078,33.288978576660156,-5.8621745109558105,-66.08269500732422,12.25727367401123,-26.55000114440918,-17.400001525878906,34.20000076293945
6.52,67.45903015136719,46.619895935058594,30.837318420410156,28.911178588867188,-69.28024291992188,22.116384506225586,-24.450000762939453,-17.850000381469727,34.35000228881836
6.539,67.53564453125,50.642154693603516,27.734432220458984,40.76875686645508,-50.62786865234375,21.45022964477539,-25.500001907348633,-17.400001525878906,34.20000076293945
6.543,71.94097137451172,54.97087097167969,26.240449905395508,11.324655532836914,-0.39969372749328613,28.111791610717773,-26.400001525878906,-17.850000381469727,34.35000228881836
6.55,77.22737121582031,63.781532287597656,23.44402313232422,4.529861927032471,10.92496109008789,20.517610549926758,-24.450000762939453,-18.30000114440918,31.80000114440918
6.56,77.07414245605469,64.31783294677734,24.286781311035156,-3.597243309020996,28.111791610717773,17.852985382080078,-24.450000762939453,-18.30000114440918,31.80000114440918
6.57,75.08216857910156,67.03765106201172,24.05693817138672,-2.9310872554779053,57.02296829223633,11.724349021911621,-24.450000762939453,-17.850000381469727,34.650001525878906
6.58,77.53382873535156,62.32585906982422,12.334927558898926,-88.865234375,94.46094512939453,-10.258805274963379,-24.750001907348633,-18.150001525878906,33.75
6.598,100.59477996826172,48.07556915283203,-30.37763023376465,-55.4241943359375,-32.77488327026367,-24.914241790771484,-23.700000762939453,-16.80000114440918,32.55000305175781
6.604,126.45215606689453,60.985107421875,-14.824896812438965,113.3797836303711,-250.6079559326172,-33.57427215576172,-24.0,-17.400001525878906,34.20000076293945
6.61,122.04682922363281,66.19488525390625,-9.461885452270508,160.41041564941406,-290.31085205078125,-61.81929397583008,-24.0,-17.400001525878906,34.20000076293945
6.62,111.9337158203125,60.44880294799805,-17.161638259887695,216.6339874267578,-316.9571228027344,-79.80551147460938,-24.900001525878906,-16.350000381469727,33.30000305175781
6.63,87.57032012939453,48.228797912597656,-13.599065780639648,247.41041564941406,-340.6722717285156,-127.63552856445312,-25.80000114440918,-15.450000762939453,32.70000076293945
6.64,77.26567840576172,34.3615837097168,-7.048529624938965,259.5344543457031,-332.8116455078125,-180.9280242919922,-26.250001907348633,-13.800000190734863,31.500001907348633
6.659,73.58818054199219,24.401702880859375,-0.8810662031173706,260.3338317871094,-305.6324462890625,-221.03062438964844,-26.700000762939453,-14.100000381469727,31.05000114440918
6.663,73.93294525146484,31.488540649414062,10.41956615447998,197.31546020507812,-261.6661376953125,-214.3690643310547,-26.700000762939453,-14.100000381469727,31.05000114440918
6.67,71.94097137451172,34.66804122924805,23.82709503173828,166.1393585205078,-235.28636169433594,-201.9785614013672,-27.450000762939453,-9.450000762939453,28.80000114440918
6.68,72.17081451416016,31.90991973876953,25.51261329650879,144.2894287109375,-197.31546020507812,-193.18528747558594,-27.900001525878906,-8.700000762939453,28.80000114440918
6.69,77.61044311523438,30.60747528076172,27.657817840576172,170.53598022460938,-174.1332244873047,-179.9954071044922,-26.55000114440918,-7.200000286102295,27.900001525878906
6.7,82.59038543701172,29.95625114440918,27.27474594116211,211.5712127685547,-144.68911743164062,-175.46554565429688,-28.500001907348633,-6.900000095367432,28.200000762939453
6.719,89.75382995605469,31.258697509765625,25.857378005981445,242.08116149902344,-123.37212371826172,-192.11944580078125,-27.150001525878906,-4.350000381469727,25.500001907348633
6.723,102.20368194580078,35.47249221801758,24.516624450683594,251.67381286621094,-142.82388305664062,-162.5421142578125,-27.150001525878906,-4.350000381469727,25.500001907348633
6.73,120.13146209716797,38.76691436767578,10.5344877243042,259.93414306640625,-160.6768798828125,-154.14854431152344,-29.400001525878906,-2.4000000953674316,24.750001907348633
6.74,123.00450897216797,37.88584899902344,4.711789131164551,270.5926513671875,-154.814697265625,-165.87289428710938,-27.750001907348633,-3.750000238418579,22.80000114440918
6.75,130.0147247314453,39.68628692626953,2.4133553504943848,369.983154296875,-80.73812866210938,-128.7013702392578,-27.000001907348633,-1.0500000715255737,22.05000114440918
6.76,123.34927368164062,42.52102279663086,-2.3367409706115723,471.37213134765625,-12.124042510986328,-115.77794647216797,-27.750001907348633,0.75,22.350000381469727
6.78,101.39923095703125,33.097442626953125,18.693927764892578,507.0780944824219,1.7320060729980469,-110.71515655517578,-27.750001907348633,0.75,22.350000381469727
6.783,82.13069152832031,27.504589080810547,37.57939147949219,437.7978515625,-85.00152587890625,-112.84685516357422,-27.900001525878906,1.6500000953674316,21.450000762939453
6.79,78.22335815429688,25.129541397094727,52.787357330322266,391.83306884765625,-130.30015563964844,-105.65237426757812,-28.500001907348633,3.0,21.600000381469727
6.8,74.85232543945312,20.800825119018555,46.658203125,317.09033203125,-175.33230590820312,-118.70903015136719,-27.450000762939453,3.1500000953674316,19.650001525878906
6.81,71.51959228515625,15.591041564941406,34.66804122924805,232.0888214111328,-178.92955017089844,-125.50382232666016,-28.650001525878906,3.1500000953674316,18.150001525878906
6.82,66.30980682373047,9.730035781860352,23.060951232910156,167.0719757080078,-159.21133422851562,-113.11331939697266,-28.650001525878906,3.1500000953674316,18.150001525878906
6.84,58.76328659057617,11.72201156616211,22.754493713378906,108.18376159667969,-143.75650024414062,-85.13475799560547,-28.80000114440918,4.5,16.5
6.844,48.650177001953125,9.155426979064941,21.75850486755371,74.8759536743164,-101.65543365478516,-57.955589294433594,-29.400001525878906,4.050000190734863,13.350000381469727
6.85,37.57939147949219,1.9536685943603516,18.579004287719727,50.36140823364258,-79.53904724121094,-69.54670715332031,-29.400001525878906,4.050000190734863,13.350000381469727
6.86,34.51481246948242,1.800439715385437,17.774553298950195,30.37672233581543,-61.68606185913086,-97.7917251586914,-27.900001525878906,5.100000381469727,15.15000057220459
6.87,29.879636764526367,1.2641384601593018,17.391481399536133,36.238895416259766,-44.76569747924805,-75.27565002441406,-27.900001525878906,5.100000381469727,15.15000057220459
6.88,27.542896270751953,-1.9536685943603516,17.92778205871582,31.842266082763672,-13.456355094909668,-99.52373504638672,-28.500001907348633,6.900000095367432,13.500000953674316
6.899,25.933992385864258,-2.5665841102600098,20.264522552490234,40.9019889831543,-13.989279747009277,-106.05206298828125,-26.55000114440918,6.450000286102295,13.200000762939453
6.904,26.31706428527832,-4.175487995147705,21.26051139831543,30.776416778564453,-9.859111785888672,-90.73047637939453,-27.900001525878906,6.300000190734863,12.600000381469727
6.91,26.929981231689453,-5.094861030578613,20.379444122314453,35.03981399536133,-21.84992218017578,-75.94180297851562,-27.900001525878906,6.300000190734863,12.600000381469727
6.92,28.117504119873047,-7.508216381072998,19.766529083251953,22.249616622924805,-14.788667678833008,-58.355281829833984,-27.900001525878906,6.300000190734863,12.600000381469727
6.93,29.34333610534668,-9.155426979064941,15.705963134765625,55.95711898803711,-29.444103240966797,-37.17151641845703,-27.900001525878906,6.300000190734863,12.600000381469727
6.94,30.415939331054688,-6.818686485290527,9.500192642211914,19.052066802978516,7.06125545501709,-2.797856092453003,-28.200000762939453,6.750000476837158,11.850000381469727
6.959,30.186094284057617,-11.798625946044922,5.439626216888428,-13.722817420959473,46.09800720214844,8.793261528015137,-27.450000762939453,7.800000190734863,11.550000190734863
6.963,30.722396850585938,-10.572794914245605,3.064578056335449,-36.5053596496582,89.5313949584961,16.78713607788086,-27.150001525878906,7.800000190734863,11.100000381469727
6.97,33.63374710083008,-4.596867084503174,-1.5705963373184204,-50.62786865234375,113.91270446777344,26.64624786376953,-27.150001525878906,7.800000190734863,11.100000381469727
6.98,35.510799407958984,0.8044517636299133,-4.558559894561768,-81.13782501220703,134.29708862304688,38.10413360595703,-27.150001525878906,7.800000190734863,11.100000381469727
6.99,45.31745147705078,11.60708999633789,-12.334927558898926,-108.18376159667969,140.6921844482422,51.693721771240234,-27.900001525878906,5.850000381469727,14.100000381469727
7.0,68.49332427978516,25.167848587036133,-33.82528305053711,-154.28176879882812,58.62174606323242,71.41194152832031,-27.150001525878906,5.550000190734863,12.300000190734863
7.02,99.59879302978516,43.86177444458008,-52.480899810791016,-414.0826721191406,-106.05206298828125,94.72740936279297,-25.80000114440918,7.200000286102295,13.200000762939453
7.023,158.4770050048828,67.19087982177734,-116.95196533203125,-654.6983032226562,-130.03369140625,-101.52220153808594,-28.05000114440918,5.400000095367432,14.700000762939453
7.03,170.1223907470703,129.17196655273438,-107.10700988769531,-548.646240234375,-56.756507873535156,-95.66002655029297,-28.05000114440918,5.400000095367432,14.700000762939453
7.04,159.85606384277344,153.6885986328125,-76.537841796875,-211.70443725585938,17.32006072998047,-173.46707153320312,-27.450000762939453,5.100000381469727,15.15000057220459
7.05,131.47039794921875,168.85826110839844,-28.61549949645996,8.39356803894043,-14.92189884185791,-173.2006072998047,-27.900001525878906,5.550000190734863,14.40000057220459
7.06,89.8304443359375,177.0943145751953,-13.905523300170898,45.96477508544922,-83.00305938720703,-129.50076293945312,-26.400001525878906,6.750000476837158,14.850000381469727
7.079,57.84391403198242,148.05743408203125,-27.77273941040039,35.306278228759766,-117.77641296386719,-76.74119567871094,-27.000001907348633,7.200000286102295,13.200000762939453
7.083,33.40390396118164,113.27446746826172,-33.863590240478516,69.81317138671875,-90.19754791259766,-22.649311065673828,-28.05000114440918,5.700000286102295,13.500000953674316
7.09,15.399505615234375,71.32805633544922,-25.627534866333008,81.8039779663086,-55.15773391723633,-19.584991455078125,-28.05000114440918,5.700000286102295,13.500000953674316
7.1,20.226215362548828,59.68265914916992,-18.88546371459961,124.8376693725586,-42.500762939453125,-11.857580184936523,-27.900001525878906,8.25,11.850000381469727
7.11,49.531246185302734,55.660400390625,-1.723825216293335,216.90045166015625,-1.5987749099731445,44.63246536254883,-29.700000762939453,8.700000762939453,12.300000190734863
