time,accel_x,accel_y,accel_z,gyro_x,gyro_y,gyro_z,mag_x,mag_y,mag_z
0.0,-0.214202036668708,-0.14153124901558692,9.879931600684587,0.08570923699706652,0.020603502756298585,0.08427737777965542,19.993238504672526,41.75403606009044,30.536170676378536
0.02,-0.03254533204312482,-0.05718133408740164,9.65853519272782,0.022920854482710758,0.03364286781993456,0.0062252279740173935,19.955646912690856,41.49168838939663,30.44109963273281
0.04,-0.024217899845661462,-0.05888253572551932,9.826136328809062,0.04798403748425569,-0.024896080679042837,-0.018368136394594836,20.089491553936845,41.93312990686239,30.532327260176917
0.06,0.20647124279858747,-0.1461097858002053,9.696193059178622,-0.018528717445653944,0.02112358916982898,-0.028933705338992793,20.313593508936567,41.76184793664689,30.498856137398548
0.08,-0.04846665261898776,0.007341958017809645,9.714340382224721,-0.002314213829568525,-0.23091873019616307,-0.04778152656830499,20.22744575266744,41.56675437557465,30.819333785182597
0.1,-0.2235723890922876,0.3412484577523357,9.202364324389096,-0.04828304219823095,-0.06755599369873709,-0.01088014596872806,20.1895150759378,41.40521541688471,30.57051557277847
0.12,-0.4672160690092615,0.5768153493044861,8.055389919319103,-0.09913054345855667,0.03873461441361397,0.02355605101614319,19.743172315766024,41.888936654588875,30.53350474420368
0.14,-0.7656828934702086,0.6773863457302561,7.250153201339539,-0.21739254717657724,0.1797440786531398,0.03594230465794151,20.23083058166514,42.25369271966692,30.498357927983633
0.16,-0.7021204922745878,0.8506182138814491,8.633857896820743,-0.3197248380400737,0.214576449552445,0.043590735088222,20.5014679405577,41.598738606822664,30.716282673214213
0.18,-0.8587832967644887,0.7543842688309005,9.535374935521256,-0.29727546574360725,0.2556919165324755,0.18784126584715902,19.617692446614768,41.83656749134852,30.700461512637986
0.2,-0.9289888452656911,0.27068508884477904,9.755552887952515,-0.49818614037416376,0.3255488697161612,0.04504822754668685,20.35302791537993,42.026941780762584,30.522021521842348
0.22,-1.117301195660295,-0.0887680240468627,10.200190416820252,-0.47126725607232994,0.20532100804946055,0.1040383642070164,20.214983735016034,41.57954656783689,30.362677434168482
0.24,-0.8702596583319581,-0.32995105541449476,11.019559044621559,-0.36025272213664683,0.10976538620731952,0.12293379968670423,20.107290537661108,41.74046894233411,30.42124716627737
0.26,-1.065546569930478,-0.6898360064301345,12.348292692604863,-0.36271034606081765,-0.051296323331145255,0.11734207057826108,20.449091018500862,41.67647686605879,30.56883168117009
0.28,-0.7554932014632042,-0.8233244610091293,12.896455528314226,-0.2866679377332521,-0.11947073780194581,0.07237000860924436,20.64830965086716,42.03939643510641,30.87285066376012
0.3,-0.44320606178097566,-0.7389356271798905,11.783010873175654,-0.24930435966676023,-0.2861921388099088,0.0477952567372025,20.493606929108296,42.11325307379094,30.5753866911747
0.32,-0.5589752263301043,-0.8387633703751242,10.765265194892734,-0.14914810230603742,-0.30762252248321514,0.06206265349125214,20.2981511063866,41.89740367812548,30.518809709593505
0.34,-0.30688551599818104,-0.2505499681081911,10.143926326919976,-0.13109970899019913,-0.24843734408276003,0.032045132594585135,20.212868013557742,41.7130722113128,30.304179496615774
0.36,-0.020433468951586563,-0.023022669664383426,9.734976110668034,0.02438333213182511,-0.15882958479607956,-0.01543002406884063,20.446310027586353,41.7971849578748,30.94208756833716
0.38,-0.07833366279515513,-0.0695033418779693,9.640314757911307,0.04473189735396405,-0.0281404459692808,-0.07797017144277268,20.610646498184714,41.768358809942754,30.769883409877863
0.4,-0.17886368938234873,-0.0385664788052591,9.80898824641649,0.055586428988699164,0.09106483113388238,-0.02546033867199588,20.39306559329283,41.708689512163694,30.822497254754488
0.42,-0.023417954418621375,-0.0336067819180302,9.72744887781438,0.09365060614313758,0.012035601297293582,-0.05803440785795798,20.43592947818284,41.88334021888608,30.863230296195525
0.44,-0.1319811565177061,-0.19619532513071283,9.959385909039648,0.008716725288114555,-0.05306055656681941,-0.03502365840318368,21.05772791900362,42.01959942600829,30.65576894204146
0.46,0.01546487334097743,0.11351406983551066,9.783341523887984,0.010147732168664589,0.014714498332318467,-0.0014052845511859464,20.74713969856422,42.00935713054016,30.712336218055118
0.48,-0.11826472648644511,-0.026032739302020626,9.702988856828624,-0.0761122782803447,-0.02138396229520597,0.014219334911837578,20.784907869405647,41.919334873427,30.990489400854123
0.5,0.11879370288168378,0.01252820452294802,9.669872686942876,-0.0285077472546444,0.017835287384792488,0.0824617320620355,20.3076590947866,41.93724953813808,30.747624356226666
0.52,-0.10519231606427876,0.06134877797510811,9.88463087607272,-0.012267939552317406,-0.0050570998876962245,-0.028795506187383062,20.476106993190072,41.91570824116323,30.83429932746498
0.54,-0.060917905555744854,-0.12803159592578883,9.679377241266083,0.04741533850926504,-0.21156689722683727,0.03418203049320723,20.649977963821186,41.6870624482261,30.8968711860818
0.56,-0.1744232810888261,0.3625602936014285,9.30555031555144,-0.12133642753882797,-0.14584020066268513,0.033938174568647596,20.467067435235084,41.971323559636865,30.861279271355745
0.58,-0.5820467134952179,0.5697716412481397,8.06820133764391,-0.13832917469907932,0.07811228190537764,0.10259626210246572,20.990100038813246,41.83266096562291,30.721217731713352
0.6,-0.6316536481367371,0.8312323241662424,7.28401451358038,-0.2524737631577356,0.10111550933135141,0.0870079587264634,20.97702906823476,41.68985476784736,30.747187759505564
0.62,-0.6863457780569167,0.5457284973917154,8.576460160365833,-0.32423666251272054,0.19779654478904546,0.026776039737059804,20.627117486265863,42.02323528756917,30.910743912056766
0.64,-1.0852872584202968,0.5859521331512623,9.566817778891478,-0.35144063664257136,0.31274695972705213,0.004390677384262812,21.09525970614304,41.8378098142255,30.918048010643687
0.66,-0.9872030617627224,0.25923620833878624,9.83214138875075,-0.4117466707408659,0.3571015229570528,0.1094333528022226,20.774996468857093,42.00187940075371,31.000848453998465
0.68,-1.0050512517521513,0.011497243260879024,10.24271730591883,-0.423593787908448,0.1922075656968727,0.07163435210078126,21.295913987725264,42.12347182298482,30.889723385986105
0.7000000000000001,-0.9298729164912019,-0.331982749306699,11.071563294900345,-0.474800888350655,0.12973039007634052,0.047437731412553696,20.849338320190952,41.78053988403912,30.905697486943378
0.72,-1.0497161361467149,-0.7233972718773383,12.334207759608603,-0.37528934911270634,0.014930985658457858,0.026253156972654193,20.954860541364923,41.98261864511616,30.71257917767499
0.74,-0.9385953173241206,-0.8783110207063589,12.713852625029947,-0.33877106400235096,-0.1235047699644854,0.08290997213098648,21.13554789288462,41.61896078333751,30.693651261714358
0.76,-0.6033834115595114,-0.8205662051269625,11.715857181551327,-0.27716300823224926,-0.27195525764882195,0.13171894975291487,21.134465324406076,42.26212366741732,30.961957148248178
0.78,-0.43537321048717237,-0.741542839796684,10.677501103448666,-0.15654358864270135,-0.35348390539328833,0.020772101317865825,21.009468421028753,41.70793639602028,30.708543643074737
0.8,-0.2284736203231108,-0.2962765565306431,10.181759363145124,-0.06039403984858152,-0.3921272822447354,0.04758506832724697,20.906408406870213,41.870715991769394,30.821389667562066
0.8200000000000001,0.003259028111709544,-0.06544389124295502,9.728489952108385,0.008145336222831676,-0.22774837833015918,-0.007908784810444429,21.054168161495262,42.22689875807964,31.09657873452124
0.84,-0.09528237327153512,-0.3090708690548776,9.705789147878141,0.044779929141574776,0.05354819369098438,-0.06489034027696286,20.820539042271307,41.924954052254726,31.072461691278495
0.86,-0.007703645072543657,-0.06598291743569339,9.696410133922202,0.02462697243985753,-0.05695996726857284,0.03227094448850003,21.02808874158492,41.7398189153839,30.90222448857569
0.88,-0.001865042563326598,-0.12970020680102134,9.84956081075742,-0.017162697110670824,0.030610072680900737,-0.055545218113313824,20.807362213682975,42.10605036998946,30.793453012538848
0.9,-0.09857773613053131,-0.18660247828425078,9.82305460360286,-0.025217101714290226,-0.048607321442489866,-0.0019619217315088944,20.699724315062575,42.100827892930745,30.83251482844526
0.92,0.14911435306989662,-0.14879295726936698,9.76478038152802,0.01201546736480863,0.0020914836665682354,-0.019392979920254648,21.07247063218331,41.845463687692714,31.02854615185983
0.9400000000000001,0.015487960407531608,-0.019496786704034874,9.69187017008266,0.024540821275291242,0.030973997479440848,0.039867716859153204,21.32610858798534,41.864724022463854,30.860558518955134
0.96,-0.14436513573145426,0.09754951951183019,9.788868171997434,0.06409652673751191,-0.03465578096824454,-0.053791247638592964,21.282292389439956,41.8800707275497,30.765845400078117
0.98,0.03302914642884766,6.570949103808232e-05,9.629796275775764,0.05417630615712459,0.005183264673451877,0.015761755574494073,21.109418246065218,41.92176516142542,31.11179101228506
1.0,-0.12356944034182286,-0.08822432526871102,9.747979853196485,-0.02899070431234411,-0.23505641851878,-0.04331027555273765,21.48099252663464,41.59559334396756,30.918412684355424
1.02,-0.176960811997039,0.360873794030434,9.38500909186768,-0.09690467502863433,-0.06823658295751765,-0.005280956796150246,21.056550179072495,41.92142634518899,30.777751279182137
1.04,-0.3526585635328473,0.5513925161934007,7.856329156996278,-0.1443446410109703,0.04188456691825494,-0.1341012370101691,20.817636724323986,42.29567353492568,30.985434797132747
1.06,-0.7322753044204977,0.6832606943057971,7.1833815607900915,-0.20113202739666275,0.1593219913272058,0.15976971162353296,20.786755777694083,41.777724893245185,31.084700272309924
1.08,-0.7193473740605749,0.6391235135950925,8.732495365527594,-0.27066205848938196,0.32581805785530016,0.10160988102246211,20.998594061987024,41.83399684943559,30.709354586958046
1.1,-0.8913418989165152,0.4272896205262591,9.509679420842,-0.3664536831368723,0.3269043578016513,0.050264207465210015,21.40163993020373,41.7147374828073,30.868794838128125
1.12,-0.9260101368223526,0.27967431546433985,9.875593228855813,-0.4531642521892983,0.24702810951844836,0.04050931817819866,21.14222980791315,42.055180218359574,30.864224949318054
1.1400000000000001,-0.847907873665221,-0.014826864967667244,10.171222073850847,-0.4509489460597884,0.20501056711767168,0.07320885986179165,21.371675570742514,42.1640013616302,31.002584770443544
1.16,-1.0284851713180991,-0.38638286361547586,11.077146550674442,-0.3798847561853976,0.09244057690272645,0.12890300888951606,21.618110144516624,42.154640855887166,31.04109936712116
1.18,-1.0033275396807382,-0.6953980110573702,12.370185068856616,-0.34696071934859907,-0.032734003344982145,-0.003723189637834509,21.109446999427107,41.6831249655663,30.817728935555316
1.2,-0.8972248677120804,-0.9007339515723497,12.664679519888544,-0.36846920291206253,-0.041433177677440966,0.06838709612067478,21.430966160362185,42.01311781800174,30.64071127175811
1.22,-0.7318075892154157,-0.751550695343702,11.870427698391175,-0.2502565794208084,-0.23921636891835737,0.14433979006408168,21.460787521575508,42.18654514063819,31.12898125757998
1.24,-0.47128550322131224,-0.7819098502892962,10.616148437315333,-0.1462547265123777,-0.398836986333002,-0.014041050214698779,21.21003824581086,42.0029212308036,30.719251070467987
1.26,-0.21977034437391713,-0.3026083115650737,9.873341583538267,-0.14726725314286893,-0.3122193497349247,0.023110575256286937,21.653079852065627,41.990415784039634,30.98960032443005
1.28,-0.0034376832643182908,-0.12621283381696577,9.845725268788462,0.05003986568661185,-0.3078858945557631,0.10275887113237238,21.355378295110313,41.801196418295845,30.915292234478237
1.3,0.04940959190745829,-0.10223378278589136,9.75472245053972,-0.02112149513087161,-0.01883031633820031,0.027343278225157093,21.354256682507522,41.92690008123252,30.97476813267234
1.32,-0.028751818379720927,-0.170811378299105,9.76492561646931,0.057365429403679245,-0.09839089102686857,0.0030443433833018466,21.8504559726526,42.114596943545585,31.26340842188466
1.34,0.10953927140710243,-0.07813460610102112,9.663824549432242,-0.02860571739724322,-0.044836342611284545,0.021318549835632136,21.56225350538277,41.932523660202456,31.53235998519792
1.36,-0.05540705599084378,0.06362999601388597,9.93277443530523,-0.052278023178440595,-0.07599463342243776,-0.022241536080465713,21.656158547011824,41.62182251606853,30.637873751444896
1.3800000000000001,0.23113623999260344,0.019500296490619823,9.864164561893068,-0.024990575512402538,0.015439688542438924,0.05938230169456512,21.75502446487509,41.765616310327154,31.142732546069755
1.4000000000000001,0.030064065385440597,0.06392852275469137,9.872558964880511,-0.007567109907711368,-0.0029741105938138252,-0.022167841099210172,21.386135477655408,42.07674565045046,30.9259964647164
1.42,-0.11228712541596313,0.02012568440965784,9.7506773085656,-0.021647035525031083,0.011542190759939092,-0.0970407172193269,21.766890253768352,41.898006348302005,31.159201876323703
1.44,-0.1328056798138668,-0.13595230353891546,9.568209345385837,-0.013368068235509442,-0.2201505010072535,-0.021782548989142073,21.446213194193685,41.849312592976595,31.143670074103714
1.46,-0.2062035820929686,0.28535122575860106,9.48882281952223,-0.07597804639806863,-0.16901001059636217,-0.027151164038450328,21.453413106542715,41.710585579332,31.23225200741931
1.48,-0.4853361665088398,0.5205660695791475,7.970578913344547,-0.18477010539725044,0.05523836855521965,0.026891061326279213,21.52090997505859,42.035379836287724,31.017843126973073
1.5,-0.5849457544258927,0.8776775205332068,7.258618534947814,-0.25556931565318974,0.24887640184753468,0.046912945350003066,21.46859754044046,42.116274134067076,30.793723210256907
1.52,-0.7664006705089695,0.635050619688533,8.620882279075268,-0.39777546014893655,0.2706594635415995,0.13265946183743854,21.76053253650454,42.02925682972892,31.143865582770815
1.54,-0.9379604435174789,0.6812601641557787,9.680451941882756,-0.344586042392465,0.2746692822007296,0.12047093767013242,21.668369641044702,42.053048830389685,30.989490159573844
1.56,-1.0862201091163906,0.4028305628244885,9.764329382261,-0.39725292316192956,0.21161777463944886,0.10712953462180141,21.536876710785137,41.69626116222249,30.922857059921093
1.58,-1.175425333569843,0.14564353936474447,10.30874906583202,-0.3257059369368222,0.16554481975948593,0.09685862025603544,21.774561046450007,41.65787834285851,30.877082747330064
1.6,-1.0477933475802577,-0.41643690418647816,11.196662207198429,-0.4380702929009195,0.117829622102009,0.04366760679299864,21.605820823025848,41.71238888515058,31.16233925936704
1.62,-0.8487545836473658,-0.5870822586547282,12.224764855714339,-0.4501857229289444,0.01492032245537768,-0.01759952461771061,21.608999452479363,41.73802968619328,31.27741709716064
1.6400000000000001,-0.7912784830315306,-0.5909037534377298,12.684859559992892,-0.28606530527857005,-0.15008804656794586,0.08061482879365661,21.694400618288398,41.99331786390931,30.740351944306447
1.6600000000000001,-0.7730807246150844,-0.8692359307310938,11.949631540290452,-0.23576262386446944,-0.218622669862598,0.09749175795740898,21.78683122267358,41.93007464427441,31.08940605758709
1.68,-0.44725837023584475,-0.8028290497375306,10.392360615012644,-0.2249582806325183,-0.2671451072546651,0.035188347516015545,21.785218258019516,41.79699866686237,30.898466568677332
1.7,-0.2155304655023466,-0.5575879545491926,9.98576120756131,-0.16543632342272238,-0.26185134830598633,-0.006420914098130118,21.652869517095183,41.40594066127841,30.68806438302196
1.72,-0.11485031387530889,0.038420354770687615,9.675967194258758,0.07079504307284586,-0.2467387669285046,0.019296103930282214,21.89722780469827,41.34347415810517,30.99779809929796
1.74,-0.01524238982922932,-0.21078241997362404,9.734250835062381,0.06487729874912553,0.005348328574807318,-0.006999945629968656,21.70357322061979,41.700320964547316,30.808976203213774
1.76,-0.024411963029184008,-0.0657426290820406,9.751313271453197,-0.12239792441789421,-0.04372213458634264,0.07791572121475014,21.631925826489653,41.80947447115567,30.66535236857723
1.78,-0.13972514859173982,0.01198206595574023,9.74560853972088,-0.024994705404312045,-0.0021634102580111144,0.05617096041927765,21.486950346569408,41.61123509478987,30.817371508811966
1.8,0.004347586593435197,-0.012223148464328249,9.72698291979719,0.07688121862962717,0.012881449491211772,0.04305638673711982,21.968424373283852,41.97996008322326,30.769160267010044
1.82,0.0238353145313505,0.010842706961680541,9.674674209635635,-0.025851002773337614,0.07758162275456904,0.03337123748207538,21.79259083599924,41.38999684997539,30.841198805457573
1.84,0.0739729193448266,-0.00866017384311801,9.954234384392759,-0.026549387233279327,-0.27799916912561057,-0.06492803589366994,21.84096983807585,41.35109201567031,30.709505581160897
1.86,-0.15135593696096372,0.4398781093721323,9.480619103202727,-0.10558082130873545,-0.07897135229896747,0.05107579109415623,22.01125785454605,41.44056897597337,30.886764089752695
1.8800000000000001,-0.5961399984414388,0.5040428134234994,7.864885955368508,-0.23035655038789493,0.1016886992289249,0.05845201987879143,21.728492417202137,41.41803283099806,30.824086076749367
1.9000000000000001,-0.7435210056905852,0.6849507964534399,7.482386523490882,-0.3342251564664395,0.19303431571486318,0.08845736714864919,21.56566831606947,41.638433801438616,31.03139019737495
1.92,-0.7623880968159985,0.6757670229994599,8.542520640839495,-0.265210322071944,0.29099864102408723,0.09882840361382951,21.852055779738542,41.440683749255086,31.071318024403578
1.94,-0.881645416614847,0.6751635999132347,9.580810343674283,-0.45184851866085607,0.32332301825762777,0.10882949100694907,21.906596333307164,41.208487542495696,31.005237356449538
1.96,-0.955483334296443,0.4035452557799727,9.760467935495102,-0.3811021351715092,0.34248505460173023,0.22413438175656292,21.805514051082937,41.66063396044407,30.9078581959613
1.98,-0.6601377768971468,0.013317630654576883,10.122669980149459,-0.36044418434763287,0.1569330822865706,0.0933430878423079,22.147154224980113,41.13507817373954,30.90029689853731
2.0,-0.9501224231552796,-0.26349159927261334,11.187144038086998,-0.4626300272199851,0.02955923861997832,0.13943698549799022,21.394769051587804,41.25061575213673,30.787429203150822
2.02,-0.8219545664450817,-0.7685571092425564,12.340182556640297,-0.4077524304855311,-0.036893381573324606,0.06448937589756976,22.094779963970044,41.12779599441586,30.789362769105463
2.04,-0.7202473131726828,-0.6498888150365496,12.703794473507156,-0.25749999194441575,-0.2663454039260428,0.11313394427341127,22.038945078904682,41.46195691794879,31.07770579327606
2.06,-0.590956241733377,-0.6637114220610821,11.732467386010748,-0.22681711817259553,-0.19794626116794067,0.10443633491703122,21.981755332490657,41.44051545265939,30.601753471554918
2.08,-0.49414958660303143,-0.5848454742388324,10.56698629982141,-0.20618320957720987,-0.2425193335841916,0.05788082561425252,21.26027018016848,41.755131610085314,30.92096658856553
2.1,-0.17965988878896128,-0.20605429605202555,9.842536463007347,-0.03430042142118978,-0.3069658257365676,0.09937594662970349,22.153672968645154,41.54478139900667,30.871044986977903
2.12,-0.10419122059560702,-0.1890358279370665,9.814500450262583,0.054913714725806466,-0.23292902299566878,-0.04544524974530003,21.716188116587254,41.62805607890055,31.044740625803044
2.14,-0.05273458624704085,-0.08034702108121458,9.665120103140698,0.009914529264753943,-0.006472678807232225,-0.026386605200074662,21.82157688572354,41.388388278452354,30.652498108161378
2.16,-0.07659490059159393,-0.10058913222546742,9.754506190798221,-0.04620769093793582,-0.000503008778898252,0.0071942441291275,21.891782455496696,41.12690429986964,30.924738871733133
2.18,-0.022140082618913034,0.039262015080704954,9.911529777946596,-0.022845537766646173,0.0031043481213256984,0.03927872896724266,22.007934367421672,41.320359544996535,30.98428735118944
2.2,0.19220722240065682,-0.130813511001806,9.895132759000473,0.010746563709858728,0.023795141130158553,0.005612617022156795,22.057344685558345,41.39058604139858,30.548667976261672
2.22,-0.2092574584888078,0.04271953433639861,9.77690141816615,-0.012052551799079436,-0.01128606494440695,0.058716433752507166,22.110554055487714,41.39284418256281,30.703898284060596
2.24,0.035880978275953296,0.10157146982368448,9.771639866290258,0.04206994455527286,0.04227327856693411,-0.03476111380638333,22.10001576235081,41.14767864585558,30.888190025250434
2.2600000000000002,-0.18482072363420657,0.036739478408063936,9.914678859522581,-0.07642915584524815,-0.19372654105394965,-0.057747767495450616,21.995865512684748,41.31269710065825,31.000026527265007
2.2800000000000002,-0.2978263930721,0.34434708956555066,9.351335338357673,-0.16373302297770523,-0.13121796398843663,0.034042253549383665,22.03078000193236,41.0199798395506,30.93169976919781
2.3000000000000003,-0.35934448180869094,0.500629345247952,7.944974853964965,-0.16787168229586652,0.09467475088558903,0.03668372065829839,21.74480468919108,40.97888893165549,30.999470368154864
2.32,-0.647318920025569,0.6686446369974239,7.1936055761221755,-0.27599005260622483,0.09141328762072158,0.08540643876306792,21.813025474130765,40.94485363849341,30.67968130640761
2.34,-0.9152949811492432,0.869905744653939,8.618681156868703,-0.3458309264927035,0.24659330084905434,0.0738678382852108,22.131830396908168,41.14351079604125,30.576793646504793
2.36,-0.999638023991376,0.6702826903493361,9.648023428402395,-0.44825426968133875,0.3415256982195952,0.07077593684031598,22.12301143973825,40.892151764900134,30.89282772406214
2.38,-0.9396865282840947,0.31336111743380235,9.705903689291896,-0.39203296432241674,0.2454574900567273,0.09089578777544365,22.103287288478555,41.016077831751616,30.635192520262297
2.4,-1.100115196644845,-0.0701193163935254,10.21396131420309,-0.4055322451840368,0.22399070540078753,0.09838474695007288,21.867285438618488,41.250143076358164,30.699569873638232
2.42,-0.984147887581954,-0.5715845471127387,11.057791176788966,-0.3616041737390459,0.12216401924250446,0.07985368882546251,22.142288402545223,40.858169770294,31.039051179335715
2.44,-0.926593971271653,-0.7582670181681299,12.310430339381833,-0.360080052771161,-0.0778944884940918,0.07734654856671737,21.74562001040495,40.93774287353864,30.890562275275304
2.46,-0.8743851158381886,-0.6264460973800453,12.51071249261022,-0.3220975887427559,-0.1660885534951144,0.05581066807143133,22.176221462060155,41.02696399653124,30.739233129593615
2.48,-0.4476711692835023,-0.9328660645616957,11.836416957858845,-0.19589989017755727,-0.2645294436185273,0.10046890593960488,21.91975489456842,41.03908834882591,30.708217997109777
2.5,-0.40302751297502915,-0.6372751231372003,10.745830874169618,-0.2395519262125537,-0.3275970798559228,0.04970138212803419,22.2933607180174,40.87413620656533,30.955242342707155
2.52,-0.4469346222754452,-0.28039236986730826,9.93949430877076,-0.06626169107784233,-0.17568460619407317,0.12757621205973227,21.677725206731058,41.09923315787306,30.870372425762287
2.54,-0.012100385782135068,-0.15047257612822026,9.818369520963397,-0.0832150639101768,-0.25176113932134714,0.00471381846136618,22.307941955382955,41.03952442892705,30.589991980633364
2.56,-0.09353150061776525,-0.012267794421016002,9.707428732157576,-0.043241370240038775,0.045236654115258394,-0.029441158575775762,21.89917779408179,41.12286062934716,30.442582820950754
2.58,0.0518336001404375,0.06003989160102288,9.814602400924107,-0.06120754236591906,-0.021854448810294812,0.12519241799342712,21.894613896057777,40.866043675252364,31.171115368896192
2.6,-0.10608199088953926,-0.028800065096903967,9.759213773036528,0.03453324170169208,-0.055158537066493527,0.016854066130288097,22.003462510101777,40.76080914695424,30.568205229449127
2.62,-0.041014698380822306,0.24536669334400976,9.689832812094528,-0.006139691212578912,0.001935083671443307,0.0445259897708552,21.83047864926349,40.70562369768805,30.8972192651051
2.64,0.018478778782123888,-0.19018552885230675,9.862135843674018,-0.0036481557404628843,-0.1839755519053642,0.025420943193719597,21.9483800500363,40.872920156654004,31.07880445581502
2.66,-0.1694084353159827,0.41874493016289893,9.39052022410233,-0.1451315569935394,-0.05789925898339755,0.04915662280192338,21.818277791030596,40.71870551742449,30.809810732017322
2.68,-0.5791121941949127,0.5788762191843633,7.918373224776007,-0.19093878345180196,0.10557806814243569,0.06609976837667458,21.822618423092013,40.65885772064588,30.658780602079432
2.7,-0.6856019204994646,0.8240466646097797,7.378290993069846,-0.28904225530233074,0.29798144487148576,0.006448921076622212,22.047711505086664,40.658960018169104,30.49272850201862
2.72,-0.8574262323394816,0.7923078163085866,8.632460880195644,-0.29732675227420957,0.2630419415487539,0.09282454252975077,21.777822276295026,40.59053306829732,30.482387587806087
2.74,-0.9936884742294954,0.5250821910518645,9.630069264795512,-0.4109599216568851,0.26328523862435416,0.023503544205430438,21.799810196354777,40.73666544543424,30.823410142824326
2.7600000000000002,-0.8354443051148384,0.33909064497014324,9.603893669629677,-0.32914103534288586,0.301902966778665,0.08612337507038073,21.679795968464425,40.403774139842895,31.021763964650006
2.7800000000000002,-0.9911217557477483,-0.20835853933423545,10.282640077648972,-0.48342786158195655,0.19635381273645267,0.06217036208496222,21.842373978505833,40.7095946320431,30.659218049307505
2.8000000000000003,-1.125972771797988,-0.31919523123919263,11.038003112659938,-0.43168411683064445,0.1405300928194572,0.11165136013892113,22.186402091164368,40.75763065547453,30.62029672691908
2.82,-0.8428541209851607,-0.6268419732393333,12.293745968094576,-0.28288192268259504,-0.09885322905654695,0.10313494666247718,21.76729084586872,40.49241842482466,30.852640746569833
2.84,-0.6081044875548174,-0.748630953555721,13.002780058353181,-0.3366192528893897,-0.04892956491937972,0.09827815100353199,21.78406266022044,40.94909213002181,30.578633593608064
2.86,-0.5543731368458235,-0.7083629705370925,11.88668781716481,-0.31551009663490526,-0.2159269512192606,0.07313921567782955,21.956286759297605,40.55946181187767,30.754530366293746
2.88,-0.6097432558491436,-0.6201736813142917,10.615684463495517,-0.1660380606452152,-0.38194585582218865,0.011260757506008683,21.842070550539837,40.232225601375326,30.70123414373176
2.9,-0.29900740495147504,-0.3628904069934128,9.788400694320583,-0.11482720120882402,-0.320198386403629,0.006723925906750874,22.334971973460394,40.45384100321389,30.605854812385815
2.92,0.09162347032191566,-0.11458256031948424,9.946744346473578,-0.04312177226967873,-0.17596014423849526,0.041179015740215284,21.869557908448705,40.49562087704405,30.672640943954306
2.94,-0.09793626869940295,-0.09837319331030889,9.650859871602375,-0.05560179891833844,0.05346451469622982,0.04825712051013119,21.958417265645906,40.545462821915294,31.005189640991276
2.96,0.01260666510203793,0.08392652353702378,9.683669865264049,0.12988193307004528,-0.06406740610713424,-0.058045588734074366,22.06824718471622,40.385427284654284,30.77366491340235
2.98,0.04436486912921633,0.10788819894777393,9.748190179287567,-0.015074491208838546,0.031225240820781545,-0.07648452636060703,22.05724803973895,40.216151940559364,30.858176316552285
3.0,-0.11898532527149597,-0.05285860188595719,9.915975532003229,-0.0954272332959781,-0.09647231388777232,-0.037890690393826185,21.916904248249324,40.17558710295796,30.462741289062205
3.02,-0.035714434181932805,-0.025583736263685684,9.854231038719913,0.06869806843226564,-0.0072881215426102075,0.04716996393754803,21.833260132545774,40.23571660368921,30.84015912744368
3.04,-0.341161664646631,-0.11684297999940155,9.764847599055335,0.026331403445307395,0.050378248420953904,0.05531443344878565,22.244594550770543,40.22943730542352,30.74293591864007
3.06,-0.1283412135680918,0.08258465714567471,9.809596038109328,-0.03979038868894982,-0.029472755044943063,-0.04738617025925624,21.828313742447406,40.09387976458589,30.32272345599416
3.08,-0.05424654253374339,0.033880015074410755,9.722362973484374,-0.0477897162569348,-0.07533227035862465,0.011750848979344239,21.753853384862957,40.14630533317227,30.7045864811091
3.1,-0.14978718546862557,0.15635687390051992,9.793406754198275,0.02932669421559508,0.004018310226122847,0.0850527039907242,21.705549966024048,40.38878209381718,30.49259914601373
3.12,0.126711485177437,-0.11431901540925493,9.741251230276866,-0.014852079719493823,-0.24415853995446718,0.016934950907536023,21.48860819874922,40.55377573841548,30.28445650796517
3.14,-0.38981450624053515,0.28081823298829767,9.394344660788647,-0.18445530886789063,-0.07186491701539001,0.08748425108681994,21.968213919161276,40.357401420722525,30.59617426437863
3.16,-0.5061280098404686,0.6176839945368788,8.06929337386725,-0.09076597734599919,-0.011906325915474553,0.08832724927574453,21.349653212998472,40.438112083816236,30.664665065706362
3.18,-0.6409387064392688,0.812005325367133,7.377925144057481,-0.27322746292985933,0.11952305225125215,0.015659442286933632,21.789113155916244,40.34941715688962,30.580095849432215
3.2,-0.6734692467176827,0.7292382365408863,8.546083962400463,-0.24394514963605549,0.15400914836642554,0.06606403991894325,21.740320863151933,40.29731670971711,30.519758959394046
3.22,-1.0688116344156453,0.5116609212908689,9.639623286495892,-0.3020226691786133,0.30327100909844396,0.08876510174825061,22.19888382004118,40.04744165243052,30.466877527844144
3.24,-0.8932641919749476,0.40172211407070946,9.757713262889713,-0.44101962300790454,0.2724415620552335,0.09949119384320669,21.40600581238951,40.11427380127248,30.993482670018416
3.2600000000000002,-1.0290176261421196,0.03922899480437593,10.08214207031338,-0.35340688651056895,0.15208957016044083,0.14098378976505144,21.57326106652609,39.98136186633015,30.282305473791183
3.2800000000000002,-1.0991527426824268,-0.465069304948164,11.05397858507736,-0.42424040726618617,0.10538605684737057,0.11410965980740198,21.70845193280303,39.994939525434084,30.666335670158713
3.3000000000000003,-0.8866069343731452,-0.5253426770682962,12.336212040148233,-0.4529891753275569,0.012710031599926355,-0.05384075851110762,21.684687727293646,40.02497292304094,30.490988219783816
3.3200000000000003,-0.792721751692977,-0.6976032536625848,12.836924125368018,-0.3361133049562749,-0.1729568842387103,0.01216681513835216,21.604854947903522,40.12375966593271,30.31317999752692
3.34,-0.7111106220659779,-0.7970498660096709,11.840089268088507,-0.23330932065823207,-0.24414524617703048,-0.04564530373297671,21.682297155780454,40.042900533340095,30.45707540767469
3.36,-0.4571827389585164,-0.6478237911863245,10.536688344859444,-0.1987648547508475,-0.28799472298788487,0.04880590546321186,21.443217268444315,39.90542002776328,30.187977035378257
3.38,-0.28951103925504396,-0.32391744526692023,10.005556155701644,-0.10674669394693086,-0.34397283079710045,0.03079550057008403,21.74056999635641,39.92202877810674,30.33006136662701
3.4,-0.019102334855880306,-0.11272349474460097,9.824218769460156,0.05189117015657337,-0.11641591496199971,0.010594798013314496,21.212930665325132,39.96947371798676,30.424284644559425
3.42,0.03356454475402049,-0.02711697800024811,9.797840412374665,0.002111711053924409,-0.025600791845869626,-0.04902855685030159,21.640108363755846,39.98928500263708,30.124308910440117
3.44,0.1222576143499538,-0.2366288202824813,9.868307665531626,-0.043478318941677724,0.028493577689293,0.02935891224575948,21.51592331309302,39.54441196659665,30.508104788128364
3.46,-0.1488302878873775,0.05413974196828181,9.877816631048631,0.030697455536031672,0.03392233330699438,0.031380599830489395,21.812192480266127,39.604135275116086,30.214523555972413
3.48,0.1747712039670016,-0.1799033493544185,9.72295575625136,0.006488427213803767,-0.009700566101556084,-0.06324715522584758,21.93969822699596,39.99855760584126,30.1094537535777
3.5,-0.21740042875416019,0.11432830352918391,9.720850228027302,-0.12403703047017807,0.026126161202862465,-0.07336983366954587,21.524471972349822,39.749256116037934,30.169296437796753
3.52,-0.044571369123416,-0.06169152902077923,9.680140923748276,0.017560939861029537,0.008799322647186678,-0.0030063209388930174,21.840153348136905,39.65454247019019,30.78300807927673
3.54,0.02647845182251935,-0.05032003026539298,9.847086304346925,0.015807777970372878,-0.0710467083469155,0.08300554913344123,21.497286471414633,39.660432336778506,29.97386239150384
3.56,-0.003024780697436863,-0.09026245498411253,9.873297633178586,-0.0020341857801187205,-0.23108112401596848,0.07858765162553484,21.35708057183245,39.635492771648615,30.42575158343078
3.58,-0.3123000878590914,0.2894552593975272,9.271094885723981,-0.04920674569118616,-0.1314861618995451,0.04629550269713796,21.862138100513683,39.76839302639214,30.18600828436449
3.6,-0.48386347515185657,0.7316441951086354,7.953266939899511,-0.2088283876946954,0.00842558084637825,0.005348533675912148,21.61101556294051,39.42372335892349,30.251347438390443
3.62,-0.7008178915859814,0.5111126987180914,7.471314440828041,-0.23624393088009016,0.09401747041844234,0.10191742784132543,21.49573721836398,39.61646603756021,30.42272134098301
3.64,-0.8684104991346742,0.872531006809925,8.62940288183353,-0.39094664280324487,0.30508607817229466,0.053466783535968995,21.610440836691147,39.63426609630045,30.40143317192955
3.66,-0.8494070665884007,0.6279154401601881,9.61028697389534,-0.3438472087578237,0.3720093103894166,0.05025654902989901,21.514531577593356,39.63845819256481,30.15230433546921
3.68,-0.970654425529179,0.20123291309975389,9.652214251071728,-0.29922429948681445,0.32710914194043383,-0.00841761669967335,21.431736108391576,39.58059226894677,30.010336481922327
3.7,-1.0965193211450228,-0.1332299897327267,10.251163744360664,-0.450753104918442,0.2701174371150271,0.10191434552068734,21.173261767999684,39.61235225599898,30.37848286389499
3.72,-0.9185663241402315,-0.21617326068205894,11.003497124411872,-0.4294416672081427,0.07954124641015867,0.06425915845958835,21.35867499624085,39.378908595378824,30.353035682279515
3.74,-0.9014681138982646,-0.746233846448926,12.219231511855181,-0.3974682884197622,-0.06712967091032207,0.09172554500761013,21.512736395722598,39.28368410497455,30.180168841575448
3.7600000000000002,-0.73379671905949,-0.9206639787626708,12.716253338766599,-0.3094926781487355,-0.19998180120156286,-0.03518602117257594,21.35172782586583,39.91197887857854,30.30759820690074
3.7800000000000002,-0.5930454330340669,-0.7007601336784449,11.80147187116452,-0.3034216618404719,-0.22610214346653854,0.06750066046989035,21.530553157762643,39.3581986581183,30.124967611461688
3.8000000000000003,-0.5434672601660772,-0.6229641098509763,10.631497850477482,-0.15633362146985624,-0.2902146364170536,-0.07630544195888231,21.412755976439797,39.35652114774538,30.039559657623975
3.8200000000000003,-0.30629831381522404,-0.46714784664154163,9.861774717190757,-0.05136005620000606,-0.2898716412492348,0.07147322555252199,21.15206344316965,39.49806791636999,30.186859547938045
3.84,0.04174018609183301,-0.009204002361156769,9.905373355035623,0.0226486662457816,-0.15296490423458786,0.02205077923848407,21.048742718964736,39.65045304820474,30.273466909997456
3.86,0.028595545481612625,-0.12847225762946662,9.888257884273578,-0.08788394043062749,0.016437184983136465,-0.016375909028380216,21.25299323951932,39.21563464418759,30.22087030563108
3.88,-0.03200655302055822,0.0756788542485701,9.593055122482482,0.04476804792761309,-0.043255566600988074,0.024010553283939803,21.163460061102807,39.10469426315483,30.246904879458302
3.9,-0.018736571202356927,0.07189161262782082,9.873931949343989,0.04199363588417663,-0.03568362379851335,-0.04994756460785052,21.309421766944745,39.034362462004374,29.99073760304459
3.92,0.09265582999568879,0.021072595086906544,9.702189251537124,0.03684774587262261,0.02973567836419899,0.00047402474951483645,21.087500292098955,39.55523149772817,30.428086689783854
3.94,-0.08679085332823967,0.004719461879713595,9.862269651550347,0.0148964279354796,0.047003176927420655,0.03514915384609611,21.087563899635732,39.02665155782552,30.046200780615326
3.96,0.022521348592323645,0.13907405998726788,9.773429136704024,0.007569087081846375,0.023480651148286538,-0.1515258839563867,21.388049981167434,39.1974078467037,30.07665607712634
3.98,-0.04941049463365383,-0.03003011257073037,9.782762454151776,0.04655469111006704,0.0880506598978599,-0.02446676926452114,21.194264936091596,38.99191155183912,29.833835477371846
4.0,-0.05089739550981315,-0.14345991604039693,9.762230625655564,0.08932864740496582,0.07548034395510811,-0.004086918246545965,21.010646908022906,38.87844237760041,30.03730827325857
4.0200000000000005,0.07548257779077025,0.013149495631901459,9.850575306384581,-0.048745942241512796,-0.1939623142831276,-0.012422093651796796,21.128532634121658,39.07749557717341,30.16421265381304
4.04,-0.17328096445346353,0.5173675080496094,9.182342301600835,-0.04025835458437672,-0.14233559024166226,0.08919298105454689,21.369288856909833,38.93081360840764,30.19590505954465
4.0600000000000005,-0.38578681406149684,0.4980482746285821,8.034796946631673,-0.18069191635138102,-0.032290057732132504,-0.013558880084542646,21.14015827712512,38.955448660841405,30.336863102568845
4.08,-0.5281638363719179,0.7152419041428364,7.436231011195136,-0.25862022724086625,0.13801529919389466,0.029533336500502355,21.176635248878164,39.45092540732183,30.124312464733496
4.1,-0.8098151136712849,0.7899211494031985,8.649637975656768,-0.3894860661255498,0.28717150519646073,-0.016778565016002542,20.89722455894472,39.12498798176138,30.06504298732274
4.12,-0.8655013826581025,0.5902903204698732,9.791579442009487,-0.37705743881770665,0.3827927227749458,0.1595906460513529,21.217421780332433,39.20005109828651,29.913628668661477
4.14,-1.0347135208147953,0.2228058475778244,9.715763346423634,-0.4408398828552134,0.30020245674422863,0.08267086437295997,21.443954701572064,39.157494432476504,29.859700218488243
4.16,-0.9988800301611096,0.0776983541981253,10.277907112678818,-0.4252650126162854,0.2652307284790636,0.07595637337423806,20.825284615909055,38.95789865197807,30.16047649277169
4.18,-1.0174216454011213,-0.15438308198038952,11.082509512108032,-0.4456841112940807,0.08430895924953564,0.09197362246726809,20.72853104001716,38.87109894153912,30.1442280251191
4.2,-0.9216572552631181,-0.6366365659081287,12.446504433034793,-0.38493514975199195,-0.006696424820069911,0.11763620655489747,20.967211459019776,38.98174142673107,29.742271141553676
4.22,-0.7546964080260864,-0.8967328855601148,12.74880526654695,-0.3352258901243354,-0.12308849513969643,0.09185659161557701,21.07950483390079,38.94487324873478,30.075330360032396
4.24,-0.732038987449147,-0.9586425401505926,11.820471897556796,-0.24775168465843103,-0.3520377850094066,0.18644742243661358,20.871612904209325,38.782071767126894,30.048813278707147
4.26,-0.26301456065175405,-0.6306994917771906,10.778154352710121,-0.2540614890370072,-0.32095872548204524,0.062177296555137006,20.66455080413987,38.89513523899996,29.69753923776618
4.28,-0.34909860258028635,-0.27113476633568656,9.952919007959332,-0.1613932446743015,-0.2405793806471726,-0.003079687204484396,20.82338337424003,38.71368487065802,30.002618439050757
4.3,-0.14656210682762238,0.015616103663556443,9.677705316760274,0.014371884995065226,-0.2019575542454092,-0.029945123401149448,20.936392299503417,38.79565294194809,29.68480923644718
4.32,0.08117864385600651,-0.03023076872820997,9.730382699215314,-0.041277029619364754,-0.06043272231124479,-0.021852429716006837,20.720601051212924,38.743651372387745,29.407382544712313
4.34,0.04599961862044184,-0.0865700785717734,9.8394271628725,0.04857742993103669,-0.1196458740349131,-0.07508817238223223,20.892405834836268,38.54403868577501,29.830566958936938
4.36,0.029915502437006893,-0.1348477087409366,9.913635720152362,0.00781294665672224,-0.020557475774496306,-0.0010865180404038691,20.976371804440465,38.31606297553901,29.898324037579307
4.38,0.03032116888937087,0.05013612732718868,9.790668420028465,0.026124583209907553,-0.0064361132589061945,0.034606469098028024,20.775682471191526,38.56719822837219,29.81426614659337
4.4,-0.031175690193303802,0.05772207565301622,9.860757821232632,0.06471323138020295,-0.2575603359477248,-0.032441452829915327,20.700883133283924,39.074092535043945,30.374401480337678
4.42,-0.3386573536189542,0.16871693177173616,9.170957958341388,-0.10687449254924125,-0.0952156416092064,-0.019502149306005915,20.842057791069948,38.64864777724525,29.884236705961023
4.44,-0.4566065015309604,0.7480897278797696,7.933890981490593,-0.2041288575070045,0.0548959066981713,0.11315374093387903,20.494914487481083,38.837694073824984,29.827353827182073
4.46,-0.7184973261638962,0.805053166951283,7.302800104118946,-0.21055419663475036,0.18880260714946015,-0.009122211331942583,20.45233480097693,38.26161855782602,29.869216442722745
4.48,-0.7182199880599257,0.8843034156794551,8.569871622887526,-0.291275941918587,0.13793315137173373,-0.024072133824107472,20.56070534090805,38.456930300744794,29.68966291793313
4.5,-0.9450863765266243,0.46662092211985307,9.576481407506458,-0.3723794020323901,0.232027978273183,0.031757593495167546,20.493593133425517,38.37167678074871,29.9405482891042
4.5200000000000005,-1.0841756430739047,0.18598787237416445,9.832869687554856,-0.32618118245884425,0.26554311197148295,0.02055202079621614,20.4098415038983,38.574326073792996,29.819125656918704
4.54,-1.0608530407986874,-0.044301053737660405,10.143304393245472,-0.4131877268723167,0.2365963446457625,0.11553885107701993,20.891488472139716,39.05982627599283,29.798085994505573
4.5600000000000005,-0.9652864925713637,-0.3288396863121078,11.10604096704831,-0.391398030270052,0.11956695123695187,0.07717897519660284,20.932926567257553,38.6650370071428,29.60553839158664
4.58,-0.9850864249716007,-0.48301454697343527,12.323765652233828,-0.36236885992092327,-0.01393958533291188,0.0765519086290976,20.42377164446672,38.884309065525954,29.412853128713586
4.6000000000000005,-0.8907646404424076,-0.7421587540192061,12.660657979362652,-0.3605930999423387,-0.18101368416910943,0.13052398874159213,20.484989812681395,38.49220278901875,29.60481405028189
4.62,-0.63009582955551,-0.8332397323194142,11.846795970463777,-0.2486718220481467,-0.27274366475936335,0.026164906850060093,20.4069321725952,38.78563838914949,29.743263973336646
4.64,-0.44036694829112083,-0.7539966299103497,10.638980106268322,-0.10950900713189572,-0.3360734678522163,0.07759266567554657,20.631181376001447,38.904405991624934,29.591578439803914
4.66,-0.3011874787919434,-0.2590269363130089,9.984261219864857,-0.07064989444446955,-0.24929168094342966,0.09179558775738525,20.644698167717397,38.468330206533636,29.720981097268258
4.68,-0.07521967733935911,-0.12261172087206881,9.816375897446546,-0.00150895553285134,-0.2593154961674641,-0.024871799904655698,20.028185311680403,38.36901242117617,29.608412909966237
4.7,-0.007723206013666915,0.12633298125814288,9.787264659898886,-0.010764829495952113,0.037801746969099354,0.03237709706670305,20.43615670278405,38.202990188794374,29.72380461430971
4.72,-0.16901609678374313,-0.05730092636222489,9.738499662805697,0.01288161736350486,0.006976955430607013,-0.014607259801391045,20.06913642044761,38.38036803860367,29.441742015887986
4.74,-0.1651165223401493,0.12269587897131365,9.902180614461242,0.03298879816748088,-0.005162134965847372,0.041356710184357874,20.63286258470182,38.439371140351334,29.654539826836256
4.76,-0.09897064524023386,0.03517740384569072,9.66772985959651,0.026243463882708144,-0.0345220991892704,-0.07843148100366111,20.35497880004191,38.79777363077411,29.482710108008632
4.78,-0.05049092656433733,-0.043151566986475993,9.71078686958689,-0.018929513367455,-0.06806600933587807,-0.08198458776601662,20.087497470003647,38.14362577541448,29.29874885439033
4.8,-0.00015287370259155914,-0.07986205169530816,10.046876507925463,0.012589516517285498,-0.03408733230614619,-0.021780850315561956,20.174332760644543,38.38839524754143,29.55077482192645
4.82,0.111634196827157,-0.06272715622522365,9.680352829921034,0.020037107575117376,-0.018840329693994542,-0.045668390834869,20.14022913615986,38.013523952770925,29.865903815192766
4.84,0.052335323827393865,0.0111184024680228,9.650039551227863,-0.05134535940129496,-0.11671316695590007,-0.027802037252634495,20.271545114736504,38.265117539260274,29.27939361583144
4.86,-0.045354098876489,-0.02259297636309919,9.850509767520117,0.005075065976817329,-0.012473047456063886,-0.013537275957462715,20.34574961310356,38.39228508301092,29.5709378754699
4.88,-0.031825555958658124,-0.0870058951745957,9.534807396815873,-0.10674258654251338,-0.17076288069071596,0.03156064952814008,19.900197810997295,38.41661289237325,29.689790273189544
4.9,-0.34876375296154405,0.30120637590355387,9.278756455445883,-0.06884675551110889,-0.07485725912572425,-0.000315614375533433,20.44862190323375,38.41724994987105,29.966970712362805
4.92,-0.4656610001728275,0.6030085808274623,8.182443466920454,-0.14485702902801456,0.006771460795399996,0.000843031001847655,20.37878113706114,38.366682740255705,29.419501245006735
4.94,-0.6812010311950668,0.545583856681637,7.182189466839013,-0.21651370670574335,0.1588625652785319,0.0424763381014462,19.877318240362385,38.388311057086206,29.381651803261114
4.96,-0.7808505006755733,0.793926468765174,8.390600737293973,-0.3346948418913512,0.22432136043622924,0.038264174816085336,20.034238135404237,38.272408200849874,29.267916304791466
4.98,-1.010383038483442,0.5014119484016106,9.4244869508465,-0.34855329907981397,0.3022541781680862,0.04226462269123162,20.323607320236654,38.04946165701514,29.699901123952518
5.0,-0.955070646814671,0.20638708058629507,9.852784754206516,-0.32462138028675347,0.35409017463222375,0.017067984166487846,20.206720368642074,37.88243105540455,29.303456448786097
5.0200000000000005,-0.8828570643517526,-0.19198505732262808,10.293984414828477,-0.3351390568820196,0.2556199768819583,0.10033494957861178,19.880213258464096,38.12055584622477,29.38800245323327
5.04,-1.015368886433682,-0.5493206710893639,11.043485688590872,-0.3943714544356044,0.12108184525980228,0.0671949173015238,20.076093053510355,38.18751993404655,29.09339853184961
5.0600000000000005,-0.8924045425809207,-0.7855881462732035,12.39368584048904,-0.3567002048859488,-0.060247818625410794,0.13347826627350615,20.470081706670207,38.44224458430555,29.60743720180854
5.08,-0.7455776592637633,-0.8780083416779858,12.883007921577354,-0.2624088580399593,-0.12661258009324847,0.005708135827973859,19.889702080155892,38.170577007951906,29.649504255666866
5.1000000000000005,-0.6920069671597738,-0.6224294525429084,12.029293228400856,-0.3244344174760778,-0.3379873534343918,0.03332896954357518,19.72295049666489,38.14083522495157,29.578997262964855
5.12,-0.4423708608637582,-0.7059496348603636,10.62912323414518,-0.19206113129552047,-0.3132266301035355,0.12740792050337577,19.85245100054568,38.2415645243548,29.097963168676657
5.14,-0.2513120634812626,-0.3600429810923163,9.77916766920883,-0.027900991716761678,-0.2581468509409608,-0.02584916342506528,19.841635609234,38.10495247969569,29.51242482729224
5.16,-0.020623094539312273,0.008446213104607364,9.734522613063398,0.043809626000868726,-0.17959181608167224,-0.014353596100613939,19.66856551640955,38.301956636492655,29.06445598301382
5.18,-0.10420893925012478,-0.01741774212327852,9.739026797286217,0.014724661327195424,0.02915445553035557,-0.06136051117561769,19.829079243273366,38.51619039706047,29.38660158645662
5.2,-0.027647023271141498,-0.03743457222969539,9.755141875528475,-0.07527995545586978,0.011151873082065337,-0.06772452061348709,19.47848852940371,38.546904515551454,29.404775780494514
5.22,0.01780783595956318,-0.14474820130552749,9.761965497503164,-0.0053956911859757775,-0.012394798996026381,0.07127092718820856,19.566636916165056,38.13531199750259,29.414994572900724
5.24,0.109309786348324,0.10928904463480435,9.887413881401345,-0.03131593901999679,0.022822846551671466,0.005209895646583068,19.815131818780205,38.17206269202308,29.44822516542038
5.26,0.06208999930417987,0.143490877789237,9.902345128962008,0.012889867335226249,-0.04873732994814243,0.00341658423540592,19.30779046611412,38.401513023434724,29.33426665935443
5.28,0.17670551592110942,-0.19153523463577785,9.763519329223222,-0.041848640870154254,-0.043544508638076,-0.08442317928557867,19.793362059712443,38.060868781903814,28.949356950970863
5.3,-0.10366536603725275,-0.12830674472509243,9.885454548100975,-0.052234722958781156,-3.6735529905757274e-05,0.014219586629198543,19.208936948613054,38.211652150774476,29.4193226296994
5.32,0.0537427811251851,-0.05686179286819258,9.814335491196585,-0.1021135333288148,0.005313486850019874,0.05255625340770363,19.23816571982693,37.85518053980333,29.325859320389633
5.34,-0.012399167449118231,-0.12259562831137837,9.740403476172972,0.05564662487888167,-0.30276156292706724,0.05217489891976942,19.45018186148916,38.00563373097153,29.124459395297205
5.36,-0.042299852367417845,0.3656796844258096,9.388370989885795,-0.11119735813179252,-0.08023669230097324,0.051332088416727165,19.576536335922555,38.27977318843895,28.987188082440248
5.38,-0.5414803745116527,0.525551054543389,7.983380470743951,-0.16901049802930163,0.06768030497112323,-0.013826933812823579,19.751452617753007,37.912691913634646,29.575054253848055
5.4,-0.734103098708088,0.9577877122548928,7.5280531883671244,-0.2525033503342541,0.15289993155621878,0.07437890421113695,19.48368379619693,38.01908904008859,29.506746362838445
5.42,-0.8693731764306559,0.8642349948024441,8.44278185591261,-0.3669694217693159,0.36499164136611684,0.10722722634968015,19.400978694765616,37.73482019460116,29.396957631977944
5.44,-1.1348628574361606,0.6158722929151168,9.518951939921605,-0.42382266291048093,0.2623327778648438,0.0009635947059746519,19.53537572857843,38.415874771554236,29.122753271079755
5.46,-1.0554003942631767,0.4156976725727409,9.754396421537626,-0.4412262909205968,0.2628328152499405,0.0406713708270567,19.2327489015302,38.267273688194955,28.760642037599794
5.48,-1.102876735509155,0.07616644073830175,10.228193307993806,-0.4377120850638109,0.1901688228618582,0.1396315514436852,19.402684547440437,38.05519962927698,29.38214057368422
5.5,-0.9904901086801077,-0.4312459501476378,11.214418419862705,-0.37537406501606685,0.09242671324458132,0.13654298849843494,19.121672329722678,38.11114726997219,29.29725903510278
5.5200000000000005,-0.8981602942278119,-0.7338220414504524,12.325755187250266,-0.401581995009957,-0.052368133853374285,0.012764901176415072,19.34397015962566,38.08464644271265,29.146570364885445
5.54,-0.6317190819033051,-0.8024405957003726,12.613009363783608,-0.23190104267067024,-0.23013652909563456,0.1133441782917233,19.27943233639094,38.26966079283588,29.426237362506683
5.5600000000000005,-0.5622491133928728,-0.7272252617936563,11.938589306675274,-0.2030926710206222,-0.283251577987836,0.06392354334524702,19.126294712732676,37.89981273244854,29.364979070990266
5.58,-0.5192664900611489,-0.6421153877036959,10.725247462688074,-0.1377522372630693,-0.3057994563651284,0.0778768037328991,19.288864044788742,38.13587830499602,29.227984121335805
5.6000000000000005,-0.33876874240575733,-0.5284986535843831,9.813690522804725,-0.0977520009012372,-0.2271935391535345,-0.011204930129197693,19.264192428037294,38.198319301853644,29.193037758905415
5.62,0.017224240464624428,-0.10707114661928105,9.81296179278233,0.06968547531458316,-0.10942435723406448,0.02796880783108331,19.43612897932551,38.221282767648496,29.18834885381375
5.64,-0.15674238787398165,-0.037101394905060286,9.627346384254691,-0.013464270293813953,0.06110274709683142,0.037503781175309975,18.87897105293754,37.55093880908645,29.30149299404805
5.66,0.14582004152201797,-0.037263898015279705,9.716193494639802,-0.004500547879403812,-0.04021819342428511,-0.01986407690187416,19.149585738294842,37.86678865230108,28.99881674647701
5.68,0.08322625158924356,0.15936404897182158,9.693330343011572,0.005158777907964931,-0.03639886131005595,-0.0021478777836822713,18.995278457270363,37.78359387821855,29.23787599419211
5.7,-0.07504086260205166,-0.1630548424703038,9.857689411031231,0.030687505946080513,-0.010647771720448847,-0.03412903821622337,19.2854357320397,38.005735232330565,28.972097329528133
5.72,-0.19446091479272423,0.018536567216243964,9.79121569672053,0.0275715877921433,0.08265882666497214,0.07627866953692221,19.240519583215022,37.5879908388951,29.398362608878823
5.74,0.09997174791987964,0.1129548583995158,9.656583263927422,-0.025806013365340955,-0.010940354504730885,-0.008773053087636765,19.170746498073107,37.5806784283087,29.236936717902278
5.76,-0.04099582514425132,0.18805917556058843,9.81869723522207,-0.02858369853244578,-0.2788523939017609,-0.047257167608504735,18.915704293207686,38.3887809244199,28.99578411499263
5.78,-0.13369056800686208,0.27828483866838627,9.16369739170611,-0.06129303163922571,-0.12614022116029583,-0.015107550470356567,19.198602487593835,38.089719199123635,29.13668722207983
5.8,-0.6169487943618174,0.642642413435563,8.008135197998321,-0.1422221396202441,0.06692803091832436,0.04647336276657725,18.712707513477852,37.99367240774448,28.95070875487411
5.82,-0.7110298040622957,0.804639324036529,7.25235829111375,-0.2712767747349913,0.18972675624561314,0.09550887643122752,18.651365661813603,38.03989533182812,29.3969833925838
5.84,-0.8113280872950842,0.7687085759745749,8.545764328001958,-0.39191762033177774,0.24140685977688572,0.011063459679577947,18.717786364747305,37.99811500329756,29.413479993870233
5.86,-0.9264587309010038,0.5859760466554508,9.616818338046125,-0.3733387197693634,0.32791756729885424,0.17578456693147945,18.93469376885422,38.16177205490433,29.229393913989433
5.88,-1.048134197443831,0.358960628686051,9.81660137795492,-0.3630419265290883,0.1710527333702623,0.10930920533285196,19.04928230506716,37.849430405733266,29.388566249122757
5.9,-0.9702064064946401,-0.2730956241810897,10.314354880771212,-0.31633999137185054,0.21411583763753375,0.11938988670253181,18.32694817503218,38.0075843864084,29.112941242952306
5.92,-1.1074194734025526,-0.31162832024803383,11.08479785793235,-0.45047314706508124,0.1373966188122444,0.08982769311465742,19.13117793025238,38.016629418593205,29.22463900812041
5.94,-0.9446372984644633,-0.643352107222875,12.357516732549417,-0.38386296729683517,-0.07656678003841001,0.08802131722309595,18.88142230868988,37.773493357522305,29.307580727981872
5.96,-0.8002831018236879,-0.8312999198361722,12.707520627185387,-0.33442396394043017,-0.20275387270642253,0.06806555762628767,18.53444981100925,38.221511497431734,29.065861610124855
5.98,-0.6041036737890937,-0.6134435589563814,11.875179001347382,-0.1873172644507814,-0.346606771101132,0.10820318669959947,18.834236411451062,37.89291630406179,29.0752896815502
6.0,-0.3955687108210248,-0.720258851778317,10.694962081747263,-0.17823068766903766,-0.22479867441705945,0.04000780171399405,19.004194375033308,38.17630116986676,29.235716609831744
6.0200000000000005,-0.36048657477275037,-0.4158022862442903,9.990671208749529,-0.13556004843239475,-0.32073238998954556,0.05607050388328157,18.88928270882376,38.00580351693965,29.175543212581875
6.04,-0.17727496039061985,0.16118911701165428,9.640166943141848,0.02381737358024727,-0.20356195701858296,-0.023824681120923452,18.96516143262115,38.300486278948014,28.901473260863714
6.0600000000000005,0.09265697490225687,-0.10987788526558624,9.811821206047766,-0.022422648961965424,0.02598801799120198,0.006390745358991157,18.471961420975084,37.79030408804923,28.621902423738913
6.08,0.0019021451500408001,-0.08281106716190773,9.814997901826125,-0.061770589121181815,0.06957926155878974,-0.04158817652349222,18.635128272272024,37.7856986907282,29.003470796584068
6.1000000000000005,-0.10185470750942915,-0.0441144406493616,9.714703346270598,-0.04585311874925523,-0.010387093151310494,0.055393355162377776,18.5176111122421,37.82411437238616,28.63011048809687
6.12,0.11891058965016221,0.05071051028443674,9.65669884453704,0.08023401381228572,-0.028892630101364093,-0.04301986755451756,19.005663476229618,38.02794761720709,28.838136515572703
6.140000000000001,-0.018895235107885565,-0.010050959294081913,9.921684398448381,0.015442042639174189,0.005307247131386567,-0.01859901332454366,18.779586154443518,38.30297446312255,28.85639126960441
6.16,0.08321252967012734,-0.1540920333266172,9.781389671824028,0.0021724826617220616,-0.15349618108193447,-0.018118099797827754,19.18460210621136,38.317854143922666,28.911066907167427
6.18,-0.24603915974094392,0.26601880923383636,9.279350971834754,-0.10400327290150398,-0.11025200009378774,0.0022624267872905605,18.529553353341843,37.57374303008193,29.173912197158426
6.2,-0.26605193832888735,0.5371591603860516,7.8672891173309525,-0.16253035122532092,-0.015244373085043318,0.0750681708450168,18.46176833949962,38.0707859692084,29.21191497428814
6.22,-0.48497708098418585,0.7425291094040466,7.25160909183729,-0.23894459533537368,0.08265324815546356,0.04414940747851445,18.55527067376412,37.41184777271206,29.106802321506084
6.24,-0.8357320407220209,0.7908233209739226,8.705918006016367,-0.3017084892332603,0.1923949853074344,0.14209152571277447,18.82934464691543,38.18758019028347,29.12716077698505
6.26,-0.8376980566108009,0.6356129385396695,9.581623892557772,-0.3578749828276355,0.33660445484349266,0.04781008265599384,18.47663366522136,38.25612740282225,29.12844217056115
6.28,-0.9429718210216494,0.14660986290539998,9.713685877213138,-0.3512688446340631,0.2647750242297833,0.1026229097754323,18.553273969022317,38.040521305865305,28.519976074651055
6.3,-0.8986113704768945,0.07213833480584228,10.234936015907406,-0.40189099139196494,0.17997103067977016,0.05976227251299521,18.530627360111446,38.07148546781485,28.998379052072206
6.32,-1.0975605643975137,-0.35286038207837056,11.014511987105962,-0.43991222897925614,0.06171729187372092,0.11469948477969277,18.50255714343447,38.07691481440258,28.648708426218413
6.34,-0.865107927742569,-0.5225501094054088,12.472178380611853,-0.39278384592420934,-0.032507141541383594,0.08633129989535696,18.35285720474284,37.91987961333755,29.088744863946406
6.36,-0.7102227317304697,-0.7672992903255542,12.879412261486289,-0.4107254902747183,-0.17410346745534874,0.06774017010127605,18.435137353489,38.16139624155549,28.586629501281184
6.38,-0.8223287925553526,-0.7042153258028258,11.812916861780128,-0.1551086991734586,-0.27012760266700936,0.11639577857804251,18.410535278517642,38.042393351892514,28.95153323696683
6.4,-0.5774765563334726,-0.6106768360752118,10.592419077423482,-0.13514127523329433,-0.23634611443305728,0.008979964101110856,18.427521099790887,38.27405202919982,29.089175759925254
6.42,-0.4482872230212846,-0.24786931869858347,9.74876816703069,-0.13185175734872936,-0.21234021756315197,0.0474048209612955,18.594230625951273,38.08252799777772,28.767376664232373
6.44,-0.05586305610667767,0.02013606105770655,9.671095235545796,-0.016528552771060846,-0.29241307465559613,-0.039910075808390025,18.735463718374664,37.94823088960033,29.16477390094122
6.46,0.03888405655641239,-0.03939986365851879,9.651410901604056,-0.0335700707619088,0.012724451094861967,0.0024088896076979397,18.220655728271744,37.82815742147845,29.075690452193474
6.48,0.1142262770012187,0.18815373316290065,9.79297827273479,0.07104226614595761,-0.04028938073382683,-0.06038761575472538,18.291603254299005,37.77493075996419,29.049988478339042
6.5,-0.02288690107970158,0.055347563738869635,9.74868156437363,-0.0711541038850046,-0.01491605346533249,-0.03480082302272354,18.193563726756118,38.39491087875405,29.109494409433747
6.5200000000000005,0.126347092374844,0.025079464416423662,9.650847793208138,0.002494850823301405,0.011845362486081333,-0.0069428661874975225,18.37324499371231,38.06537992614161,28.905276702210234
6.54,-0.16248973998862956,-0.15252522398768026,9.753008251923402,-0.008209336443112697,-0.01321055601268413,0.08410316003150774,18.219571708901036,38.2289350054235,29.00233379688712
6.5600000000000005,-0.19352471417809486,-0.15367753127649963,9.78272326895231,0.036688254274037484,-0.20406996008583783,0.001838585782069158,18.354849193686835,38.51724737876535,28.97417494464212
6.58,-0.2578535130503898,0.3452076775796645,9.352015328395135,-0.09700081651331113,-0.06978114869701808,0.09867617255723335,18.506840286721115,38.078030758836505,28.96907287020828
6.6000000000000005,-0.4270134560193846,0.609435220960175,7.794075927150659,-0.26094752172648417,0.044729029256927705,0.05096389191291988,17.796384465321484,38.07711716453639,28.8418472031849
6.62,-0.6566284976757664,0.6909865635046606,7.318190021239292,-0.2644495768063306,0.12556148035455503,0.04076893645107627,18.36243277521395,38.18400131981394,28.731863679278014
6.640000000000001,-1.010305924071858,0.7634766689082167,8.448068613335614,-0.36239637944849157,0.22081567863390966,0.14907226133163626,18.1665907742243,38.22708901235537,28.90546356135964
6.66,-0.9395243916956467,0.7479733710666093,9.654974301159905,-0.35956772892625277,0.22600780873030707,0.10807373264976602,18.330554241067333,38.59618546895264,28.89475477478756
6.68,-1.1301569842302897,0.3838656288508753,9.841820291615141,-0.3241306671197538,0.23917682481151575,0.06364215471181212,18.05751035861291,38.54702500955656,28.828582742118275
6.7,-0.9657114353123163,-0.13953681693626277,10.099795235982691,-0.4864924117231494,0.3033113157270936,0.11958743005121428,18.44706874966719,38.37847955953308,29.133813642632678
6.72,-0.9697344805565262,-0.38781183869976904,11.019153873670371,-0.43138185617192487,0.05806754702997842,0.08044824322261708,18.380767425793827,38.550713091379635,28.74549774766026
6.74,-1.0211973273898454,-0.7327419681362697,12.2838158128571,-0.3899168089425755,-0.09387152582829567,-0.008376754625980296,18.302850714893097,38.25162983204158,28.938131584482708
6.76,-0.8611627065323527,-0.8471615217206806,12.533275244241993,-0.3340508855670462,-0.1472530855860516,0.12010985989155265,18.33461648951701,38.35697566121985,29.195656236304888
6.78,-0.755174299960073,-0.8496494336459046,11.88996091726589,-0.21686988886644173,-0.2623147682144945,0.11190581485668595,18.0280303671702,38.255597412053355,29.147087156220035
6.8,-0.46990093245578274,-0.7013191619044086,10.626578344689793,-0.1848836276899699,-0.31050213833673557,0.12860959135138503,18.041378134167616,38.0799508522773,29.207035566689175
6.82,-0.16082727118819606,-0.4975999870034932,10.093245762031664,-0.07204984274794463,-0.21853079270473003,0.03951499062100411,18.294255809186964,38.57331842004313,28.8612074478984
6.84,-0.12462970044821232,-0.04225484942574645,9.707879704690322,-0.033037106099125316,-0.1887739539291628,-0.01493872435596155,17.992113659346593,38.458990566952586,29.126507996203713
6.86,0.01838846548971307,-0.08381833313734176,9.720564196968008,0.008036368580061001,-0.02843966072176682,0.03707949251417212,18.40709823422661,38.375359183824905,28.773278693171267
6.88,-0.08090473136375431,-0.3112270742402178,9.635373575228245,0.03433428628213031,-0.023374844044405436,0.0377913775353075,18.057716100645123,38.38665227700129,28.92600229114173
6.9,-0.10611579189718504,0.16708531435215965,9.683588105904553,-0.03815037838738025,-0.027124152667472885,0.07563749679054825,18.206810751076738,38.11341983013427,28.945830551367216
6.92,-0.04027491455563755,0.07452188680480051,9.666529728377451,0.034505189750712706,0.03898750183585234,-0.005142125907189223,18.504398022783754,38.23067231122563,28.87208014024288
6.94,-0.1293832629522599,-0.06612486959279962,9.87561347316926,-0.0004861071010767129,-0.017791086213750598,-0.010947790683244533,17.95693740071118,38.4988684976007,28.91524288457969
6.96,-0.08315033331332947,-0.02819337122490255,9.712966862519867,0.047182091543148126,-0.08907136811779923,-0.037346132148409324,18.09722118437647,38.34895947112468,28.892208290047492
6.98,-0.14499627768852946,-0.14247881734248594,9.746131768513647,-0.012668155203694728,-0.21745137893521277,0.022798180162809684,18.278206557620873,38.42521015254085,28.800697391358238
7.0,-0.06390732119634102,0.47989638756388964,9.264789464032505,-0.07370863013474502,-0.17586096664069073,-0.055064466679448656,18.250532226073986,38.463616384607626,29.156283792419305
7.0200000000000005,-0.4604984381282722,0.7776049006726427,7.854575608575881,-0.1785025947675927,0.13543241171522763,0.07764056780915891,17.997330370940755,38.36961034035003,28.959511855735965
7.04,-0.7206634506260217,0.7649849276571253,7.314346474741262,-0.2570141093214412,0.11025756308993387,0.08756506603543125,17.953744177961052,38.3319700498042,29.036061965827173
7.0600000000000005,-0.7912894110375445,0.848201271587252,8.638383247783793,-0.30330393243237885,0.24324775103131413,0.10326651796480485,18.001182557779178,38.22563304293597,29.031828788773222
7.08,-0.9417523606727387,0.6122927167520809,9.452463444550277,-0.3376207886381723,0.30750739423362733,0.09373169814233026,18.317225413434514,38.52469610997961,29.014041696899508
7.1000000000000005,-1.026140993737013,0.18878134916195724,9.844217063555417,-0.4529502806450817,0.2663094073799072,0.16807574709967443,17.979245353321627,38.68944616011444,29.024655906045176
7.12,-0.9710399967958312,-0.06953504342051099,10.10443264124798,-0.33418558677674187,0.195210575085587,0.13885568634048945,18.041734747127478,38.27316223299492,28.951652631414976
7.140000000000001,-0.9322071720172823,-0.36444190648393854,11.046327756197817,-0.4822349908191198,0.11633142832227225,0.06535308603214879,17.93900325200955,38.60240759217779,29.28623178977638
7.16,-0.9818969780730298,-0.6991017669737944,12.379043029513902,-0.3962585284284347,0.03666902319122906,0.05881629240475487,18.150929077304443,38.67950429499775,29.163720417954156
7.18,-0.8671100335699194,-0.8309330443792222,12.685853539043132,-0.3202575083839273,-0.12576918702737044,0.03295880520290045,18.040150702447566,38.45423767707022,29.02509499264354
7.2,-0.6798947647852914,-0.818716687266334,11.861315159111838,-0.23260283422736794,-0.18604859359695516,0.08581058015910156,17.81276620687704,38.93621001983702,28.939789178057033
7.22,-0.6848681709321744,-0.6632295217695083,10.622561101574789,-0.10089721431543713,-0.35135138015646084,-0.007618294307762105,17.81485710104687,38.608229483974114,29.007017143345966
7.24,-0.397979275927376,-0.3720901762062889,10.012528282748715,-0.18120636501733114,-0.270931592696253,0.0712549162876324,17.612895842805603,38.68217636229197,29.11436965530488
7.26,0.10121992967467426,-0.13181808637407388,9.584776035484472,-0.027369318162706158,-0.20768022385716692,0.060502718800586094,17.83308279997205,38.69018615819315,29.32667817676775
7.28,0.12791690049612323,-0.09883355031628188,9.604350545740024,-0.10508800741436475,0.013852382000483273,-0.04519278090962166,18.141514742904075,38.40089010091038,28.779714969960136
7.3,-0.05390745979741232,-0.15332008950719705,9.839132832580496,-0.001482145252308107,0.06305913459050748,-0.011906329660456978,18.2399326206694,38.95448216803859,29.17481360207072
7.32,0.025349468453353577,0.06387029276987523,9.87956941494231,0.01004081205600147,-0.013597879190018595,-0.0022021928946041425,18.11440458469768,38.59745609338408,29.26941010942688
7.34,-0.00011998516382053306,-0.23214210641667116,9.692593276460974,0.07335819562422012,-0.02246416159459621,0.03943119170254404,18.08658734856041,38.75580545480375,28.77271634012562
7.36,0.26557255761170284,0.08074467295842484,9.756573278191572,0.002790468522885798,0.022631078276095867,0.07424848202927409,17.953439780204153,38.93645456717059,29.028616422310755
7.38,0.07747919149771937,0.10308954213723295,9.808293048278621,0.04711320621323423,-0.08835373092316068,-0.08390363485769173,18.124465794022257,39.1228647032129,28.864384207168644
7.4,-0.042280088782153585,-0.059009336350331655,9.846548889759235,0.025024179913874834,-0.014368898357864559,-0.01827267444128078,18.028911961975176,38.65586990338912,29.15694992520258
7.42,-0.12173188229764087,-0.27990116043142066,9.539553884697764,-0.023891913456248078,-0.22157352344166598,-0.015768801386896656,18.31898028940949,38.79851248308083,29.011142885778682
7.44,-0.40673978070104133,0.2824211773451867,9.216282887093314,-0.15963848942854364,-0.14626093216928254,-0.04798005963892285,17.952519554396886,39.1708535929899,29.060758138782944
7.46,-0.4443512300743047,0.5893035064906973,7.944516653647523,-0.16335338532901636,0.08132817537610806,0.01710309298516086,18.228489173510734,39.01582227343067,29.01276033359987
7.48,-0.7260994734060267,0.6529249006322833,7.3980047743004,-0.3240168175664709,0.10562208772212331,0.07988188951470268,18.137987815301397,39.07717883720618,29.23603133309066
7.5,-0.9483678385894065,0.7004813639398677,8.820718654362151,-0.25356265349906904,0.244495353447023,0.061806560910504245,18.111205110951197,38.768182706730975,29.147948924650404
7.5200000000000005,-0.9930398647897016,0.7423639250653058,9.546519796460707,-0.3711665280587352,0.30918520978347525,0.012955070697086055,17.583951577103697,38.919035745578185,29.15466393257812
7.54,-1.1087565205288055,0.38093999887501373,9.631472399283222,-0.3356026491201815,0.34513067404336395,0.23244876072265824,18.14903601725056,38.981618009806574,29.14765253445632
7.5600000000000005,-0.8680344030330338,-0.1187581549802975,10.224623585121163,-0.4260502928383552,0.2086253254816833,0.10977653752980066,17.946939522768265,38.87127604528043,29.233353271340672
7.58,-0.9202904955146763,-0.5304765115752079,11.219509808896717,-0.3800663271254819,0.14101909110470426,0.09985410946330277,17.887292199856468,38.736771387143605,29.0798919868383
7.6000000000000005,-0.9317342414688145,-0.6868588484649618,12.33846680531897,-0.3533388020089026,-0.0029607637616901987,0.034396421363023684,17.689227239237297,38.982713918347535,29.463627518497756
7.62,-0.6697568451345877,-0.8304341805631008,12.66250514980139,-0.3178947106517364,-0.15668366025848188,0.08769704402142423,17.97460946975688,39.36333428840583,28.907017871294567
7.640000000000001,-0.6460624443245623,-0.7623072077585806,11.949675390997676,-0.27316357738652985,-0.3093139033656111,0.05146671855188163,17.98417468830276,39.13739043217605,28.819872245145334
7.66,-0.5465670224450716,-0.7068555903809193,10.716471800514295,-0.15771560676043833,-0.3699735442913815,-0.05026074989858368,17.729921597048957,39.41274442768183,28.81126133202579
7.68,-0.10630102253842785,-0.32800303205930864,9.90160519306237,-0.13646421022972,-0.2810527398243894,-0.03212016772506049,17.699907585764393,39.20623369757148,28.766654637134717
7.7,0.021735364193727114,0.1557747878457818,9.849943848898024,-0.06105289579003487,-0.24118148430328976,0.03515644884834937,18.07920153755564,39.048144943014904,29.302718686421294
7.72,-0.12957563081533982,0.04828809815464921,9.875737494495253,0.05665569087968773,0.041124532400702005,0.0903128472000212,18.156444533770483,39.46350120909931,29.28699298748273
7.74,-0.048272513096026384,-0.03461649670375417,9.893461444085654,0.03190406346682082,0.03280111286873172,0.014623939442066143,18.029230829229274,39.28231322722444,29.42080835454245
7.76,-0.11405935232493669,-0.04758244522111629,9.773620898370293,0.00016279721290751725,-0.011861327732978391,0.04994799735808163,18.21758836432366,39.4496829449347,28.99394895213293
7.78,-0.16274877417257627,-0.06424062088126764,9.745624373166786,0.07692683436210151,-0.05857022034918093,-0.01047625481199408,17.9842854139461,39.083465487256944,29.34798240343636
7.8,0.05891304456303757,0.08334152759540589,9.897818286919803,-0.015852744898792553,0.021515306381149124,-0.00715421571266894,17.994990053857784,39.51170791412882,29.22391516428091
7.82,0.15330399748513254,-0.09022209081132508,9.663824591713835,0.06048975455947102,-0.05186157341448722,0.04936699332573432,17.834220513713273,39.54127952154978,29.253260230703837
7.84,-0.16426248708663757,-0.025658619936001673,9.822103611928418,0.005427556076439448,-0.03940626830068152,0.07681330988061452,17.715897293173295,39.4155742540991,29.349784129549345
7.86,0.024045046722294808,-0.025085001419415807,9.60268834655118,-0.052188036003666734,-0.26214398979029163,0.05945264128634983,18.377041384127885,39.2289924393544,29.09296425576692
7.88,-0.31498262059200977,0.26893570878413947,9.403618872940159,-0.0033024443775249712,-0.1087317676396679,-0.03193333422283988,18.243945951818603,39.399162850756674,29.743543568682316
7.9,-0.5106477759589689,0.46370849337755027,7.9516719046144395,-0.1289993750090672,0.0867585748663793,0.03717434717662402,17.76547126485215,39.54952825903921,29.511248338788064
7.92,-0.7103596185856649,0.7809478820927551,7.4522873059878965,-0.25820493023195246,0.15636766118387158,0.07267016504073552,18.069141088637057,39.50144654661144,29.16228818640117
7.94,-0.8947745963572922,0.7440859484473421,8.628044952535019,-0.28082837252958237,0.22974276253195583,0.06271860599844159,18.026735765095925,39.59614683447088,29.063913857938637
7.96,-0.9263107916197156,0.6434882710403348,9.450979204148494,-0.3827653119928672,0.22188414632580103,0.10571404887419052,18.000349867117944,39.69949726898579,29.26552781279853
7.98,-1.0846991233572831,0.26588136187588657,9.903306497924621,-0.35317201118987146,0.3066669791595427,0.13388047817829185,17.981739483726244,39.40512480905798,29.326577459032613
8.0,-1.0040361447251356,0.08719884468605268,10.334925395286902,-0.51777177113363,0.17167261327139013,0.14513486809384674,18.141090643627543,39.33240209914013,29.505467523505136
8.02,-1.0097507706889408,-0.4612772742903835,11.177393716390334,-0.44192162889007,0.1017245643061388,0.17541455852481547,18.232893090901033,39.57158488369243,29.085866197875852
8.040000000000001,-0.9539078804015945,-0.4911093187087061,12.254985014661461,-0.31638307943519345,-0.05359183639499107,0.07128371376344986,18.161278032667685,39.54015913846986,29.374569505744212
8.06,-0.8989575940240235,-0.9777154346889718,12.720166070517891,-0.32771605882172017,-0.1223771164138277,0.009709556334515937,18.069392756811446,39.77908770707943,29.0357832087788
8.08,-0.7088598495932935,-0.7682044035479975,11.871668985486547,-0.24243389058883386,-0.26456460658585573,0.0765442406985671,18.071154585443683,39.44669084908132,29.422833997633084
8.1,-0.39136618143828567,-0.6098238404518682,10.585215222802628,-0.24119920742856416,-0.30394212798507925,0.13081130340862632,18.29031537707265,39.87374726271729,29.32821140939374
8.120000000000001,-0.2044328839443744,-0.453480469816372,10.162574225061617,-0.0033107577888250445,-0.2628491360146483,-0.0036427478821633406,18.208827014449366,39.962613007294834,29.730591700539176
8.14,-0.12384530350066103,0.010741818034657012,9.827182330900428,0.05414542289844843,-0.1139989056073314,0.02996865489905855,18.143492682171065,39.72770578147906,29.071910187738094
8.16,-0.020464098678794312,0.09283379229697525,9.520478587477694,-0.012632890482015827,0.03964545265721061,0.030395798038686857,18.13262460561894,39.764274580843235,29.64198792102376
8.18,0.04213316384369176,-0.2428146085779902,9.812578158024598,-0.02242540112943966,-0.007253093104733252,0.00618921827254123,18.216079996475568,39.630244660775055,29.061877283395624
8.2,-0.1902629069876517,0.018263501519118208,9.746576889905539,0.04642100934814526,-0.002846496450466157,-0.0026676133899017104,18.070422946864543,39.69845342073234,29.144462059629518
8.22,0.02216257846847377,-0.2693539987516874,9.772807050612629,0.09215858160810853,-0.028193254095572863,-0.047324601874626844,18.328924949790434,39.749300822378494,29.0876479319452
8.24,-0.09361188085880129,-0.12270382113822798,9.744612540884573,0.042780492278944975,-0.048599793768945375,-0.11251977947618771,17.975752307824603,40.12982558040269,29.468169928597764
8.26,0.0247774721849433,0.12639997103049075,9.811687358772406,0.10124652803503689,-0.24166407213514768,-0.056368833919873386,18.114727452497746,39.864080029042626,29.205291031946597
8.28,-0.325793812984396,0.26125591608840937,9.408832777544362,-0.13628123737749784,-0.13914686884472338,0.0005174942382698763,18.32274991745573,39.64913469172297,29.182385701440005
8.3,-0.6371524207813519,0.48277270939116257,8.003617377689942,-0.21588406351096523,0.06195102525319486,0.09306466290804574,17.999873139748253,39.977143193918785,29.49090437013856
8.32,-0.809733875895517,0.7309403077629295,7.297929441400476,-0.30946509441005415,0.10519226977688963,0.05439883319300732,17.927614850472242,40.11189273909793,29.54950330735775
8.34,-0.8072153275885371,0.94846133820916,8.576900956263207,-0.29452808180403695,0.31501136671472735,0.05026991373873186,18.254264079296743,39.97349857300106,29.481283041001486
8.36,-0.9060355077371568,0.4196236902426456,9.570289909425892,-0.3549585767703579,0.33121188938167656,0.04432958557647725,17.929226721958972,40.28559773416554,29.453433821592586
8.38,-1.091742308191847,0.21618123977666953,9.689508951818182,-0.4002648187993848,0.28114908210215833,0.12601947098663743,18.01864075403266,40.177916324259506,29.84675512469401
8.4,-0.9686951239573721,0.11375344158524424,10.241582999972678,-0.3641555858500817,0.20914732770628752,0.16220114398866906,18.426610219749204,39.85231859131993,29.534704527998596
8.42,-1.1644338381596437,-0.1987675663144241,11.136858276191413,-0.3338193918224256,0.06933421572505159,0.14553770586782042,18.255625150455412,39.972979629489906,29.67256937730192
8.44,-0.9373125285725615,-0.6653945835062911,12.475979808723498,-0.4366193428067361,-0.023625291086299644,0.11619207237864843,18.555621695952496,40.147376408091496,29.556561707393815
8.46,-0.928089037645226,-0.9288913891880164,12.870056989043896,-0.3443872503264656,-0.11038118472058844,0.004353736420421889,18.091610451283152,39.80909771011421,29.329642076827675
8.48,-0.7160660682077409,-0.6087413535717797,11.791883180526941,-0.2130290282255866,-0.29076876995676426,0.04246861652937234,18.31928264436423,40.218626510269445,29.657394257408885
8.5,-0.45933346667118247,-0.5023987163665011,10.731520065091306,-0.19900495247223524,-0.3747164832360718,0.13385897689846024,18.428686245465993,39.84083310050241,29.437350273122
8.52,-0.3351206170235744,-0.31192808046887294,9.90881742932808,-0.1303222652477174,-0.25241052285938664,0.07310571700756228,18.142127163673493,40.40053404735174,29.557305781292147
8.540000000000001,-0.06691733224606336,-0.10799062549799252,9.880136471305049,0.0458897965272189,-0.19956246759226187,-0.0768001544752668,18.580117488368256,40.4031723118997,29.64498660818088
8.56,0.0666041096845863,-0.034706816720451526,9.73040503691903,-0.06489600334675104,-0.05676954246917662,-0.005668345113565027,18.495473481294642,40.35079383097638,29.225231780770784
8.58,-0.08538161947422228,-0.04539456778030375,9.681767690555944,-0.01747583077397304,-0.03820278580387767,0.014428724767729863,18.104092276221966,40.1489623817049,29.300653143812593
8.6,0.05022644275825362,0.001761725243095466,9.806884352898951,0.012774913238630812,-0.044237005154406754,-0.03958360622525856,18.42172708957637,40.336216435758004,29.796044113797713
8.620000000000001,-0.13845185804713134,0.10929613806060826,9.523241555697203,-0.030543355867685702,-0.03777754891364395,-0.11384179302762475,18.51921867133876,40.229722812164354,29.505794079576614
8.64,0.02086120107986715,0.05442403594919071,9.611906344857099,0.03459147148863239,-0.01853677219397701,0.0017435541607887222,18.348206357210405,40.15507197448361,29.526758199410622
8.66,0.10839058758315845,-0.1334281033905368,9.76296077915767,-0.030306094809473712,-0.01579427060547587,-0.04081239636578109,18.19398364729394,40.31258658915565,29.688958124346918
8.68,-0.26727787201221975,0.10214365920187563,9.787914409596945,0.06461373568540413,-0.03423809544328609,-0.040624403476064844,18.548437852857553,40.536264601332086,29.59491217015668
8.700000000000001,-0.10650194452516577,6.068544126291292e-05,9.744545398064814,-0.009035822279797087,-0.039391863335996556,-0.020024657276676388,18.93662139161143,40.43511406524501,29.761145172330945
8.72,0.025398924209331847,0.03595831640245596,9.582585018101275,0.029220966561856968,-0.22611368286409456,-0.009416443903430964,18.455081003185906,40.72967004905179,29.68320535534153
8.74,-0.27201329101644167,0.4578949137847924,9.222825133957942,-0.05619922383935058,-0.09403452491329119,0.018816119279038493,18.84822295238809,40.622519633999275,29.743248779171864
8.76,-0.4282537352739125,0.488753482021123,8.014000369527901,-0.20667541577873877,0.01540710908547981,-0.002043141236500255,18.420260606624097,40.626234610795436,29.582498303863957
8.78,-0.7114723797834522,0.7465030741896386,7.386354365346062,-0.35096327507897607,0.21222564007498343,0.048778922763437635,18.6240781502963,40.21504462494989,29.766603334260946
8.8,-0.8035188628706315,0.6989226928149743,8.579311908635677,-0.2984163167633479,0.27540547006068294,-0.009173173532529263,18.74903811407084,40.49331315609913,29.95382623456175
8.82,-0.9459138825000587,0.44495068113934033,9.67946438921399,-0.3599177064989739,0.21875306183875537,0.10202676192790967,18.617718959891445,40.367717879588476,29.64489353334327
8.84,-0.8928208342624822,0.3503911491441189,9.80469234989729,-0.36629151554912337,0.3053039318323752,-0.042608428622193203,18.5808110205463,40.56085954300876,29.941928489944367
8.86,-1.0055755990430835,0.21110942895210477,10.114250106929852,-0.41387331867437627,0.23819814552007224,0.08310447613918627,18.796244972593357,40.486706941567704,29.768606165005036
8.88,-0.9725180566226042,-0.5537544547665987,11.065766015973294,-0.41363169441516384,0.07521644011658898,0.13861372659467613,19.0390474589928,40.57103305436565,29.931874833064178
8.9,-0.970509056650176,-0.658564124635173,12.193422298612983,-0.2669808426338461,-0.10835882702154379,0.03624853380105024,18.752864710033332,40.87088733925941,29.827955346407695
8.92,-0.8586416799789895,-0.7484502079782804,12.739162067058627,-0.3864055879397294,-0.16222241850286617,0.10957179802235822,18.61553372352477,40.781892883169505,29.809219589510924
8.94,-0.6950153878894172,-0.7981268223864656,11.964469632060842,-0.21716629778201002,-0.25738727503963293,0.11482415036767618,18.69784847482547,40.907397871138436,29.895210194118317
8.96,-0.4260163334492417,-0.6663254790159351,10.718559269270699,-0.20413438483982607,-0.3549526823215661,-0.11839082380811883,19.2379232725747,40.42997025655424,30.073522849752184
8.98,-0.29293544411506023,-0.5018317621848465,10.134701849393384,-0.10812574723406625,-0.3558235214729873,0.011986674023995864,18.80009220022188,40.77158090215884,29.898313268547614
9.0,-0.0021816137379444796,-0.007652472677744484,9.784250006210025,-0.018220935963550403,-0.2193346045857294,-0.14103712452615721,18.680302065288082,40.96908064257975,29.95734945626676
9.02,0.16923847666996214,-0.10264934179352893,9.90922558027337,-0.04156484516022035,-0.014187705218439452,-0.008674005387405412,18.595001553190816,41.09557717069094,29.807227888255724
9.040000000000001,0.05362797152944247,-0.24023248367794112,9.761442794260995,0.024418762091339495,-0.023028737535474894,-0.003344218127103687,18.484889091676866,40.531898380833894,30.192107181099384
9.06,-0.06129825908811275,0.08468085316931816,9.92127216792671,0.06375089260559795,-0.007003715267834946,-0.12216211132372025,18.926056947602092,40.78427382333437,30.02597424426951
9.08,0.08531653652773871,0.06200503870483608,9.777901752245556,0.01956065573983975,-0.05593326594337532,0.08939224137983354,19.002902569153765,41.07281829279122,29.93049265958979
9.1,-0.06917523581006893,-0.025040546222296338,9.847894211885212,0.0019623358181805658,-0.02387138941757348,0.010728758766461996,18.822180743488687,40.859674634179925,29.904574841197903
9.120000000000001,-0.22565995537707398,-0.008008829932252551,9.87582168975191,-0.05034914395676384,-0.18953243288647553,-0.0437531247399377,18.916776419815466,40.74399085602727,30.12844105762821
9.14,-0.3492972198043852,0.42024152051474045,9.282773698459442,-0.06720076082295212,-0.118882282443412,0.08959030591556033,18.716392284253573,40.643240361319315,29.83685444033833
9.16,-0.6434797635360403,0.6170017930251198,7.997409616917352,-0.07304871332401693,-0.04966533581505014,-0.0458010606790754,18.988275861975357,40.780585356135425,29.6234992189205
9.18,-0.6872350963266991,0.8367280150025451,7.4542342041855445,-0.27066926268565783,0.1339203936238695,0.0003487705769941174,19.076992418452303,40.66020601309614,29.992278205504267
9.200000000000001,-0.8100633180658329,0.7213840384615694,8.568101024187602,-0.33377980479610153,0.1996496535201559,-0.035190716889352144,18.903741112500384,41.0172784264584,30.21942329792131
9.22,-0.7700308859239919,0.721415624877523,9.441602687113848,-0.39031982544805555,0.30793620519813586,0.17354705622412994,19.353159048229816,41.19956085476176,30.309035342048528
9.24,-0.973542884300464,0.34790242098358426,9.972270912885357,-0.4164630481284617,0.29546919445477066,0.11044541704883853,18.890115864021613,40.806610439066915,29.995459952901548
9.26,-1.051033650765651,-0.011371013413835996,10.140908461133474,-0.5347743785762745,0.12951085235183477,0.12865128591272776,19.12766107579158,41.119279654762195,30.036978287787917
9.28,-0.9253049763882086,-0.4990328558104015,11.107934793990813,-0.3735294663516553,0.13251634117449523,0.10894085044626921,19.258645372881418,41.252991863309894,30.14089911051183
9.3,-1.1432378575671762,-0.6279174239614598,12.439074089972245,-0.4039740516259891,-0.08997428529236312,0.11463773932518198,19.10360183284117,41.11090713661398,30.002922754910472
9.32,-0.7892124848896078,-0.8898100018249261,12.691127995378007,-0.39302522268921847,-0.08776887301144784,0.0789308785138105,19.105061288785688,40.822720895880806,30.165343147585475
9.34,-0.5794867432455848,-0.8712174714921944,11.76095265294627,-0.2162428031563311,-0.2593585204645148,0.07235320463583055,18.88984482768634,41.22649039493988,30.062296241429078
9.36,-0.605828018712423,-0.7337412462927716,10.67713020162883,-0.22849034932903622,-0.36094055089785254,0.04555333885045746,19.447862233503116,41.162022434148675,30.28535909121016
9.38,-0.14272054580844976,-0.47946554475637293,9.82797361990556,-0.10826448816894635,-0.3409803304857591,-0.00996031327169387,19.177822314236217,41.16245273510802,30.242452517383853
9.4,0.0024956551194636354,0.17397805468962813,9.785688006235407,0.06738923477705178,-0.19842346035017175,-0.005237988730304107,19.336925056218128,41.10730280937061,30.271646772364477
9.42,-0.06986763973447692,0.0978085499508867,9.803523711774279,-0.07064235830517665,-0.021782394715122125,0.010132539516560526,19.386338576242643,41.24855650644831,30.08908174225009
9.44,0.030747059146203348,0.15435528020584907,9.754084617904784,-0.07656471526069258,-0.00763938766167076,0.0023063577385022778,19.160080843183557,41.349176851488934,30.51067544765971
9.46,0.187986514349222,-0.14739792187733414,9.631828709454169,0.009926697098992233,0.07441345116945788,-0.07393306117215923,19.266435418930115,41.72949241649253,30.24617618045042
9.48,-0.012540839514384464,-0.02315964000855432,9.933041083795585,0.05217539347249768,-0.036563715082995614,-0.06755936009320365,19.584333391728332,41.311046531336395,30.21308429149152
9.5,-0.006170823715167733,-0.1541767320195932,9.78993966277912,-0.07856840245113422,-0.00012178283060608214,0.04897638882798678,19.137464059427938,41.59840031544015,30.0318106385489
9.52,-0.07409864635586344,-0.09678670821091814,9.917390603305128,0.0165691073681845,0.06515253539390654,-0.017735714202403285,19.784477107199322,41.39552130028824,30.17154892727878
9.540000000000001,-0.11158505946862002,-0.11814019040799119,9.709247422760843,0.02488797791816122,-0.20214738753357703,0.025066816657725144,19.256945900287,41.32607973736157,30.224387886696686
9.56,-0.17280869556806683,0.4361070559124365,9.216861600560923,-0.19084807679975713,-0.1792006498837344,-0.03316966227104359,19.197628777290372,41.391849995277525,30.06339648470944
9.58,-0.5460677864048094,0.557427136876655,8.002285642457606,-0.1382254314274767,0.05484801539413492,-0.030322628167277627,19.473720319392406,41.14667515788248,30.17067055662052
9.6,-0.6466194430856718,0.8525067457800846,7.30978775123823,-0.21031883851106878,0.10078548578099564,0.018856342784351124,19.896623092423543,41.457670531249995,30.207086217139487
9.620000000000001,-0.857686597357481,0.8079379351459567,8.467804227957718,-0.33069830050350113,0.31854402114766756,0.06450002484977516,19.130096546318846,41.03394003818498,30.261738493962508
9.64,-0.8849868046307654,0.8166145061764839,9.709507635078038,-0.3032749217706633,0.2556160179280698,0.05517015242459012,19.494383460151216,41.268027355343584,29.92459951799707
9.66,-0.9728963500742766,0.1750803458726331,9.706804294247382,-0.3384212973051369,0.42270145546430216,0.15660160032725662,19.637428663469148,41.471760806597246,30.24905857499346
9.68,-0.9303961653512417,0.0908863910195328,10.009340276769464,-0.3980503395655742,0.2795660817956928,0.10561711847379816,19.577040831010006,41.696693350718505,30.214523142526
9.700000000000001,-1.0538894864718793,-0.26704866773557656,11.220198154280713,-0.4146405436083263,0.05784631524440718,0.18324184490915157,19.66856633146913,41.75866999552721,30.294856890010603
9.72,-0.9568768616905827,-0.7489095544250192,12.279684840186926,-0.4100832860049496,-0.035628680190915016,0.10650847818566994,19.48209153027237,41.45487544845849,30.50948085265056
9.74,-0.9057927991831316,-0.7132575294440354,12.691192316445102,-0.31753564143678925,-0.12643469743619445,-0.04061929101334792,19.529579075191407,41.546250746637064,30.71655498993295
9.76,-0.6961419548260404,-0.777672413294941,11.688230764260716,-0.22504749259769286,-0.21940155700560324,0.11003897729588398,19.641051673503917,41.721167057916674,30.464475118223664
9.78,-0.4276628917852524,-0.6773029069299512,10.819901803851756,-0.19211398497697407,-0.2798815224891153,-0.03207010396680201,19.477480905753396,41.29247645569802,30.10889176368385
9.8,-0.17985002675836115,-0.4562047980433593,9.876318817733019,-0.19748842183510343,-0.2260613653181371,0.030317709421775776,19.710753743794875,41.640771357068964,30.291197451700256
9.82,-0.11852787112105216,-0.09903450733912204,9.81893813976247,0.05789826693967533,-0.22103454379441406,-0.040184834767864545,19.669648133868108,41.419173457388034,30.483494114275864
9.84,0.05348216833014338,0.1667819611954489,9.867611550963883,0.0061307146485549005,-0.020602448091649593,0.09985012965428094,19.679027894747833,41.559953589024786,30.473351489176498
9.86,0.10014123444527528,-0.029934449380081666,9.820484825568299,-0.021221975840488023,-0.019649471420381308,0.0661007005166465,19.85583483811745,41.519370361517275,30.581551977812772
9.88,0.009689750709475281,0.04508448014702009,9.77427318604875,0.03814360264431784,0.038201915134662104,-0.0386073908016844,19.469779766249868,41.7053918333362,30.384653132053394
9.9,0.15017239800557433,-0.1059263406400851,9.616640077604409,0.0701826526311723,0.014528689934527012,-0.009113168069813365,19.800433661091805,41.741500786829945,30.34484313226675
9.92,-0.10428376311394301,-0.10486588283727732,9.702266415766342,-0.1374917553354188,0.010981615953132306,0.008740707343162436,20.31444328663851,41.82070594011886,30.76232103111538
9.94,-0.14948685151789604,0.07387054168799445,9.798028832452083,0.017844655196259437,0.035171243964344734,0.0384438754349573,19.686086574885607,41.72998413047745,30.448268836501825
9.96,-0.20075714389481075,-0.1595593163089471,9.658642192059414,-0.07147916211889667,-0.31358254993294926,-0.0016007082083993914,20.166555904438333,41.70933123575267,30.252877313392137
9.98,-0.10890068005335282,0.2772464695751405,9.320865258963119,-0.06805106925617659,-0.0872004150405429,-0.029942861774650175,19.95536189544853,42.04532058191919,30.742303674488276
10.0,-0.4010646361075686,0.5987318174373581,8.041891641359365,-0.17041298993304346,0.04108064949693071,0.0059455592301532745,19.854232100694766,41.409373866091016,30.182749665652267
10.02,-0.6588259302661372,0.760634099522104,7.422903592402549,-0.221881047474347,0.23671241085703482,0.05913385395978737,19.74156888113698,42.0400371851465,29.809794349148046
10.040000000000001,-0.784954494341327,0.732749374383908,8.463156109574872,-0.3396964784829554,0.1776450366198292,0.13443708322750816,20.047079128221437,41.67098809630258,30.639327653238322
10.06,-1.0390158164430632,0.6334638849596328,9.77928636751242,-0.45330307252828694,0.36985862132205716,0.10763310409597203,20.324432609656284,41.84812150533486,30.677139978422463
10.08,-0.7701357221386083,0.3836211438525565,9.840220252722402,-0.4145888380530495,0.2837846372808942,0.0573688747406616,19.99576009648176,41.68758081174413,30.5923718190959
10.1,-1.0175947665303782,0.04052520436409578,10.18584129095761,-0.38347131351329045,0.23260353182764643,0.12812189333006993,20.080036445509165,41.62653552760491,30.27331998111687
10.120000000000001,-0.9944260118997539,-0.4717441569261578,11.197289725076166,-0.34423233309631873,0.17652782039180023,0.0759175189520307,20.314644814292407,41.86549550501531,30.5225113650969
10.14,-0.8612952720081447,-0.6827440753755883,12.555176595816935,-0.41963544958364885,-0.009672801966724813,0.1298364710392103,20.211149585039973,41.98329385396765,30.490739806415046
10.16,-0.7656545962213057,-0.6952450950052728,12.611426280434744,-0.26643369249730725,-0.1433919450603978,0.19647964832657605,19.86884647999531,41.884484954658895,30.45123181302783
10.18,-0.631996935527937,-0.7240561997383672,11.836082758936424,-0.28349379064652647,-0.24538728284997394,0.042125314380582986,20.214699115191156,41.69975542662612,30.835659482255092
10.200000000000001,-0.5397692868403081,-0.7872596933166062,10.424441981790606,-0.15915590133048602,-0.32432061344770285,0.07886542157862163,20.511015569976404,42.507105515237605,30.37363923160509
10.22,-0.20725997167125937,-0.34336492086023596,10.01860350123936,-0.11648328332007636,-0.2875324770690092,-0.016526786542179536,20.238487873567514,42.053445947734666,30.645252659972492
10.24,0.15067435166160312,-0.21990962393998198,9.84840483683954,0.005744190130180832,-0.24947664712985623,-0.00838866082518227,19.744085207781854,42.01182236440623,30.823682069709232
10.26,0.09916032443087786,-0.025494249402204516,9.776240436917496,0.03981012645937318,-0.005139211172423136,-0.0015810102301391379,20.36981160877525,41.773858219374475,30.67742766162344
10.28,0.12294591615738212,0.1521856336076138,9.717164777184163,-0.061896675709849726,-0.11512467345864465,-0.012296815682130268,20.281942481558094,41.730306678348605,30.852151310104365
10.3,-0.07907670493739377,-0.12099770085782269,9.583246606445922,-0.035635483043847914,0.017593899243242336,0.11522465706120114,19.993576501698573,41.805023637913116,30.73165383069646
10.32,-0.12500206274482378,-0.11009501236719188,9.81585923360753,0.0058782041924201585,-0.008843388181614023,-0.017716467584562353,20.047012007738484,42.074498771820345,30.715316579441364
10.34,-0.04207554432956622,0.043346859030994514,9.919721710455871,0.1122760157294569,-0.019137779360004686,0.025168873861673664,20.58123479135556,41.6844891198411,30.71266989957529
10.36,-0.024650408420285316,-0.178108945460126,9.723262228249592,-0.04443310618400775,0.007548388029126873,-0.09564416972752475,20.277924034744505,41.677105682317716,30.76926871989835
10.38,0.07504238577321107,-0.09074448286896375,9.776456655964388,0.0949264265278521,-0.28394310265830536,0.017735835041741296,20.26875868894614,41.993007651083445,30.58660649914627
10.4,-0.41499753840893705,0.3743653405018948,9.150800896714912,0.004203944993882436,-0.009478758748728569,0.07407071382853928,20.460537170630825,41.957610850966596,30.41970356095379
10.42,-0.3170469084493392,0.5345737445962412,8.020336728227592,-0.18122443088069964,0.025656504679587567,0.015063701467961377,20.367996036902362,41.75503135416818,30.861762525226037
10.44,-0.6686585601223165,0.7272892109732056,7.292738614782253,-0.26670724200108864,0.14960909017193585,-0.06114168258406647,20.535113207567974,41.69972165393589,30.910451667660286
10.46,-0.8528120651829821,0.8213841579357023,8.507677204667008,-0.3489517225231172,0.20467824168210494,0.07332786334309138,20.501116279288112,42.19130392393662,30.744474748069553
10.48,-1.0281308879273952,0.635933609993934,9.49541343667769,-0.36666126861693576,0.2962630893255373,0.08792171160874726,20.333684011776086,41.98946033708186,30.59938970902954
10.5,-1.1637941526809374,0.3427215573384052,9.728755523770037,-0.4604936976355883,0.34673907382562774,0.12924839365390897,20.489884011426106,41.66449631563183,30.414063139103703
10.52,-0.9509756239396562,-0.06255573880992361,10.222719448016322,-0.4066594728313887,0.2588560124087019,0.19352334569984483,20.696895857305766,41.68298989089267,30.737969434957986
10.540000000000001,-0.9978893873317368,-0.34158112422822673,10.96672654578604,-0.32112091172788837,0.13709673064129685,0.07625021598936765,20.64368735277179,41.86671676503554,30.470726982193455
10.56,-1.0548051142775603,-0.6673435232640005,12.289974377874424,-0.3927196301598501,-0.010362193150963279,0.04599505685454845,20.6435528897298,42.0812832863597,30.451950855024116
10.58,-0.9361590445861373,-0.7659929911925834,12.745562119448284,-0.3272873595786865,-0.17981966427760598,0.019171093780973737,21.05480153173294,42.05895876803499,30.741845759025505
10.6,-0.6857251329905859,-0.8576478041567849,11.752200207060536,-0.3340506635083211,-0.3266250917862469,0.06885675380339014,20.846608310243376,42.165826945030204,30.607049713097737
10.620000000000001,-0.3036576726897765,-0.67299180751486,10.825251280499247,-0.1585985154167332,-0.31076352401757124,0.06339737833504391,20.8932269138893,41.66591265565051,30.827736382749023
10.64,-0.277441703687221,-0.47214293937904067,9.91817338801926,-0.07931325270486003,-0.2974868293901269,-0.006939365533772557,20.720881399377777,41.998240545655555,30.73847070584434
10.66,-0.1743017234993383,-0.033360730560598836,9.749061045905913,5.771326875695425e-05,-0.16478990125174475,0.03437677179483791,20.81808074797477,42.23192543167771,30.660073958271987
10.68,-0.053591334152250654,-0.10785608290836911,9.68608243681704,-0.013407698410662881,0.01185074123807137,0.019338435687320434,20.715979963997633,42.216623294742895,30.456569069690655
10.700000000000001,-0.05618146269577637,-0.13694845921555138,9.952654088365259,-0.017052380101077826,0.07439095333937032,-0.0009248788970452624,20.970848138110778,42.03189643493024,30.627394688974274
10.72,-0.2889011177223909,-0.005168529805882737,9.833078901945552,0.021091211217632255,0.054479449921832374,-0.04631590659571803,20.82303475171485,42.4157509126197,30.641557778007794
10.74,-0.03521230718570997,-0.009576981517664607,9.69008716740061,-0.004383196876253919,-0.024911789256196592,-0.026129487143266707,20.909462959974732,42.083544718981585,30.569972894525296
10.76,-0.05216971490003308,0.045155878555062964,9.886198229650557,0.012118649834655944,-0.08916620143775368,-0.11962825428876216,20.919997091256764,42.16808466752588,30.74889955408615
10.78,0.03683581102208816,-0.0713880546792095,9.799267074651732,0.007319175237818301,0.06350761122919109,0.008317779081505616,20.907919823100816,41.977411163827824,30.598514793828347
10.8,0.14749978511475315,0.009173073296328549,9.804696328426704,0.050924509780596566,0.06225049071507571,-0.0017356181401231093,21.49763945709734,41.819614110723585,30.793925652680592
10.82,0.07815024283658471,0.02287656693827167,9.746930187959766,0.029495716674002605,-0.06857815636330686,0.006046991572295349,20.827463781817592,41.801889650007446,30.877965225279134
10.84,-0.055813314293263735,0.012698285551833097,9.662266968030297,0.006257368471209152,-0.1426885134042442,0.021207312747098896,20.84750978948105,42.004852575302806,30.679487563905514
10.86,-0.3587474211955147,0.23784423774504088,9.33376829631248,-0.01912411611122114,-0.08374209439810927,0.03777152474437814,21.132145642950867,41.92911088583832,30.925959489911
10.88,-0.21684119800557153,0.609804080272458,7.924115900033534,-0.15638060625230832,0.0383022467410237,0.035089981240746124,20.906076812100157,41.62957186076706,30.58893110058736
10.9,-0.6478048321933426,0.7848997981667064,7.5049118558049495,-0.1897577116815533,0.23411921915847267,0.061685046257685464,20.985703568579005,41.77129329189197,30.642665518739125
10.92,-0.8104942704443869,0.7506314625686213,8.45901738182155,-0.28659934778465335,0.31556214808355476,0.007775960245386848,20.85419779042426,41.90590197863245,30.840217683633192
10.94,-0.9332848762649794,0.3951633307708,9.715879396428514,-0.4517996629496817,0.3263775486637425,0.059078295797149474,21.178130353501672,42.105147554633625,30.999478269867417
10.96,-0.9859117751481096,0.3325139951955007,9.755855626160617,-0.33033909623340163,0.30287941825148545,0.09691540179498852,21.201355289194467,41.960583063765256,31.039576331502026
10.98,-1.0438585995446985,0.18240297978213538,10.214718080175865,-0.3965115404155519,0.23871896030142148,0.06167902835620669,21.064628531339235,41.94767743346104,31.18794125850898
11.0,-1.0599994648423263,-0.4116707610947168,11.172677358697236,-0.39546499387596684,0.07688096176018891,0.1357800294200646,21.28281530877312,41.76955656635191,30.81124039367764
11.02,-0.9834673262614968,-0.7253605873685346,12.267593517384512,-0.34988282648146796,-0.039234212418143725,0.05548254690440045,20.809049963478184,41.96070761389559,30.86410414362632
11.040000000000001,-0.8149757964087659,-0.7741008680131645,12.832511255067272,-0.3322917847611513,-0.20592084637513874,0.0855658079867222,21.050144742298453,42.20642940614415,30.69520457928623
11.06,-0.705658579887575,-0.7799540215406681,11.597783762499,-0.24149853544482408,-0.2730031690039533,0.06494413171300949,21.173083222428172,41.97962154860427,30.657503201234686
11.08,-0.532316934254566,-0.5409626100944482,10.58365242594914,-0.20496354683149173,-0.31871208914408156,0.07620969840505548,21.000304483176034,41.65662341173727,30.94671365597218
11.1,-0.24230363209789285,-0.49786233426130055,9.911398924600407,-0.030843305163276227,-0.31665965683435027,0.06249006974898999,20.90909507631298,41.701699697634545,30.75831466159821
11.120000000000001,-0.054477812872402234,0.04021250424719908,9.692990412427038,-0.008452229453810464,-0.2085682022288381,0.030313565326461105,21.204995897851507,42.050692592918516,31.148204962298347
11.14,0.1143833269039381,0.026680517880140496,9.75936433554442,-0.021364024450676807,-0.018551080833627706,-0.10408829766639041,21.416423368221576,41.88991889762412,30.634967574094578
11.16,-0.28449310160572916,-0.043646067546292425,9.817031996945444,-0.04739643915452515,0.02110726657689475,0.05431911110463008,21.54818854602239,41.91370042658519,31.013133584650408
11.18,0.07478465778455633,0.0025139825204822386,9.847455359855934,0.00990123787913479,-0.08087138943810074,0.0703107947613407,21.215586342666615,41.80509803703105,30.730509992668107
11.200000000000001,0.08962417847977239,0.0688279182334423,9.80312416869124,0.005981140806004411,-0.008441030117150385,-0.026141965647430532,21.479871652680725,42.013812950488706,30.76979339191183
11.22,-0.22904546231118236,0.053742276482731235,9.71609342737022,0.01564438145652031,0.003314478728519793,0.00835905180829679,21.47952268293614,41.853488933125945,31.034385413225287
11.24,-0.06289800903171348,-0.13972985395907794,9.815425578031217,-0.05230809060024619,-0.017910203512170268,-0.045759920646277534,21.60927270906992,41.869236175551364,30.804511518686095
11.26,-0.06565832313559597,0.048735185928526506,9.746142329483847,-0.0798566975429555,-0.22340688394680733,-0.09652216832314327,21.325834676590603,41.735126233638304,30.838502416097807
11.28,-0.38764205664922524,0.3108968852109248,9.391204142925096,-0.061979991062210894,-0.1781755271015833,-0.016206239350403103,21.065305954700356,42.0687165226372,30.784698161232626
11.3,-0.5385541411262822,0.6024610993839133,8.051030197594537,-0.1052906862769509,0.04770024385512797,0.014461700017502525,21.44141293850799,41.842181499073774,31.28630462286294
11.32,-0.760105083023453,0.7569692408816217,7.33342905110212,-0.30166089461820844,0.18769471011782035,0.0423161450809862,21.25037783645016,41.99393687700095,30.82781412758958
11.34,-0.643613519899362,0.735519002820826,8.494733039333408,-0.2394394113762504,0.274707049890266,0.029155271926515562,21.322969309908455,41.6403379579696,30.95890794112962
11.36,-0.8411437421602628,0.7098691056967024,9.50572513127456,-0.3497598163416214,0.3449725618211975,0.051892478783014444,21.420668685813997,42.194396831794926,30.912726323179463
11.38,-0.8828586230623844,0.30907006714852225,9.713762457119953,-0.3933101842911693,0.28983842017007033,0.0939644877800188,21.42981091680386,42.098432127184594,30.99633464009689
11.4,-0.9607194818518494,-0.13747642832478407,10.155740281653879,-0.4220823374341974,0.23210873102720925,0.060029104810713184,21.53820586479557,41.477882826409264,30.837966543253046
11.42,-1.1133168822186776,-0.4148858574671404,11.118427054149425,-0.4594280298051293,0.10357607403247907,0.1205819591805837,21.66193061588661,41.68168363558236,30.919456900658897
11.44,-0.9813228134652774,-0.6383104931606182,12.39675419115723,-0.3159765783965869,-0.003586908290552599,0.11981659805731901,21.47197163228425,41.91815847702782,31.03551434920415
11.46,-0.76485152459015,-0.6919377104529418,12.744636015606726,-0.35296169833621704,-0.23831664548894257,0.18944176006269853,21.633954718564407,41.563568659734756,30.795883633940687
11.48,-0.7708140715123604,-0.752045239990371,11.85925595225404,-0.2898266411788983,-0.2999091462314297,0.11338161692779955,21.57597864364841,41.781902729849755,31.17227956373444
11.5,-0.39543588982100897,-0.7371165727341402,10.666528826418446,-0.12894103277244948,-0.22494247943038437,0.052057320711519715,21.767648912758553,41.87900421819275,31.192134155024267
11.52,-0.27559217217949594,-0.13852875929287373,9.950582044044443,-0.18239157902276887,-0.4042659185531282,-0.010520592844417084,21.566468866021953,41.7512571430094,31.082203465161044
11.540000000000001,-0.06598279752476148,-0.00458157014611415,9.724489332881003,-0.07613269491207206,-0.22186057498758083,0.011099872880351953,21.601911273508136,41.8795282701513,30.980250890604708
11.56,0.038252156947535185,0.09243751084790543,9.611477961858172,-0.003870443688387925,0.05326919806118727,0.012676606075985093,21.559306912375835,41.632013418766036,30.393559479171575
11.58,0.012649277902659815,-0.044564585623414,9.713265661624622,0.011077652592232898,-0.0074765119460047024,-0.027639028272271722,21.61390436041225,41.323027953458016,31.049981629895075
11.6,-0.06465275191863168,0.02120248749172314,9.825421963513708,0.020267263102508346,-0.022440531429633478,0.03461910704413813,21.50822613036162,41.93097329839812,30.893987392294914
11.620000000000001,0.08129566112296782,0.05058897643376685,9.712520501948202,-0.017486327683020136,0.0032122404871344195,-0.07010870470473002,21.502530284649826,41.917980037225526,30.922285467703055
11.64,-0.13378207944959014,0.08694669232840858,9.75717052440711,0.11845774409480109,-0.019949768640117434,-0.014731192105800508,21.83400026636159,42.199260301444625,30.6055631881164
11.66,0.029129818266649322,0.07150735731630961,9.824777403591582,-0.013938842820760036,-0.0015192243476669204,0.023681206047235524,21.489872111214225,41.28244457885309,31.064760216318984
11.68,0.02693772076496484,0.053730912007005874,9.829986191656577,-0.014077735300930663,-0.035802289752966225,-0.016804039084420658,21.649096836117053,41.837772309504096,30.691837347287706
11.700000000000001,-0.05971645817414307,-0.060248326194634425,9.630575748970225,-0.04125536010306612,-0.16191566219808948,-0.012924211364605018,21.91755917505176,41.302741549809,30.99251819630519
11.72,-0.22121216382107106,0.26221937126626466,9.397060449022787,-0.08606084638951435,-0.03376700237539841,0.01263837205840198,21.666863900229213,42.00482106234942,31.14313281823815
11.74,-0.5839906424505472,0.6273955069655469,8.084669882691237,-0.14703535650877808,0.02418660736963447,0.0002795143587440291,21.90539106473472,41.74782254961502,30.8788276461972
11.76,-0.564783208014871,0.8395226246902017,7.222037729072758,-0.1946241741258873,0.09005813076142127,0.11569622490143534,21.644202069922972,41.4576935969265,31.201762919558732
11.78,-0.8295820875665567,0.7285611424709046,8.501780988439338,-0.3872182376803424,0.22587278759344226,0.026317339994507867,21.566987090713504,41.77631468331869,30.8240435268633
11.8,-0.9811502778722468,0.6977216946830053,9.682753051816475,-0.3751953234020413,0.2862822072830305,0.1023685345059164,21.47344754079108,41.50611377678575,31.081776009981855
11.82,-0.9042230265014822,0.4565581988607198,9.752444297604697,-0.37152939155389053,0.30443086518386425,0.11434789033573631,22.04225496267034,41.65550542149508,30.714843816965708
11.84,-1.0976169942921048,-0.1179668082310482,9.972907166754462,-0.3748212383394623,0.16074739964377172,0.05146614874196959,21.582203078368025,41.62264004748561,31.162052367394665
11.86,-1.1401401966327254,-0.4574513788584893,10.958324788646472,-0.3926568292981116,0.05916392729172692,0.09800179542845805,21.953923520035755,41.90299120521272,31.130821144064154
11.88,-1.080405268560714,-0.6689411916293361,12.304157965688379,-0.3373511966234268,-0.012076888213769562,0.0434345424984962,21.628164584524587,41.90133967066738,31.050954630550528
11.9,-0.7536545271388487,-0.7804115135992958,12.637891315708881,-0.35456285984765046,-0.11754199901670194,0.1419531870494884,22.082490684020947,41.422711962983165,30.883761778733138
11.92,-0.7764110196983768,-0.8603007630670958,11.818019290634496,-0.17761645999221232,-0.28685377393667805,0.004687399211015138,22.262360168039322,41.72480870346428,30.6881744193169
11.94,-0.2954234976470592,-0.5256537288031782,10.65588145765207,-0.1289073467040107,-0.3651080815576206,0.009001313388621528,21.5236539438472,41.573802220930695,30.88028588918594
11.96,-0.4523861571131523,-0.336396572588276,10.140485396092483,-0.15656490736165427,-0.12852732543069192,-0.03951070700543638,21.647707836427234,41.21821593989328,31.16624250961665
11.98,0.13285981135584357,-0.026213083368889202,9.785443413656859,-0.05460494630960432,-0.17753343097570606,-0.06816953888964249,22.01263792783971,41.33931309451393,30.975635676251503
12.0,-0.009742323148548632,-0.16784731429137864,9.882964012758986,-0.0532522440051315,-0.01581618056481752,0.07337833396235008,21.97061727387654,41.90482970207791,30.649964510267413
12.02,-0.039284458739557666,-0.1563183183770407,9.91716097555553,0.029542558603033366,0.038713501225480305,0.02305318434780298,22.028898085607242,41.50806370101078,30.729510036943545
12.040000000000001,-0.08231223233365917,-0.0030231119729465933,9.9176937282578,-0.06466693278803842,-0.00897391822629226,0.003734084433626113,21.77688251235711,41.614147312018545,31.18321891956858
12.06,0.008317066977798805,-0.23472918011086427,9.807336440965015,-0.018889168041987866,0.03862353067680894,-0.03451569424065224,22.275661902088657,41.364081783951896,31.03329561890436
12.08,-0.033612931432785445,0.0672131913258309,9.591524241807459,0.018825811028005172,0.004650873493258665,0.04056536693024488,21.92342877527098,41.28350353282406,30.69953775353955
12.1,0.07591698067358606,-0.04518276905974275,9.824239187078772,-0.006175964858228867,0.0013810511120435172,-0.04256267708963775,21.673509507503304,41.374561466492544,30.594122919532136
12.120000000000001,-0.019034145728444193,0.2813369250810944,9.880646389230101,0.009426600754209879,-0.008451929675077855,0.035094686127844936,21.8646589538211,41.300168033091566,30.80969917249585
12.14,-0.015571030899659749,0.19155996005914663,9.726428460656365,-0.054158530144740404,-0.2846063383621925,-0.04488054127707054,21.687968901497214,41.04627066264497,30.570639537044407
12.16,-0.28742770632884457,0.29968788064628493,9.468822802330461,-0.06345536365945802,-0.009055163415679426,-0.011684276294400806,22.229996987978772,41.121836721687856,30.892422354198487
12.18,-0.4693505189947806,0.5852568337314177,8.058988296013988,-0.2059876664858711,-0.014604285341859334,0.07678592844541603,21.80292650231087,41.43167671218094,31.389146429041062
12.200000000000001,-0.6239408320450958,0.8455181550896538,7.385057559572407,-0.2679776651145946,0.09132849129169242,0.10081269270535018,22.029131330528344,41.20374859567254,30.60776080370324
12.22,-0.9760076481630658,0.9134469002975906,8.685161876200649,-0.30432147004772464,0.24079998539617958,0.10386184907384752,21.84875942522183,41.262648502519866,30.874452327514458
12.24,-1.0603946684245675,0.4382143964605665,9.600411851955483,-0.3584397925274869,0.24896301591946843,0.03671252923391576,21.825217524941333,41.28348700321985,31.15770357830209
12.26,-0.933574559155643,0.1456149466199967,9.527232427703252,-0.391820123959981,0.27768278514561723,0.07304990166348659,21.580534686669868,41.27895570706523,31.045135189792838
12.280000000000001,-1.0135969179397175,-0.08971534133322052,10.138088510368684,-0.4390300874548843,0.24214469908692915,0.10453113957752865,22.06577237516749,41.419264389724674,30.868101684222736
12.3,-1.0225903124716809,-0.3211641833093555,11.207622343716602,-0.4073495366102907,0.14385825781195286,0.05372730504649797,22.203672203133756,40.96824863323159,30.863764206916205
12.32,-0.9291992103281415,-0.6077653212856945,12.250568681055501,-0.36328273480078993,0.002517731806848403,0.15290309927644796,21.781356845417907,41.2685728259998,30.664986150609096
12.34,-0.7784636387533097,-0.7072442700670091,12.728090049633456,-0.3817366841792321,-0.17727996158431336,-0.04011030506282319,21.663218043882853,41.28374794259412,30.83044380581151
12.36,-0.7053067311684322,-0.9251132924685286,11.757403686480899,-0.27459750312653564,-0.2546368520407291,0.021969483448154026,22.116503898492006,41.30757988664307,30.923343226490942
12.38,-0.5386009927561802,-0.8778149968194362,10.824027990277816,-0.15794486145344666,-0.2815354685248932,0.0159291817740039,21.648239461492825,40.8263485755192,31.083410142308033
12.4,-0.23371978946693753,-0.2947376285450414,10.16153223001728,-0.15332533056710243,-0.37053879544172985,-0.11725720251341334,22.20020378055861,41.12570838840931,30.74663804052458
12.42,-0.1239237866510432,-0.10950684220466271,9.728475575681218,0.05251591927652346,-0.18774396875021104,-0.07001899825133716,21.793830049604747,41.385249250193546,30.82360539062087
12.44,0.009192264548589298,-0.22377483498130923,9.794140608037353,0.05794143660479246,-0.07295036580402392,0.027013896602019288,21.756746738658848,41.0155396442934,30.672006172070787
12.46,-0.19344802600683267,-0.016073880387899364,9.714672571414653,-0.06276722764608411,0.09493663674751149,-0.0015463854454577375,22.017073163423806,41.10604177416736,30.891579385874433
12.48,0.0687989411832618,0.046144866068993026,9.839034685347013,0.06216574238640668,-0.022416724062801374,0.07251052905805933,21.770519345685436,41.14152201789207,30.992725700460163
12.5,0.015369358311652127,-0.041717484683642614,9.828929575415264,-0.009891916258182452,-0.011874008505340379,0.07117086940247132,21.834234672391702,40.773109789875534,30.956917822362975
12.52,-0.0054211455058679366,-0.07395344507351898,9.857923734874873,0.017088698839538632,-0.039945940763417065,0.01778622617298944,22.037806619480463,41.30025037264391,30.604998087632556
12.540000000000001,0.06433833445876934,-0.04529877428600703,9.766075073758122,-0.02683925050215584,-0.24537059588503735,0.012035435952034157,21.502978809830605,41.02206174019442,30.851384592174952
12.56,-0.09263538728790702,0.2815310461035714,9.58314174661653,-0.0477022218756412,0.007072772732325386,0.022416786607418665,22.283923440499414,41.00375270163485,30.6865209722821
12.58,-0.3665042128758176,0.46605266322816785,7.87776359267208,-0.15706098274228725,0.07572708788491064,-0.08705556294645972,21.975852818645453,40.56260198814898,31.003931020034624
12.6,-0.8302137280665715,0.6813329847543775,7.166285393339834,-0.2914752770601784,0.08224790558750472,-0.007589876453778267,21.717803982475065,41.01182295962681,30.77194919793758
12.620000000000001,-0.9346708712746572,0.7999852006267851,8.543132668657549,-0.3716622889855458,0.32321947900137626,0.08001557239555182,21.769006689618152,40.933919831459164,30.504154975529186
12.64,-0.9909514513612042,0.6263463259465681,9.417881472740653,-0.43348206405101036,0.35238929217476145,0.11666612081013014,22.152663322912417,41.125815608134204,30.74654929332941
12.66,-1.0024231713615837,0.33324073266686133,9.623265857724629,-0.38394995960395717,0.2666668009026724,0.10839694220081313,22.075304197496827,40.73135650657782,30.869498732087546
12.68,-0.9803047340349642,-0.1255342542579243,10.089879642906835,-0.3755213722345727,0.22385348757339646,0.054161681549648434,22.223484507238776,40.578507918677694,30.820913608084552
12.700000000000001,-1.0745993182445563,-0.39453129485907046,11.004164078179373,-0.3617248122913163,0.0953664027743386,0.13948829277671815,21.82314277642654,40.61404128590753,30.668265083403014
12.72,-0.9130392585126196,-0.8644634304329378,12.236454111917732,-0.3690506397021218,0.05809449258246043,0.1582542001704645,22.007866948126257,40.62484582031978,30.646497119924273
12.74,-0.8843482439739491,-0.7928085700124613,12.799292429378962,-0.37126842285910155,-0.20083155202622105,0.12020664906078732,22.029204528538294,40.48363486030257,30.56148388742093
12.76,-0.7121955109459606,-0.6727719897953565,11.809113822751401,-0.28513551104863505,-0.2500087504992503,0.10684974800621595,22.076863248464164,40.92270083545443,30.667384583539228
12.780000000000001,-0.5989232044149876,-0.7969818706504661,10.635538021950687,-0.12124076097685087,-0.3216646388556274,0.013545535609905703,22.155566644757368,40.90633349357078,30.570855834301817
12.8,-0.3411513255829618,-0.43335604793255184,10.085955300457238,-0.1152705446833299,-0.35495093851416737,0.07089693128526986,21.79685983153526,40.59014128685827,30.9132515649978
12.82,-0.15976172213916814,0.0015942507561722396,9.739760027235711,0.003884046272710806,-0.10993339811332493,0.003996414687727561,21.90778941335848,40.52853731431453,30.54570599811362
12.84,-0.12368383228582394,0.09027289290503844,9.754603593724347,-0.0546312232115946,-0.059715195796915796,0.02155466536905623,21.807387495985,40.23148851026005,30.73381408313132
12.86,0.0711496124743526,-0.07302956316481435,9.81511295866492,0.013155986182033678,0.007566200999413244,0.014540728455586037,21.90895226588873,40.689703081188405,30.712255997467746
12.88,-0.12114229332786652,-0.09645603160952605,9.593609491140459,-0.024968858960595735,-0.08655362910625611,-0.00883138106113973,22.047362559985437,40.84946395502506,30.874776415309245
12.9,0.22270867822438953,-0.219016621671944,9.551049071140744,0.04724221026123666,-0.022155385883668475,-0.044280118805870496,21.589591506207206,40.385498255516694,30.89363139111281
12.92,0.01735851848456537,-0.020069939586421788,9.813227263564581,0.034130769897927044,0.01725450342880596,-0.0069425598505942245,22.11376261900273,40.46116826826731,30.809250499541733
12.94,-0.012255732125292105,0.16603929985379945,9.827233370934422,-0.026793885435595185,-0.04258723101611341,0.04436455763917549,21.67533237531353,40.54264501181843,30.734426676890184
12.96,-0.1124023468973965,-0.003373587651391112,9.978165132945833,-0.009079873312687843,0.025166488835311442,-0.02419083865501966,21.828028476652882,40.76594227052067,30.45625452808491
12.98,0.03722974842326317,-0.03213878200163648,9.749388010861379,-0.02945357952195018,-0.22804600676659217,0.03988066860519101,22.118565939086782,40.448730468086936,30.443193105289392
13.0,-0.3077821652751407,0.34802689312767715,9.380037763660015,-0.16014116701668624,-0.0463997579914167,0.05463148558527969,21.93509089844312,40.423345925512606,30.476757968963987
13.02,-0.45217079691160345,0.5944003535953581,7.957678900328857,-0.21771073226528967,0.09595386667132307,0.026039378854803962,21.92938636005611,40.39563681866678,30.774108219031586
13.040000000000001,-0.4077216861849292,0.6718929500084865,7.359037128637907,-0.24288148901289403,0.1284458744395604,0.12601138515961302,21.629300871089065,40.06292393370161,30.63432333357415
13.06,-0.8210532328415961,0.8289772016505187,8.740925984732844,-0.30012013707219204,0.25470043701934714,0.0581169080296491,21.64700321562957,40.03401099871122,30.77742809675479
13.08,-0.8206386285789942,0.6171382921931525,9.364505035694378,-0.35625724778852097,0.30391946583863994,0.15955513619564823,22.019379113073654,40.13187038763413,30.7934847852913
13.1,-1.0724328489939088,0.3187978634796777,9.806249396372086,-0.407454351462744,0.30989376527337575,0.11533088633214905,21.716437411043497,40.45664104734,30.451765015420854
13.120000000000001,-1.0333588950877084,-0.12363513861871189,10.391022175797266,-0.3582128029253927,0.209822370175689,0.09623843591423135,21.725131333995346,40.17289196019331,30.587409084710668
