time,accel_x,accel_y,accel_z,gyro_x,gyro_y,gyro_z,mag_x,mag_y,mag_z
0.0,1.3112667798995972,-4.77248477935791,-8.651249885559082,-0.047800205647945404,0.10430524498224258,0.038179077208042145,-14.425606727600098,32.57819366455078,-14.410990715026855
0.01,1.4644074440002441,-4.730610370635986,-8.597411155700684,-0.036193765699863434,0.1261436641216278,0.021991148591041565,-14.089447021484375,32.622039794921875,-14.937153816223145
0.02,1.5529417991638184,-4.649254322052002,-8.561518669128418,-0.030237827450037003,0.12431107461452484,0.01114829070866108,-14.600994110107422,32.607425689697266,-14.484068870544434
0.039,1.7240287065505981,-4.289134502410889,-8.50289535522461,-0.02932153083384037,0.0708603635430336,0.009926560334861279,-14.557147026062012,32.446651458740234,-14.35252857208252
0.043,1.734796404838562,-4.211367607116699,-8.545965194702148,-0.02886338159441948,0.06475171446800232,0.00931569468230009,-13.943290710449219,32.31510925292969,-14.45483684539795
0.05,1.7742778062820435,-4.053441524505615,-8.601000785827637,-0.020005837082862854,0.04749477282166481,0.012064589187502861,-14.294065475463867,32.35895919799805,-14.133294105529785
0.06,1.872383713722229,-3.9050865173339844,-8.654839515686035,-0.007177666295319796,0.029474247246980667,0.004886921960860491,-14.162525177001953,32.31510925292969,-15.024847030639648
0.07,1.9070795774459839,-3.8141591548919678,-8.689535140991211,0.0032070425804704428,0.013286319561302662,-0.001679879380390048,-14.586379051208496,32.5051155090332,-15.273311614990234
0.08,1.8556338548660278,-3.7148568630218506,-8.642874717712402,0.007788531482219696,0.004886921960860491,-0.014049900695681572,-14.104063987731934,32.32973098754883,-14.07483196258545
0.099,1.7479568719863892,-3.6801609992980957,-8.529216766357422,0.03344487026333809,-0.0074830991216003895,-0.016340645030140877,-14.674072265625,32.65127182006836,-14.323297500610352
0.104,1.5972089767456055,-3.7399816513061523,-8.468198776245117,0.04108068719506264,-0.012828170321881771,-0.016035212203860283,-14.542531967163086,32.5051155090332,-14.279450416564941
0.11,1.5098711252212524,-3.8500516414642334,-8.47059154510498,0.060475654900074005,-0.019394971430301666,-0.017409659922122955,-14.527915000915527,32.5489616394043,-14.07483196258545
0.12,1.4919248819351196,-4.05703067779541,-8.498109817504883,0.08521570265293121,-0.031001411378383636,-0.023976460099220276,-13.957907676696777,32.88512420654297,-13.7240571975708
0.13,1.4644074440002441,-4.281955718994141,-8.537590980529785,0.10506881773471832,-0.031001411378383636,-0.03481931984424591,-14.104063987731934,32.1251106262207,-14.337912559509277
0.14,1.4608181715011597,-4.537988185882568,-8.57348346710205,0.11026117950677872,-0.02428189292550087,-0.04718933627009392,-14.294065475463867,32.57819366455078,-14.86407470703125
0.159,1.4380862712860107,-4.778466701507568,-8.58784008026123,0.10476338863372803,0.001527163083665073,-0.06948591768741608,-14.878690719604492,32.46126937866211,-14.717918395996094
0.163,1.432104229927063,-4.770091533660889,-8.567501068115234,0.10415252298116684,0.0036651913542300463,-0.06979135423898697,-14.557147026062012,32.63665771484375,-14.790996551513672
0.17,1.4033904075622559,-4.768895149230957,-8.50289535522461,0.09651671350002289,0.0036651913542300463,-0.07101307809352875,-14.45483684539795,32.73896408081055,-14.425606727600098
0.18,1.3016955852508545,-4.761716842651367,-8.452645301818848,0.07956519722938538,-0.009621127508580685,-0.05726861581206322,-14.717918395996094,32.46126937866211,-13.753289222717285
0.19,1.0851449966430664,-4.724628448486328,-8.38444995880127,0.06291911751031876,-0.02580905519425869,-0.03787364438176155,-14.469453811645508,32.78281021118164,-14.35252857208252
0.2,0.9523433446884155,-4.709074974060059,-8.358129501342773,0.05100724473595619,-0.04138611629605293,-0.018936822190880775,-14.425606727600098,32.87050247192383,-14.63022518157959
0.218,0.9200402498245239,-4.874179840087891,-8.346165657043457,0.05345070734620094,-0.044287726283073425,-0.007024950347840786,-14.264835357666016,32.84127426147461,-14.790996551513672
0.221,1.0061818361282349,-4.913661479949951,-8.349754333496094,0.05406157299876213,-0.03695734962821007,-0.008246680721640587,-14.527915000915527,32.87050247192383,-14.659457206726074
0.23,1.1353943347930908,-4.947160720825195,-8.334200859069824,0.05406157299876213,-0.024434609338641167,-0.012064589187502861,-14.659457206726074,32.89973831176758,-14.147910118103027
0.24,1.3483555316925049,-4.934000015258789,-8.3629150390625,0.05406157299876213,-0.016951510682702065,-0.01038470957428217,-14.717918395996094,32.91435241699219,-14.45483684539795
0.25,1.3734800815582275,-4.847858428955078,-8.402396202087402,0.04520402476191521,-0.0024434609804302454,-0.007941247895359993,-13.972522735595703,32.680503845214844,-14.250219345092773
0.26,1.3794622421264648,-4.694717884063721,-8.398807525634766,0.024129178375005722,-0.006108652334660292,-0.0010690141934901476,-14.469453811645508,32.88512420654297,-14.425606727600098
0.279,1.3375877141952515,-4.420739650726318,-8.422735214233398,-0.0050396379083395,-0.05650503188371658,0.009468411095440388,-14.469453811645508,32.85588836669922,-14.410990715026855
0.283,1.3244272470474243,-4.383650779724121,-8.431110382080078,0.00015271631127689034,-0.06185010448098183,0.01038470957428217,-14.089447021484375,32.446651458740234,-13.577900886535645
0.29,1.3004990816116333,-4.3477582931518555,-8.410771369934082,0.014202617108821869,-0.06688974052667618,0.010537425056099892,-13.811750411987305,32.76819610595703,-14.513299942016602
0.3,1.2370892763137817,-4.35972261428833,-8.367700576782227,0.03481931984424591,-0.07116580009460449,0.010842857882380486,-13.884828567504883,32.95820236206055,-14.294065475463867
0.31,1.1988041400909424,-4.503292083740234,-8.319844245910645,0.04963279888033867,-0.07406741380691528,0.010690141469240189,-13.826367378234863,32.76819610595703,-13.826367378234863
0.32,1.1509475708007812,-4.663610935211182,-8.295915603637695,0.05711590126156807,-0.07040221989154816,0.0138971833512187,-14.016368865966797,32.87050247192383,-14.279450416564941
0.338,1.1306086778640747,-4.961517333984375,-8.343771934509277,0.05619960278272629,-0.04001167416572571,0.005955935921519995,-14.177140235900879,32.87050247192383,-13.987138748168945
0.341,1.1425727605819702,-4.965106964111328,-8.349754333496094,0.054825153201818466,-0.03756821155548096,0.0027488935738801956,-14.162525177001953,33.060508728027344,-14.07483196258545
0.35,1.1294121742248535,-5.032105922698975,-8.395217895507812,0.05513058975338936,-0.02382374368607998,-0.010690141469240189,-13.767904281616211,32.9289665222168,-14.191757202148438
0.36,1.1389836072921753,-5.005784511566162,-8.435895919799805,0.058948494493961334,-0.01542434748262167,-0.02580905519425869,-13.957907676696777,33.07512283325195,-14.776381492614746
0.37,1.1629117727279663,-4.948357105255127,-8.416753768920898,0.06215553730726242,-0.012064589187502861,-0.035735614597797394,-13.884828567504883,33.45513153076172,-14.308682441711426
0.38,1.270588755607605,-4.908875465393066,-8.407181739807129,0.06200282275676727,-0.009468411095440388,-0.03756821155548096,-13.7240571975708,33.2651252746582,-13.358667373657227
0.4,1.4632110595703125,-4.875375747680664,-8.352147102355957,0.046273037791252136,-0.020616700872778893,-0.014355332590639591,-13.840982437133789,32.66588592529297,-14.39637565612793
0.404,1.4488540887832642,-4.845465660095215,-8.328218460083008,0.043676864355802536,-0.024434609338641167,-0.006566801108419895,-13.519438743591309,32.972816467285156,-13.943290710449219
0.41,1.4464612007141113,-4.83469820022583,-8.258827209472656,0.0328340083360672,-0.028099801391363144,0.006261368282139301,-12.949429512023926,32.73896408081055,-13.884828567504883
0.42,1.3232309818267822,-4.790431022644043,-8.195417404174805,0.01710422709584236,-0.031001411378383636,0.02367102913558483,-13.183279037475586,33.031280517578125,-14.425606727600098
0.43,1.2071789503097534,-4.731806755065918,-8.197810173034668,0.0036651913542300463,-0.026572639122605324,0.03420845419168472,-14.001753807067871,32.417423248291016,-14.747150421142578
0.44,1.1150553226470947,-4.7401814460754395,-8.255237579345703,-0.003054326167330146,-0.02367102913558483,0.03176499158143997,-13.738672256469727,32.490501403808594,-14.484068870544434
0.455,1.0791629552841187,-4.693521499633789,-8.36411190032959,0.0006108652451075613,-0.02382374368607998,0.01542434748262167,-13.855597496032715,32.607425689697266,-13.197896003723145
0.46,1.0791629552841187,-4.697110652923584,-8.400003433227539,0.004886921960860491,-0.026572639122605324,0.01160643994808197,-13.797135353088379,32.89973831176758,-13.197896003723145
0.47,1.112662434577942,-4.715056896209717,-8.423932075500488,0.012675453908741474,-0.030237827450037003,0.004581489134579897,-13.402514457702637,32.82666015625,-13.27097225189209
0.48,1.1162517070770264,-4.727020740509033,-8.4502534866333,0.016798794269561768,-0.04092797264456749,0.001679879380390048,-13.753289222717285,33.27974319458008,-14.235603332519531
0.49,1.1306086778640747,-4.768895149230957,-8.445466995239258,0.02321287989616394,-0.0529925599694252,-0.004886921960860491,-13.957907676696777,32.402809143066406,-14.45483684539795
0.509,1.1341978311538696,-4.7988057136535645,-8.422735214233398,0.02825251594185829,-0.053297992795705795,-0.010537425056099892,-13.870213508605957,33.002044677734375,-14.878690719604492
0.513,1.1210373640060425,-4.801198482513428,-8.39162826538086,0.03894266113638878,-0.03649919852614403,-0.019547687843441963,-13.782519340515137,32.76819610595703,-14.45483684539795
0.52,1.0755738019943237,-4.761716842651367,-8.397610664367676,0.046731188893318176,-0.017867807298898697,-0.02382374368607998,-13.840982437133789,32.78281021118164,-13.767904281616211
0.53,1.015753149986267,-4.722235202789307,-8.365307807922363,0.055894169956445694,0.009468411095440388,-0.02626720443367958,-13.884828567504883,33.14820098876953,-14.381760597229004
0.54,0.9619146585464478,-4.6779680252075195,-8.342576026916504,0.06215553730726242,0.031612277030944824,-0.030085112899541855,-13.870213508605957,32.76819610595703,-14.11867904663086
0.55,0.8709874153137207,-4.663610935211182,-8.333003997802734,0.06169738993048668,0.037110064178705215,-0.03390302136540413,-13.767904281616211,32.72434997558594,-14.030985832214355
0.56,0.8721838593482971,-4.644468784332275,-8.313861846923828,0.05711590126156807,0.030543262138962746,-0.035582900047302246,-13.914060592651367,32.47588348388672,-14.484068870544434
0.572,0.9188438653945923,-4.624129772186279,-8.325825691223145,0.052381694316864014,0.016951510682702065,-0.03588833287358284,-14.308682441711426,32.65127182006836,-14.279450416564941
0.58,0.9463613033294678,-4.679164409637451,-8.309076309204102,0.04993823170661926,0.01191187184303999,-0.03680463135242462,-13.987138748168945,32.88512420654297,-15.083308219909668
0.59,1.0097711086273193,-4.767699241638184,-8.343771934509277,0.044745877385139465,0.005650503095239401,-0.03833179175853729,-13.928675651550293,33.11897277832031,-13.840982437133789
0.6,1.113858938217163,-4.8227338790893555,-8.35573673248291,0.03237585723400116,-0.002138028386980295,-0.038637224584817886,-13.855597496032715,33.002044677734375,-14.790996551513672
0.61,1.2203395366668701,-4.931607246398926,-8.401200294494629,0.01924225501716137,-0.0009162978385575116,-0.0354301817715168,-13.665594100952148,32.85588836669922,-13.811750411987305
0.629,1.286142110824585,-4.947160720825195,-8.397610664367676,0.005192354787141085,0.0039706239476799965,-0.0277943667024374,-13.943290710449219,32.21280288696289,-14.177140235900879
0.633,1.3148560523986816,-4.947160720825195,-8.359325408935547,-0.013744467869400978,0.009621127508580685,-0.005803219974040985,-14.220989227294922,32.56357955932617,-14.39637565612793
0.64,1.34476637840271,-4.919642925262451,-8.322237014770508,-0.019089538604021072,0.009773843921720982,0.00427605677396059,-13.928675651550293,32.72434997558594,-13.080970764160156
0.65,1.3519446849822998,-4.871786594390869,-8.271987915039062,-0.028557950630784035,0.0032070425804704428,0.030085112899541855,-14.191757202148438,33.031280517578125,-14.527915000915527
0.66,1.2717852592468262,-4.8227338790893555,-8.25284481048584,-0.0377209298312664,-0.009468411095440388,0.04703662171959877,-13.840982437133789,32.943580627441406,-15.302543640136719
0.67,1.1832507848739624,-4.77248477935791,-8.270791053771973,-0.04108068719506264,-0.019394971430301666,0.05497787147760391,-13.884828567504883,32.59280776977539,-14.089447021484375
0.688,1.1509475708007812,-4.774877548217773,-8.312665939331055,-0.03878994286060333,-0.025961771607398987,0.057421330362558365,-14.206372261047363,32.88512420654297,-14.717918395996094
0.692,1.117448091506958,-4.816751956939697,-8.330612182617188,-0.03344487026333809,-0.028405234217643738,0.03955352306365967,-13.329436302185059,32.89973831176758,-14.659457206726074
0.7,1.0827522277832031,-4.8119659423828125,-8.350950241088867,-0.02733621932566166,-0.029168814420700073,0.025961771607398987,-13.650979042053223,32.57819366455078,-15.14177131652832
0.71,1.1545369625091553,-4.84905481338501,-8.37846851348877,-0.02367102913558483,-0.031154125928878784,0.006872233934700489,-13.227126121520996,32.607425689697266,-15.434082984924316
0.72,1.2287143468856812,-4.8358941078186035,-8.414360046386719,-0.019853120669722557,-0.03084869496524334,-0.003512475173920393,-13.300204277038574,32.84127426147461,-14.747150421142578
0.73,1.2658032178878784,-4.741377830505371,-8.47059154510498,-0.01817324012517929,-0.027641652151942253,-0.00855211354792118,-13.855597496032715,32.72434997558594,-14.250219345092773
0.749,1.200000524520874,-4.596611976623535,-8.565108299255371,-0.00855211354792118,-0.017867807298898697,-0.00855211354792118,-13.358667373657227,32.53434753417969,-14.060215950012207
0.753,1.1186444759368896,-4.4961137771606445,-8.590232849121094,0.019394971430301666,0.004581489134579897,-0.009773843921720982,-13.21251106262207,32.5489616394043,-13.840982437133789
0.76,1.1150553226470947,-4.480560302734375,-8.531608581542969,0.03344487026333809,0.01725694164633751,-0.014355332590639591,-13.241742134094238,32.490501403808594,-14.980999946594238
0.77,1.2143574953079224,-4.500899314880371,-8.48016357421875,0.047800205647945404,0.02977968007326126,-0.022602012380957603,-13.314821243286133,32.53434753417969,-15.156386375427246
0.78,1.3387842178344727,-4.518845558166504,-8.390432357788086,0.06108652427792549,0.026572639122605324,-0.029168814420700073,-13.037124633789062,32.34434509277344,-14.790996551513672
0.79,1.3698909282684326,-4.543970108032227,-8.315058708190918,0.07406741380691528,0.019089538604021072,-0.033139437437057495,-13.300204277038574,32.69511795043945,-14.513299942016602
0.809,1.325623631477356,-4.575077056884766,-8.24566650390625,0.080634206533432,0.014049900695681572,-0.03497203439474106,-13.7240571975708,32.797428131103516,-14.86407470703125
0.813,1.2562319040298462,-4.692325115203857,-8.23011302947998,0.0682641938328743,0.008246680721640587,-0.03894266113638878,-13.241742134094238,32.680503845214844,-14.586379051208496
0.82,1.25862455368042,-4.741377830505371,-8.262415885925293,0.051770828664302826,0.001527163083665073,-0.038637224584817886,-13.110200881958008,32.30049514770508,-14.279450416564941
0.83,1.2813564538955688,-4.752145767211914,-8.36171817779541,0.03390302136540413,-0.007788531482219696,-0.038637224584817886,-12.876352310180664,32.88512420654297,-14.381760597229004
0.84,1.3423734903335571,-4.761716842651367,-8.451449394226074,0.024434609338641167,-0.015118913725018501,-0.03252857178449631,-13.417129516601562,32.78281021118164,-14.849458694458008
0.85,1.332802176475525,-4.730610370635986,-8.48614501953125,0.01924225501716137,-0.011301006190478802,-0.0177150908857584,-13.256357192993164,33.33820343017578,-14.615609169006348
0.869,1.2550355195999146,-4.7126641273498535,-8.49332332611084,0.020158551633358,-0.00931569468230009,-0.005345070734620094,-13.314821243286133,32.72434997558594,-14.90792179107666
0.873,1.1617152690887451,-4.723431587219238,-8.455039024353027,0.022143863141536713,-0.003359758760780096,0.005955935921519995,-13.650979042053223,32.9289665222168,-14.060215950012207
0.88,1.112662434577942,-4.7796630859375,-8.419146537780762,0.02626720443367958,0.0012217304902151227,0.007941247895359993,-13.110200881958008,33.46974563598633,-14.717918395996094
0.89,1.0827522277832031,-4.8119659423828125,-8.368897438049316,0.02428189292550087,0.006566801108419895,0.01038470957428217,-13.709442138671875,33.045894622802734,-14.922536849975586
0.9,1.0564311742782593,-4.810770034790039,-8.329415321350098,0.017562376335263252,0.008399397134780884,0.01313360221683979,-13.475592613220215,32.680503845214844,-15.477930068969727
0.91,1.054038405418396,-4.7641096115112305,-8.34855842590332,0.01038470957428217,0.003817907767370343,0.0138971833512187,-13.256357192993164,33.235897064208984,-14.469453811645508
0.93,1.0959126949310303,-4.724628448486328,-8.372486114501953,0.00809396430850029,-0.003054326167330146,0.011301006190478802,-13.519438743591309,32.82666015625,-15.097925186157227
0.933,1.1772687435150146,-4.752145767211914,-8.404788970947266,0.016798794269561768,-0.010537425056099892,0.0009162978385575116,-13.417129516601562,32.88512420654297,-14.937153816223145
0.94,1.2502497434616089,-4.744967460632324,-8.3629150390625,0.02229658141732216,-0.010079275816679,-0.003359758760780096,-13.27097225189209,32.987430572509766,-15.112540245056152
0.95,1.3208380937576294,-4.791627407073975,-8.334200859069824,0.03420845419168472,-0.006872233934700489,-0.007635815534740686,-13.27097225189209,32.95820236206055,-14.294065475463867
0.96,1.3483555316925049,-4.809573173522949,-8.274380683898926,0.041233401745557785,-0.003512475173920393,-0.004581489134579897,-13.475592613220215,33.060508728027344,-14.674072265625
0.97,1.2837493419647217,-4.8119659423828125,-8.228917121887207,0.03878994286060333,0.001527163083665073,0.0025961773935705423,-13.621747970581055,32.89973831176758,-13.329436302185059
0.989,1.195214867591858,-4.785645008087158,-8.255237579345703,0.023365594446659088,0.0032070425804704428,0.009162978269159794,-13.314821243286133,32.88512420654297,-14.264835357666016
0.993,1.1234301328659058,-4.791627407073975,-8.343771934509277,0.006872233934700489,-0.0027488935738801956,0.010079275816679,-13.329436302185059,32.82666015625,-14.323297500610352
1.0,1.1054840087890625,-4.810770034790039,-8.344968795776367,0.0036651913542300463,-0.004581489134579897,0.00855211354792118,-13.44636058807373,32.89973831176758,-14.016368865966797
1.01,1.1186444759368896,-4.892125606536865,-8.36171817779541,0.0012217304902151227,-0.009010262787342072,0.0032070425804704428,-13.460975646972656,32.943580627441406,-14.250219345092773
1.02,1.1389836072921753,-4.894518852233887,-8.343771934509277,-0.0050396379083395,-0.01191187184303999,0.0,-13.694826126098633,32.5489616394043,-15.127155303955078
1.03,1.1413763761520386,-4.883750915527344,-8.306683540344238,-0.008246680721640587,-0.01191187184303999,-0.0003054326225537807,-13.826367378234863,32.75358200073242,-14.250219345092773
1.049,1.1880364418029785,-4.833501815795898,-8.341379165649414,-0.01114829070866108,-0.010995574295520782,-0.0013744467869400978,-13.402514457702637,33.177433013916016,-14.557147026062012
1.053,1.2083754539489746,-4.816751956939697,-8.37129020690918,-0.003359758760780096,-0.009773843921720982,-0.005345070734620094,-13.636363983154297,32.91435241699219,-14.060215950012207
1.06,1.2023932933807373,-4.800002098083496,-8.39162826538086,0.005650503095239401,-0.010537425056099892,-0.012064589187502861,-13.534053802490234,32.84127426147461,-13.987138748168945
1.07,1.231107234954834,-4.813162326812744,-8.359325408935547,0.017867807298898697,-0.00931569468230009,-0.016951510682702065,-13.548670768737793,32.402809143066406,-14.060215950012207
1.08,1.239482045173645,-4.852643966674805,-8.303093910217285,0.021838432177901268,-0.003359758760780096,-0.018936822190880775,-13.577900886535645,33.250511169433594,-14.586379051208496
1.09,1.1856435537338257,-4.803591251373291,-8.312665939331055,0.01970040239393711,0.004123340360820293,-0.02076941914856434,-14.045600891113281,32.9289665222168,-13.811750411987305
1.109,1.171286702156067,-4.7605204582214355,-8.317450523376465,0.009010262787342072,0.011759155429899693,-0.01878410577774048,-13.300204277038574,32.943580627441406,-14.104063987731934
1.113,1.0755738019943237,-4.744967460632324,-8.337790489196777,0.007788531482219696,0.01313360221683979,-0.016951510682702065,-13.592517852783203,33.08974075317383,-14.264835357666016
1.12,1.0648061037063599,-4.71744966506958,-8.341379165649414,0.005650503095239401,0.00855211354792118,-0.01572977937757969,-13.460975646972656,32.69511795043945,-14.776381492614746
1.13,1.101894736289978,-4.7126641273498535,-8.382057189941406,0.006566801108419895,0.005345070734620094,-0.01710422709584236,-13.738672256469727,32.57819366455078,-14.001753807067871
1.14,1.1042876243591309,-4.750949382781982,-8.390432357788086,0.00931569468230009,0.0025961773935705423,-0.0177150908857584,-13.840982437133789,32.607425689697266,-14.162525177001953
1.15,1.1820544004440308,-4.792823314666748,-8.405985832214355,0.011453723534941673,0.001527163083665073,-0.021380282938480377,-13.44636058807373,32.9289665222168,-13.256357192993164
1.17,1.234696388244629,-4.808376789093018,-8.389235496520996,0.00931569468230009,0.0036651913542300463,-0.01970040239393711,-13.636363983154297,32.417423248291016,-14.279450416564941
1.173,1.2203395366668701,-4.802394866943359,-8.380861282348633,0.0032070425804704428,0.0074830991216003895,-0.015118913725018501,-13.621747970581055,32.78281021118164,-14.527915000915527
1.18,1.155733346939087,-4.767699241638184,-8.389235496520996,0.0010690141934901476,0.010537425056099892,-0.012522736564278603,-13.49020767211914,32.65127182006836,-14.688687324523926
1.19,1.1330015659332275,-4.750949382781982,-8.394021987915039,-0.0006108652451075613,0.01160643994808197,-0.0074830991216003895,-13.7240571975708,32.446651458740234,-14.600994110107422
1.2,1.109073281288147,-4.703092575073242,-8.382057189941406,-0.004581489134579897,0.006872233934700489,-0.006108652334660292,-13.738672256469727,32.373573303222656,-14.104063987731934
1.21,1.1234301328659058,-4.676771640777588,-8.390432357788086,-0.0039706239476799965,0.006261368282139301,-0.009773843921720982,-13.855597496032715,32.76819610595703,-14.805611610412598
1.229,1.1162517070770264,-4.674378871917725,-8.389235496520996,0.005497787147760391,0.01191187184303999,-0.018478674814105034,-13.782519340515137,32.5051155090332,-14.527915000915527
1.232,1.164108157157898,-4.642076015472412,-8.36411190032959,0.0088575454428792,0.014049900695681572,-0.020158551633358,-13.709442138671875,32.76819610595703,-14.162525177001953
1.24,1.1976077556610107,-4.660021781921387,-8.368897438049316,0.012675453908741474,0.01618792861700058,-0.022602012380957603,-14.030985832214355,33.11897277832031,-14.39637565612793
1.25,1.1976077556610107,-4.680360794067383,-8.366503715515137,0.014966198243200779,0.018325956538319588,-0.022602012380957603,-13.928675651550293,32.88512420654297,-14.410990715026855
1.26,1.2418749332427979,-4.711467742919922,-8.37727165222168,0.017409659922122955,0.0177150908857584,-0.02275473065674305,-13.811750411987305,32.607425689697266,-14.35252857208252
1.27,1.246660590171814,-4.7473602294921875,-8.374878883361816,0.020158551633358,0.013591751456260681,-0.020005837082862854,-13.680211067199707,33.07512283325195,-13.884828567504883
1.29,1.293320655822754,-4.784448623657227,-8.341379165649414,0.02076941914856434,0.01114829070866108,-0.021074850112199783,-12.978660583496094,32.490501403808594,-14.07483196258545
1.293,1.3052847385406494,-4.813162326812744,-8.346165657043457,0.019547687843441963,0.0074830991216003895,-0.020311269909143448,-13.621747970581055,32.85588836669922,-14.557147026062012
1.3,1.2825528383255005,-4.78684139251709,-8.33898639678955,0.021074850112199783,0.004581489134579897,-0.020922133699059486,-13.431745529174805,32.607425689697266,-14.39637565612793
1.31,1.2646067142486572,-4.766502380371094,-8.349754333496094,0.0177150908857584,0.005345070734620094,-0.01710422709584236,-13.621747970581055,32.680503845214844,-13.694826126098633
1.32,1.246660590171814,-4.737788677215576,-8.372486114501953,0.013286319561302662,0.00427605677396059,-0.016340645030140877,-13.694826126098633,32.402809143066406,-14.849458694458008
1.33,1.2813564538955688,-4.7294135093688965,-8.380861282348633,0.010995574295520782,0.0013744467869400978,-0.014202617108821869,-14.016368865966797,32.30049514770508,-14.016368865966797
1.349,1.3028918504714966,-4.730610370635986,-8.407181739807129,0.0088575454428792,0.0027488935738801956,-0.01237002108246088,-13.870213508605957,32.490501403808594,-15.112540245056152
1.353,1.3076776266098022,-4.746163368225098,-8.38684368133545,0.010079275816679,0.004581489134579897,-0.011453723534941673,-13.884828567504883,32.797428131103516,-15.22946548461914
1.36,1.3076776266098022,-4.7473602294921875,-8.35453987121582,0.011453723534941673,0.006566801108419895,-0.011759155429899693,-14.001753807067871,32.417423248291016,-15.083308219909668
1.37,1.2669994831085205,-4.742574214935303,-8.317450523376465,0.01313360221683979,0.007635815534740686,-0.01191187184303999,-13.387897491455078,32.28588104248047,-15.097925186157227
1.38,1.2275179624557495,-4.734199523925781,-8.287540435791016,0.011453723534941673,0.005345070734620094,-0.01237002108246088,-13.694826126098633,32.446651458740234,-14.790996551513672
1.39,1.1976077556610107,-4.738985061645508,-8.324629783630371,0.007941247895359993,0.0022907445672899485,-0.010842857882380486,-14.001753807067871,31.832796096801758,-14.162525177001953
1.41,1.210768222808838,-4.705485820770264,-8.400003433227539,0.00427605677396059,-0.012064589187502861,-0.01160643994808197,-13.753289222717285,32.25665283203125,-14.367143630981445
1.413,1.2011969089508057,-4.718646049499512,-8.403593063354492,0.003359758760780096,-0.015882495790719986,-0.010537425056099892,-13.592517852783203,32.812042236328125,-14.367143630981445
1.42,1.231107234954834,-4.7401814460754395,-8.425127983093262,0.0073303827084600925,-0.01924225501716137,-0.00931569468230009,-13.607131958007812,32.446651458740234,-14.381760597229004
1.43,1.270588755607605,-4.755734920501709,-8.431110382080078,0.009621127508580685,-0.01542434748262167,-0.0064140851609408855,-13.943290710449219,32.82666015625,-14.410990715026855
1.44,1.2825528383255005,-4.7796630859375,-8.383254051208496,0.012675453908741474,-0.008399397134780884,-0.0036651913542300463,-13.840982437133789,33.031280517578125,-14.35252857208252
1.45,1.2849457263946533,-4.794020175933838,-8.37966537475586,0.01618792861700058,-0.0007635815418325365,-0.0010690141934901476,-14.016368865966797,32.69511795043945,-15.56562328338623
1.469,1.2646067142486572,-4.792823314666748,-8.34855842590332,0.012217304669320583,0.009162978269159794,0.003817907767370343,-13.884828567504883,32.5051155090332,-14.644840240478516
1.473,1.1676974296569824,-4.753342151641846,-8.309076309204102,0.011453723534941673,0.00809396430850029,0.004123340360820293,-13.694826126098633,32.680503845214844,-14.104063987731934
1.48,1.124626636505127,-4.725824356079102,-8.336593627929688,0.007635815534740686,0.005345070734620094,0.0044287727214396,-14.030985832214355,32.31510925292969,-14.235603332519531
1.49,1.1282157897949219,-4.71744966506958,-8.334200859069824,0.006872233934700489,-0.0004581489192787558,0.003359758760780096,-14.235603332519531,32.75358200073242,-14.425606727600098
1.5,1.155733346939087,-4.719842433929443,-8.350950241088867,0.00931569468230009,-0.009010262787342072,-0.0009162978385575116,-13.840982437133789,32.5489616394043,-14.323297500610352
1.51,1.2370892763137817,-4.709074974060059,-8.34736156463623,0.01191187184303999,-0.012522736564278603,-0.0050396379083395,-14.089447021484375,32.66588592529297,-13.943290710449219
1.53,1.2717852592468262,-4.759324073791504,-8.401200294494629,0.012980885803699493,-0.009773843921720982,-0.0050396379083395,-13.870213508605957,32.46126937866211,-14.849458694458008
1.534,1.2550355195999146,-4.748556613922119,-8.389235496520996,0.014966198243200779,-0.007788531482219696,-0.004123340360820293,-14.016368865966797,32.417423248291016,-13.914060592651367
1.54,1.2131609916687012,-4.7401814460754395,-8.38564682006836,0.016035212203860283,-0.004886921960860491,-0.005650503095239401,-13.914060592651367,32.432037353515625,-13.928675651550293
1.55,1.1700901985168457,-4.765305995941162,-8.37727165222168,0.020158551633358,-0.0003054326225537807,-0.006261368282139301,-13.767904281616211,32.91435241699219,-13.797135353088379
1.56,1.164108157157898,-4.785645008087158,-8.34855842590332,0.023060161620378494,0.005497787147760391,-0.0064140851609408855,-13.417129516601562,32.70973205566406,-14.016368865966797
1.57,1.2119646072387695,-4.789234161376953,-8.321040153503418,0.0277943667024374,0.005650503095239401,-0.009010262787342072,-13.709442138671875,33.07512283325195,-13.753289222717285
1.589,1.2323036193847656,-4.813162326812744,-8.293522834777832,0.027488935738801956,0.005650503095239401,-0.013744467869400978,-14.367143630981445,32.417423248291016,-14.279450416564941
1.593,1.2382856607437134,-4.828715801239014,-8.283951759338379,0.027030786499381065,0.0050396379083395,-0.01664607785642147,-13.738672256469727,32.797428131103516,-14.133294105529785
1.6,1.2095718383789062,-4.817948341369629,-8.286344528198242,0.028099801391363144,0.0036651913542300463,-0.019853120669722557,-13.987138748168945,32.446651458740234,-14.177140235900879
1.61,1.2167502641677856,-4.823930263519287,-8.33898639678955,0.028557950630784035,0.0022907445672899485,-0.024434609338641167,-14.220989227294922,32.66588592529297,-13.709442138671875
1.62,1.1928220987319946,-4.815555572509766,-8.333003997802734,0.026419920846819878,0.0018325956771150231,-0.029168814420700073,-13.957907676696777,32.680503845214844,-14.45483684539795
1.63,1.1976077556610107,-4.758127689361572,-8.331808090209961,0.023365594446659088,-0.0018325956771150231,-0.027947084978222847,-14.133294105529785,32.51972961425781,-14.264835357666016
1.649,1.23589289188385,-4.73300313949585,-8.34018325805664,0.018325956538319588,-0.010842857882380486,-0.017562376335263252,-14.104063987731934,31.71587371826172,-13.782519340515137
1.653,1.2263215780258179,-4.7365922927856445,-8.359325408935547,0.01863138936460018,-0.010995574295520782,-0.01618792861700058,-14.001753807067871,32.08126449584961,-14.016368865966797
1.66,1.2047861814498901,-4.759324073791504,-8.321040153503418,0.017562376335263252,-0.012675453908741474,-0.014508049935102463,-13.972522735595703,32.402809143066406,-14.001753807067871
1.67,1.172482967376709,-4.809573173522949,-8.321040153503418,0.01817324012517929,-0.0074830991216003895,-0.017409659922122955,-13.914060592651367,32.72434997558594,-14.235603332519531
1.68,1.1700901985168457,-4.832304954528809,-8.255237579345703,0.017409659922122955,-0.0036651913542300463,-0.025503622367978096,-13.840982437133789,32.46126937866211,-13.870213508605957
1.69,1.1425727605819702,-4.805984020233154,-8.213363647460938,0.018020525574684143,0.0025961773935705423,-0.031154125928878784,-13.797135353088379,32.5489616394043,-14.337912559509277
1.709,1.1198409795761108,-4.756931304931641,-8.312665939331055,0.01863138936460018,-0.0003054326225537807,-0.03497203439474106,-13.665594100952148,32.373573303222656,-14.586379051208496
1.712,1.1282157897949219,-4.758127689361572,-8.327022552490234,0.021074850112199783,-0.0003054326225537807,-0.03344487026333809,-13.314821243286133,32.31510925292969,-14.73253345489502
1.72,1.0911270380020142,-4.766502380371094,-8.359325408935547,0.020616700872778893,-0.005192354787141085,-0.032681290060281754,-13.694826126098633,32.47588348388672,-14.615609169006348
1.73,1.0863415002822876,-4.768895149230957,-8.421539306640625,0.024892758578062057,-0.00855211354792118,-0.03237585723400116,-13.709442138671875,32.5489616394043,-13.460975646972656
1.74,1.0719845294952393,-4.765305995941162,-8.433503150939941,0.02519819140434265,-0.0088575454428792,-0.031001411378383636,-13.694826126098633,32.446651458740234,-13.051739692687988
1.75,1.0755738019943237,-4.809573173522949,-8.415556907653809,0.0277943667024374,-0.010231993161141872,-0.031001411378383636,-13.709442138671875,32.51972961425781,-14.045600891113281
1.769,1.0755738019943237,-4.839483737945557,-8.360522270202637,0.020311269909143448,-0.021532999351620674,-0.024434609338641167,-12.934814453125,31.920490264892578,-14.717918395996094
1.773,1.0707881450653076,-4.823930263519287,-8.350950241088867,0.01878410577774048,-0.02382374368607998,-0.022602012380957603,-13.256357192993164,32.27126693725586,-12.993276596069336
1.78,1.0648061037063599,-4.8191447257995605,-8.315058708190918,0.01817324012517929,-0.025961771607398987,-0.017867807298898697,-13.519438743591309,32.31510925292969,-14.484068870544434
1.79,1.026520848274231,-4.865804672241211,-8.271987915039062,0.018020525574684143,-0.03252857178449631,-0.016798794269561768,-13.227126121520996,32.57819366455078,-14.089447021484375
1.8,1.0325030088424683,-4.913661479949951,-8.23848819732666,0.020158551633358,-0.0377209298312664,-0.01618792861700058,-13.460975646972656,32.27126693725586,-13.826367378234863
1.81,1.038485050201416,-4.912464618682861,-8.220541954040527,0.02382374368607998,-0.04153883829712868,-0.019853120669722557,-13.080970764160156,32.11049270629883,-14.484068870544434
1.829,1.1545369625091553,-4.892125606536865,-8.305486679077148,0.033597588539123535,-0.03237585723400116,-0.027030786499381065,-13.344051361083984,32.00818634033203,-14.089447021484375
1.832,1.153340458869934,-4.880161762237549,-8.376075744628906,0.031612277030944824,-0.031154125928878784,-0.02535090781748295,-13.285589218139648,31.55510139465332,-13.753289222717285
1.84,1.239482045173645,-4.837090969085693,-8.432307243347168,0.026572639122605324,-0.032070424407720566,-0.021532999351620674,-13.884828567504883,31.920490264892578,-14.469453811645508
1.85,1.2717852592468262,-4.728217601776123,-8.523233413696289,0.001679879380390048,-0.03344487026333809,-0.00855211354792118,-13.300204277038574,31.935108184814453,-13.665594100952148
1.86,1.2681959867477417,-4.618147850036621,-8.62492847442627,-0.03833179175853729,-0.0429132841527462,0.01038470957428217,-13.884828567504883,32.432037353515625,-14.761765480041504
1.87,1.2646067142486572,-4.4997029304504395,-8.779266357421875,-0.07895433157682419,-0.05971207842230797,0.027488935738801956,-13.592517852783203,32.13972473144531,-14.834843635559082
1.89,1.3746765851974487,-4.353740692138672,-8.800801277160645,-0.0887281745672226,-0.10705412924289703,0.034666601568460464,-13.27097225189209,31.803565979003906,-14.206372261047363
1.893,1.416550874710083,-4.3310089111328125,-8.6967134475708,-0.08155050873756409,-0.10919215530157089,0.036651913076639175,-13.592517852783203,31.993568420410156,-14.235603332519531
1.9,1.521835207939148,-4.254438400268555,-8.556733131408691,-0.05619960278272629,-0.10919215530157089,0.03649919852614403,-13.110200881958008,31.978952407836914,-14.337912559509277
1.91,1.5493526458740234,-4.226921081542969,-8.400003433227539,-0.013286319561302662,-0.09269880503416061,0.04260785132646561,-13.051739692687988,31.730487823486328,-14.878690719604492
1.92,1.5493526458740234,-4.182653903961182,-8.281558990478516,0.022907447069883347,-0.06352998316287994,0.044745877385139465,-13.022507667541504,31.788951873779297,-14.045600891113281
1.93,1.5948163270950317,-4.2137603759765625,-8.25404167175293,0.040622539818286896,-0.053297992795705795,0.04917465150356293,-12.920199394226074,32.1689567565918,-14.542531967163086
1.943,1.6354942321777344,-4.299902439117432,-8.343771934509277,0.03848451003432274,-0.09392052888870239,0.055283304303884506,-12.920199394226074,32.066646575927734,-14.966383934020996
1.95,1.6235301494598389,-4.348955154418945,-8.438288688659668,0.030695976689457893,-0.13240504264831543,0.058795779943466187,-13.183279037475586,32.30049514770508,-15.404851913452148
1.96,1.6331013441085815,-4.469792366027832,-8.59621524810791,0.014966198243200779,-0.17867808043956757,0.06291911751031876,-12.788658142089844,32.56357955932617,-13.884828567504883
1.97,1.698904037475586,-4.596611976623535,-8.6967134475708,-0.008246680721640587,-0.22846360504627228,0.06215553730726242,-12.803274154663086,32.03741455078125,-14.644840240478516
1.98,1.8532410860061646,-4.719842433929443,-8.676374435424805,-0.03176499158143997,-0.28099802136421204,0.048258356750011444,-13.051739692687988,32.73896408081055,-15.361004829406738
1.99,2.0231313705444336,-4.838287353515625,-8.469395637512207,-0.055436018854379654,-0.3251330256462097,0.014660765416920185,-12.978660583496094,32.31510925292969,-15.258696556091309
2.003,2.2911276817321777,-4.83469820022583,-7.9896345138549805,-0.05604688450694084,-0.3309362530708313,-0.015882495790719986,-13.066354751586914,32.19818878173828,-15.697164535522461
2.01,2.372483730316162,-4.728217601776123,-7.8113694190979,-0.035124752670526505,-0.32620203495025635,-0.042760565876960754,-12.598654747009277,32.31510925292969,-15.697164535522461
2.02,2.4059829711914062,-4.448256969451904,-7.917849540710449,0.026572639122605324,-0.3170390725135803,-0.07330382615327835,-13.066354751586914,32.417423248291016,-15.127155303955078
2.03,2.2336997985839844,-4.230510234832764,-8.411967277526855,0.12797626852989197,-0.28909197449684143,-0.10354165732860565,-12.876352310180664,32.53434753417969,-16.018707275390625
2.04,2.1020946502685547,-4.252045631408691,-9.292526245117188,0.22892174124717712,-0.19776761531829834,-0.13790282607078552,-12.437883377075195,32.5051155090332,-15.653318405151367
2.05,2.283949136734009,-4.565505504608154,-9.940980911254883,0.26572638750076294,-0.13057243824005127,-0.166460782289505,-12.598654747009277,32.91435241699219,-15.726396560668945
2.062,2.7397818565368652,-4.621737003326416,-11.045268058776855,0.3205515146255493,-0.11087203770875931,-0.18891006708145142,-12.569424629211426,33.13358688354492,-15.741011619567871
2.07,2.974278450012207,-4.704289436340332,-11.169695854187012,0.37888914346694946,-0.13958270847797394,-0.19486600160598755,-12.65711784362793,33.002044677734375,-15.22946548461914
2.08,3.235095977783203,-4.907679080963135,-10.261619567871094,0.44257184863090515,-0.17791450023651123,-0.17531833052635193,-12.540192604064941,32.63665771484375,-16.281789779663086
2.09,3.2721848487854004,-4.800002098083496,-9.548558235168457,0.5120577812194824,-0.25442537665367126,-0.07727444916963577,-12.642502784729004,33.49897384643555,-16.939491271972656
2.1,2.0410776138305664,-4.387239933013916,-8.34855842590332,0.5700899958610535,-0.29016098380088806,0.04871650040149689,-12.686349868774414,33.367435455322266,-15.843321800231934
2.119,0.6484549045562744,-3.799802303314209,-8.61176872253418,0.5963572263717651,-0.22602012753486633,0.144622340798378,-12.686349868774414,33.732826232910156,-15.85793685913086
2.123,-0.2799602448940277,-3.071187734603882,-10.051051139831543,0.6846271753311157,-0.026419920846819878,0.08155050873756409,-12.642502784729004,34.112831115722656,-16.661794662475586
2.13,0.038285162299871445,-2.8211376667022705,-10.61575698852539,0.8138251900672913,0.11667525768280029,-0.017867807298898697,-12.496346473693848,34.419761657714844,-16.895645141601562
2.14,0.6843472719192505,-2.796013355255127,-11.266605377197266,1.119410514831543,0.3179553747177124,-0.09514226019382477,-12.204033851623535,34.58053207397461,-17.72873306274414
2.15,1.7060824632644653,-3.104687213897705,-11.11226749420166,1.35535728931427,0.30970868468284607,-0.07024950534105301,-12.832504272460938,35.42823791503906,-17.42180633544922
2.16,2.20737886428833,-3.3858439922332764,-10.533205032348633,1.4874567985534668,0.09773843735456467,0.01313360221683979,-12.247880935668945,35.06284713745117,-17.61180877685547
2.178,1.9118653535842896,-3.572484016418457,-10.140782356262207,1.5366315841674805,-0.0455094613134861,0.1716531366109848,-12.540192604064941,35.735164642333984,-17.641040802001953
2.183,1.1473584175109863,-3.6670005321502686,-9.696913719177246,1.5978707075119019,0.0009162978385575116,0.4781547486782074,-12.481730461120605,36.4074821472168,-17.81642723083496
2.19,0.7130610942840576,-3.655036449432373,-9.315258026123047,1.7209601402282715,0.0757472887635231,0.616973876953125,-12.744811058044434,37.094417572021484,-19.292604446411133
2.2,0.5503491759300232,-4.023531436920166,-7.875975608825684,1.8556559085845947,0.08521570265293121,0.7270823121070862,-12.116340637207031,37.35749816894531,-19.789535522460938
2.21,0.5288137793540955,-4.730610370635986,-6.926024913787842,1.8800904750823975,0.022143863141536713,0.8038986921310425,-11.780181884765625,37.57673263549805,-20.35954475402832
2.22,0.13519448041915894,-5.411368370056152,-6.792026519775391,1.8319847583770752,-0.054825153201818466,0.8428412675857544,-11.356328010559082,38.278282165527344,-20.491085052490234
2.239,-0.29431718587875366,-5.911468029022217,-7.34357213973999,1.796401858329773,-0.022143863141536713,0.8344419598579407,-11.546331405639648,38.62905502319336,-21.601871490478516
2.243,-0.4941178560256958,-6.628118515014648,-7.785048007965088,1.8573358058929443,0.08292495459318161,0.7709118723869324,-11.166325569152832,38.67290496826172,-22.420345306396484
2.25,-0.4785645008087158,-6.909275054931641,-7.688138484954834,1.9011653661727905,0.13347405195236206,0.754571259021759,-11.078632354736328,39.05290985107422,-22.11341667175293
2.26,-0.3433700203895569,-7.026523113250732,-7.371089935302734,1.9793561697006226,0.18096882104873657,0.7611380815505981,-10.757088661193848,39.49137496948242,-22.274188995361328
2.27,-0.4175475239753723,-7.009774208068848,-6.664010524749756,2.0809123516082764,0.21853703260421753,0.7739662528038025,-10.362466812133789,40.339080810546875,-23.5895938873291
2.28,-0.5120640397071838,-6.873383045196533,-6.069394588470459,2.110997438430786,0.266642689704895,0.7564038634300232,-10.537854194641113,40.558319091796875,-23.136510848999023
2.298,-0.5335994362831116,-6.655636310577393,-5.876771926879883,2.068084239959717,0.3182607889175415,0.702189564704895,-11.195556640625,40.74831771850586,-24.831920623779297
2.303,-0.2548356056213379,-6.406782150268555,-5.990431308746338,1.9763017892837524,0.39477166533470154,0.6334671974182129,-10.304004669189453,41.142940521240234,-26.4104061126709
2.31,0.37088748812675476,-6.284748554229736,-6.234498977661133,1.9462167024612427,0.4337143301963806,0.5867360830307007,-9.719380378723145,41.2014045715332,-25.855012893676758
2.32,1.3387842178344727,-6.198606967926025,-6.49770975112915,1.9704985618591309,0.4308127164840698,0.5587889552116394,-9.792458534240723,41.77141189575195,-27.038877487182617
2.33,1.8412768840789795,-6.240480899810791,-6.478567123413086,2.046245813369751,0.45036038756370544,0.5977316498756409,-9.090909004211426,42.01987838745117,-26.936567306518555
2.34,2.093719720840454,-6.339783668518066,-6.044269561767578,2.121993064880371,0.4801400899887085,0.6765332818031311,-9.456298828125,42.268341064453125,-28.661209106445312
2.359,1.9597216844558716,-6.496513366699219,-5.4448676109313965,2.1641428470611572,0.4225660264492035,0.7673994302749634,-8.827827453613281,42.896812438964844,-28.851213455200195
2.363,1.1808578968048096,-6.937989234924316,-4.890929222106934,2.1255056858062744,0.3988949954509735,0.7922922372817993,-8.535516738891602,43.01374053955078,-29.333528518676758
2.37,0.891326367855072,-7.209574222564697,-4.847858428955078,2.0624337196350098,0.42577308416366577,0.778853178024292,-8.98859977722168,43.072200775146484,-30.239694595336914
2.38,0.9619146585464478,-7.584051132202148,-4.886143684387207,1.9482018947601318,0.4462370276451111,0.7796167731285095,-8.857059478759766,43.7445182800293,-31.18971061706543
2.39,1.0588239431381226,-7.8556365966796875,-5.014159679412842,1.8086192607879639,0.3341432809829712,0.8355109095573425,-8.900906562805176,44.16836929321289,-31.4674072265625
2.4,0.8985048532485962,-8.087740898132324,-5.023731231689453,1.715309500694275,0.1576032191514969,0.8614726662635803,-8.433206558227539,43.627593994140625,-32.1251106262207
2.415,0.23330020904541016,-8.250452041625977,-5.020142078399658,1.6365079879760742,-0.042760565876960754,0.8503244519233704,-7.497807502746582,44.15375518798828,-33.70359420776367
2.42,0.05623133108019829,-8.311469078063965,-5.123033046722412,1.6293302774429321,-0.08338310569524765,0.8367326259613037,-7.0447235107421875,43.33528137207031,-33.49897384643555
2.43,-0.2069791555404663,-8.492127418518066,-5.230710506439209,1.6227635145187378,-0.10293079167604446,0.8035932183265686,-7.322420120239258,43.802982330322266,-34.142066955566406
2.44,-0.5503491759300232,-8.49571704864502,-4.693521499633789,1.6329954862594604,-0.07742717117071152,0.780380368232727,-6.664718151092529,43.84682846069336,-34.85823059082031
2.45,-0.9798608422279358,-8.429913520812988,-4.006781578063965,1.640325903892517,0.012675453908741474,0.7657195925712585,-6.416252136230469,43.53989791870117,-35.69131851196289
2.46,-1.4979069232940674,-8.334200859069824,-3.576073169708252,1.640325903892517,0.12767083942890167,0.7527386546134949,-6.299327373504639,43.6422119140625,-36.30517578125
2.479,-1.9262220859527588,-8.281558990478516,-4.006781578063965,1.6623170375823975,0.36560285091400146,0.6998988389968872,-5.641624927520752,44.66530227661133,-36.93364715576172
2.482,-1.9453648328781128,-8.2695951461792,-4.0319061279296875,1.6733125448226929,0.3877466917037964,0.6916521787643433,-5.334697246551514,44.41683578491211,-36.81671905517578
2.49,-1.8628122806549072,-8.325825691223145,-3.88594388961792,1.7093536853790283,0.4392121136188507,0.6721044778823853,-5.80239725112915,45.01607894897461,-36.96287536621094
2.5,-2.073380708694458,-8.537590980529785,-3.6263227462768555,1.736231803894043,0.4940372407436371,0.6085745096206665,-5.407775402069092,44.10990905761719,-37.69365692138672
2.51,-2.5351955890655518,-8.715856552124023,-3.620340585708618,1.7832683324813843,0.5511531829833984,0.5592471361160278,-5.1446943283081055,44.636070251464844,-37.88365936279297
2.52,-2.874976396560669,-9.119047164916992,-3.4636106491088867,1.8935295343399048,0.669355571269989,0.4986187517642975,-4.881613731384277,44.21221923828125,-38.833675384521484
2.532,-2.9862425327301025,-9.854839324951172,-3.0352954864501953,1.9416351318359375,0.7640396952629089,0.4054618179798126,-4.676995277404785,44.94300079345703,-39.81291961669922
2.54,-3.1369903087615967,-10.102496147155762,-2.548356056213379,1.9005545377731323,0.793666660785675,0.3426953852176666,-4.691610336303711,43.90529251098633,-39.72522735595703
2.55,-3.2518458366394043,-10.593025207519531,-2.383251190185547,1.714240550994873,0.9645562171936035,0.27030786871910095,-4.764688968658447,44.372989654541016,-39.91522979736328
2.56,-3.211167812347412,-10.916056632995605,-1.4536396265029907,1.493260145187378,1.1218539476394653,0.26145032048225403,-4.574686050415039,45.001461029052734,-41.157554626464844
2.57,-1.904686689376831,-10.77727222442627,-1.2502497434616089,1.2912163734436035,1.104138970375061,0.3729332387447357,-4.969306945800781,45.14761734008789,-41.42063903808594
2.58,-4.382454872131348,-10.753344535827637,-1.0145567655563354,1.1510229110717773,1.1131491661071777,0.4356996417045593,-4.735457420349121,45.26454162597656,-42.01987838745117
2.596,-2.4227328300476074,-10.357333183288574,-1.3962119817733765,1.089020013809204,0.7567093372344971,0.541532039642334,-4.399298667907715,44.27068328857422,-41.683719635009766
2.6,-2.0135602951049805,-10.088139533996582,-1.514656662940979,1.114981770515442,0.5677992701530457,0.6534730792045593,-4.676995277404785,44.97222900390625,-41.727561950683594
2.61,-1.8233308792114258,-9.30329418182373,-1.447657585144043,1.165683627128601,0.2122756689786911,0.868803083896637,-4.574686050415039,44.358375549316406,-41.81526184082031
2.62,-1.891526222229004,-8.634500503540039,-1.1006983518600464,1.2702943086624146,-0.02977968007326126,0.997237503528595,-4.1946797370910645,44.636070251464844,-42.72142791748047
2.63,-1.9334007501602173,-8.356932640075684,-0.35054853558540344,1.3373366594314575,-0.19486600160598755,1.0286970138549805,-3.2885122299194336,44.50453186035156,-43.08681869506836
2.648,-1.9441683292388916,-8.257630348205566,0.17706885933876038,1.348484992980957,-0.32620203495025635,0.9940304756164551,-3.2154340744018555,44.636070251464844,-43.65682601928711
2.652,-1.810170292854309,-8.414360046386719,0.3397807776927948,1.2889256477355957,-0.44089198112487793,0.8965974450111389,-3.1569714546203613,44.48991394042969,-44.577606201171875
2.66,-1.8077774047851562,-8.694320678710938,0.4378865361213684,1.2574660778045654,-0.4109595715999603,0.8718574047088623,-3.0400466918945312,43.978370666503906,-44.89915466308594
2.67,-1.435693621635437,-9.041280746459961,0.05024927482008934,1.2319624423980713,-0.29138270020484924,0.8834638595581055,-2.1484947204589844,43.52528381347656,-45.922245025634766
2.68,-0.9726824164390564,-9.3248291015625,-0.47617167234420776,1.278693675994873,-0.035124752670526505,0.9724974632263184,-1.943876028060913,43.23297119140625,-46.56533432006836
2.69,-0.3038884699344635,-9.978070259094238,-0.30628129839897156,1.3292428255081177,0.17302757501602173,1.0719157457351685,-1.8707979917526245,43.072200775146484,-46.81379699707031
2.71,0.35892340540885925,-10.670792579650879,-0.11006983369588852,1.3197743892669678,0.25931230187416077,1.1606439352035522,-1.9731072187423706,42.838348388671875,-47.529964447021484
2.713,0.9595218300819397,-11.072786331176758,-0.5551348328590393,1.3365731239318848,0.24434609711170197,1.2791517972946167,-0.8184741139411926,42.809120178222656,-47.95381546020508
2.72,0.9332008361816406,-11.131410598754883,-0.3158525824546814,1.3646730184555054,0.22418753802776337,1.3219122886657715,-0.4384683072566986,42.6629638671875,-48.12919998168945
2.73,1.1389836072921753,-11.33360481262207,0.6197410225868225,1.3185526132583618,0.11530081182718277,1.3011430501937866,0.33615902066230774,41.508331298828125,-48.17304992675781
2.74,1.219143033027649,-11.140981674194336,0.8135596513748169,1.1511754989624023,-0.16065755486488342,1.2512047290802002,0.9353989958763123,41.186790466308594,-49.166908264160156
2.75,0.7740780711174011,-10.607381820678711,0.13160523772239685,1.059393048286438,-0.42821651697158813,1.1050552129745483,1.4761765003204346,40.79216766357422,-49.795379638671875
2.768,0.7908278107643127,-10.074979782104492,-0.3397807776927948,1.0823004245758057,-0.6792821288108826,0.8804094791412354,2.1923413276672363,40.17831039428711,-50.73078155517578
2.772,0.43908295035362244,-9.687341690063477,-0.25363919138908386,1.1609493494033813,-0.7150177359580994,0.7417430877685547,2.3384976387023926,40.03215408325195,-50.67231750488281
2.78,0.0131605239585042,-9.389435768127441,-0.13519448041915894,1.1861475706100464,-0.6389650702476501,0.6701191663742065,2.4992692470550537,39.944461822509766,-50.979244232177734
2.79,-0.8614161610603333,-8.860621452331543,-0.453439861536026,1.2006556987762451,-0.42562034726142883,0.535881519317627,2.674656629562378,39.564453125,-52.04618453979492
2.8,-1.4380862712860107,-8.343771934509277,-0.9643074870109558,1.262963891029358,-0.07773260027170181,0.36911532282829285,2.586962938308716,39.374454498291016,-51.75387191772461
2.81,-0.9487541317939758,-8.557929992675781,-1.4225330352783203,1.3405437469482422,0.16584990918636322,0.15882496535778046,2.908506155014038,39.54983901977539,-51.52002716064453
2.829,-1.0348957777023315,-8.926424980163574,-1.4608181715011597,1.3565789461135864,0.06032294034957886,0.020616700872778893,2.674656629562378,38.99444580078125,-52.57234573364258
2.833,-1.8891334533691406,-9.153742790222168,-0.8638089299201965,1.2731958627700806,-0.215482696890831,-0.08659014105796814,2.718503475189209,39.00905990600586,-53.332359313964844
2.84,-2.100898265838623,-9.372685432434082,-0.4905286133289337,1.1717921495437622,-0.3428480923175812,-0.11988230049610138,3.0985093116760254,38.49751663208008,-52.96696853637695
2.85,-2.2923240661621094,-9.415757179260254,-0.363709032535553,0.9845620393753052,-0.5343543291091919,-0.1160643994808197,3.1277403831481934,38.8629035949707,-53.36158752441406
2.86,-2.57228422164917,-9.352347373962402,-0.349352091550827,0.764345109462738,-0.679740309715271,-0.05696318298578262,2.937737464904785,38.570594787597656,-53.1569709777832
2.87,-2.7038893699645996,-9.17886734008789,0.03349951654672623,0.5917757153511047,-0.6717990040779114,0.007941247895359993,3.1862027645111084,38.11751174926758,-53.77082824707031
2.888,-2.4765713214874268,-9.128618240356445,0.5288137793540955,0.4027129113674164,-0.5772676467895508,0.0913243517279625,2.908506155014038,38.04443359375,-54.16544723510742
2.893,-2.26959228515625,-8.462217330932617,0.6747759580612183,0.19685132801532745,-0.5222897529602051,0.16401731967926025,2.630809783935547,38.24905014038086,-54.267757415771484
2.9,-2.2887346744537354,-8.12961483001709,0.5862414836883545,0.14156801998615265,-0.5198463201522827,0.17821994423866272,3.1277403831481934,38.00058364868164,-54.16544723510742
2.91,-2.266003131866455,-8.015955924987793,0.8159525394439697,0.12751811742782593,-0.4963279962539673,0.17379117012023926,2.87927508354187,38.015201568603516,-54.647762298583984
2.92,-2.6979076862335205,-7.731209754943848,0.8542376756668091,0.15393804013729095,-0.3923282027244568,0.12553280591964722,3.2885122299194336,37.679039001464844,-55.32008361816406
2.93,-2.7565317153930664,-7.7144598960876465,0.8997012972831726,0.21670444309711456,-0.17959438264369965,0.07788532227277756,3.0546624660491943,37.79596710205078,-54.73545837402344
2.95,-2.6799612045288086,-7.7898335456848145,1.0528419017791748,0.29794952273368835,0.1293507218360901,0.06475171446800232,3.873136520385742,37.18210983276367,-55.08623123168945
2.953,-2.1260228157043457,-8.264808654785156,1.688136339187622,0.3686571717262268,0.5688682198524475,0.08414668589830399,3.726980447769165,36.78749084472656,-54.472373962402344
2.96,-1.9298113584518433,-8.565108299255371,1.9657037258148193,0.3390301764011383,0.709061861038208,0.12308934330940247,3.1862027645111084,37.021339416503906,-54.53084182739258
2.97,-1.6534403562545776,-9.117850303649902,2.355733871459961,0.2588541507720947,0.7929030656814575,0.1748601794242859,3.770827054977417,36.87518310546875,-54.633148193359375
2.98,-1.6378871202468872,-9.53659439086914,2.526820659637451,0.18295413255691528,0.7816020846366882,0.20494529604911804,3.9315991401672363,36.77287292480469,-54.633148193359375
2.99,-1.5637094974517822,-9.951748847961426,2.660818576812744,0.14233160018920898,0.6995934247970581,0.237321138381958,4.1654486656188965,36.539024353027344,-54.238529205322266
3.01,-1.5397813320159912,-10.340582847595215,2.7278177738189697,0.15195272862911224,0.5754350423812866,0.28878653049468994,3.887752056121826,36.50979232788086,-54.18006134033203
3.013,-2.15234375,-10.478169441223145,2.4191436767578125,0.31413745880126953,0.36880987882614136,0.3332270085811615,4.1508331298828125,35.88132095336914,-54.19468307495117
3.02,-2.5160529613494873,-10.535597801208496,2.3700907230377197,0.4873177409172058,0.3546072542667389,0.29856041073799133,3.9754457473754883,35.662086486816406,-53.66851806640625
3.03,-3.1920251846313477,-10.664810180664062,2.520838737487793,0.7638869881629944,0.4612032473087311,0.21242839097976685,4.267758369445801,35.44285202026367,-53.49312973022461
3.04,-3.3655049800872803,-10.48534870147705,2.630908489227295,1.0456485748291016,0.6940956115722656,0.12263119220733643,4.282373428344727,34.9459228515625,-53.77082824707031
3.05,-2.9766714572906494,-10.240083694458008,2.750549554824829,1.3048081398010254,0.9657779335975647,0.07192938029766083,4.486992359161377,34.975154876708984,-54.12160110473633
3.069,-2.416750907897949,-10.1336030960083,2.9132614135742188,1.4428637027740479,1.0409142971038818,0.03451388329267502,4.691610336303711,34.52206802368164,-53.17158508300781
3.073,-1.5948163270950317,-10.339385986328125,2.891726016998291,1.381929874420166,0.7435756921768188,0.023365594446659088,5.261619567871094,34.31745147705078,-53.741600036621094
3.08,-1.2921241521835327,-10.675577163696289,2.713460922241211,1.2907582521438599,0.4488332271575928,0.04444044828414917,4.735457420349121,34.536685943603516,-53.40544128417969
3.09,-0.8961120247840881,-11.688939094543457,2.489731788635254,1.178053617477417,-0.00809396430850029,0.11621711403131485,4.779304027557373,33.95206069946289,-54.019290924072266
3.1,-0.4247260093688965,-12.771690368652344,2.060220241546631,1.0853548049926758,-0.47372597455978394,0.2658790946006775,5.1446943283081055,34.01052474975586,-54.72084426879883
3.11,0.3409772217273712,-13.362717628479004,0.12801600992679596,1.1323914527893066,-1.0534371137619019,0.46242499351501465,4.983922958374023,33.71821212768555,-54.20929718017578
3.13,0.5778666734695435,-13.021740913391113,-2.596212387084961,1.7130188941955566,-2.096489429473877,0.6003278493881226,5.305466175079346,33.33820343017578,-56.54779052734375
3.133,-1.3232309818267822,-13.430912971496582,-2.27677059173584,2.3490822315216064,-2.9859092235565186,0.317497193813324,5.422390937805176,33.235897064208984,-57.22011184692383
3.14,-2.7601208686828613,-14.707483291625977,-1.9824535846710205,2.3846652507781982,-3.032487630844116,0.044287726283073425,5.349313259124756,32.32973098754883,-58.59397506713867
3.15,-4.997409820556641,-17.608781814575195,-2.592623233795166,1.8503108024597168,-2.175291061401367,-0.2590068578720093,5.817012310028076,32.490501403808594,-59.32476043701172
3.16,-5.918646335601807,-20.453845977783203,-0.003589233849197626,0.056352317333221436,-0.33719760179519653,-0.32268956303596497,5.334697246551514,32.02280044555664,-59.95323181152344
3.17,-5.26181697845459,-17.57887077331543,-1.1186444759368896,-2.0613646507263184,1.2585350275039673,-0.2779436707496643,6.0800933837890625,32.1251106262207,-59.92399978637695
3.189,-3.972085475921631,-12.782458305358887,-2.589033842086792,-2.3518311977386475,1.5986343622207642,-0.4245513379573822,5.8900909423828125,32.56357955932617,-58.21397399902344
3.193,-2.0039889812469482,-10.675577163696289,-0.8638089299201965,-2.2989914417266846,1.4343116283416748,-0.42699480056762695,6.226249694824219,32.680503845214844,-57.07395553588867
3.2,-1.6031910181045532,-9.90748119354248,-0.1615155190229416,-2.3861923217773438,1.3034337759017944,-0.3882048726081848,6.533177375793457,33.08974075317383,-56.97164535522461
3.21,-0.9140582084655762,-9.05563735961914,0.041874393820762634,-2.5946502685546875,1.1384999752044678,-0.41691553592681885,6.518562316894531,33.27974319458008,-56.22624588012695
3.22,-0.3732803165912628,-8.768498420715332,0.19381862878799438,-2.82296085357666,0.8416195511817932,-0.513737678527832,6.8401055335998535,33.250511169433594,-54.99854278564453
3.23,-0.25004997849464417,-9.184849739074707,2.2372889518737793,-3.0644054412841797,0.39477166533470154,-0.4758639931678772,6.737796306610107,33.732826232910156,-54.58930206298828
3.249,-0.41515469551086426,-9.090332984924316,3.803391456604004,-3.3797647953033447,-0.2883284091949463,-0.4043927788734436,6.518562316894531,33.2066650390625,-53.478515625
3.253,-1.2514461278915405,-8.687142372131348,3.7124643325805664,-3.5016322135925293,-1.1227703094482422,-0.27611106634140015,6.708564758300781,33.30897521972656,-53.06927490234375
3.26,-1.8197414875030518,-8.569893836975098,3.300898551940918,-3.369685411453247,-1.4614951610565186,-0.2292271852493286,6.650102138519287,33.19205093383789,-52.294654846191406
3.27,-2.5639095306396484,-9.206384658813477,2.9383859634399414,-2.975524663925171,-1.7353153228759766,-0.23884831368923187,7.103186130523682,33.32358932495117,-52.63081359863281
3.28,-3.1549363136291504,-10.077371597290039,2.8558335304260254,-2.6902503967285156,-1.5969544649124146,-0.26083946228027344,6.635486125946045,33.30897521972656,-52.58695983886719
3.29,-3.0340988636016846,-10.418349266052246,2.6979076862335205,-2.4420864582061768,-1.3985759019851685,-0.2727513313293457,6.796258926391602,33.46974563598633,-53.08388900756836
3.31,-3.5222346782684326,-10.756933212280273,2.1607186794281006,-2.185981273651123,-1.1665998697280884,-0.24495695531368256,6.8401055335998535,34.6682243347168,-52.38234329223633
3.314,-4.192224979400635,-11.243873596191406,1.3268201351165771,-1.7203491926193237,-0.8097019195556641,-0.3900374472141266,6.577024459838867,34.81438064575195,-52.35311508178711
3.32,-4.268795490264893,-11.255837440490723,1.1234301328659058,-1.4900530576705933,-0.727998673915863,-0.5453499555587769,6.752411365509033,35.179771423339844,-52.543113708496094
3.33,-4.603790283203125,-11.103893280029297,1.4811570644378662,-1.322981357574463,-0.6398813128471375,-0.7576255798339844,7.220110893249512,34.85823059082031,-53.025428771972656
3.34,-4.731806755065918,-10.229315757751465,1.9836498498916626,-1.3759739398956299,-0.5053382515907288,-0.920573890209198,6.781642913818359,35.42823791503906,-52.543113708496094
3.35,-4.143172264099121,-9.066404342651367,2.0231313705444336,-1.5218180418014526,-0.35246923565864563,-0.9563094973564148,6.620871067047119,35.76439666748047,-53.08388900756836
3.369,-3.2195427417755127,-7.7036919593811035,1.8975082635879517,-1.5418237447738647,-0.23548854887485504,-0.8721628189086914,5.831628322601318,36.3636360168457,-52.79158401489258
3.373,-2.699103832244873,-6.3768720626831055,1.5984054803848267,-1.3266466856002808,-0.24587324261665344,-0.6311764717102051,5.422390937805176,37.021339416503906,-52.17772674560547
3.38,-2.8211376667022705,-6.3421759605407715,1.5469597578048706,-1.1928671598434448,-0.2528982162475586,-0.5627596378326416,5.977784156799316,37.50365447998047,-51.593101501464844
3.39,-3.2793633937835693,-6.480959892272949,1.25862455368042,-1.0824532508850098,-0.13805553317070007,-0.5719225406646729,4.910844802856445,37.605960845947266,-52.13387680053711
3.4,-3.479163885116577,-6.20937442779541,0.696311354637146,-0.9775370955467224,0.19135352969169617,-0.6499606370925903,5.363928318023682,37.8251953125,-51.593101501464844
3.41,-3.0723841190338135,-6.099304676055908,0.5048855543136597,-0.8219191431999207,0.5061018466949463,-0.7585418820381165,4.750072956085205,38.49751663208008,-51.76848602294922
3.429,-2.647658109664917,-6.284748554229736,0.5443671345710754,-0.6470589637756348,0.7115052938461304,-0.8513934016227722,4.560070037841797,39.330604553222656,-51.84156799316406
3.433,-1.5565310716629028,-6.742973804473877,0.9595218300819397,-0.4164573848247528,0.7105889916419983,-0.9074403047561646,4.443145275115967,39.60830307006836,-52.104644775390625
3.44,-0.8614161610603333,-6.911667823791504,1.1258230209350586,-0.36422839760780334,0.5404630303382874,-0.8825475573539734,4.399298667907715,39.944461822509766,-51.02309036254883
3.45,-0.49172505736351013,-6.952345848083496,1.0097711086273193,-0.31413745880126953,0.22449298202991486,-0.7999280095100403,3.4492838382720947,40.207542419433594,-51.81233215332031
3.46,-0.17347964644432068,-7.014559268951416,1.0612168312072754,-0.27290403842926025,-0.13240504264831543,-0.7110471725463867,3.814674139022827,40.529083251953125,-51.49079132080078
3.47,-0.1746760457754135,-6.897311210632324,1.1964112520217896,-0.29016098380088806,-0.5322163105010986,-0.6215553879737854,3.493130683898926,41.11370849609375,-51.27155685424805
3.489,-0.4055834412574768,-6.561119556427002,1.093519926071167,-0.35063666105270386,-1.001055359840393,-0.4957171380519867,2.87927508354187,41.522945404052734,-50.67231750488281
3.493,-0.8327022790908813,-6.106482982635498,0.7322037220001221,-0.38896840810775757,-1.383457064628601,-0.36361753940582275,2.776965856552124,41.6252555847168,-52.0169563293457
3.5,-1.179661512374878,-6.128018856048584,0.47976091504096985,-0.3975205719470978,-1.5308282375335693,-0.29367345571517944,2.923121929168701,41.47909927368164,-52.908504486083984
3.51,-1.4069796800613403,-6.186642646789551,0.04666003957390785,-0.38179075717926025,-1.5555683374404907,-0.20555615425109863,3.0692780017852783,41.84449005126953,-53.30312728881836
3.52,-1.6019947528839111,-6.463013648986816,-0.5371886491775513,-0.32162055373191833,-1.40437912940979,-0.15317445993423462,3.1715874671936035,42.429115295410156,-52.923118591308594
3.53,-1.8472589254379272,-6.855436325073242,-1.3232309818267822,-0.19456057250499725,-1.0070112943649292,-0.1866193264722824,2.5723471641540527,42.429115295410156,-53.72698211669922
3.549,-1.8472589254379272,-7.459624290466309,-2.4562323093414307,-0.03344487026333809,-0.5441282391548157,-0.28588491678237915,2.87927508354187,42.18064880371094,-53.69774627685547
3.553,-1.657029628753662,-8.195417404174805,-3.566502094268799,0.25335633754730225,0.14523321390151978,-0.4488332271575928,2.3092663288116455,42.73604202270508,-54.38468551635742
3.56,-1.3483555316925049,-8.877371788024902,-3.735196113586426,0.43279802799224854,0.516333818435669,-0.5474879741668701,3.1131248474121094,42.809120178222656,-54.31160354614258
3.57,-0.6412764191627502,-9.964909553527832,-3.4683964252471924,0.6065891981124878,0.8049676418304443,-0.6663012504577637,2.2946505546569824,42.98450469970703,-54.48699188232422
3.58,-0.0729810893535614,-10.992627143859863,-3.073580503463745,0.6366742849349976,0.8808676600456238,-0.7194464802742004,1.5492546558380127,43.29143524169922,-54.80853271484375
3.59,0.33858439326286316,-11.777472496032715,-3.087937355041504,0.5134322047233582,0.7641924023628235,-0.654542088508606,2.2654194831848145,43.496055603027344,-55.08623123168945
3.609,0.13040883839130402,-12.058629989624023,-3.891925811767578,0.2768746614456177,0.3422372341156006,-0.5021312236785889,1.783104419708252,43.89067459106445,-54.969303131103516
3.612,-0.20099709928035736,-12.143574714660645,-4.5583271980285645,0.25961771607398987,0.17363843321800232,-0.5022839307785034,1.4761765003204346,44.84069061279297,-55.817012786865234
3.62,0.037088751792907715,-12.271590232849121,-4.285545349121094,0.2431243658065796,-0.1319468915462494,-0.5047274231910706,1.3007892370224,44.182987213134766,-56.66471862792969
3.63,0.02512463741004467,-12.29432201385498,-3.4337005615234375,0.1371392458677292,-0.6638578176498413,-0.4790710508823395,1.2277112007141113,44.31452941894531,-55.67085647583008
3.64,-0.041874393820762634,-11.734402656555176,-2.6560330390930176,-0.03497203439474106,-0.9202684760093689,-0.4547891914844513,0.9938614368438721,44.82607650756836,-56.10932540893555
3.65,0.3361915946006775,-11.35274600982666,-2.2671992778778076,-0.22800545394420624,-1.097266674041748,-0.42928555607795715,0.5115463137626648,44.95761489868164,-55.51008605957031
3.671,0.41515469551086426,-11.01894760131836,-2.348555326461792,-0.4202752709388733,-1.3112223148345947,-0.3972151279449463,-0.8038585186004639,45.746856689453125,-56.13855743408203
3.675,-0.16869398951530457,-10.516454696655273,-2.4335005283355713,-0.6157521605491638,-1.3759739398956299,-0.33567044138908386,-0.6869336366653442,45.922245025634766,-56.503944396972656
3.68,-0.25363919138908386,-10.345367431640625,-2.348555326461792,-0.6696610450744629,-1.3231340646743774,-0.29993483424186707,-1.0815550088882446,45.805320739746094,-56.708560943603516
3.69,-0.6532405614852905,-9.950552940368652,-2.1822540760040283,-0.7055493593215942,-1.224173903465271,-0.23105978965759277,-1.0523239374160767,45.62993240356445,-56.78164291381836
3.7,-1.0755738019943237,-9.226723670959473,-1.8305093050003052,-0.7192938327789307,-1.0965031385421753,-0.12171489745378494,-1.6661795377731323,45.86378479003906,-56.88395690917969
3.71,-1.4560325145721436,-8.892925262451172,-1.8005989789962769,-0.7226535677909851,-1.0239628553390503,-0.003054326167330146,-1.783104419708252,47.03303146362305,-56.56240463256836
3.729,-1.8245272636413574,-8.562715530395508,-1.9226329326629639,-0.6174320578575134,-1.0772608518600464,0.14935654401779175,-1.4615609645843506,46.477638244628906,-57.16164779663086
3.732,-2.2911276817321777,-8.15234661102295,-2.0099709033966064,-0.5905539989471436,-1.1036808490753174,0.15241087973117828,-1.783104419708252,46.375328063964844,-57.20549774169922
3.74,-2.550748825073242,-7.871189594268799,-1.8867405652999878,-0.4946480989456177,-1.1844676733016968,0.1774563491344452,-2.1777257919311523,47.04764938354492,-56.76702880859375
3.75,-3.542573928833008,-7.737191677093506,-1.9298113584518433,-0.46853363513946533,-1.1519391536712646,0.21853703260421753,-2.002338409423828,46.76995086669922,-56.56240463256836
3.76,-5.838486671447754,-9.23031234741211,-3.812962770462036,-0.5555819272994995,-0.7486153841018677,0.26083946228027344,-2.031569719314575,46.98918533325195,-57.0154914855957
3.77,-8.664410591125488,-12.474980354309082,-8.358129501342773,-0.7681630253791809,0.18188512325286865,0.20754145085811615,-1.446945309638977,47.01841354370117,-56.12394332885742
3.79,-8.622536659240723,-15.39542007446289,-10.034300804138184,-0.5114468932151794,0.3124575614929199,-0.055894169956445694,-1.8415666818618774,47.5591926574707,-56.2993278503418
3.793,-5.538187503814697,-19.495521545410156,-3.834498167037964,0.13775010406970978,-0.611934244632721,-0.4430300295352936,-2.3092663288116455,47.924583435058594,-55.977787017822266
3.8,-3.4707889556884766,-20.2492618560791,-0.9846464395523071,0.19349156320095062,-1.0086911916732788,-0.44394633173942566,-2.733119010925293,47.57380676269531,-56.03624725341797
3.81,-1.7371891736984253,-18.095720291137695,0.46420758962631226,0.18112152814865112,-0.9584475755691528,-0.2174680233001709,-2.850043773651123,47.57380676269531,-56.88395690917969
3.82,0.5778666734695435,-12.369696617126465,-1.6331013441085815,0.0708603635430336,-0.21395555138587952,0.03695734962821007,-3.2154340744018555,47.63227081298828,-56.03624725341797
3.83,1.9800606966018677,-7.953742504119873,-0.5479563474655151,0.04902193322777748,0.3084869384765625,0.2307543307542801,-3.2738964557647705,47.82227325439453,-56.47471618652344
3.849,2.200200319290161,-5.020142078399658,1.7527425289154053,0.05665775015950203,-0.12889257073402405,0.6116288304328918,-3.873136520385742,47.74919891357422,-57.07395553588867
3.852,0.40797626972198486,-2.4155545234680176,2.3054845333099365,0.04749477282166481,-0.4138611853122711,0.6294966340065002,-3.507746458053589,47.44226837158203,-57.22011184692383
3.86,-0.4055834412574768,-1.9956140518188477,1.7443677186965942,0.07406741380691528,-0.8547531962394714,0.5881105065345764,-3.507746458053589,47.909969329833984,-57.0154914855957
3.87,-1.1916255950927734,-2.3676979541778564,0.787238597869873,0.21380282938480377,-1.2489140033721924,0.5380195379257202,-3.3177430629730225,47.32534408569336,-56.53317642211914
3.88,-1.6342978477478027,-3.8775689601898193,0.751346230506897,0.39248090982437134,-1.2418889999389648,0.6299547553062439,-3.0400466918945312,47.661502838134766,-57.366268157958984
3.89,-2.5088744163513184,-6.1088762283325195,1.7240287065505981,0.5149593949317932,-0.8197811841964722,0.8831583857536316,-3.1277403831481934,46.974571228027344,-57.38088607788086
3.909,-4.302295207977295,-10.009177207946777,3.311666488647461,0.34376442432403564,0.2922990024089813,1.214552879333496,-2.2946505546569824,46.69687271118164,-57.45396041870117
3.913,-4.618147850036621,-10.473384857177734,3.311666488647461,0.31612274050712585,0.40515637397766113,1.2334896326065063,-2.1338791847229004,46.22917175292969,-57.366268157958984
3.92,-5.402993679046631,-10.591829299926758,2.957528829574585,0.260992169380188,0.6924157738685608,1.2299772500991821,-1.4177141189575195,45.995323181152344,-57.35165023803711
3.93,-5.697310447692871,-9.940980911254883,2.031506299972534,0.30802878737449646,0.926224410533905,1.0154106616973877,-0.9646301865577698,46.00994110107422,-57.322418212890625
3.94,-5.126622676849365,-9.446863174438477,1.1066803932189941,0.6038402915000916,0.9373726844787598,0.6001750826835632,-0.45308390259742737,45.46916198730469,-56.708560943603516
3.95,-4.680360794067383,-9.554540634155273,0.9427720904350281,0.911410927772522,0.8710938096046448,0.30772337317466736,-0.5115463137626648,44.928382873535156,-56.76702880859375
3.97,-3.6406795978546143,-10.085746765136719,1.2430713176727295,1.2738066911697388,0.6860016584396362,0.014660765416920185,-0.5115463137626648,45.176849365234375,-58.28704833984375
3.973,-2.4263219833374023,-10.698309898376465,1.4452649354934692,1.316261887550354,0.6214026212692261,0.03588833287358284,-0.36539024114608765,44.65068435668945,-58.126277923583984
3.98,-1.8041881322860718,-10.869396209716797,1.5050853490829468,1.348179578781128,0.5416847467422485,0.08704829961061478,-0.4384683072566986,44.16836929321289,-58.3747444152832
3.99,-1.2478569746017456,-10.701899528503418,1.5589239597320557,1.4182764291763306,0.3243694305419922,0.3090977966785431,-0.7015492916107178,44.38760757446289,-58.50628662109375
4.0,-1.3531410694122314,-10.022336959838867,1.714457392692566,1.4582879543304443,0.13057243824005127,0.528245747089386,-0.5992400050163269,44.13914108276367,-59.456298828125
4.01,-2.1308083534240723,-9.30209732055664,1.7252249717712402,1.4705053567886353,-0.02519819140434265,0.6264423131942749,-0.5700087547302246,43.53989791870117,-59.63168716430664
4.03,-2.0817556381225586,-8.455039024353027,1.057627558708191,1.5729780197143555,0.08261951804161072,0.5432119369506836,0.014615609310567379,42.76527404785156,-61.16632843017578
4.034,-1.6139588356018066,-8.333003997802734,0.6137589812278748,1.648725152015686,0.03680463135242462,0.5319108963012695,-0.1900029182434082,42.64834976196289,-60.96170425415039
4.04,-1.306481122970581,-8.33898639678955,0.3206382095813751,1.7511979341506958,-0.03588833287358284,0.517250120639801,-0.014615609310567379,42.38526916503906,-61.13709259033203
4.05,-1.0241280794143677,-8.517251968383789,0.07776673883199692,2.020742177963257,-0.18219056725502014,0.5143485069274902,0.13154049217700958,42.03449249267578,-62.569419860839844
4.06,-0.4773681163787842,-8.25284481048584,-1.3435698747634888,2.2565360069274902,-0.2513710558414459,0.5419901609420776,0.7600116729736328,41.21601867675781,-64.2940673828125
4.07,0.02751745842397213,-8.376075744628906,-1.506281852722168,2.6346616744995117,-0.19822576642036438,0.688292384147644,1.0815550088882446,40.689857482910156,-64.76176452636719
4.089,0.037088751792907715,-8.9910306930542,-0.24765713512897491,2.6206116676330566,0.28817567229270935,0.9095783829689026,2.5723471641540527,39.79830551147461,-66.91026306152344
4.092,0.22731813788414001,-9.90030288696289,1.1401798725128174,2.4393374919891357,0.45631635189056396,0.9245445132255554,3.0254311561584473,39.82753372192383,-66.63256072998047
4.1,0.34217363595962524,-10.13479995727539,1.4488540887832642,2.096336841583252,0.7486153841018677,0.9150761365890503,3.1862027645111084,39.155216217041016,-66.23794555664062
4.11,0.849452018737793,-10.022336959838867,1.4859428405761719,1.5899295806884766,1.0728321075439453,0.8272642493247986,3.726980447769165,38.43905258178711,-67.31949615478516
4.12,1.1425727605819702,-9.896714210510254,1.470389485359192,1.1189523935317993,1.161712884902954,0.6201809048652649,4.574686050415039,38.30751037597656,-67.74334716796875
4.13,1.1784651279449463,-9.6466646194458,1.3208380937576294,0.7449501156806946,0.970054030418396,0.2977968156337738,5.1300787925720215,38.190589904785156,-66.42794799804688
4.149,0.8303093910217285,-9.468399047851562,0.6161518096923828,0.4512766897678375,0.18509215116500854,-0.32971450686454773,5.363928318023682,37.75211715698242,-66.92487335205078
4.153,0.6065804958343506,-9.578468322753906,0.43908295035362244,0.4951062798500061,0.10323622077703476,-0.4225660264492035,5.188541412353516,38.24905014038086,-66.4571762084961
4.16,0.9080761671066284,-9.69810962677002,0.35413771867752075,0.6178901791572571,0.0685696229338646,-0.4807509481906891,5.583162784576416,38.4244384765625,-67.14410400390625
4.17,0.9978070259094238,-9.635896682739258,0.02273181453347206,0.8655960559844971,0.08292495459318161,-0.41951167583465576,5.305466175079346,38.13212585449219,-67.02719116210938
4.18,0.02273181453347206,-9.584450721740723,0.4331009089946747,1.1256718635559082,0.06918048858642578,-0.36713001132011414,5.159310340881348,37.75211715698242,-67.45103454589844
4.19,-1.0971091985702515,-9.328418731689453,0.6185446381568909,1.2376130819320679,-0.19792033731937408,-0.5280929803848267,5.305466175079346,37.854427337646484,-67.74334716796875
4.206,-2.0650060176849365,-8.763712882995605,0.4139583110809326,1.3808609247207642,-0.8845328688621521,-0.8475754857063293,5.422390937805176,37.8251953125,-68.18181610107422
4.21,-2.234896183013916,-8.732605934143066,0.46420758962631226,1.4140002727508545,-1.0317513942718506,-0.8710938096046448,4.750072956085205,37.708274841308594,-69.65798950195312
4.22,-2.8103702068328857,-8.48614501953125,0.349352091550827,1.4676038026809692,-1.1974486112594604,-0.8147415518760681,4.209295749664307,38.29289627075195,-69.83338165283203
4.23,-3.3990042209625244,-8.419146537780762,0.3206382095813751,1.5167783498764038,-1.180649757385254,-0.725860595703125,3.946214437484741,37.69365692138672,-70.81262969970703
4.24,-3.7531421184539795,-8.517251968383789,0.5934200286865234,1.5007431507110596,-1.011745572090149,-0.6317873597145081,3.3469743728637695,37.708274841308594,-71.71879577636719
4.25,-3.8428730964660645,-8.864211082458496,1.1330015659332275,1.31748366355896,-0.6562219858169556,-0.4876231551170349,3.0985093116760254,37.73750305175781,-72.40573120117188
4.269,-3.693321704864502,-9.476773262023926,1.9633108377456665,0.8416195511817932,0.058948494493961334,-0.13026700913906097,2.689272165298462,37.37211227416992,-73.151123046875
4.273,-3.69930362701416,-9.408578872680664,2.0506489276885986,0.6792821288108826,0.13530665636062622,-0.09147706627845764,2.850043773651123,37.591346740722656,-73.39958953857422
4.28,-3.69930362701416,-9.33320426940918,2.1092729568481445,0.45494186878204346,0.327271044254303,0.01313360221683979,3.0692780017852783,37.211341857910156,-73.92575073242188
4.29,-3.8452658653259277,-9.176474571228027,2.0446667671203613,0.23915374279022217,0.5584835410118103,0.07880160957574844,2.660040855407715,37.26980209350586,-73.22420501708984
4.3,-3.7734811305999756,-9.156135559082031,1.9381862878799438,0.1411098688840866,0.8135198354721069,0.07925976812839508,3.2592811584472656,37.13826370239258,-73.80882263183594
4.31,-3.4576287269592285,-9.343972206115723,1.9920247793197632,0.18845191597938538,1.0118982791900635,0.06169738993048668,3.3469743728637695,37.065185546875,-73.82344818115234
4.322,-3.407379150390625,-9.943374633789062,2.352144718170166,0.32421672344207764,1.25929856300354,0.08231408894062042,3.66851806640625,36.61210250854492,-73.42881774902344
4.33,-3.3619158267974854,-10.291529655456543,2.5674986839294434,0.41493022441864014,1.3932307958602905,0.09575312584638596,3.770827054977417,36.4074821472168,-73.04882049560547
4.34,-3.156132936477661,-10.724631309509277,2.9288148880004883,0.5221370458602905,1.4859296083450317,0.10583239793777466,4.296989440917969,36.524410247802734,-72.68342590332031
4.35,-2.833101749420166,-10.98185920715332,3.231506824493408,0.5833762884140015,1.4230105876922607,0.11743884533643723,4.750072956085205,36.39286804199219,-72.96112060546875
4.36,-2.342573404312134,-11.140981674194336,3.3296124935150146,0.5777257680892944,1.2472341060638428,0.17150041460990906,5.612394332885742,36.655948638916016,-72.97573852539062
4.37,-1.628315806388855,-10.969895362854004,3.016152858734131,0.5459607839584351,0.9773843884468079,0.279928982257843,5.0862321853637695,36.12978744506836,-72.78573608398438
4.389,-0.5575276613235474,-10.561918258666992,2.5734806060791016,0.48319438099861145,0.5578727126121521,0.6243042945861816,6.138556003570557,35.22361755371094,-72.65419006347656
4.392,-0.35413771867752075,-10.622936248779297,2.586641311645508,0.4648684561252594,0.5293146967887878,0.6667593717575073,6.270096302032471,35.83747482299805,-72.97573852539062
4.4,-0.09930214285850525,-10.729416847229004,2.633301258087158,0.389426589012146,0.4560109078884125,0.7728971838951111,6.708564758300781,35.41362380981445,-73.06343078613281
4.41,0.14715859293937683,-11.059626579284668,2.6703901290893555,0.2177734524011612,0.3672827482223511,0.8851436972618103,6.679333686828613,34.726688385009766,-73.73574829101562
4.42,0.23688943684101105,-11.693723678588867,2.3258235454559326,0.11026117950677872,0.34116825461387634,0.9185885787010193,6.737796306610107,34.37591552734375,-73.31189727783203
4.438,0.3397807776927948,-11.96889877319336,1.5206387042999268,0.10583239793777466,0.30833423137664795,0.893390417098999,6.942414283752441,34.31745147705078,-73.47266387939453
4.442,0.5335994362831116,-12.08495044708252,0.7597211599349976,0.28955012559890747,0.22418753802776337,0.7855726480484009,7.220110893249512,34.43437576293945,-73.63343811035156
4.45,0.8315058350563049,-12.077771186828613,0.867398202419281,0.4063781201839447,0.14966197311878204,0.688292384147644,7.263957500457764,33.5282096862793,-73.88190460205078
4.46,1.3483555316925049,-12.367303848266602,1.6175479888916016,0.4401284158229828,0.051312681287527084,0.5493205189704895,6.971645355224609,33.805904388427734,-74.5103759765625
4.47,2.242074728012085,-13.663016319274902,2.6321046352386475,0.29046642780303955,0.015577062964439392,0.5274821519851685,7.0885701179504395,33.162818908691406,-74.52499389648438
4.48,2.3198413848876953,-15.40379524230957,3.345165967941284,0.09056076407432556,-0.19028452038764954,0.4896084666252136,6.986261367797852,33.33820343017578,-73.7065200805664
4.49,2.5004994869232178,-16.366905212402344,3.407379150390625,-0.14126259088516235,-0.6065891981124878,0.413555771112442,7.395498275756836,33.235897064208984,-74.90499877929688
4.503,1.534995675086975,-15.4420804977417,0.27756741642951965,-0.09239336103200912,-1.1372783184051514,0.27152958512306213,6.664718151092529,33.177433013916016,-74.86115264892578
4.51,0.6364907622337341,-14.597414016723633,-0.48454657196998596,0.1310305893421173,-1.3393220901489258,0.05772676318883896,6.416252136230469,33.10435485839844,-75.47500610351562
4.52,-0.9595218300819397,-12.66879940032959,-1.322034478187561,0.31551188230514526,-1.4750868082046509,-0.3055853545665741,5.80239725112915,33.46974563598633,-75.92809295654297
4.53,-2.1607186794281006,-12.043075561523438,-1.5266207456588745,0.22678370773792267,-1.3854422569274902,-0.594524621963501,4.954691410064697,33.70359420776367,-76.35194396972656
4.54,-3.262613534927368,-12.45583724975586,-0.7477570176124573,-0.3449861407279968,-1.0589349269866943,-0.746630072593689,4.311604976654053,33.83513641357422,-77.02426147460938
4.55,-4.205385684967041,-12.388839721679688,0.26919254660606384,-1.4737123250961304,-0.5587889552116394,-0.6864597797393799,4.384682655334473,34.47822189331055,-77.71119689941406
4.562,-4.9639105796813965,-10.603793144226074,0.16510476171970367,-3.000875473022461,-0.13439035415649414,-0.6009386777877808,2.952353000640869,35.63285446166992,-76.49810028076172
4.57,-4.9399824142456055,-9.369096755981445,0.19621144235134125,-3.28523325920105,-0.09040804952383041,-0.6488915681838989,2.776965856552124,36.465946197509766,-75.79654693603516
4.58,-4.012763500213623,-8.840283393859863,1.765903115272522,-3.316387414932251,0.02535090781748295,-0.7194464802742004,2.3238818645477295,37.89827346801758,-74.56884002685547
4.59,-3.122633457183838,-8.498109817504883,3.438485860824585,-3.194214344024658,0.3228422701358795,-0.7215845584869385,1.8854135274887085,38.760597229003906,-73.51651763916016
4.6,-2.6021945476531982,-8.48614501953125,4.176671981811523,-3.0337095260620117,0.6579018235206604,-0.7174611687660217,2.2654194831848145,39.69599533081055,-72.08419036865234
4.619,-2.262413740158081,-8.70389175415039,4.0486555099487305,-2.8182268142700195,0.8414669036865234,-0.725249707698822,1.8123356103897095,40.36831283569336,-70.33030700683594
4.623,-2.630908489227295,-9.440881729125977,3.3822548389434814,-2.577087640762329,0.7351763248443604,-0.7394523620605469,1.7246419191360474,41.23063278198242,-69.77491760253906
4.63,-3.221935510635376,-9.903892517089844,2.9599215984344482,-2.415361166000366,0.6195700168609619,-0.7728971838951111,1.3738672733306885,41.74217987060547,-69.01490783691406
4.64,-3.647857904434204,-10.358529090881348,2.396411657333374,-2.1566596031188965,0.4651738703250885,-0.864679753780365,1.4177141189575195,42.999122619628906,-67.97720336914062
4.65,-3.5772697925567627,-10.685149192810059,1.9250258207321167,-1.8661932945251465,0.2791654169559479,-0.9335548281669617,0.9646301865577698,43.686058044433594,-67.52411651611328
4.66,-3.5916268825531006,-10.862218856811523,1.1365907192230225,-1.4698944091796875,0.01114829070866108,-0.9812023043632507,0.08769366145133972,44.066062927246094,-66.8371810913086
4.67,-2.7517459392547607,-11.008179664611816,0.38165518641471863,-1.1215486526489258,-0.2724458873271942,-0.9778425097465515,-0.1900029182434082,44.6799201965332,-66.4571762084961
4.682,-2.4562323093414307,-10.675577163696289,0.6999006271362305,-0.8329147696495056,-0.7605272531509399,-0.9101892113685608,-1.0230926275253296,45.46916198730469,-66.0333251953125
4.69,-1.97407865524292,-10.49133014678955,1.1964112520217896,-0.7933611869812012,-1.0254899263381958,-0.8846855759620667,-1.344636082649231,45.805320739746094,-65.59485626220703
4.7,-0.6855436563491821,-10.1336030960083,1.9226329326629639,-0.9335548281669617,-1.4807372093200684,-0.8526151180267334,-2.016954183578491,46.112247467041016,-66.48640441894531
4.71,-0.5611169338226318,-9.533004760742188,2.5423738956451416,-1.181107997894287,-2.0506746768951416,-0.8364272713661194,-2.1484947204589844,46.360713958740234,-66.12101745605469
4.72,-0.46061834692955017,-9.905089378356934,3.1692936420440674,-1.5224288702011108,-2.4610233306884766,-0.8683449029922485,-3.726980447769165,47.1207275390625,-66.66179656982422
4.739,-0.7896314859390259,-9.731609344482422,3.1034910678863525,-1.7540996074676514,-2.3884832859039307,-0.8374962210655212,-3.800058364868164,47.471500396728516,-66.57410430908203
4.743,-0.8949156999588013,-9.80698299407959,3.053241491317749,-1.98500657081604,-2.146885871887207,-0.7848091125488281,-5.1154632568359375,48.43613052368164,-66.194091796875
4.75,-0.9415756464004517,-9.22433090209961,2.724228620529175,-2.0500636100769043,-2.0086777210235596,-0.7518223524093628,-5.1008477210998535,48.78690719604492,-65.3171615600586
4.76,-0.8458627462387085,-8.297112464904785,2.5220348834991455,-1.9732474088668823,-2.0060815811157227,-0.7218900322914124,-6.270096302032471,49.4007568359375,-65.08330535888672
4.77,-0.8949156999588013,-7.743173599243164,2.4813568592071533,-1.7588337659835815,-2.12397837638855,-0.7093672156333923,-7.073955059051514,49.88307571411133,-64.38175964355469
4.78,-1.4404791593551636,-7.21316385269165,2.3258235454559326,-1.5732834339141846,-2.079843521118164,-0.6788239479064941,-7.0301079750061035,50.336158752441406,-64.3379135131836
4.79,-2.197807550430298,-6.7824554443359375,2.2396819591522217,-1.4045318365097046,-1.633453607559204,-0.6185010671615601,-8.111662864685059,50.3215446472168,-64.92253875732422
4.803,-2.65842604637146,-6.866204261779785,2.0745770931243896,-1.2643383741378784,-0.9573785066604614,-0.6345362663269043,-9.0762939453125,50.93539810180664,-63.358665466308594
4.81,-1.7060824632644653,-7.142575740814209,2.23848557472229,-1.1971430778503418,-0.9508117437362671,-0.7061601877212524,-9.149372100830078,51.578487396240234,-63.28559112548828
4.82,-1.867598056793213,-7.401000499725342,1.9142580032348633,-0.9975429177284241,-1.262963891029358,-0.8553640842437744,-9.792458534240723,51.6807975769043,-62.83250427246094
4.83,-2.7589244842529297,-7.484748840332031,1.2598210573196411,-0.8364272713661194,-1.152855396270752,-0.8455901741981506,-10.91786003112793,51.783103942871094,-62.598655700683594
4.84,-3.126222848892212,-7.1641106605529785,0.6400800943374634,-0.7221954464912415,-0.9335548281669617,-0.8003861904144287,-11.23940372467041,51.54925537109375,-62.540191650390625
4.859,-3.379861831665039,-6.667600154876709,0.2871387004852295,-0.6464481353759766,-0.8135198354721069,-0.7796167731285095,-12.028646469116211,51.92926025390625,-62.07249069213867
4.863,-3.836890935897827,-5.824130058288574,-0.13998012244701385,-0.5308418869972229,-0.6695082783699036,-0.7600690722465515,-12.642502784729004,52.55773162841797,-61.7947998046875
4.87,-3.9242289066314697,-5.340780258178711,-0.3684946596622467,-0.4392121136188507,-0.5824600458145142,-0.7333437204360962,-12.437883377075195,52.55773162841797,-62.101722717285156
4.88,-4.098905086517334,-4.724628448486328,-0.6711867451667786,-0.28466320037841797,-0.436157763004303,-0.6722572445869446,-12.642502784729004,53.1569709777832,-62.49634552001953
4.89,-4.097708702087402,-4.5236310958862305,-0.9104689955711365,-0.10262536257505417,-0.27611106634140015,-0.5997169613838196,-13.329436302185059,53.06927490234375,-62.26249313354492
4.9,-3.920639753341675,-4.6157546043396,-1.1234301328659058,0.08888089656829834,-0.182648703455925,-0.5343543291091919,-13.402514457702637,52.8208122253418,-61.531715393066406
4.919,-3.8488550186157227,-4.861019134521484,-1.4368900060653687,0.2638937830924988,-0.09544768929481506,-0.4583016633987427,-13.534053802490234,52.61619567871094,-61.911720275878906
4.923,-3.4193434715270996,-5.769094944000244,-1.6462620496749878,0.4827362596988678,0.19425514340400696,-0.294437050819397,-14.235603332519531,52.83543014526367,-62.26249313354492
4.93,-3.018545627593994,-6.236892223358154,-1.415354609489441,0.5612324476242065,0.39996400475502014,-0.2096794992685318,-14.235603332519531,52.63081359863281,-63.41712951660156
4.94,-2.3234305381774902,-6.902096748352051,-1.1341978311538696,0.6255260109901428,0.6212499737739563,-0.13484850525856018,-14.001753807067871,52.703887939453125,-62.540191650390625
4.95,-1.5170494318008423,-7.551748275756836,-1.101894736289978,0.6476698517799377,0.721737265586853,-0.10430524498224258,-14.089447021484375,52.99620056152344,-62.07249069213867
4.96,-0.7429714202880859,-8.397610664367676,-1.5122638940811157,0.6670648455619812,0.7302893400192261,-0.13041973114013672,-14.484068870544434,52.8208122253418,-62.86173629760742
4.979,-0.4893321990966797,-9.475577354431152,-2.324627161026001,0.6803511381149292,0.7588472962379456,-0.19914206862449646,-14.060215950012207,53.127742767333984,-63.2563591003418
4.983,0.784845769405365,-11.935399055480957,-2.5220348834991455,0.4966334402561188,0.684779942035675,-0.37950003147125244,-13.987138748168945,52.83543014526367,-63.40251541137695
4.99,2.449054002761841,-13.166505813598633,-3.297309398651123,0.22510384023189545,0.36163219809532166,-0.34895676374435425,-14.308682441711426,52.80619812011719,-64.03099060058594
5.0,2.854637384414673,-14.383255958557129,-5.37906551361084,-0.039095375686883926,-0.10277807712554932,-0.16096298396587372,-14.07483196258545,52.8792724609375,-64.01637268066406
5.01,2.6045873165130615,-15.230316162109375,-7.133004188537598,-0.09193521738052368,-0.389426589012146,-0.06215553730726242,-14.337912559509277,53.01081466674805,-63.3148193359375
5.02,3.1968109607696533,-15.896717071533203,-7.42133903503418,-0.009773843921720982,-0.7188356518745422,-0.09315694868564606,-14.893306732177734,52.8208122253418,-64.44022369384766
5.039,3.568894863128662,-15.65982723236084,-5.836094379425049,-0.056810468435287476,-0.874453604221344,-0.1472185254096985,-14.615609169006348,53.01081466674805,-64.04560089111328
5.043,2.644068956375122,-13.657034873962402,-4.8119659423828125,-0.2785545587539673,-0.7964155077934265,-0.07757988572120667,-15.039462089538574,52.923118591308594,-64.01637268066406
5.05,2.00518536567688,-12.368499755859375,-4.12642240524292,-0.3926336169242859,-0.717613935470581,-0.025503622367978096,-14.644840240478516,53.113128662109375,-63.870216369628906
5.06,1.3878371715545654,-10.628917694091797,-2.5531415939331055,-0.53328537940979,-0.6809620261192322,0.042760565876960754,-15.580240249633789,53.05466079711914,-64.38175964355469
5.07,0.9690931439399719,-9.493523597717285,-1.2574282884597778,-0.6925684809684753,-0.7298312187194824,0.13408491015434265,-14.893306732177734,53.30312728881836,-64.61560821533203
5.08,0.22372892498970032,-8.932406425476074,-1.0660024881362915,-0.888350784778595,-0.8104654550552368,0.29825496673583984,-15.551008224487305,53.8585205078125,-63.870216369628906
5.099,-0.2105683833360672,-8.5100736618042,-1.015753149986267,-0.9737191796302795,-0.8274169564247131,0.43539419770240784,-15.18561840057373,53.829288482666016,-63.18327713012695
5.104,-0.27278175950050354,-8.157132148742676,-0.5659025311470032,-0.8549058437347412,-1.0175487995147705,0.6007859706878662,-15.14177131652832,53.68313217163086,-62.86173629760742
5.11,-0.7537391185760498,-8.255237579345703,-0.25004997849464417,-0.7336491346359253,-1.119257926940918,0.6395758986473083,-14.95176887512207,54.38468551635742,-62.934814453125
5.12,-2.2540388107299805,-9.415757179260254,-0.2584248483181,-0.4830417037010193,-1.0798569917678833,0.7211264371871948,-15.667933464050293,53.87313461303711,-62.86173629760742
5.13,-4.725824356079102,-11.641081809997559,-1.9728822708129883,-0.3952298164367676,-0.3627012372016907,0.8206974267959595,-15.112540245056152,53.741600036621094,-62.964046478271484
5.14,-8.956335067749023,-15.089139938354492,-4.999802589416504,-0.4827362596988678,0.041691552847623825,0.9340129494667053,-14.571762084960938,53.80005645751953,-63.34404754638672
5.16,-11.350354194641113,-17.1409854888916,-4.723431587219238,-0.6991352438926697,0.04046982154250145,0.9810495376586914,-14.367143630981445,53.49312973022461,-62.90558624267578
5.163,-12.77049446105957,-16.63968849182129,-3.860819101333618,-0.5621487498283386,-0.6114761233329773,0.8240572214126587,-13.650979042053223,53.843902587890625,-61.8971061706543
5.17,-11.770293235778809,-13.339985847473145,-2.4717857837677,-0.31322115659713745,-0.7933611869812012,0.6695082783699036,-13.636363983154297,53.34697341918945,-62.584041595458984
5.18,-7.034898281097412,-7.6558356285095215,-0.5934200286865234,0.17638733983039856,-0.7600690722465515,0.4208861291408539,-13.504822731018066,53.653900146484375,-62.320960998535156
5.19,-3.452842950820923,-4.2209391593933105,0.31106695532798767,0.5094616413116455,-0.38087448477745056,0.4395175576210022,-13.665594100952148,53.01081466674805,-62.598655700683594
5.2,-2.504088878631592,-3.69930362701416,1.3028918504714966,0.8268061280250549,-0.05925392732024193,0.44944408535957336,-12.788658142089844,53.317745208740234,-63.09558868408203
5.219,-2.1858434677124023,-3.744767427444458,1.8544374704360962,1.0505354404449463,0.2203696370124817,0.4550946056842804,-11.999415397644043,53.113128662109375,-63.884830474853516
5.223,-1.856830358505249,-4.808376789093018,2.4574286937713623,1.1246027946472168,0.7144068479537964,0.5035056471824646,-12.554807662963867,52.25080108642578,-64.46945190429688
5.23,-1.6977075338363647,-5.54895544052124,2.7732813358306885,1.0125091075897217,0.9802859425544739,0.5928446650505066,-12.394037246704102,52.689273834228516,-64.36714172363281
5.24,-1.730010747909546,-7.872386455535889,3.28773832321167,0.7776314616203308,1.3419182300567627,0.8020660877227783,-12.043262481689453,52.323883056640625,-64.73253631591797
5.25,-2.008774518966675,-9.365507125854492,3.393022298812866,0.5381722450256348,1.6113097667694092,1.0538952350616455,-11.224788665771484,52.002342224121094,-64.52791595458984
5.26,-2.6632113456726074,-10.328618049621582,3.194417953491211,0.33536502718925476,1.7484489679336548,1.2483030557632446,-10.4063138961792,51.75387191772461,-64.92253875732422
5.28,-2.985046148300171,-10.789237022399902,2.5591237545013428,0.21181751787662506,1.7398968935012817,1.2947288751602173,-9.163987159729004,51.183860778808594,-64.74714660644531
5.283,-2.717050075531006,-11.0835542678833,1.290927767753601,0.33887749910354614,1.3955215215682983,1.189049243927002,-8.637825012207031,51.06694030761719,-64.04560089111328
5.29,-2.4981067180633545,-11.2366943359375,0.9583254456520081,0.5212207436561584,1.1360565423965454,1.1145235300064087,-8.345513343811035,50.67231750488281,-64.95176696777344
5.3,-2.3437697887420654,-11.540583610534668,0.818345308303833,0.7973318696022034,0.7848091125488281,0.9836457371711731,-7.673194885253906,50.2776985168457,-64.39637756347656
5.31,-1.8113667964935303,-11.947362899780273,0.9726824164390564,1.0384708642959595,0.42730024456977844,0.85368412733078,-7.278573513031006,49.89768981933594,-64.5133056640625
5.32,-1.2550355195999146,-12.129218101501465,1.286142110824585,1.1988229751586914,0.11942415684461594,0.7884743213653564,-6.255480766296387,49.576148986816406,-65.6094741821289
5.34,-0.605384111404419,-12.086146354675293,1.660618782043457,1.249219298362732,-0.1970040500164032,0.8133670687675476,-5.553931713104248,49.225372314453125,-66.88102722167969
5.343,0.09212366491556168,-11.077571868896484,2.0003998279571533,1.1583532094955444,-0.6258314251899719,0.8707883954048157,-5.860859394073486,49.283836364746094,-66.72026062011719
5.35,0.16031910479068756,-10.25802993774414,1.7970097064971924,1.1113165616989136,-0.9514226317405701,0.8758280277252197,-5.1446943283081055,48.713829040527344,-67.75796508789062
5.36,0.27038896083831787,-9.079565048217773,1.4452649354934692,1.130711555480957,-1.3671164512634277,0.8452848196029663,-4.983922958374023,48.14381790161133,-68.91259765625
5.37,0.5599204897880554,-8.194220542907715,1.3663017749786377,1.2498302459716797,-1.7939584255218506,0.7938193678855896,-5.363928318023682,47.924583435058594,-69.96492004394531
5.38,0.38763725757598877,-7.323233604431152,1.286142110824585,1.5053246021270752,-2.3541219234466553,0.6207917928695679,-5.290850639343262,47.500728607177734,-70.37416076660156
5.399,-0.5694918036460876,-7.042076587677002,1.3519446849822998,1.754252314567566,-2.4860689640045166,0.4352414906024933,-5.670856475830078,46.930721282958984,-71.77725982666016
5.404,-1.2011969089508057,-7.590033054351807,1.0097711086273193,1.9810359477996826,-2.1587977409362793,0.11759155988693237,-6.372405529022217,46.53609848022461,-73.13650512695312
5.41,-1.6235301494598389,-7.817351341247559,0.8279166221618652,2.0387628078460693,-2.0007364749908447,0.04963279888033867,-6.401637077331543,46.667640686035156,-74.21806335449219
5.42,-2.746960163116455,-7.342375755310059,-1.0181459188461304,2.202474594116211,-1.410029649734497,-0.08597928285598755,-6.226249694824219,46.00994110107422,-75.32884979248047
5.43,-3.796213150024414,-6.882954120635986,-2.5363919734954834,2.679713249206543,-0.33246341347694397,-0.22113321721553802,-6.357789993286133,45.29377365112305,-76.36656188964844
5.44,-3.638286828994751,-8.061419486999512,-0.7896314859390259,3.0254628658294678,1.2095131874084473,-0.36911532282829285,-6.664718151092529,44.256065368652344,-77.9888916015625
5.459,-1.712064504623413,-10.341778755187988,2.9527430534362793,2.6140449047088623,2.051590919494629,-0.3943135142326355,-5.963168621063232,43.422977447509766,-78.83659362792969
5.463,-0.11964112520217896,-11.490333557128906,4.360918998718262,1.4918856620788574,2.373211622238159,-0.35506540536880493,-5.5977783203125,43.23297119140625,-78.64659118652344
5.47,-0.6735795140266418,-11.015358924865723,3.198007583618164,0.874453604221344,2.3663392066955566,-0.37369680404663086,-5.568547248840332,42.95527648925781,-78.12043762207031
5.48,-0.6999006271362305,-10.351350784301758,1.490728497505188,0.46792274713516235,2.4717133045196533,-0.44364088773727417,-5.013154029846191,42.79450607299805,-77.33119201660156
5.49,-0.40677982568740845,-10.061819076538086,0.7118647694587708,0.45433101058006287,2.5648703575134277,-0.44684794545173645,-5.013154029846191,42.37065124511719,-78.6319808959961
5.5,0.05383851006627083,-9.722038269042969,0.40319061279296875,0.6200282573699951,2.521040916442871,-0.4242459237575531,-3.887752056121826,43.057586669921875,-77.1850357055664
5.519,0.34695929288864136,-9.503094673156738,0.453439861536026,0.9995282292366028,1.908342957496643,-0.39584067463874817,-3.0400466918945312,42.53142547607422,-77.50657653808594
5.522,0.31345975399017334,-8.989834785461426,0.5706881880760193,1.0395399332046509,1.8086192607879639,-0.39675697684288025,-2.893890619277954,42.10757064819336,-77.28733825683594
5.53,0.15314064919948578,-8.72662353515625,0.6364907622337341,1.1493428945541382,1.4822643995285034,-0.40805795788764954,-3.0254311561584473,42.063724517822266,-77.85735321044922
5.54,-0.468993216753006,-8.571090698242188,0.4749752879142761,1.3306171894073486,1.0004445314407349,-0.45356741547584534,-2.3531131744384766,41.873722076416016,-78.12043762207031
5.55,-1.148554801940918,-8.69791030883789,0.15314064919948578,1.4929546117782593,0.7275404930114746,-0.4816672205924988,-1.9731072187423706,41.2014045715332,-78.20812225341797
5.56,-1.6307085752487183,-8.748159408569336,-0.18783655762672424,1.6713273525238037,0.48640143871307373,-0.49724429845809937,-2.2654194831848145,40.762935638427734,-79.1727523803711
5.581,-1.875972867012024,-8.809176445007324,-0.21176479756832123,1.8193093538284302,0.20525072515010834,-0.503047525882721,-2.718503475189209,40.61677932739258,-80.29815673828125
5.585,-1.8747763633728027,-8.681159973144531,0.38644087314605713,1.8455766439437866,-0.07254024595022202,-0.4456261694431305,-2.046185255050659,40.04676818847656,-80.40046691894531
5.59,-1.998006820678711,-8.669196128845215,0.5240281224250793,1.7270687818527222,-0.04718933627009392,-0.361174076795578,-2.3823444843292236,39.79830551147461,-81.74510955810547
5.6,-2.2911276817321777,-9.053244590759277,0.9451649785041809,1.4764612913131714,0.26603180170059204,-0.23747386038303375,-2.630809783935547,39.49137496948242,-81.52587127685547
5.61,-2.4155545234680176,-9.912267684936523,1.2059825658798218,1.1246027946472168,0.6782131195068359,-0.13118331134319305,-2.3531131744384766,39.19906234741211,-81.5112533569336
5.62,-2.4287149906158447,-10.779664993286133,1.0971091985702515,0.7837400436401367,0.8796459436416626,-0.15347988903522491,-2.4700381755828857,39.09675598144531,-81.75971984863281
5.639,-2.372483730316162,-11.174481391906738,1.031306505203247,0.3856086730957031,0.7137960195541382,-0.16554446518421173,-2.3092663288116455,38.92136764526367,-82.03741455078125
5.642,-2.768495798110962,-10.893324851989746,0.836291491985321,0.33948835730552673,0.6386595964431763,-0.13484850525856018,-1.6369482278823853,39.213680267333984,-82.19818115234375
5.65,-2.9587249755859375,-10.415956497192383,0.647258460521698,0.2973386347293854,0.5609269738197327,-0.04612032324075699,-1.2277112007141113,39.05290985107422,-81.847412109375
5.66,-3.102294445037842,-10.25802993774414,0.9667003750801086,0.26145032048225403,0.5361869931221008,0.10094548016786575,-1.9146448373794556,39.06752395629883,-81.83279418945312
5.67,-3.087937355041504,-10.109675407409668,1.4967105388641357,0.17730362713336945,0.5510004162788391,0.21441368758678436,-1.8269511461257935,38.62905502319336,-81.67202758789062
5.68,-2.933600664138794,-9.889535903930664,1.9680966138839722,0.04703662171959877,0.5552765130996704,0.24373522400856018,-1.2715580463409424,38.36597442626953,-81.71586608886719
5.7,-2.4011974334716797,-9.559326171875,2.1056838035583496,-0.13545936346054077,0.5677992701530457,0.2796235680580139,-0.6723180413246155,38.760597229003906,-82.34434509277344
5.704,-1.573280930519104,-9.138189315795898,2.104487419128418,-0.2669481039047241,0.5836817622184753,0.35674530267715454,-0.26308098435401917,38.11751174926758,-81.74510955810547
5.71,-1.3339985609054565,-9.102296829223633,2.021935224533081,-0.31642818450927734,0.5766568183898926,0.3862195312976837,0.14615610241889954,38.4244384765625,-81.33586883544922
5.72,-1.1413763761520386,-9.421738624572754,1.875972867012024,-0.32498031854629517,0.5123632550239563,0.36514467000961304,-0.1900029182434082,38.585208892822266,-81.5112533569336
5.73,-1.0648061037063599,-10.200602531433105,1.7958134412765503,-0.2577851414680481,0.3828597962856293,0.2967277765274048,0.23384974896907806,38.32212829589844,-81.4674072265625
5.74,-0.9762716293334961,-11.162517547607422,1.7527425289154053,-0.1235474944114685,0.1765400469303131,0.2148718386888504,0.39462143182754517,38.029815673828125,-81.05816650390625
5.759,-1.0241280794143677,-11.860024452209473,1.6677974462509155,0.1014036312699318,0.001679879380390048,0.16371189057826996,0.7015492916107178,38.11751174926758,-81.64279174804688
5.762,-1.1748758554458618,-12.037094116210938,1.380658507347107,0.34804046154022217,-0.25014930963516235,0.07330382615327835,0.5553931593894958,38.36597442626953,-81.56971740722656
5.77,-1.1306086778640747,-11.647064208984375,0.8757730722427368,0.498924195766449,-0.37980544567108154,0.027488935738801956,-0.13154049217700958,38.32212829589844,-81.7304916381836
5.78,-1.1102696657180786,-11.046465873718262,-0.22372892498970032,0.7560984492301941,-0.4518875777721405,-0.0003054326225537807,0.6723180413246155,38.4828987121582,-81.8035659790039
5.79,-1.1676974296569824,-10.823932647705078,-1.2011969089508057,1.0616837739944458,-0.3966042399406433,0.009773843921720982,0.5407775044441223,37.971351623535156,-83.13358306884766
5.8,-1.5230315923690796,-10.98185920715332,-1.9178473949432373,1.4060590267181396,-0.13408491015434265,0.030237827450037003,0.11692487448453903,37.56211853027344,-83.14820098876953
5.819,-1.659422516822815,-13.5361967086792,-0.8291130065917969,1.3394746780395508,0.4665483236312866,0.010079275816679,0.46769949793815613,36.80210494995117,-84.53668212890625
5.822,-1.7970097064971924,-14.82951831817627,-0.714257538318634,1.1595749855041504,0.5439754724502563,0.010231993161141872,0.20461852848529816,36.422096252441406,-84.36129760742188
5.83,-1.6498512029647827,-17.3874454498291,0.3433700203895569,0.7374670505523682,0.751669704914093,0.009621127508580685,0.45308390259742737,36.67056655883789,-84.69745635986328
5.84,-0.5575276613235474,-19.62832260131836,2.455035924911499,-0.25213462114334106,0.9053022861480713,0.13958270847797394,0.36539024114608765,36.62671661376953,-83.79129028320312
5.85,0.2787638306617737,-19.351951599121094,1.7994025945663452,-1.7107281684875488,0.7999280095100403,0.4043927788734436,0.8330897688865662,36.93364715576172,-82.92897033691406
5.86,-0.8315058350563049,-17.50469398498535,-1.8412768840789795,-2.349998712539673,0.45173484086990356,0.5677992701530457,1.0815550088882446,37.62057876586914,-83.55744171142578
5.879,-0.6484549045562744,-15.087942123413086,-1.0695916414260864,-3.7809505462646484,-0.19288070499897003,0.746630072593689,1.7538732290267944,39.53522491455078,-81.74510955810547
5.882,-0.037088751792907715,-12.191431045532227,0.8255237936973572,-3.986812114715576,-0.29016098380088806,0.7591527700424194,1.5200233459472656,40.09061813354492,-80.07892608642578
5.89,0.2835494577884674,-10.77129077911377,1.4105688333511353,-4.490317344665527,-0.6640104651451111,0.7499897480010986,1.2569423913955688,41.157554626464844,-79.90353393554688
5.9,0.6329016089439392,-9.370293617248535,1.8699908256530762,-4.913952350616455,-1.3918564319610596,0.6482807397842407,1.1400175094604492,42.18064880371094,-78.98274993896484
5.91,0.7561319470405579,-8.545965194702148,2.444268226623535,-4.97335958480835,-1.8664987087249756,0.5398521423339844,0.950014591217041,43.65682601928711,-77.06810760498047
5.92,0.35413771867752075,-8.086544036865234,2.7672994136810303,-4.875010013580322,-2.0931296348571777,0.3966042399406433,0.1607716977596283,44.91376876831055,-75.59193420410156
5.939,-0.061016976833343506,-7.956134796142578,3.5808589458465576,-4.147774696350098,-1.6797266006469727,-0.057421330362558365,-1.344636082649231,47.32534408569336,-73.64805603027344
5.943,0.08614161610603333,-8.204988479614258,3.73758864402771,-4.025754451751709,-1.5467108488082886,-0.16844607889652252,-1.3592517375946045,47.63227081298828,-73.7942123413086
5.95,0.5347958207130432,-8.95394229888916,4.012763500213623,-3.593109130859375,-1.450194001197815,-0.2970332205295563,-2.016954183578491,48.289974212646484,-72.84419250488281
5.96,1.2263215780258179,-9.940980911254883,4.00199556350708,-3.3324224948883057,-1.5077680349349976,-0.36422839760780334,-2.776965856552124,49.06460189819336,-71.73340606689453
5.97,1.179661512374878,-10.427921295166016,3.513859748840332,-3.1816916465759277,-1.6256651878356934,-0.3410155177116394,-3.0108156204223633,50.584625244140625,-70.30107879638672
5.98,0.9631110429763794,-10.465009689331055,2.922832727432251,-2.9852983951568604,-1.8428276777267456,-0.3197879493236542,-3.726980447769165,51.373870849609375,-68.69336700439453
5.999,0.17587246000766754,-10.521241188049316,2.504088878631592,-2.2954788208007812,-2.3878722190856934,-0.45646902918815613,-5.290850639343262,52.85004425048828,-68.21105194091797
6.004,-0.30628129839897156,-11.59442138671875,2.1918253898620605,-2.087631940841675,-2.498897075653076,-0.5132794976234436,-5.80239725112915,52.79158401489258,-68.40104675292969
6.01,0.3122633397579193,-12.346964836120605,2.306680917739868,-1.7863225936889648,-2.6962063312530518,-0.5949827432632446,-6.328558921813965,52.57234573364258,-68.09412384033203
6.02,1.3160523176193237,-12.42473030090332,2.568694829940796,-1.4248430728912354,-3.1358766555786133,-0.5899431109428406,-6.620871067047119,54.15083312988281,-66.7494888305664
6.03,-0.3840480148792267,-11.699705123901367,1.3674980401992798,-0.9944885969161987,-3.0636417865753174,-0.5677992701530457,-7.936275959014893,54.54545593261719,-66.96871948242188
6.04,-0.6436693072319031,-11.612367630004883,1.499103307723999,-0.5241223573684692,-2.5230259895324707,-0.6537785530090332,-8.900906562805176,55.14469909667969,-67.49488830566406
6.059,-0.3445664644241333,-11.191230773925781,2.313859462738037,0.1518000215291977,-1.739438772201538,-1.1482739448547363,-11.020169258117676,55.33469772338867,-68.40104675292969
6.063,-0.41515469551086426,-10.898110389709473,2.2815563678741455,0.2370157092809677,-1.4407256841659546,-1.3003793954849243,-11.531715393066406,55.743934631347656,-67.68489074707031
6.07,-0.9822536706924438,-10.573882102966309,2.495713949203491,0.23273965716362,-0.8190175890922546,-1.5056301355361938,-12.569424629211426,55.34931564331055,-68.05027770996094
6.08,-0.3074776828289032,-9.80817985534668,2.854637384414673,0.027947084978222847,-0.3315471112728119,-1.8110626935958862,-12.934814453125,55.23238754272461,-67.78719329833984
6.09,0.3206382095813751,-9.251848220825195,2.8522443771362305,-0.23716843128204346,-0.39309176802635193,-1.9480491876602173,-13.797135353088379,55.65624237060547,-66.73487091064453
6.1,0.6675975322723389,-8.622536659240723,2.6739792823791504,-0.4683809280395508,-0.759305477142334,-1.9274324178695679,-15.594855308532715,56.24086380004883,-66.93949127197266
6.112,1.392622709274292,-8.038687705993652,2.5603203773498535,-0.5572617650032043,-1.5164729356765747,-1.8967366218566895,-17.43642234802246,56.708560943603516,-66.96871948242188
6.12,1.6067804098129272,-7.99681282043457,2.779263496398926,-0.5499314665794373,-2.0135645866394043,-1.8924604654312134,-19.00029182434082,57.48318862915039,-67.26103210449219
6.13,2.5232315063476562,-7.7383880615234375,2.737389087677002,-0.47342056035995483,-2.610379934310913,-1.8571830987930298,-20.447237014770508,57.17626190185547,-67.64103698730469
6.14,2.9958138465881348,-8.135597229003906,3.1345977783203125,-0.3341432809829712,-3.0909781455993652,-1.7369952201843262,-21.981876373291016,57.337032318115234,-67.07102966308594
6.15,2.9730820655822754,-8.62612533569336,3.5365920066833496,-0.23258693516254425,-3.3967161178588867,-1.6140587329864502,-23.77959632873535,57.556270599365234,-66.61795043945312
6.16,2.5974087715148926,-9.260223388671875,3.87876558303833,-0.24144448339939117,-3.5419492721557617,-1.4593570232391357,-25.13884925842285,57.541656494140625,-67.0125732421875
6.178,0.6508477926254272,-9.826126098632812,4.408775806427002,-0.5468770861625671,-3.554319381713867,-1.1849257946014404,-27.05349349975586,57.570884704589844,-65.24407958984375
6.181,0.380458801984787,-9.739984512329102,4.358526229858398,-0.6604980230331421,-3.576004981994629,-1.0897835493087769,-27.813507080078125,57.556270599365234,-65.37561798095703
6.19,-0.8003991842269897,-9.073582649230957,4.096512317657471,-0.7982481718063354,-3.595858097076416,-0.9560041427612305,-28.953521728515625,56.98625946044922,-64.23560333251953
6.2,-1.5361920595169067,-8.465806007385254,4.005584716796875,-0.9234755635261536,-3.581044912338257,-0.7935139536857605,-30.28354263305664,57.90704345703125,-64.90792083740234
6.21,-2.27677059173584,-8.111668586730957,3.8009984493255615,-1.008996605873108,-3.497814416885376,-0.6537785530090332,-30.824321746826172,57.103187561035156,-63.18327713012695
6.22,-3.0352954864501953,-7.646264553070068,3.2004001140594482,-1.0086911916732788,-3.4104604721069336,-0.6188065409660339,-32.03741455078125,57.07395553588867,-62.335575103759766
6.235,-3.658625841140747,-6.818347930908203,2.482553482055664,-0.8454374670982361,-3.205209970474243,-0.6785185933113098,-33.440513610839844,57.70242691040039,-61.45863342285156
6.24,-3.9050865173339844,-6.616154670715332,2.2408783435821533,-0.7475463151931763,-3.0921998023986816,-0.7159340381622314,-33.51359558105469,57.497806549072266,-60.96170425415039
6.25,-4.132404327392578,-6.331408500671387,1.8711872100830078,-0.4963279962539673,-2.8492281436920166,-0.8072583675384521,-34.09821701049805,57.26395797729492,-60.435546875
6.26,-4.034298896789551,-6.319444179534912,1.8221343755722046,-0.11514809727668762,-2.5873196125030518,-0.9132435321807861,-34.712074279785156,57.22011184692383,-59.85091781616211
6.27,-3.9038898944854736,-6.6149582862854,1.9824535846710205,0.1725694239139557,-2.4248294830322266,-0.9488264322280884,-35.895938873291016,57.26395797729492,-59.20783233642578
6.28,-3.827319860458374,-6.9930243492126465,2.1296122074127197,0.3825543522834778,-2.236530303955078,-0.9334020614624023,-36.56825256347656,56.85471725463867,-59.33937454223633
6.299,-3.893122434616089,-7.527820110321045,1.621137261390686,0.6253732442855835,-1.751808762550354,-0.7518223524093628,-37.78135299682617,56.12394332885742,-59.660919189453125
6.304,-3.9864423274993896,-7.605586528778076,1.1569297313690186,0.7005097270011902,-1.6201673746109009,-0.6944010853767395,-37.7667350769043,56.24086380004883,-58.98860168457031
6.31,-4.124029636383057,-7.745566368103027,0.6616154909133911,0.8422304391860962,-1.4246904850006104,-0.612850546836853,-38.161354064941406,56.46010208129883,-59.33937454223633
6.32,-4.618147850036621,-8.324629783630371,-0.8291130065917969,1.0616837739944458,-1.158811330795288,-0.517250120639801,-38.804443359375,55.568546295166016,-59.14937210083008
6.33,-5.056034088134766,-9.038887023925781,-2.5627129077911377,1.273043155670166,-0.8442157506942749,-0.4040873646736145,-38.87752151489258,55.32008361816406,-59.96784591674805
6.34,-5.2151570320129395,-10.465009689331055,-4.192224979400635,1.3997976779937744,-0.5357288122177124,-0.2719877362251282,-38.8629035949707,55.46623992919922,-60.1140022277832
6.353,-3.909872055053711,-12.978670120239258,-4.534398555755615,1.0147998332977295,0.1817324161529541,0.03375030308961868,-38.760597229003906,54.72084426879883,-60.85940170288086
6.36,-2.4717857837677,-14.474184036254883,-4.317848205566406,0.7289149165153503,0.48258352279663086,0.022143863141536713,-38.848289489746094,54.9400749206543,-61.210174560546875
6.37,0.7357929348945618,-16.9064884185791,-3.6705896854400635,0.48258352279663086,0.5813909769058228,-0.2454151064157486,-39.43291473388672,54.41391372680664,-61.35633087158203
6.38,4.280759334564209,-18.352949142456055,-3.0388846397399902,0.41294488310813904,0.4404338300228119,-0.6707300543785095,-39.944461822509766,54.50160598754883,-60.87401580810547
6.39,7.814958572387695,-18.720247268676758,-1.6139588356018066,0.40775254368782043,-0.0018325956771150231,-1.0685560703277588,-40.48523712158203,54.09237289428711,-60.24554443359375
6.409,9.286543846130371,-17.34078598022461,-0.623330295085907,0.2483167201280594,-0.43417245149612427,-1.1945469379425049,-40.70447540283203,53.99005889892578,-61.18094253540039
6.413,7.759923458099365,-13.607982635498047,-1.0671988725662231,-0.1765400469303131,-0.8462010622024536,-0.8190175890922546,-41.23063278198242,53.39081954956055,-60.96170425415039
6.42,6.880561351776123,-12.643674850463867,-1.0133603811264038,-0.36392295360565186,-1.2585350275039673,-0.667217493057251,-41.727561950683594,52.923118591308594,-60.23093032836914
6.43,5.223531246185303,-10.40638542175293,0.13280165195465088,-0.6183483004570007,-1.906663179397583,-0.5259549617767334,-42.253726959228516,51.7977180480957,-60.47938919067383
6.44,3.8488550186157227,-8.949155807495117,2.0374884605407715,-0.8917105197906494,-2.481945514678955,-0.4036291837692261,-42.92604446411133,52.294654846191406,-58.88629150390625
6.45,2.68953275680542,-7.8556365966796875,4.065405368804932,-1.1930198669433594,-2.96773624420166,-0.23105978965759277,-42.64834976196289,52.528499603271484,-58.652442932128906
6.468,1.3866406679153442,-7.002594947814941,5.749952793121338,-1.5022703409194946,-3.545767307281494,-0.015882495790719986,-43.10143280029297,52.23618698120117,-56.6793327331543
6.472,-1.5098711252212524,-7.294519424438477,6.033502578735352,-1.8009834289550781,-4.403269290924072,0.312304824590683,-42.867584228515625,52.23618698120117,-55.52470016479492
6.48,-3.8356947898864746,-9.123832702636719,5.402993679046631,-1.8556559085845947,-4.44343376159668,0.4605923891067505,-42.72142791748047,52.513885498046875,-53.843902587890625
6.49,-6.141179084777832,-11.192427635192871,4.291527271270752,-1.8078556060791016,-3.914119005203247,0.7026477456092834,-42.56065368652344,52.16311264038086,-51.22771453857422
6.5,-7.267002105712891,-12.89492130279541,2.9001009464263916,-1.6016886234283447,-3.0437889099121094,0.9517279863357544,-42.882198333740234,52.22157287597656,-50.336158752441406
6.51,-6.880561351776123,-13.076774597167969,1.2681959867477417,-1.2637274265289307,-2.3243422508239746,1.05404794216156,-42.6045036315918,52.16311264038086,-50.526161193847656
6.529,-8.528019905090332,-9.330811500549316,-6.096912384033203,-0.24465152621269226,-2.629316568374634,0.7137960195541382,-41.91756820678711,51.84156799316406,-49.86845779418945
6.533,-9.54496955871582,-8.330612182617188,-8.94676399230957,1.5302174091339111,-3.084563970565796,-0.3341432809829712,-41.99064636230469,52.03157043457031,-48.93306350708008
6.54,-6.826723098754883,-8.292326927185059,-3.1932218074798584,1.75471031665802,-2.110844850540161,-0.4283692538738251,-42.136802673339844,52.17772674560547,-49.80999755859375
6.55,-4.804787635803223,-7.990830898284912,2.2396819591522217,1.3629930019378662,-1.2583823204040527,-0.28038716316223145,-42.3414192199707,51.72464370727539,-50.10231018066406
6.56,-3.3068807125091553,-7.971688270568848,4.859822750091553,0.5716171860694885,-0.8637634515762329,-0.009010262787342072,-42.0052604675293,51.65156173706055,-51.213096618652344
6.57,-2.798405885696411,-8.551947593688965,5.258227348327637,-0.45265114307403564,-0.5299255847930908,0.4966334402561188,-42.16603469848633,51.695411682128906,-49.89768981933594
6.588,-3.322434186935425,-8.827122688293457,3.926621675491333,-1.0337367057800293,-0.4155410826206207,0.874453604221344,-41.74217987060547,51.7977180480957,-50.02922821044922
6.592,-3.1752755641937256,-8.817551612854004,2.5052852630615234,-1.3171781301498413,-0.6122397184371948,1.1117746829986572,-41.3037109375,51.505409240722656,-48.34843444824219
6.6,-2.915654182434082,-8.724230766296387,2.0362918376922607,-1.3103058338165283,-0.9024006724357605,1.171028733253479,-40.48523712158203,51.476173400878906,-47.57380676269531
6.61,-2.6273193359375,-8.665606498718262,1.9082759618759155,-1.1957685947418213,-1.361007809638977,1.1988229751586914,-39.73984146118164,51.75387191772461,-47.00379943847656
6.62,-2.321038007736206,-8.6967134475708,2.1367905139923096,-1.0604619979858398,-1.9372063875198364,1.1627819538116455,-39.08213806152344,51.56386947631836,-46.46302032470703
6.63,-1.4691929817199707,-9.156135559082031,2.5938196182250977,-1.038318157196045,-2.4110851287841797,1.127657175064087,-39.05290985107422,51.6807975769043,-46.360713958740234
6.649,-0.787238597869873,-9.82971477508545,2.891726016998291,-1.0855075120925903,-2.9043588638305664,1.1491901874542236,-38.05904769897461,51.76848602294922,-45.761470794677734
6.653,0.07417750358581543,-11.364710807800293,3.5533413887023926,-1.2266173362731934,-3.5634822845458984,1.2443324327468872,-37.284420013427734,51.505409240722656,-43.56913375854492
6.66,0.5096712112426758,-12.412766456604004,3.781856060028076,-1.3622294664382935,-4.037055492401123,1.2809842824935913,-36.31978988647461,51.7392578125,-43.437591552734375
