time,accel_x,accel_y,accel_z,gyro_x,gyro_y,gyro_z,mag_x,mag_y,mag_z
0.0,34.74465560913086,15.054739952087402,-69.83407592773438,-21.050535202026367,-1.1990811824798584,-4.396630764007568,-10.800000190734863,-24.750001907348633,-23.55000114440918
0.01,37.656005859375,9.155426979064941,-71.8260498046875,-16.387441635131836,2.531393527984619,-6.794793128967285,-12.15000057220459,-24.450000762939453,-23.25
0.02,37.34954833984375,10.15141487121582,-71.28974914550781,-13.323123931884766,-8.260336875915527,4.529861927032471,-12.450000762939453,-24.450000762939453,-24.450000762939453
0.039,35.74064254760742,10.687716484069824,-70.75344848632812,-11.724349021911621,-3.197549819946289,-0.5329249501228333,-12.450000762939453,-24.450000762939453,-24.450000762939453
0.043,32.9442138671875,11.683704376220703,-71.8643569946289,-9.459418296813965,5.595712184906006,3.0643184185028076,-11.40000057220459,-24.150001525878906,-23.25
0.05,32.599449157714844,12.066776275634766,-71.05990600585938,-12.790199279785156,-1.9984685182571411,-7.06125545501709,-11.40000057220459,-24.450000762939453,-23.700000762939453
0.06,32.21637725830078,12.641385078430176,-71.71112823486328,-3.86370587348938,-4.263399600982666,-3.3307809829711914,-11.700000762939453,-21.75,-23.25
0.07,29.76471519470215,12.29662036895752,-71.28974914550781,-5.462480545043945,1.0658499002456665,-4.130168437957764,-12.750000953674316,-24.750001907348633,-22.80000114440918
0.08,29.879636764526367,13.254301071166992,-71.8643569946289,-4.130168437957764,2.131699800491333,-1.4655436277389526,-10.5,-25.500001907348633,-23.100000381469727
0.099,29.113492965698242,13.599065780639648,-71.55789947509766,7.06125545501709,0.5329249501228333,-0.5329249501228333,-10.5,-25.500001907348633,-23.100000381469727
0.104,28.155811309814453,12.066776275634766,-71.67282104492188,-1.5987749099731445,9.326186180114746,2.131699800491333,-11.40000057220459,-24.450000762939453,-24.0
0.11,30.645782470703125,9.730035781860352,-70.86837005615234,0.7993874549865723,10.92496109008789,-10.658498764038086,-11.700000762939453,-24.450000762939453,-23.25
0.12,29.994558334350586,10.074800491333008,-71.28974914550781,7.460949420928955,10.92496109008789,-2.531393527984619,-12.90000057220459,-24.450000762939453,-24.0
0.13,32.676063537597656,8.810662269592285,-70.33206939697266,8.660030364990234,11.857580184936523,-10.258805274963379,-11.700000762939453,-24.150001525878906,-22.5
0.14,34.82126998901367,9.730035781860352,-71.48128509521484,-4.529861927032471,24.781009674072266,-9.059723854064941,-11.40000057220459,-25.200000762939453,-22.5
0.159,34.70634841918945,10.342951774597168,-71.63451385498047,-3.7304747104644775,18.519142150878906,-17.186830520629883,-11.40000057220459,-25.200000762939453,-22.5
0.163,37.656005859375,10.381258964538574,-71.63451385498047,4.130168437957764,9.72588062286377,-5.995405673980713,-12.300000190734863,-23.55000114440918,-24.600000381469727
0.17,37.19631576538086,8.96389102935791,-71.51959228515625,0.39969372749328613,6.128636837005615,-3.597243309020996,-10.950000762939453,-24.900001525878906,-22.5
0.18,38.728607177734375,8.925583839416504,-70.0256118774414,0.0,7.194486618041992,-3.197549819946289,-11.700000762939453,-24.450000762939453,-24.0
0.19,37.27293395996094,8.236053466796875,-70.10222625732422,2.531393527984619,1.8652373552322388,-8.793261528015137,-12.300000190734863,-25.500001907348633,-23.850000381469727
0.2,37.73262023925781,6.588842868804932,-70.90667724609375,7.194486618041992,3.0643184185028076,6.261868000030518,-12.300000190734863,-25.500001907348633,-23.850000381469727
0.218,38.2689208984375,4.8267107009887695,-70.37037658691406,6.661561965942383,2.398162364959717,1.0658499002456665,-10.950000762939453,-23.700000762939453,-23.700000762939453
0.221,39.226600646972656,5.746084213256836,-68.68486022949219,5.995405673980713,3.0643184185028076,5.462480545043945,-10.950000762939453,-23.700000762939453,-23.700000762939453
0.23,38.57537841796875,6.282385349273682,-68.7997817993164,-4.396630764007568,13.856048583984375,-4.130168437957764,-13.65000057220459,-24.150001525878906,-22.5
0.24,38.65199279785156,7.201758861541748,-68.7231674194336,0.39969372749328613,3.0643184185028076,-0.2664624750614166,-11.25,-23.100000381469727,-23.55000114440918
0.25,38.76691436767578,8.925583839416504,-69.02962493896484,0.0,1.1990811824798584,0.2664624750614166,-12.300000190734863,-24.750001907348633,-23.55000114440918
0.26,38.03907775878906,9.53849983215332,-69.9489974975586,2.6646246910095215,-0.39969372749328613,-0.5329249501228333,-12.300000190734863,-24.750001907348633,-23.55000114440918
0.279,36.35355758666992,8.810662269592285,-69.83407592773438,3.197549819946289,-4.130168437957764,-4.529861927032471,-12.450000762939453,-23.25,-22.200000762939453
0.283,34.24666213989258,9.002198219299316,-69.68084716796875,0.7993874549865723,5.595712184906006,-7.594180583953857,-12.450000762939453,-24.450000762939453,-22.950000762939453
0.29,34.9744987487793,9.117119789123535,-69.75746154785156,2.131699800491333,10.125574111938477,1.8652373552322388,-12.750000953674316,-24.750001907348633,-23.55000114440918
0.3,35.395877838134766,8.312667846679688,-71.05990600585938,2.6646246910095215,12.656967163085938,-0.2664624750614166,-11.40000057220459,-25.200000762939453,-22.5
0.31,34.43819808959961,8.925583839416504,-69.22116088867188,1.8652373552322388,15.055130004882812,-6.261868000030518,-12.0,-23.850000381469727,-22.350000381469727
0.32,36.430171966552734,8.197746276855469,-69.3743896484375,3.9969370365142822,13.189892768859863,0.1332312375307083,-12.0,-23.850000381469727,-22.350000381469727
0.338,35.47249221801758,7.5848307609558105,-68.22517395019531,6.661561965942383,5.995405673980713,6.9280242919921875,-11.550000190734863,-25.80000114440918,-24.150001525878906
0.341,39.11167907714844,7.086836814880371,-68.7997817993164,0.7993874549865723,12.523736000061035,-8.127105712890625,-11.550000190734863,-25.80000114440918,-24.150001525878906
0.35,38.80522155761719,6.512228488922119,-70.29376220703125,8.39356803894043,0.7993874549865723,3.7304747104644775,-12.15000057220459,-24.450000762939453,-22.5
0.36,39.533058166503906,7.163451671600342,-70.5619125366211,1.8652373552322388,13.323123931884766,-5.728943347930908,-11.40000057220459,-24.150001525878906,-22.200000762939453
0.37,39.341522216796875,7.738059997558594,-70.0256118774414,5.595712184906006,7.194486618041992,-5.8621745109558105,-11.25,-24.30000114440918,-22.80000114440918
0.38,38.920143127441406,8.35097599029541,-69.75746154785156,-10.258805274963379,11.990811347961426,-8.793261528015137,-11.25,-24.30000114440918,-22.80000114440918
0.4,38.76691436767578,8.274360656738281,-70.25545501708984,-3.197549819946289,12.923430442810059,-7.9938740730285645,-10.65000057220459,-24.900001525878906,-24.450000762939453
0.404,39.18829345703125,9.346963882446289,-68.41670989990234,2.9310872554779053,0.6661561727523804,1.8652373552322388,-12.450000762939453,-25.650001525878906,-21.75
0.41,37.46446990966797,9.385271072387695,-69.3743896484375,4.529861927032471,-4.796324729919434,1.1990811824798584,-12.450000762939453,-25.650001525878906,-21.75
0.42,37.96246337890625,9.883264541625977,-68.7231674194336,3.0643184185028076,6.5283308029174805,-0.1332312375307083,-11.700000762939453,-24.450000762939453,-24.0
0.43,37.809234619140625,8.236053466796875,-69.06793212890625,5.595712184906006,-1.0658499002456665,7.860642910003662,-12.450000762939453,-24.450000762939453,-23.25
0.44,36.69832229614258,7.5848307609558105,-68.30178833007812,-3.9969370365142822,2.131699800491333,4.396630764007568,-12.450000762939453,-24.450000762939453,-23.25
0.455,36.8132438659668,7.393294811248779,-68.60824584960938,5.329249382019043,2.6646246910095215,1.4655436277389526,-11.550000190734863,-23.850000381469727,-22.80000114440918
0.46,37.73262023925781,6.588842868804932,-69.68084716796875,0.1332312375307083,7.327718257904053,-1.3323123455047607,-11.550000190734863,-23.850000381469727,-22.80000114440918
0.47,37.234622955322266,6.971915245056152,-69.56592559814453,-1.9984685182571411,7.460949420928955,-7.327718257904053,-10.950000762939453,-24.150001525878906,-23.25
0.48,37.08139419555664,7.2783732414245605,-69.79576873779297,3.197549819946289,10.125574111938477,-7.194486618041992,-12.90000057220459,-25.650001525878906,-22.950000762939453
0.49,37.502777099609375,6.856993675231934,-70.52360534667969,3.0643184185028076,5.062787055969238,-8.39356803894043,-12.90000057220459,-25.650001525878906,-22.950000762939453
0.509,37.617698669433594,7.8529815673828125,-70.25545501708984,8.793261528015137,-0.5329249501228333,5.329249382019043,-12.90000057220459,-25.650001525878906,-22.950000762939453
0.513,38.07738494873047,7.086836814880371,-69.4126968383789,-0.5329249501228333,11.990811347961426,-10.791729927062988,-12.15000057220459,-26.100000381469727,-22.950000762939453
0.52,37.617698669433594,7.738059997558594,-70.14053344726562,-2.131699800491333,9.859111785888672,-7.327718257904053,-12.15000057220459,-26.100000381469727,-22.950000762939453
0.53,37.387855529785156,6.665457725524902,-70.17884063720703,-7.194486618041992,12.390504837036133,-6.661561965942383,-11.700000762939453,-24.450000762939453,-22.5
0.54,37.57939147949219,7.010222434997559,-70.6002197265625,-3.3307809829711914,12.124042510986328,-6.794793128967285,-10.950000762939453,-24.150001525878906,-24.0
0.55,36.88985824584961,5.861005783081055,-69.83407592773438,-9.459418296813965,14.788667678833008,-13.056661605834961,-10.950000762939453,-24.150001525878906,-24.0
0.56,37.311241149902344,3.9456443786621094,-68.7231674194336,-9.592649459838867,13.58958625793457,-8.526799201965332,-10.800000190734863,-25.500001907348633,-23.850000381469727
0.572,36.928165435791016,5.477933406829834,-67.95702362060547,-4.396630764007568,1.5987749099731445,-6.794793128967285,-13.500000953674316,-25.500001907348633,-22.80000114440918
0.58,37.043087005615234,4.865017890930176,-68.49332427978516,0.9326186776161194,5.462480545043945,2.398162364959717,-13.500000953674316,-25.500001907348633,-22.80000114440918
0.59,36.69832229614258,5.784391403198242,-68.60824584960938,-6.794793128967285,13.323123931884766,-8.926492691040039,-11.25,-23.850000381469727,-22.80000114440918
0.6,36.928165435791016,6.320692539215088,-69.45100402832031,1.7320060729980469,1.4655436277389526,-6.661561965942383,-13.050000190734863,-24.750001907348633,-22.350000381469727
0.61,37.694313049316406,6.358999729156494,-69.52761840820312,2.131699800491333,-4.396630764007568,-5.728943347930908,-13.050000190734863,-24.750001907348633,-22.350000381469727
0.629,38.613685607910156,8.006210327148438,-69.87238311767578,-7.06125545501709,3.7304747104644775,-12.523736000061035,-12.450000762939453,-24.450000762939453,-23.700000762939453
0.633,39.762901306152344,7.469909191131592,-70.37037658691406,-7.06125545501709,3.9969370365142822,-6.261868000030518,-13.65000057220459,-24.900001525878906,-24.0
0.64,38.65199279785156,8.65743350982666,-69.06793212890625,0.1332312375307083,-6.128636837005615,5.595712184906006,-12.0,-24.750001907348633,-22.80000114440918
0.65,38.728607177734375,9.002198219299316,-69.29777526855469,-5.062787055969238,-3.0643184185028076,-0.39969372749328613,-11.25,-25.05000114440918,-23.850000381469727
0.66,38.03907775878906,9.002198219299316,-68.7997817993164,-5.995405673980713,0.9326186776161194,6.5283308029174805,-11.25,-25.05000114440918,-23.850000381469727
0.67,38.920143127441406,7.814674377441406,-69.18285369873047,5.595712184906006,-8.39356803894043,8.926492691040039,-13.65000057220459,-24.900001525878906,-22.950000762939453
0.688,38.07738494873047,7.623138427734375,-69.4126968383789,5.062787055969238,-10.525267601013184,9.459418296813965,-11.40000057220459,-25.650001525878906,-24.450000762939453
0.692,39.226600646972656,7.201758861541748,-68.7231674194336,8.260336875915527,-7.06125545501709,9.326186180114746,-13.65000057220459,-24.900001525878906,-23.25
0.7,38.69029998779297,6.627150535583496,-69.18285369873047,-1.0658499002456665,-3.86370587348938,6.261868000030518,-11.700000762939453,-25.200000762939453,-22.5
0.71,38.34553527832031,7.2783732414245605,-69.71915435791016,7.06125545501709,-12.523736000061035,5.329249382019043,-11.550000190734863,-24.30000114440918,-22.350000381469727
0.72,38.49876403808594,7.240066051483154,-69.56592559814453,-1.0658499002456665,-1.0658499002456665,-3.86370587348938,-11.550000190734863,-24.30000114440918,-22.350000381469727
0.73,37.19631576538086,7.8529815673828125,-70.52360534667969,-0.9326186776161194,0.9326186776161194,-5.462480545043945,-12.300000190734863,-24.30000114440918,-23.100000381469727
0.749,37.234622955322266,8.465897560119629,-70.67683410644531,1.5987749099731445,-1.8652373552322388,-0.6661561727523804,-11.550000190734863,-25.500001907348633,-23.850000381469727
0.753,36.39186477661133,7.469909191131592,-71.40467071533203,-3.597243309020996,7.460949420928955,-9.192955017089844,-12.750000953674316,-25.500001907348633,-23.850000381469727
0.76,35.204341888427734,6.703764915466309,-71.40467071533203,-13.056661605834961,9.059723854064941,-3.4640121459960938,-12.300000190734863,-24.750001907348633,-22.80000114440918
0.77,34.55311965942383,6.742072105407715,-71.09821319580078,-9.72588062286377,11.058192253112793,-13.989279747009277,-12.300000190734863,-24.750001907348633,-22.80000114440918
0.78,35.817256927490234,8.35097599029541,-70.6385269165039,-4.130168437957764,0.7993874549865723,-3.3307809829711914,-12.300000190734863,-24.750001907348633,-22.80000114440918
0.79,36.46847915649414,8.504204750061035,-69.3743896484375,-4.396630764007568,15.588054656982422,-5.196018218994141,-11.40000057220459,-25.650001525878906,-22.200000762939453
0.809,36.66001510620117,9.423578262329102,-68.49332427978516,-5.196018218994141,15.45482349395752,-12.523736000061035,-11.25,-26.250001907348633,-23.100000381469727
0.813,36.27694320678711,7.967903137207031,-68.87639617919922,-5.062787055969238,3.3307809829711914,-3.0643184185028076,-12.750000953674316,-24.750001907348633,-22.05000114440918
0.82,37.88584899902344,8.389283180236816,-69.02962493896484,2.531393527984619,2.797856092453003,-5.329249382019043,-13.050000190734863,-25.05000114440918,-23.55000114440918
0.83,37.617698669433594,8.159439086914062,-69.3743896484375,-3.3307809829711914,7.72741174697876,-9.72588062286377,-13.050000190734863,-25.05000114440918,-23.55000114440918
0.84,37.46446990966797,7.6997528076171875,-70.6002197265625,-5.595712184906006,9.592649459838867,-7.460949420928955,-12.15000057220459,-24.900001525878906,-23.700000762939453
0.85,37.42616271972656,9.461885452270508,-70.14053344726562,0.39969372749328613,0.0,-1.0658499002456665,-13.050000190734863,-24.750001907348633,-23.100000381469727
0.869,37.96246337890625,7.929595947265625,-71.09821319580078,-4.130168437957764,9.859111785888672,-1.8652373552322388,-11.700000762939453,-24.900001525878906,-22.5
0.873,37.617698669433594,8.236053466796875,-70.6002197265625,-3.197549819946289,-1.8652373552322388,3.0643184185028076,-11.700000762939453,-24.450000762939453,-22.950000762939453
0.88,36.27694320678711,7.4316020011901855,-70.48529815673828,2.531393527984619,-0.2664624750614166,-6.395099639892578,-11.25,-23.850000381469727,-23.850000381469727
0.89,37.88584899902344,6.665457725524902,-69.91069030761719,0.6661561727523804,0.2664624750614166,3.197549819946289,-11.25,-23.850000381469727,-23.850000381469727
0.9,38.34553527832031,7.010222434997559,-68.87639617919922,-7.594180583953857,9.72588062286377,3.4640121459960938,-12.0,-25.500001907348633,-23.850000381469727
0.91,38.728607177734375,6.01423454284668,-69.45100402832031,1.5987749099731445,-4.263399600982666,-0.6661561727523804,-12.0,-24.30000114440918,-24.150001525878906
0.93,36.54509353637695,6.358999729156494,-69.56592559814453,-4.130168437957764,9.326186180114746,-1.8652373552322388,-12.300000190734863,-25.05000114440918,-23.55000114440918
0.933,37.11970138549805,6.588842868804932,-70.14053344726562,-4.796324729919434,1.7320060729980469,-6.794793128967285,-11.40000057220459,-24.150001525878906,-22.5
0.94,37.84754180908203,7.354987621307373,-70.17884063720703,-4.130168437957764,4.929555892944336,-3.9969370365142822,-11.700000762939453,-25.650001525878906,-22.5
0.95,37.617698669433594,8.312667846679688,-70.94498443603516,-2.9310872554779053,0.2664624750614166,-2.531393527984619,-11.700000762939453,-25.650001525878906,-22.5
0.96,38.307228088378906,8.734047889709473,-69.22116088867188,-10.92496109008789,13.323123931884766,-8.127105712890625,-11.700000762939453,-24.150001525878906,-21.75
0.97,38.19230651855469,8.580819129943848,-69.3743896484375,-6.5283308029174805,7.860642910003662,-1.9984685182571411,-12.300000190734863,-24.750001907348633,-22.350000381469727
0.989,38.69029998779297,8.619126319885254,-67.95702362060547,3.9969370365142822,-2.398162364959717,5.196018218994141,-12.15000057220459,-24.900001525878906,-23.700000762939453
0.993,37.924156188964844,6.703764915466309,-68.1102523803711,-2.6646246910095215,0.5329249501228333,5.728943347930908,-13.050000190734863,-25.80000114440918,-22.350000381469727
1.0,38.65199279785156,7.048529624938965,-69.9489974975586,-4.396630764007568,3.597243309020996,-7.06125545501709,-12.450000762939453,-26.100000381469727,-22.200000762939453
1.01,38.99675750732422,7.163451671600342,-69.83407592773438,-6.261868000030518,6.261868000030518,-6.261868000030518,-12.450000762939453,-26.100000381469727,-22.200000762939453
1.02,38.613685607910156,6.588842868804932,-69.29777526855469,0.6661561727523804,-4.396630764007568,2.131699800491333,-11.550000190734863,-23.850000381469727,-23.850000381469727
1.03,38.15399932861328,6.780379295349121,-69.3743896484375,-4.529861927032471,5.462480545043945,-6.128636837005615,-12.15000057220459,-25.650001525878906,-21.75
1.049,39.035064697265625,6.780379295349121,-69.22116088867188,-7.460949420928955,5.196018218994141,-9.192955017089844,-12.0,-24.30000114440918,-23.55000114440918
1.053,37.656005859375,7.240066051483154,-69.75746154785156,-2.2649309635162354,-0.39969372749328613,-0.2664624750614166,-13.050000190734863,-24.750001907348633,-22.80000114440918
1.06,38.69029998779297,7.316680431365967,-69.48931121826172,4.130168437957764,-3.7304747104644775,1.7320060729980469,-10.800000190734863,-24.750001907348633,-23.850000381469727
1.07,38.920143127441406,8.772355079650879,-69.9489974975586,-3.0643184185028076,7.72741174697876,-7.194486618041992,-10.800000190734863,-24.750001907348633,-23.850000381469727
1.08,37.57939147949219,8.159439086914062,-69.64253997802734,2.531393527984619,1.8652373552322388,-3.86370587348938,-12.0,-24.750001907348633,-22.80000114440918
1.09,38.34553527832031,8.121131896972656,-70.21714782714844,0.7993874549865723,-2.531393527984619,-3.197549819946289,-11.40000057220459,-24.450000762939453,-23.700000762939453
1.109,38.15399932861328,7.393294811248779,-68.37840270996094,1.4655436277389526,0.6661561727523804,-7.06125545501709,-12.450000762939453,-24.900001525878906,-24.0
1.113,37.809234619140625,6.89530086517334,-69.18285369873047,-5.595712184906006,5.329249382019043,-8.260336875915527,-12.750000953674316,-25.80000114440918,-23.850000381469727
1.12,36.58340072631836,5.51624059677124,-69.64253997802734,-1.5987749099731445,0.39969372749328613,-0.2664624750614166,-12.750000953674316,-25.80000114440918,-23.850000381469727
1.13,37.08139419555664,7.738059997558594,-70.21714782714844,0.39969372749328613,-0.2664624750614166,-4.263399600982666,-12.750000953674316,-25.80000114440918,-23.850000381469727
1.14,37.502777099609375,6.665457725524902,-70.6385269165039,-9.059723854064941,3.597243309020996,-6.395099639892578,-11.40000057220459,-23.700000762939453,-22.950000762939453
1.15,38.613685607910156,7.086836814880371,-70.44699096679688,-1.1990811824798584,-4.263399600982666,3.0643184185028076,-10.5,-24.750001907348633,-22.05000114440918
1.17,37.617698669433594,6.933608055114746,-69.64253997802734,0.39969372749328613,-6.261868000030518,-2.6646246910095215,-12.90000057220459,-25.650001525878906,-24.0
1.173,39.149986267089844,7.7763671875,-70.0256118774414,-7.860642910003662,6.5283308029174805,-7.460949420928955,-10.950000762939453,-24.150001525878906,-22.950000762939453
1.18,38.000770568847656,7.738059997558594,-70.0256118774414,-3.4640121459960938,-2.9310872554779053,-1.0658499002456665,-10.950000762939453,-24.150001525878906,-22.950000762939453
1.19,37.08139419555664,6.550535678863525,-70.14053344726562,-2.398162364959717,0.7993874549865723,-0.2664624750614166,-12.450000762939453,-25.200000762939453,-23.25
1.2,37.694313049316406,7.163451671600342,-69.52761840820312,-8.39356803894043,3.86370587348938,-8.39356803894043,-11.550000190734863,-25.05000114440918,-24.150001525878906
1.21,37.809234619140625,8.159439086914062,-70.25545501708984,-9.059723854064941,3.86370587348938,-4.396630764007568,-10.050000190734863,-24.750001907348633,-23.100000381469727
1.229,36.66001510620117,6.090848922729492,-69.9873046875,-3.197549819946289,-1.3323123455047607,4.796324729919434,-11.700000762939453,-24.900001525878906,-23.700000762939453
1.232,37.043087005615234,6.89530086517334,-69.56592559814453,-6.794793128967285,7.72741174697876,-12.923430442810059,-10.950000762939453,-24.900001525878906,-23.25
1.24,36.46847915649414,7.010222434997559,-69.60423278808594,-5.728943347930908,7.06125545501709,-6.9280242919921875,-10.950000762939453,-24.900001525878906,-23.25
1.25,37.15800857543945,7.2783732414245605,-70.37037658691406,-9.859111785888672,1.5987749099731445,-11.058192253112793,-10.5,-25.05000114440918,-23.55000114440918
1.26,37.77092742919922,7.508216381072998,-70.67683410644531,-10.392036437988281,8.127105712890625,-9.192955017089844,-12.0,-24.30000114440918,-23.100000381469727
1.27,38.000770568847656,8.389283180236816,-69.64253997802734,-8.793261528015137,5.196018218994141,-3.4640121459960938,-12.0,-26.250001907348633,-23.55000114440918
1.29,37.924156188964844,8.427590370178223,-69.56592559814453,-9.459418296813965,2.6646246910095215,-8.926492691040039,-11.550000190734863,-23.850000381469727,-21.600000381469727
1.293,38.07738494873047,8.925583839416504,-69.45100402832031,1.7320060729980469,-4.130168437957764,4.796324729919434,-11.550000190734863,-23.850000381469727,-21.600000381469727
1.3,38.613685607910156,8.236053466796875,-69.4126968383789,0.6661561727523804,-9.326186180114746,0.6661561727523804,-11.550000190734863,-23.850000381469727,-21.600000381469727
1.31,37.34954833984375,8.35097599029541,-69.87238311767578,-7.460949420928955,8.127105712890625,-5.995405673980713,-12.450000762939453,-25.200000762939453,-23.700000762939453
1.32,37.34954833984375,7.7763671875,-70.25545501708984,-0.2664624750614166,-6.395099639892578,0.5329249501228333,-11.700000762939453,-25.650001525878906,-22.950000762939453
1.33,37.311241149902344,8.044517517089844,-69.56592559814453,-7.860642910003662,7.194486618041992,-16.387441635131836,-13.200000762939453,-24.900001525878906,-22.5
1.349,37.73262023925781,8.772355079650879,-70.52360534667969,-0.1332312375307083,5.462480545043945,1.8652373552322388,-12.15000057220459,-25.650001525878906,-23.700000762939453
1.353,36.928165435791016,7.508216381072998,-70.17884063720703,-0.1332312375307083,0.1332312375307083,-2.131699800491333,-12.0,-26.250001907348633,-23.55000114440918
1.36,37.54108428955078,8.08282470703125,-69.83407592773438,-1.0658499002456665,-4.263399600982666,-2.398162364959717,-12.0,-26.250001907348633,-23.55000114440918
1.37,37.57939147949219,7.8529815673828125,-69.56592559814453,-0.1332312375307083,-3.86370587348938,5.8621745109558105,-12.0,-25.500001907348633,-23.100000381469727
1.38,37.387855529785156,8.08282470703125,-69.06793212890625,-8.926492691040039,6.9280242919921875,-6.5283308029174805,-13.050000190734863,-26.100000381469727,-24.0
1.39,38.115692138671875,7.048529624938965,-69.3360824584961,1.9984685182571411,-7.194486618041992,4.396630764007568,-12.15000057220459,-25.650001525878906,-22.950000762939453
1.41,37.387855529785156,8.121131896972656,-69.22116088867188,3.4640121459960938,-4.663093090057373,-5.462480545043945,-12.15000057220459,-25.650001525878906,-22.950000762939453
1.413,37.311241149902344,6.512228488922119,-70.48529815673828,-4.396630764007568,-0.2664624750614166,-7.06125545501709,-13.050000190734863,-24.30000114440918,-23.100000381469727
1.42,37.387855529785156,7.469909191131592,-70.48529815673828,-3.597243309020996,5.329249382019043,-10.525267601013184,-12.300000190734863,-25.80000114440918,-22.80000114440918
1.43,37.694313049316406,8.389283180236816,-70.40868377685547,0.9326186776161194,0.5329249501228333,1.0658499002456665,-12.750000953674316,-24.750001907348633,-22.80000114440918
1.44,38.613685607910156,8.159439086914062,-69.3743896484375,-6.794793128967285,9.459418296813965,-7.594180583953857,-10.950000762939453,-25.200000762939453,-23.700000762939453
1.45,36.50678634643555,8.96389102935791,-70.44699096679688,-4.663093090057373,6.661561965942383,-4.663093090057373,-10.950000762939453,-25.200000762939453,-23.700000762939453
1.469,38.76691436767578,7.240066051483154,-70.17884063720703,3.197549819946289,0.1332312375307083,7.594180583953857,-10.950000762939453,-25.200000762939453,-23.700000762939453
1.473,38.46045684814453,8.159439086914062,-68.53163146972656,-9.059723854064941,11.324655532836914,-3.4640121459960938,-13.050000190734863,-25.05000114440918,-21.600000381469727
1.48,37.00477981567383,7.8529815673828125,-69.91069030761719,-5.462480545043945,2.398162364959717,0.39969372749328613,-12.90000057220459,-24.150001525878906,-22.950000762939453
1.49,38.537071228027344,7.163451671600342,-69.02962493896484,-4.529861927032471,-4.130168437957764,1.9984685182571411,-10.800000190734863,-25.05000114440918,-23.850000381469727
1.5,37.19631576538086,7.010222434997559,-69.18285369873047,-1.1990811824798584,-6.261868000030518,-1.1990811824798584,-11.550000190734863,-25.05000114440918,-22.05000114440918
1.51,37.57939147949219,6.780379295349121,-69.56592559814453,-7.327718257904053,2.398162364959717,-8.526799201965332,-11.550000190734863,-25.05000114440918,-22.05000114440918
1.53,37.73262023925781,8.695740699768066,-70.48529815673828,-3.4640121459960938,5.196018218994141,-8.926492691040039,-10.800000190734863,-24.30000114440918,-21.30000114440918
1.534,37.57939147949219,8.121131896972656,-70.29376220703125,1.3323123455047607,0.6661561727523804,1.3323123455047607,-13.65000057220459,-24.900001525878906,-22.200000762939453
1.54,37.809234619140625,8.389283180236816,-70.10222625732422,-2.2649309635162354,-5.329249382019043,16.920366287231445,-12.300000190734863,-25.500001907348633,-22.350000381469727
1.55,37.84754180908203,7.7763671875,-69.22116088867188,-5.196018218994141,7.860642910003662,-7.72741174697876,-11.40000057220459,-24.450000762939453,-23.700000762939453
1.56,37.96246337890625,7.738059997558594,-70.06391906738281,0.2664624750614166,1.8652373552322388,0.2664624750614166,-10.800000190734863,-25.05000114440918,-22.350000381469727
1.57,38.34553527832031,7.240066051483154,-70.86837005615234,1.3323123455047607,0.0,-3.7304747104644775,-10.800000190734863,-25.05000114440918,-22.350000381469727
1.589,38.80522155761719,7.2783732414245605,-69.79576873779297,-1.3323123455047607,9.326186180114746,-5.062787055969238,-12.750000953674316,-24.30000114440918,-22.350000381469727
1.593,38.307228088378906,7.967903137207031,-69.64253997802734,-0.39969372749328613,-4.263399600982666,0.6661561727523804,-11.550000190734863,-24.750001907348633,-22.05000114440918
1.6,38.537071228027344,8.312667846679688,-69.29777526855469,-2.9310872554779053,-4.263399600982666,-17.053598403930664,-12.750000953674316,-24.750001907348633,-23.100000381469727
1.61,37.54108428955078,8.734047889709473,-69.60423278808594,-7.06125545501709,5.595712184906006,-5.728943347930908,-12.90000057220459,-24.150001525878906,-22.5
1.62,38.115692138671875,6.933608055114746,-69.52761840820312,-4.396630764007568,8.793261528015137,-1.8652373552322388,-12.90000057220459,-24.150001525878906,-22.5
1.63,37.387855529785156,7.393294811248779,-69.25946807861328,0.5329249501228333,-6.5283308029174805,-3.197549819946289,-12.90000057220459,-24.150001525878906,-22.5
1.649,38.69029998779297,7.661445617675781,-69.22116088867188,3.597243309020996,3.597243309020996,-5.8621745109558105,-11.700000762939453,-24.900001525878906,-23.25
1.653,36.736629486083984,8.695740699768066,-69.52761840820312,-1.7320060729980469,3.7304747104644775,1.3323123455047607,-12.15000057220459,-25.650001525878906,-22.950000762939453
1.66,37.19631576538086,7.661445617675781,-69.60423278808594,-0.2664624750614166,-1.4655436277389526,0.5329249501228333,-12.0,-25.80000114440918,-23.100000381469727
1.67,37.73262023925781,9.346963882446289,-69.10623931884766,0.1332312375307083,-4.929555892944336,4.130168437957764,-11.700000762939453,-26.400001525878906,-24.450000762939453
1.68,38.613685607910156,7.469909191131592,-68.99131774902344,-5.8621745109558105,5.8621745109558105,-9.72588062286377,-11.700000762939453,-26.400001525878906,-24.450000762939453
1.69,38.15399932861328,8.006210327148438,-69.22116088867188,-7.460949420928955,8.127105712890625,-9.859111785888672,-13.200000762939453,-26.100000381469727,-21.75
1.709,37.656005859375,7.086836814880371,-68.1102523803711,-1.8652373552322388,-2.531393527984619,0.6661561727523804,-12.15000057220459,-25.200000762939453,-22.5
1.712,38.38384246826172,6.703764915466309,-69.83407592773438,-6.128636837005615,7.594180583953857,-5.728943347930908,-12.15000057220459,-25.200000762939453,-22.5
1.72,37.387855529785156,6.742072105407715,-69.9489974975586,-3.597243309020996,8.793261528015137,-12.124042510986328,-12.300000190734863,-23.55000114440918,-23.55000114440918
1.73,37.043087005615234,7.048529624938965,-70.29376220703125,-2.9310872554779053,4.663093090057373,-13.056661605834961,-12.450000762939453,-24.150001525878906,-22.5
1.74,38.19230651855469,7.086836814880371,-70.29376220703125,2.398162364959717,0.9326186776161194,-7.194486618041992,-12.450000762939453,-24.150001525878906,-22.5
1.75,37.42616271972656,6.3973069190979,-70.86837005615234,-4.130168437957764,12.656967163085938,-11.324655532836914,-12.15000057220459,-26.850000381469727,-22.5
1.769,38.2689208984375,7.240066051483154,-70.98329162597656,-5.728943347930908,8.926492691040039,-9.326186180114746,-13.050000190734863,-25.500001907348633,-23.100000381469727
1.773,37.924156188964844,6.665457725524902,-70.0256118774414,3.86370587348938,-1.5987749099731445,-7.594180583953857,-10.800000190734863,-25.500001907348633,-23.100000381469727
1.78,38.46045684814453,6.320692539215088,-68.83808898925781,6.395099639892578,-0.6661561727523804,-1.3323123455047607,-10.65000057220459,-24.900001525878906,-22.5
1.79,38.07738494873047,6.550535678863525,-69.83407592773438,-2.131699800491333,6.794793128967285,-3.7304747104644775,-10.65000057220459,-24.900001525878906,-22.5
1.8,37.96246337890625,6.435614109039307,-68.761474609375,6.5283308029174805,-1.1990811824798584,-4.929555892944336,-10.65000057220459,-24.900001525878906,-22.5
1.81,38.537071228027344,5.822698593139648,-67.95702362060547,4.130168437957764,-0.5329249501228333,-5.062787055969238,-10.950000762939453,-25.200000762939453,-22.950000762939453
1.829,38.613685607910156,6.320692539215088,-68.49332427978516,6.395099639892578,5.462480545043945,-3.3307809829711914,-10.65000057220459,-26.100000381469727,-23.25
1.832,38.49876403808594,8.427590370178223,-69.48931121826172,4.263399600982666,-2.797856092453003,-6.794793128967285,-10.65000057220459,-26.100000381469727,-23.25
1.84,37.924156188964844,7.240066051483154,-70.21714782714844,4.263399600982666,0.2664624750614166,1.0658499002456665,-11.550000190734863,-24.30000114440918,-23.55000114440918
1.85,37.311241149902344,7.738059997558594,-70.94498443603516,1.3323123455047607,2.2649309635162354,-9.326186180114746,-11.550000190734863,-24.30000114440918,-23.55000114440918
1.86,36.50678634643555,8.08282470703125,-71.13652038574219,3.3307809829711914,-3.4640121459960938,-7.460949420928955,-12.90000057220459,-24.150001525878906,-22.5
1.87,35.93217849731445,7.929595947265625,-71.67282104492188,12.25727367401123,-16.12097930908203,7.72741174697876,-10.950000762939453,-24.450000762939453,-22.950000762939453
1.89,35.510799407958984,8.006210327148438,-73.12849426269531,1.9984685182571411,-5.8621745109558105,-5.329249382019043,-10.950000762939453,-24.450000762939453,-22.200000762939453
1.893,34.74465560913086,9.84495735168457,-74.08617401123047,5.462480545043945,-4.130168437957764,-4.263399600982666,-11.40000057220459,-24.150001525878906,-22.950000762939453
1.9,34.591426849365234,9.768342971801758,-71.7877426147461,12.523736000061035,-11.191424369812012,4.929555892944336,-11.40000057220459,-24.150001525878906,-22.950000762939453
1.91,33.672054290771484,9.883264541625977,-70.06391906738281,11.724349021911621,1.8652373552322388,1.9984685182571411,-11.40000057220459,-24.150001525878906,-22.950000762939453
1.92,34.05512619018555,11.224017143249512,-68.83808898925781,0.9326186776161194,4.396630764007568,-1.4655436277389526,-11.700000762939453,-26.400001525878906,-22.5
1.93,33.71036148071289,10.802638053894043,-68.91470336914062,1.3323123455047607,8.127105712890625,0.9326186776161194,-11.40000057220459,-25.200000762939453,-24.450000762939453
1.943,33.097442626953125,11.60708999633789,-68.1102523803711,14.388973236083984,1.1990811824798584,6.128636837005615,-10.65000057220459,-23.25,-24.0
1.95,34.62973403930664,10.917559623718262,-69.25946807861328,21.716691970825195,2.131699800491333,11.324655532836914,-10.65000057220459,-23.25,-24.0
1.96,34.24666213989258,11.1474027633667,-70.17884063720703,21.45022964477539,-0.7993874549865723,6.794793128967285,-10.65000057220459,-23.25,-24.0
1.97,34.85957717895508,10.84094524383545,-72.20912170410156,32.24195861816406,-1.0658499002456665,6.794793128967285,-10.65000057220459,-23.25,-24.0
1.98,36.35355758666992,12.449849128723145,-72.24742889404297,37.83767318725586,-3.86370587348938,6.128636837005615,-12.450000762939453,-26.100000381469727,-23.25
1.99,36.46847915649414,13.21599292755127,-72.24742889404297,30.776416778564453,-1.7320060729980469,-0.6661561727523804,-12.0,-25.05000114440918,-22.80000114440918
2.003,38.49876403808594,14.135366439819336,-69.52761840820312,33.30780792236328,-1.5987749099731445,-15.854516983032227,-12.90000057220459,-26.100000381469727,-23.25
2.01,38.19230651855469,16.395492553710938,-66.23319244384766,39.569679260253906,-4.396630764007568,-12.25727367401123,-12.90000057220459,-26.100000381469727,-23.25
2.02,37.502777099609375,16.66364288330078,-65.96504211425781,38.37059783935547,-1.1990811824798584,-17.986217498779297,-12.90000057220459,-26.100000381469727,-23.25
2.03,35.24264907836914,17.085023880004883,-67.26749420166016,24.248085021972656,21.84992218017578,-15.721285820007324,-13.050000190734863,-25.05000114440918,-21.30000114440918
2.04,33.672054290771484,15.476119995117188,-71.94097137451172,23.98162269592285,22.915773391723633,-11.591117858886719,-10.950000762939453,-23.700000762939453,-22.5
2.05,34.476505279541016,15.437812805175781,-79.6024169921875,12.390504837036133,29.444103240966797,-21.183767318725586,-13.200000762939453,-26.100000381469727,-22.5
2.062,36.54509353637695,16.855180740356445,-83.89282989501953,16.920366287231445,41.967838287353516,-16.520673751831055,-13.050000190734863,-26.55000114440918,-22.80000114440918
2.07,37.043087005615234,19.80483627319336,-93.77609252929688,19.718223571777344,47.430320739746094,-21.050535202026367,-13.050000190734863,-26.55000114440918,-22.80000114440918
2.08,38.8818359375,22.792800903320312,-91.63088989257812,25.846860885620117,56.62327575683594,-17.186830520629883,-13.050000190734863,-26.55000114440918,-22.80000114440918
2.09,40.069358825683594,24.36339569091797,-83.35652923583984,21.84992218017578,68.21439361572266,-14.788667678833008,-12.750000953674316,-26.55000114440918,-21.600000381469727
2.1,37.96246337890625,22.48634147644043,-76.92091369628906,30.90964698791504,79.67227935791016,12.656967163085938,-12.300000190734863,-26.250001907348633,-19.80000114440918
2.119,34.09343338012695,13.407529830932617,-68.64655303955078,27.045940399169922,73.14395141601562,18.119447708129883,-12.90000057220459,-26.400001525878906,-19.650001525878906
2.123,29.075185775756836,2.5665841102600098,-73.43495178222656,-10.92496109008789,98.05818939208984,-4.263399600982666,-13.200000762939453,-27.150001525878906,-22.200000762939453
2.13,25.5892276763916,-1.6855180263519287,-85.99972534179688,-27.578866958618164,109.11638641357422,-10.791729927062988,-13.200000762939453,-27.150001525878906,-22.200000762939453
2.14,24.89969825744629,1.8387469053268433,-90.48167419433594,-43.96630859375,150.81776428222656,-17.852985382080078,-13.200000762939453,-27.150001525878906,-22.200000762939453
2.15,24.095245361328125,6.588842868804932,-94.81038665771484,-31.575803756713867,168.5375213623047,-8.526799201965332,-14.250000953674316,-26.250001907348633,-20.100000381469727
2.16,26.623523712158203,11.03248119354248,-91.86073303222656,-6.5283308029174805,192.65237426757812,-0.2664624750614166,-15.15000057220459,-25.200000762939453,-20.400001525878906
2.178,26.96828842163086,14.09705924987793,-86.53602600097656,8.526799201965332,195.1837615966797,31.709033966064453,-15.15000057220459,-25.650001525878906,-20.700000762939453
2.183,27.389667510986328,13.10107135772705,-83.24160766601562,-4.663093090057373,210.1056671142578,57.422664642333984,-15.15000057220459,-25.650001525878906,-20.700000762939453
2.19,31.028854370117188,7.316680431365967,-79.98548889160156,-7.594180583953857,223.16232299804688,80.07197570800781,-16.650001525878906,-25.650001525878906,-18.900001525878906
2.2,30.875625610351562,4.711789131164551,-76.07815551757812,-7.460949420928955,238.084228515625,99.52373504638672,-16.5,-27.750001907348633,-18.0
2.21,33.25067138671875,2.4899697303771973,-64.27952575683594,3.597243309020996,234.8866729736328,102.18836212158203,-17.55000114440918,-27.750001907348633,-18.30000114440918
2.22,37.27293395996094,2.145204782485962,-57.84391403198242,11.191424369812012,224.62786865234375,111.24808502197266,-18.30000114440918,-28.200000762939453,-17.55000114440918
2.239,42.44440841674805,-1.5322890281677246,-58.07375717163086,-4.796324729919434,231.02296447753906,97.65850067138672,-19.05000114440918,-28.950000762939453,-15.750000953674316
2.243,47.99895477294922,-3.44765043258667,-63.13031005859375,-12.656967163085938,240.882080078125,98.05818939208984,-19.05000114440918,-28.950000762939453,-15.750000953674316
2.25,53.40027618408203,-4.8267107009887695,-65.65858459472656,-17.32006072998047,237.6845245361328,103.65390014648438,-19.650001525878906,-30.30000114440918,-15.90000057220459
2.26,55.46886444091797,-4.903325080871582,-65.2372055053711,-17.852985382080078,247.41041564941406,100.85604858398438,-19.950000762939453,-29.100000381469727,-15.600000381469727
2.27,56.19670104980469,-4.290409564971924,-62.01940155029297,-35.03981399536133,272.19140625,99.3905029296875,-20.55000114440918,-29.700000762939453,-13.200000762939453
2.28,56.426544189453125,-4.903325080871582,-54.24303436279297,-34.24042892456055,265.52984619140625,95.79325866699219,-20.25,-29.250001907348633,-15.450000762939453
2.298,54.166419982910156,-5.171475887298584,-50.98691940307617,-38.10413360595703,258.3353576660156,89.66461944580078,-20.25,-29.250001907348633,-15.450000762939453
2.303,52.51920700073242,-4.022258758544922,-49.07155990600586,-57.422664642333984,252.20672607421875,67.01531219482422,-20.25,-29.250001907348633,-15.450000762939453
2.31,50.06754684448242,-1.8770540952682495,-50.91030502319336,-56.356815338134766,249.00918579101562,63.018375396728516,-20.55000114440918,-28.950000762939453,-11.700000762939453
2.32,49.60786056518555,3.064578056335449,-53.13212585449219,-50.89433288574219,251.14088439941406,73.54364013671875,-21.30000114440918,-29.250001907348633,-12.450000762939453
2.33,50.029239654541016,10.381258964538574,-56.38823699951172,-59.15467071533203,266.72894287109375,73.41041564941406,-22.5,-30.150001525878906,-11.40000057220459
2.34,51.02522659301758,14.67166805267334,-54.74102783203125,-59.68759536743164,279.5191345214844,86.46707153320312,-21.900001525878906,-31.05000114440918,-10.350000381469727
2.359,51.94459915161133,15.016432762145996,-50.22077560424805,-43.16691970825195,271.7917175292969,99.25727081298828,-21.900001525878906,-31.05000114440918,-10.350000381469727
2.363,52.05952072143555,12.411541938781738,-45.432373046875,-54.22511291503906,272.0581970214844,97.92495727539062,-22.950000762939453,-30.600000381469727,-7.800000190734863
2.37,54.85594940185547,6.627150535583496,-41.639957427978516,-54.4915771484375,260.6003112792969,88.865234375,-21.900001525878906,-29.850000381469727,-8.25
2.38,56.46485137939453,5.631162166595459,-41.48672866821289,-52.493106842041016,239.68299865722656,113.24655151367188,-22.650001525878906,-31.500001907348633,-7.800000190734863
2.39,60.257266998291016,5.592854976654053,-41.946414947509766,-38.63705825805664,229.29095458984375,107.91730499267578,-23.400001525878906,-30.30000114440918,-7.500000476837158
2.4,61.444793701171875,5.1331682205200195,-41.86980056762695,-13.056661605834961,210.90504455566406,106.98468017578125,-23.55000114440918,-32.400001525878906,-5.850000381469727
2.415,63.781532287597656,2.4133553504943848,-42.29117965698242,8.127105712890625,205.7090301513672,113.3797836303711,-23.55000114440918,-32.400001525878906,-5.850000381469727
2.42,65.54366302490234,-0.8044517636299133,-43.44039535522461,15.721285820007324,203.8437957763672,105.91883087158203,-24.750001907348633,-32.400001525878906,-6.150000095367432
2.43,66.23319244384766,-2.719813108444214,-44.512996673583984,13.189892768859863,201.578857421875,97.65850067138672,-24.0,-33.900001525878906,-5.100000381469727
2.44,67.26749420166016,-3.754108190536499,-43.9766960144043,5.329249382019043,211.9709014892578,84.73506927490234,-24.0,-32.85000228881836,-3.3000001907348633
2.45,67.80379486083984,-6.320692539215088,-37.656005859375,6.794793128967285,209.97242736816406,100.9892807006836,-24.900001525878906,-32.25,-4.200000286102295
2.46,67.07595825195312,-10.457873344421387,-32.86759948730469,-17.186830520629883,201.71209716796875,103.25421142578125,-24.900001525878906,-32.25,-4.200000286102295
2.479,65.19889831542969,-13.139378547668457,-30.99054718017578,-43.69984436035156,205.44256591796875,87.13323211669922,-23.700000762939453,-33.45000076293945,-2.700000047683716
2.482,67.26749420166016,-16.395492553710938,-35.74064254760742,-49.02909469604492,219.83154296875,83.93567657470703,-23.700000762939453,-33.45000076293945,-2.700000047683716
2.49,66.23319244384766,-16.203956604003906,-34.70634841918945,-57.422664642333984,211.43797302246094,71.41194152832031,-24.0,-36.30000305175781,-2.5500001907348633
2.5,66.34811401367188,-16.395492553710938,-32.44622039794922,-69.28024291992188,221.29708862304688,80.47166442871094,-25.80000114440918,-34.35000228881836,-0.30000001192092896
2.51,67.99533081054688,-18.77054214477539,-31.41192626953125,-68.88054656982422,229.4241943359375,62.085758209228516,-23.55000114440918,-35.55000305175781,-0.6000000238418579
2.52,71.05990600585938,-20.915746688842773,-31.986534118652344,-85.26799011230469,233.0214385986328,68.74732208251953,-23.55000114440918,-35.55000305175781,-0.6000000238418579
2.532,74.04786682128906,-23.482330322265625,-30.952239990234375,-92.3292465209961,243.14700317382812,48.22970962524414,-24.30000114440918,-36.30000305175781,0.0
2.54,77.53382873535156,-26.163835525512695,-25.780763626098633,-111.24808502197266,238.75038146972656,13.722817420959473,-24.450000762939453,-36.150001525878906,1.9500000476837158
2.55,80.90486145019531,-26.54690933227539,-21.107282638549805,-130.83306884765625,217.03369140625,35.839202880859375,-24.450000762939453,-36.900001525878906,1.2000000476837158
2.56,83.58637237548828,-25.70414924621582,-20.724210739135742,-139.6263427734375,177.73046875,36.372127532958984,-24.900001525878906,-33.75,2.25
2.57,84.62066650390625,-27.006595611572266,-12.334927558898926,-134.96324157714844,156.01377868652344,-5.062787055969238,-24.150001525878906,-35.70000076293945,2.25
2.58,84.42913055419922,-24.746469497680664,-11.645397186279297,-129.90045166015625,137.49464416503906,74.60948944091797,-24.150001525878906,-35.70000076293945,2.25
2.596,85.42511749267578,-36.27694320678711,-9.27034854888916,-86.86676788330078,139.49310302734375,75.40888214111328,-24.900001525878906,-34.5,2.700000047683716
2.6,80.75163269042969,-21.490354537963867,-15.016432762145996,-61.15313720703125,139.6263427734375,90.99693298339844,-24.900001525878906,-34.5,2.700000047683716
2.61,79.94718170166016,-20.11129379272461,-13.599065780639648,-22.915773391723633,150.01837158203125,98.05818939208984,-26.700000762939453,-34.95000076293945,3.750000238418579
2.62,74.35432434082031,-19.843143463134766,-14.326903343200684,0.6661561727523804,166.40582275390625,126.7029037475586,-24.750001907348633,-35.55000305175781,5.400000095367432
2.63,71.1748275756836,-20.264522552490234,-9.691728591918945,22.51607894897461,176.39816284179688,122.17304229736328,-24.750001907348633,-35.55000305175781,5.400000095367432
2.648,67.42072296142578,-19.421764373779297,-2.5665841102600098,44.89892578125,174.0,127.5022964477539,-24.750001907348633,-35.55000305175781,5.400000095367432
2.652,65.65858459472656,-18.655620574951172,1.455674648284912,54.4915771484375,158.14547729492188,95.66002655029297,-24.750001907348633,-35.55000305175781,5.100000381469727
2.66,66.9227294921875,-16.28057098388672,1.9153614044189453,47.297088623046875,153.882080078125,117.64318084716797,-24.150001525878906,-36.900001525878906,4.950000286102295
2.67,70.0256118774414,-14.135366439819336,1.1109095811843872,38.90352249145508,150.6845245361328,111.5145492553711,-22.05000114440918,-38.25,7.350000381469727
2.68,73.24341583251953,-9.27034854888916,-4.443638324737549,-13.856048583984375,172.53445434570312,118.97549438476562,-23.400001525878906,-37.95000076293945,6.750000476837158
2.69,76.537841796875,-5.286397457122803,-5.592854976654053,-25.313934326171875,172.2679901123047,119.7748794555664,-23.400001525878906,-37.95000076293945,6.750000476837158
2.71,81.17301177978516,-1.3407529592514038,-3.332728862762451,-24.64777946472168,164.14088439941406,147.0872802734375,-24.450000762939453,-37.95000076293945,6.300000190734863
2.713,85.42511749267578,3.4093432426452637,-4.405331134796143,-41.568145751953125,176.6646270751953,144.68911743164062,-24.150001525878906,-39.60000228881836,8.550000190734863
2.72,89.56229400634766,5.056553840637207,-5.439626216888428,-30.776416778564453,180.26187133789062,160.2771759033203,-24.150001525878906,-39.60000228881836,8.550000190734863
2.73,89.63890838623047,3.485957622528076,-2.911349296569824,-5.196018218994141,158.14547729492188,154.814697265625,-23.700000762939453,-37.95000076293945,7.800000190734863
2.74,88.83445739746094,4.865017890930176,4.175487995147705,30.643184661865234,137.49464416503906,168.5375213623047,-22.200000762939453,-39.60000228881836,9.300000190734863
2.75,87.03401947021484,1.8387469053268433,3.332728862762451,63.418067932128906,136.16232299804688,130.30015563964844,-22.200000762939453,-39.60000228881836,9.300000190734863
2.768,83.08837890625,1.2258312702178955,-2.451662540435791,90.06431579589844,135.4961700439453,116.84379577636719,-20.55000114440918,-40.20000076293945,10.950000762939453
2.772,79.71733856201172,1.455674648284912,-5.784391403198242,91.66309356689453,143.2235870361328,90.73047637939453,-20.55000114440918,-41.70000076293945,11.700000762939453
2.78,77.41890716552734,2.145204782485962,-4.520252704620361,69.54670715332031,153.21592712402344,72.21133422851562,-20.55000114440918,-41.70000076293945,11.700000762939453
2.79,74.2777099609375,-2.030282974243164,-2.8347349166870117,32.90811538696289,154.814697265625,57.422664642333984,-19.950000762939453,-41.85000228881836,10.800000190734863
2.8,69.4126968383789,-7.393294811248779,-7.738059997558594,1.8652373552322388,158.4119415283203,46.497703552246094,-19.950000762939453,-41.85000228881836,10.800000190734863
2.81,68.68486022949219,-9.500192642211914,-12.143390655517578,-22.116384506225586,174.9326171875,17.453292846679688,-19.950000762939453,-41.85000228881836,10.800000190734863
2.829,68.91470336914062,-10.41956615447998,-14.36521053314209,-9.459418296813965,177.46400451660156,-1.0658499002456665,-19.950000762939453,-41.55000305175781,11.850000381469727
2.833,70.33206939697266,-13.062764167785645,-13.79060173034668,34.24042892456055,150.01837158203125,-21.583459854125977,-19.200000762939453,-41.85000228881836,13.350000381469727
2.84,71.7877426147461,-20.570980072021484,-6.971915245056152,49.82848358154297,139.6263427734375,-21.84992218017578,-19.200000762939453,-41.85000228881836,13.350000381469727
2.85,72.66880798339844,-20.915746688842773,-5.324704647064209,70.07962799072266,117.50994873046875,-16.387441635131836,-18.900001525878906,-41.85000228881836,13.350000381469727
2.86,73.58818054199219,-21.56696891784668,-3.485957622528076,81.67074584960938,99.3905029296875,-12.25727367401123,-18.900001525878906,-41.85000228881836,13.350000381469727
2.87,71.32805633544922,-23.367408752441406,-3.179499864578247,77.67381286621094,74.20980072021484,-4.396630764007568,-19.80000114440918,-43.650001525878906,13.950000762939453
2.888,71.7877426147461,-22.409727096557617,-0.038307227194309235,61.41960144042969,43.56661605834961,-1.7320060729980469,-18.75,-41.70000076293945,15.450000762939453
2.893,69.14454650878906,-20.532672882080078,3.2561142444610596,64.61714935302734,13.989279747009277,23.315465927124023,-18.900001525878906,-42.60000228881836,15.600000381469727
2.9,65.96504211425781,-20.83913230895996,3.754108190536499,65.54976654052734,12.390504837036133,19.052066802978516,-17.55000114440918,-42.45000076293945,14.700000762939453
2.91,65.3138198852539,-20.187908172607422,2.604891538619995,63.684532165527344,15.854516983032227,24.781009674072266,-17.55000114440918,-42.45000076293945,14.700000762939453
2.92,63.55168914794922,-20.685903549194336,4.865017890930176,37.17151641845703,27.84532928466797,-11.857580184936523,-17.55000114440918,-42.45000076293945,14.700000762939453
2.93,61.636329650878906,-21.87342643737793,4.405331134796143,2.2649309635162354,30.643184661865234,13.989279747009277,-18.900001525878906,-41.85000228881836,15.90000057220459
2.95,62.70893096923828,-20.915746688842773,4.9799394607543945,-25.7136287689209,36.771820068359375,23.581928253173828,-17.25,-42.900001525878906,16.80000114440918
2.953,62.74723815917969,-19.230228424072266,6.01423454284668,-78.20673370361328,42.76722717285156,4.796324729919434,-17.55000114440918,-44.400001525878906,15.450000762939453
2.96,66.19488525390625,-15.820884704589844,12.679692268371582,-95.79325866699219,47.696781158447266,13.722817420959473,-18.900001525878906,-41.85000228881836,15.600000381469727
2.97,68.91470336914062,-14.633360862731934,15.016432762145996,-98.59111785888672,29.31087303161621,27.84532928466797,-18.900001525878906,-41.85000228881836,15.600000381469727
2.98,72.66880798339844,-15.361198425292969,17.238252639770508,-96.05972290039062,29.044410705566406,21.583459854125977,-17.700000762939453,-43.80000305175781,15.15000057220459
2.99,76.38461303710938,-15.744270324707031,19.345149993896484,-88.73200225830078,23.98162269592285,28.77794647216797,-17.25,-42.45000076293945,14.700000762939453
3.01,79.71733856201172,-16.127342224121094,19.574993133544922,-62.485450744628906,20.650842666625977,41.701377868652344,-16.200000762939453,-42.30000305175781,15.15000057220459
3.013,83.43314361572266,-16.089035034179688,19.345149993896484,-50.09494400024414,52.626338958740234,35.17304611206055,-16.05000114440918,-43.650001525878906,14.250000953674316
3.02,87.03401947021484,-21.337125778198242,16.28057098388672,-49.02909469604492,71.41194152832031,39.70290756225586,-16.05000114440918,-43.650001525878906,14.250000953674316
3.03,87.9533920288086,-23.52063751220703,16.203956604003906,-62.8851432800293,111.5145492553711,10.658498764038086,-16.650001525878906,-43.5,15.15000057220459
3.04,88.91107177734375,-25.129541397094727,17.468095779418945,-93.92802429199219,139.6263427734375,17.186830520629883,-16.80000114440918,-42.900001525878906,15.000000953674316
3.05,86.45941162109375,-25.014619827270508,18.847156524658203,-129.10107421875,179.72894287109375,5.995405673980713,-15.90000057220459,-44.25,15.15000057220459
3.069,84.00775146484375,-23.367408752441406,19.460071563720703,-132.43185424804688,190.38743591308594,4.796324729919434,-16.80000114440918,-43.95000076293945,15.450000762939453
3.073,81.55608367919922,-22.17988395690918,21.835119247436523,-76.07503509521484,169.8698272705078,7.860642910003662,-15.90000057220459,-44.55000305175781,13.65000057220459
3.08,82.0923843383789,-17.697938919067383,21.56696891784668,-41.568145751953125,155.88055419921875,13.323123931884766,-15.90000057220459,-44.55000305175781,13.65000057220459
3.09,85.38681030273438,-17.161638259887695,19.613300323486328,12.656967163085938,150.95098876953125,19.052066802978516,-15.000000953674316,-43.650001525878906,15.000000953674316
3.1,93.46963500976562,-13.943830490112305,17.966089248657227,79.13935852050781,136.82847595214844,47.9632453918457,-13.950000762939453,-44.25,15.15000057220459
3.11,103.96581268310547,-10.036493301391602,9.53849983215332,165.3399658203125,149.61868286132812,63.28483963012695,-15.300000190734863,-44.85000228881836,14.700000762939453
3.13,111.51233673095703,-7.546523571014404,-11.30063247680664,277.387451171875,231.82235717773438,58.08882141113281,-14.700000762939453,-44.55000305175781,16.350000381469727
3.133,111.78048706054688,-10.955866813659668,-31.29700469970703,390.2342834472656,289.9111633300781,11.724349021911621,-14.550000190734863,-44.400001525878906,17.55000114440918
3.14,111.05265045166016,-18.34916114807129,-22.677879333496094,382.6401062011719,293.9081115722656,13.722817420959473,-14.550000190734863,-44.400001525878906,17.55000114440918
3.15,115.87936401367188,-21.413740158081055,-21.413740158081055,208.24041748046875,179.0627899169922,-53.95865249633789,-13.800000190734863,-45.150001525878906,20.55000114440918
3.16,129.2485809326172,-26.278757095336914,-18.04270362854004,-33.17457962036133,-80.20520782470703,-51.693721771240234,-12.300000190734863,-43.95000076293945,22.05000114440918
3.17,138.2124786376953,-27.083209991455078,8.044517517089844,-170.66921997070312,-273.6569519042969,-36.238895416259766,-13.500000953674316,-43.95000076293945,22.80000114440918
3.189,119.7100830078125,-37.502777099609375,-18.617311477661133,-205.5758056640625,-288.9785461425781,-53.42572784423828,-14.550000190734863,-43.95000076293945,20.100000381469727
3.193,100.40324401855469,-32.10145568847656,-23.21417999267578,-176.39816284179688,-297.6385803222656,-53.69218826293945,-14.550000190734863,-43.95000076293945,20.100000381469727
3.2,81.4028549194336,-18.310853958129883,-6.818686485290527,-165.60643005371094,-305.6324462890625,-48.22970962524414,-14.250000953674316,-45.150001525878906,19.80000114440918
3.21,75.81000518798828,-14.135366439819336,-1.6089035272598267,-141.35833740234375,-340.8055114746094,-57.15620040893555,-13.950000762939453,-45.0,17.100000381469727
3.22,67.76548767089844,-10.649409294128418,-2.3750481605529785,-112.31393432617188,-352.2633972167969,-68.21439361572266,-14.250000953674316,-43.20000076293945,16.05000114440918
3.23,69.18285369873047,-7.623138427734375,2.2218191623687744,-49.56201934814453,-390.5007629394531,-63.684532165527344,-15.000000953674316,-43.20000076293945,15.750000953674316
3.249,70.48529815673828,-12.258312225341797,18.962078094482422,48.8958625793457,-440.0627746582031,-50.89433288574219,-15.90000057220459,-45.75,14.850000381469727
3.253,69.22116088867188,-14.173673629760742,29.95625114440918,148.68606567382812,-429.5375061035156,-34.64012145996094,-15.90000057220459,-45.75,14.850000381469727
3.26,71.36636352539062,-18.77054214477539,24.89969825744629,185.5911102294922,-412.7503662109375,-37.03828430175781,-15.15000057220459,-44.55000305175781,14.850000381469727
3.27,72.32404327392578,-22.17988395690918,20.64759635925293,200.11331176757812,-375.578857421875,-41.434913635253906,-15.15000057220459,-43.80000305175781,14.100000381469727
3.28,79.87056732177734,-24.516624450683594,19.574993133544922,190.9203643798828,-336.5421142578125,-37.304744720458984,-14.40000057220459,-45.0,13.350000381469727
3.29,85.04204559326172,-25.70414924621582,19.230228424072266,156.01377868652344,-301.76873779296875,-41.568145751953125,-13.800000190734863,-45.60000228881836,13.200000762939453
3.31,86.8041763305664,-23.02264404296875,17.544710159301758,125.63705444335938,-261.2664489746094,-39.70290756225586,-15.15000057220459,-44.55000305175781,13.050000190734863
3.314,90.59659576416016,-28.807035446166992,12.143390655517578,100.58958435058594,-211.1715087890625,-56.62327575683594,-15.15000057220459,-44.55000305175781,13.050000190734863
3.32,93.46963500976562,-35.204341888427734,6.550535678863525,85.93415069580078,-194.2511444091797,-72.61102294921875,-15.450000762939453,-45.30000305175781,14.100000381469727
3.33,93.54624938964844,-34.93619155883789,5.746084213256836,67.14854431152344,-163.0750274658203,-105.78560638427734,-15.000000953674316,-43.95000076293945,12.750000953674316
3.34,86.42110443115234,-38.537071228027344,10.113107681274414,55.69065856933594,-182.92648315429688,-110.848388671875,-15.000000953674316,-44.85000228881836,13.200000762939453
3.35,77.87859344482422,-37.387855529785156,15.85919189453125,33.17457962036133,-201.17916870117188,-118.30934143066406,-18.0,-45.900001525878906,13.950000762939453
3.369,69.52761840820312,-31.756690979003906,14.326903343200684,17.186830520629883,-186.79019165039062,-109.11638641357422,-18.0,-45.900001525878906,13.950000762939453
3.373,60.946800231933594,-24.89969825744629,12.90953540802002,28.111791610717773,-165.87289428710938,-73.0107192993164,-18.150001525878906,-44.55000305175781,14.850000381469727
3.38,53.09381866455078,-23.175872802734375,10.266336441040039,30.37672233581543,-155.21438598632812,-65.41653442382812,-17.55000114440918,-43.20000076293945,13.950000762939453
3.39,52.32767105102539,-23.9420166015625,10.572794914245605,15.854516983032227,-136.9617156982422,-73.41041564941406,-19.05000114440918,-44.85000228881836,12.0
3.4,53.668426513671875,-25.052927017211914,8.006210327148438,-44.76569747924805,-115.77794647216797,-82.20367431640625,-18.0,-42.900001525878906,12.450000762939453
3.41,49.79939651489258,-23.82709503173828,3.141192674636841,-77.4073486328125,-101.2557373046875,-97.65850067138672,-19.80000114440918,-42.45000076293945,12.450000762939453
3.429,50.757076263427734,-22.17988395690918,1.1875240802764893,-93.92802429199219,-78.73966217041016,-105.91883087158203,-19.80000114440918,-42.45000076293945,12.450000762939453
3.433,53.361968994140625,-20.379444122314453,2.5282769203186035,-89.93108367919922,-49.69525146484375,-115.2450180053711,-19.80000114440918,-43.650001525878906,13.200000762939453
3.44,55.43055725097656,-15.476119995117188,6.665457725524902,-65.68299865722656,-38.10413360595703,-113.91270446777344,-21.75,-41.70000076293945,12.0
3.45,56.50315856933594,-11.1474027633667,8.465897560119629,-18.78560447692871,-44.36600112915039,-100.45635223388672,-19.650001525878906,-43.05000305175781,13.050000190734863
3.46,55.85193634033203,-9.002198219299316,6.665457725524902,18.519142150878906,-33.57427215576172,-91.13016510009766,-21.0,-43.650001525878906,12.0
3.47,56.19670104980469,-7.086836814880371,7.6997528076171875,76.74119567871094,-33.57427215576172,-77.80704498291016,-21.0,-43.650001525878906,12.0
3.489,54.01319122314453,-8.848969459533691,7.240066051483154,127.36906433105469,-47.163856506347656,-52.093414306640625,-21.0,-43.650001525878906,12.0
3.493,51.369991302490234,-9.998186111450195,6.01423454284668,182.6600341796875,-58.08882141113281,-44.49923324584961,-22.650001525878906,-43.05000305175781,11.850000381469727
3.5,48.152183532714844,-10.687716484069824,3.5625722408294678,179.595703125,-49.42878723144531,-54.62480926513672,-22.650001525878906,-43.05000305175781,11.850000381469727
3.51,48.650177001953125,-11.568782806396484,0.8810662031173706,184.5252685546875,-50.36140823364258,-30.24349021911621,-21.150001525878906,-42.30000305175781,12.300000190734863
3.52,49.18648147583008,-11.338939666748047,-3.9839515686035156,160.2771759033203,-41.568145751953125,-21.716691970825195,-22.950000762939453,-40.35000228881836,12.600000381469727
3.53,53.93657684326172,-11.568782806396484,-8.734047889709473,116.0444107055664,-24.248085021972656,-29.977027893066406,-22.950000762939453,-40.35000228881836,12.600000381469727
3.549,59.031436920166016,-12.947842597961426,-14.288596153259277,51.29402542114258,4.796324729919434,-47.9632453918457,-22.650001525878906,-41.55000305175781,14.850000381469727
3.553,63.55168914794922,-10.72602367401123,-23.597251892089844,-36.5053596496582,39.70290756225586,-53.159263610839844,-22.950000762939453,-42.60000228881836,15.600000381469727
3.56,70.71514129638672,-9.27034854888916,-33.59543991088867,-79.80551147460938,53.558956146240234,-62.75191116333008,-22.950000762939453,-42.60000228881836,15.600000381469727
3.57,76.5761489868164,-7.1251444816589355,-33.90189743041992,-112.84685516357422,84.86830139160156,-101.38896942138672,-22.200000762939453,-41.55000305175781,14.850000381469727
3.58,83.1266860961914,-5.018246650695801,-28.998571395874023,-102.58805084228516,79.53904724121094,-104.05359649658203,-24.450000762939453,-41.55000305175781,16.350000381469727
3.59,88.6046142578125,-1.8387469053268433,-27.313053131103516,-86.86676788330078,54.091880798339844,-76.87442779541016,-24.450000762939453,-41.55000305175781,16.350000381469727
3.609,91.78411865234375,-0.689530074596405,-27.15982437133789,-71.41194152832031,47.9632453918457,-72.47779083251953,-25.200000762939453,-39.900001525878906,14.40000057220459
3.612,96.18944549560547,-4.175487995147705,-34.3615837097168,-7.06125545501709,29.577335357666016,-72.0781021118164,-23.400001525878906,-40.650001525878906,16.350000381469727
3.62,97.79834747314453,-8.427590370178223,-39.11167907714844,36.10566711425781,23.98162269592285,-57.55589294433594,-23.400001525878906,-40.650001525878906,16.350000381469727
3.63,96.72574615478516,-7.163451671600342,-35.05111312866211,73.67687225341797,16.65390396118164,-65.68299865722656,-25.80000114440918,-40.5,16.5
3.64,94.88700103759766,-6.512228488922119,-26.585216522216797,110.44869232177734,-2.531393527984619,-56.889739990234375,-25.80000114440918,-40.5,16.5
3.65,90.48167419433594,-2.75812029838562,-22.754493713378906,139.89280700683594,-41.434913635253906,-46.63093185424805,-25.80000114440918,-40.5,16.5
3.671,88.48969268798828,-1.9919757843017578,-19.881450653076172,160.6768798828125,-56.49004364013672,-47.9632453918457,-25.500001907348633,-40.5,16.5
3.675,85.69326782226562,0.3064578175544739,-21.835119247436523,169.33689880371094,-83.40275573730469,-43.03369140625,-26.400001525878906,-38.400001525878906,16.650001525878906
3.68,81.63269805908203,-2.3750481605529785,-20.877439498901367,159.8774871826172,-89.7978515625,-38.90352249145508,-27.150001525878906,-38.400001525878906,17.400001525878906
3.69,80.21533203125,-3.754108190536499,-21.45204734802246,149.21897888183594,-97.12557220458984,-35.17304611206055,-27.150001525878906,-38.400001525878906,17.400001525878906
3.7,78.03182220458984,-6.244078159332275,-19.613300323486328,120.70750427246094,-92.59571075439453,-21.84992218017578,-27.150001525878906,-38.400001525878906,17.400001525878906
3.71,71.05990600585938,-9.653421401977539,-16.855180740356445,118.30934143066406,-89.7978515625,2.9310872554779053,-27.750001907348633,-38.55000305175781,17.55000114440918
3.729,70.5619125366211,-13.522451400756836,-16.89348793029785,125.37059783935547,-92.06278228759766,8.260336875915527,-27.000001907348633,-37.80000305175781,17.25
3.732,67.84210205078125,-17.468095779418945,-17.8128604888916,142.4241943359375,-74.47626495361328,22.116384506225586,-27.900001525878906,-38.400001525878906,17.400001525878906
3.74,64.81582641601562,-21.911733627319336,-19.19192123413086,136.0290985107422,-59.02143859863281,21.983154296875,-27.900001525878906,-37.95000076293945,17.400001525878906
3.75,63.05369567871094,-24.24847412109375,-17.00840950012207,136.0290985107422,-56.756507873535156,23.581928253173828,-27.900001525878906,-37.95000076293945,17.400001525878906
3.76,61.78955841064453,-28.960264205932617,-19.000385284423828,69.01377868652344,-82.6033706665039,31.042879104614258,-27.000001907348633,-37.80000305175781,17.55000114440918
3.77,74.3160171508789,-43.63193130493164,-39.226600646972656,-51.29402542114258,-92.86217498779297,21.316997528076172,-27.750001907348633,-35.85000228881836,17.25
3.79,107.56669616699219,-71.67282104492188,-79.52580261230469,-25.580398559570312,-36.63859176635742,-26.379785537719727,-27.900001525878906,-37.650001525878906,18.150001525878906
3.793,135.6075897216797,-78.3382797241211,-82.5137710571289,91.79632568359375,14.92189884185791,-42.500762939453125,-27.900001525878906,-36.150001525878906,16.650001525878906
3.8,159.93267822265625,-47.922340393066406,-22.639572143554688,133.76416015625,11.990811347961426,-57.689125061035156,-27.900001525878906,-36.150001525878906,16.650001525878906
3.81,163.3037109375,-28.53888511657715,-5.631162166595459,95.39356231689453,20.650842666625977,-27.045940399169922,-28.80000114440918,-35.55000305175781,16.5
3.82,135.56927490234375,-1.9153614044189453,-1.0342950820922852,4.663093090057373,5.728943347930908,12.124042510986328,-28.200000762939453,-37.95000076293945,15.600000381469727
3.83,88.29815673828125,14.595053672790527,-16.81687355041504,-44.49923324584961,2.398162364959717,42.36753463745117,-27.450000762939453,-35.25,18.150001525878906
3.849,56.34992980957031,16.127342224121094,-0.6512228846549988,-24.914241790771484,20.91730499267578,54.89126968383789,-29.250001907348633,-35.10000228881836,17.55000114440918
3.852,33.48051834106445,11.109095573425293,17.161638259887695,68.61408996582031,9.192955017089844,95.79325866699219,-30.30000114440918,-34.80000305175781,18.0
3.86,17.774553298950195,-8.504204750061035,16.58702850341797,123.10566711425781,11.324655532836914,73.0107192993164,-30.30000114440918,-34.80000305175781,18.0
3.87,17.12333106994629,-13.177685737609863,9.461885452270508,162.6753387451172,26.513015747070312,78.87289428710938,-28.200000762939453,-36.150001525878906,18.150001525878906
3.88,24.554933547973633,-12.181697845458984,3.064578056335449,151.2174530029297,47.830013275146484,84.86830139160156,-28.05000114440918,-34.80000305175781,17.55000114440918
3.89,37.84754180908203,-12.411541938781738,4.941632270812988,93.79479217529297,58.08882141113281,112.58039855957031,-26.700000762939453,-36.45000076293945,18.450000762939453
3.909,54.62610626220703,-18.195932388305664,14.824896812438965,22.382848739624023,57.55589294433594,124.70443725585938,-27.900001525878906,-36.45000076293945,18.900001525878906
3.913,80.75163269042969,-34.20835494995117,24.938005447387695,-67.94792938232422,45.831546783447266,140.02603149414062,-27.900001525878906,-36.45000076293945,18.900001525878906
3.92,84.54405212402344,-34.32327651977539,25.052927017211914,-100.9892807006836,39.03675079345703,122.83920288085938,-27.900001525878906,-36.45000076293945,18.900001525878906
3.93,84.9271240234375,-44.6279182434082,19.651607513427734,-109.38284301757812,45.43185043334961,139.09341430664062,-25.950000762939453,-38.400001525878906,17.400001525878906
3.94,81.28793334960938,-49.03324890136719,10.84094524383545,-116.17764282226562,87.39968872070312,83.66921997070312,-26.55000114440918,-38.25,19.5
3.95,79.94718170166016,-41.98472213745117,3.9456443786621094,-107.65084075927734,126.30321502685547,44.76569747924805,-27.150001525878906,-38.85000228881836,18.900001525878906
3.97,80.10041046142578,-39.68628692626953,5.51624059677124,-103.38744354248047,150.151611328125,-0.2664624750614166,-25.200000762939453,-38.400001525878906,18.450000762939453
3.973,84.46743774414062,-31.258697509765625,7.891288757324219,-80.73812866210938,174.26646423339844,7.460949420928955,-25.200000762939453,-38.400001525878906,18.450000762939453
3.98,87.60862731933594,-21.0689754486084,9.653421401977539,-61.68606185913086,179.72894287109375,19.85145378112793,-27.000001907348633,-39.30000305175781,18.75
3.99,87.07232666015625,-17.276559829711914,9.53849983215332,-34.906585693359375,177.99693298339844,44.36600112915039,-25.80000114440918,-38.55000305175781,19.05000114440918
4.0,84.8888168334961,-12.641385078430176,10.84094524383545,-14.522205352783203,189.32159423828125,70.07962799072266,-27.150001525878906,-37.650001525878906,18.450000762939453
4.01,79.21934509277344,-15.667655944824219,12.105083465576172,2.531393527984619,194.38436889648438,68.61408996582031,-24.900001525878906,-38.400001525878906,19.950000762939453
4.03,74.08617401123047,-20.379444122314453,11.41555404663086,-4.130168437957764,192.3859100341797,77.94027709960938,-25.500001907348633,-37.80000305175781,22.05000114440918
4.034,68.99131774902344,-18.310853958129883,4.175487995147705,-5.462480545043945,221.43031311035156,62.21898651123047,-25.500001907348633,-37.80000305175781,22.05000114440918
4.04,69.14454650878906,-15.552734375,0.2298433631658554,14.12251091003418,230.62327575683594,70.07962799072266,-24.900001525878906,-38.400001525878906,21.450000762939453
4.05,70.67683410644531,-12.871228218078613,-2.451662540435791,22.51607894897461,263.66461181640625,61.41960144042969,-23.25,-39.75,23.55000114440918
4.06,70.67683410644531,-10.113107681274414,-2.75812029838562,35.57273864746094,290.31085205078125,76.60796356201172,-22.200000762939453,-39.900001525878906,24.450000762939453
4.07,70.25545501708984,-4.137180328369141,-17.50640296936035,22.915773391723633,341.33843994140625,94.72740936279297,-22.950000762939453,-40.650001525878906,25.80000114440918
4.089,70.6002197265625,0.9959878921508789,-14.020444869995117,-13.722817420959473,352.2633972167969,102.18836212158203,-22.950000762939453,-40.650001525878906,25.80000114440918
4.092,71.55789947509766,2.9496564865112305,-1.1875240802764893,-64.084228515625,303.7672119140625,98.85757446289062,-22.950000762939453,-40.650001525878906,25.80000114440918
4.1,74.46924591064453,5.592854976654053,10.611102104187012,-90.99693298339844,250.74119567871094,110.98162078857422,-21.0,-39.0,26.400001525878906
4.11,75.19709014892578,7.316680431365967,11.1474027633667,-137.49464416503906,195.1837615966797,91.66309356689453,-19.650001525878906,-43.05000305175781,28.80000114440918
4.12,73.85633087158203,7.316680431365967,10.036493301391602,-145.35528564453125,133.23123168945312,68.34762573242188,-20.25,-40.95000076293945,28.950000762939453
4.13,73.39664459228516,5.2480902671813965,9.883264541625977,-104.32006072998047,77.00765228271484,37.97090148925781,-19.80000114440918,-43.20000076293945,29.400001525878906
4.149,74.12448120117188,1.4939818382263184,9.576807022094727,-53.558956146240234,59.02143859863281,-25.7136287689209,-19.200000762939453,-45.0,28.05000114440918
4.153,78.3382797241211,1.723825216293335,1.723825216293335,-12.923430442810059,63.950992584228516,-68.4808578491211,-19.200000762939453,-45.0,28.05000114440918
4.16,79.41088104248047,3.179499864578247,0.3447650372982025,-15.987748146057129,89.7978515625,-63.018375396728516,-19.5,-44.400001525878906,27.150001525878906
4.17,80.29194641113281,6.971915245056152,0.3064578175544739,-13.58958625793457,115.37825012207031,-54.35834503173828,-20.25,-43.20000076293945,28.200000762939453
4.18,80.36856079101562,5.746084213256836,-3.5242648124694824,-9.192955017089844,150.41806030273438,-50.4946403503418,-19.5,-42.45000076293945,28.200000762939453
4.19,78.14674377441406,-7.6997528076171875,3.1028854846954346,36.63859176635742,157.21286010742188,-81.40428924560547,-18.0,-43.95000076293945,28.650001525878906
4.206,74.35432434082031,-18.157625198364258,2.298433542251587,113.11331939697266,178.92955017089844,-112.18070220947266,-19.5,-42.150001525878906,29.400001525878906
4.21,70.29376220703125,-23.597251892089844,0.727837324142456,134.5635528564453,169.4701385498047,-101.52220153808594,-19.5,-42.150001525878906,29.400001525878906
4.22,69.71915435791016,-22.06496238708496,1.7621324062347412,142.15773010253906,178.6630859375,-107.51760864257812,-19.05000114440918,-42.900001525878906,29.700000762939453
4.23,68.34009552001953,-26.700138092041016,0.7661445140838623,140.02603149414062,183.05972290039062,-79.80551147460938,-19.5,-42.45000076293945,30.450000762939453
4.24,67.68887329101562,-26.891674041748047,-0.038307227194309235,113.64624786376953,181.19448852539062,-69.4134750366211,-19.650001525878906,-41.85000228881836,30.600000381469727
4.25,67.80379486083984,-27.925968170166016,4.711789131164551,71.01225280761719,164.94027709960938,-65.949462890625,-19.650001525878906,-41.85000228881836,30.600000381469727
4.269,69.45100402832031,-27.27474594116211,9.53849983215332,31.44257164001465,134.5635528564453,-45.56508255004883,-18.450000762939453,-40.650001525878906,33.30000305175781
4.273,71.02159881591797,-27.27474594116211,16.012420654296875,-26.513015747070312,68.08116149902344,-2.6646246910095215,-17.700000762939453,-40.35000228881836,35.85000228881836
4.28,70.6002197265625,-28.19411849975586,16.433799743652344,-43.03369140625,45.16539001464844,9.592649459838867,-17.700000762939453,-40.35000228881836,35.85000228881836
4.29,70.17884063720703,-27.313053131103516,16.433799743652344,-79.0061264038086,27.978559494018555,3.3307809829711914,-19.5,-40.95000076293945,35.55000305175781
4.3,71.213134765625,-29.22841453552246,15.169661521911621,-99.52373504638672,12.25727367401123,28.24502182006836,-17.25,-41.25,35.25
4.31,73.97125244140625,-28.653806686401367,13.560758590698242,-128.03521728515625,20.784072875976562,5.995405673980713,-17.25,-41.25,35.25
4.322,77.38059997558594,-25.665842056274414,13.79060173034668,-156.81317138671875,35.17304611206055,10.791729927062988,-19.5,-40.20000076293945,33.45000076293945
4.33,81.24962615966797,-27.121517181396484,17.276559829711914,-180.79478454589844,58.08882141113281,7.194486618041992,-19.5,-40.20000076293945,33.45000076293945
4.34,84.81220245361328,-27.389667510986328,18.081010818481445,-182.39356994628906,68.34762573242188,14.12251091003418,-16.5,-40.95000076293945,35.25
4.35,87.72354888916016,-27.46628189086914,22.218191146850586,-171.60183715820312,71.41194152832031,17.586523056030273,-16.950000762939453,-41.85000228881836,33.30000305175781
4.36,88.45138549804688,-25.435998916625977,24.13355255126953,-157.21286010742188,78.07350158691406,16.920366287231445,-18.30000114440918,-41.70000076293945,34.20000076293945
4.37,88.6429214477539,-21.528661727905273,24.861391067504883,-111.5145492553711,67.814697265625,40.9019889831543,-18.30000114440918,-41.70000076293945,34.20000076293945
4.389,87.68524169921875,-16.778566360473633,21.490354537963867,-71.01225280761719,63.684532165527344,82.7365951538086,-16.950000762939453,-43.05000305175781,33.900001525878906
4.392,83.50975799560547,-5.51624059677124,18.04270362854004,-64.88361358642578,63.684532165527344,90.4640121459961,-18.0,-43.650001525878906,33.75
4.4,84.19928741455078,-4.558559894561768,19.306842803955078,-57.955589294433594,48.22970962524414,100.3231201171875,-18.0,-43.650001525878906,33.75
4.41,84.08436584472656,-2.451662540435791,20.724210739135742,-40.36906433105469,21.050535202026367,125.37059783935547,-15.450000762939453,-43.05000305175781,32.55000305175781
4.42,87.91508483886719,-1.072602391242981,19.68991470336914,-46.497703552246094,17.186830520629883,108.050537109375,-15.450000762939453,-43.05000305175781,32.55000305175781
4.438,93.9293212890625,-0.8810662031173706,15.093047142028809,-44.09954071044922,17.586523056030273,104.5865249633789,-15.450000762939453,-43.05000305175781,32.55000305175781
4.442,98.25804138183594,-1.072602391242981,7.6997528076171875,-25.846860885620117,47.696781158447266,77.94027709960938,-16.650001525878906,-45.30000305175781,34.650001525878906
4.45,99.06249237060547,1.3407529592514038,4.137180328369141,-9.059723854064941,52.626338958740234,91.26339721679688,-15.450000762939453,-44.25,34.35000228881836
4.46,98.41127014160156,3.485957622528076,6.090848922729492,-9.459418296813965,60.35375213623047,61.68606185913086,-15.90000057220459,-45.30000305175781,33.900001525878906
4.47,99.33064270019531,10.189722061157227,13.48414421081543,1.4655436277389526,30.24349021911621,66.08269500732422,-15.90000057220459,-45.30000305175781,33.900001525878906
4.48,109.86512756347656,14.288596153259277,19.80483627319336,32.90811538696289,-5.462480545043945,58.888206481933594,-15.000000953674316,-45.60000228881836,34.20000076293945
4.49,122.20005798339844,12.947842597961426,26.508602142333984,77.80704498291016,-22.782541275024414,45.69831466674805,-14.550000190734863,-45.150001525878906,34.5
4.503,131.39378356933594,12.29662036895752,23.13756561279297,130.30015563964844,-0.2664624750614166,11.724349021911621,-13.950000762939453,-46.20000076293945,34.650001525878906
4.51,126.18400573730469,4.481945514678955,-3.2561142444610596,168.1378173828125,15.188361167907715,-1.9984685182571411,-15.15000057220459,-45.0,36.150001525878906
4.52,115.34306335449219,-5.094861030578613,-8.96389102935791,187.4563446044922,31.842266082763672,-48.76263427734375,-15.750000953674316,-45.150001525878906,36.30000305175781
4.53,100.86293029785156,-11.951854705810547,-14.595053672790527,156.5467071533203,17.186830520629883,-95.39356231689453,-15.750000953674316,-45.150001525878906,36.30000305175781
4.54,91.05628204345703,-18.77054214477539,-12.066776275634766,119.24195861816406,-81.93721008300781,-94.59417724609375,-15.300000190734863,-42.150001525878906,37.80000305175781
4.55,87.91508483886719,-24.286781311035156,-1.800439715385437,47.0306282043457,-241.9479217529297,-90.19754791259766,-16.5,-41.70000076293945,37.80000305175781
4.562,80.94316864013672,-31.83330535888672,5.592854976654053,6.661561965942383,-389.16845703125,-83.80245208740234,-17.25,-42.150001525878906,37.5
4.57,73.81802368164062,-40.52904510498047,-0.19153612852096558,-1.8652373552322388,-413.6829833984375,-87.0,-18.0,-42.150001525878906,36.30000305175781
4.58,72.78372955322266,-40.22258758544922,-1.0342950820922852,-17.186830520629883,-422.47625732421875,-90.73047637939453,-18.0,-42.150001525878906,36.30000305175781
4.59,71.32805633544922,-28.270732879638672,14.250288963317871,-58.222049713134766,-391.5666198730469,-100.18988800048828,-18.0,-42.150001525878906,36.30000305175781
4.6,69.06793212890625,-20.379444122314453,27.083209991455078,-99.65696716308594,-372.2480773925781,-98.05818939208984,-20.55000114440918,-40.95000076293945,34.95000076293945
4.619,71.51959228515625,-20.341136932373047,28.998571395874023,-108.58345794677734,-358.2587890625,-95.39356231689453,-21.150001525878906,-40.650001525878906,32.85000228881836
4.623,72.32404327392578,-20.11129379272461,27.925968170166016,-93.12863159179688,-322.4195861816406,-95.66002655029297,-22.950000762939453,-39.150001525878906,31.05000114440918
4.63,78.4148941040039,-25.5892276763916,22.754493713378906,-82.7365951538086,-292.1761169433594,-103.12097930908203,-24.900001525878906,-40.650001525878906,30.600000381469727
4.64,83.85452270507812,-30.339323043823242,19.68991470336914,-63.684532165527344,-252.87289428710938,-109.24961853027344,-24.900001525878906,-40.650001525878906,30.600000381469727
4.65,87.49370574951172,-33.40390396118164,15.476119995117188,-30.24349021911621,-226.09341430664062,-114.44563293457031,-24.150001525878906,-40.650001525878906,27.750001907348633
4.66,88.41307830810547,-34.13174057006836,10.917559623718262,1.9984685182571411,-183.1929473876953,-120.84072875976562,-25.500001907348633,-39.0,27.150001525878906
4.67,91.09458923339844,-33.13574981689453,3.5242648124694824,38.23736572265625,-129.76722717285156,-132.29861450195312,-24.900001525878906,-38.85000228881836,27.000001907348633
4.682,91.97565460205078,-27.619510650634766,-0.7661445140838623,96.72587585449219,-103.92036437988281,-117.50994873046875,-27.000001907348633,-39.30000305175781,27.150001525878906
4.69,86.45941162109375,-25.81907081604004,3.44765043258667,135.36293029785156,-104.32006072998047,-113.3797836303711,-25.950000762939453,-37.650001525878906,26.55000114440918
4.7,81.09639739990234,-20.609289169311523,9.576807022094727,200.37977600097656,-133.89739990234375,-114.71209716796875,-25.950000762939453,-37.650001525878906,26.55000114440918
4.71,77.30398559570312,-11.951854705810547,16.970102310180664,274.45635986328125,-172.00152587890625,-97.39203643798828,-26.700000762939453,-37.20000076293945,27.000001907348633
4.72,73.47325897216797,-10.687716484069824,22.026655197143555,301.9019775390625,-202.77793884277344,-120.70750427246094,-28.200000762939453,-36.900001525878906,27.000001907348633
4.739,75.58016204833984,-7.1251444816589355,23.060951232910156,280.8514404296875,-223.56201171875,-104.32006072998047,-28.200000762939453,-37.20000076293945,25.80000114440918
4.743,76.15476989746094,-5.592854976654053,22.409727096557617,246.61102294921875,-251.5405731201172,-113.3797836303711,-28.200000762939453,-35.70000076293945,28.05000114440918
4.75,76.15476989746094,-6.512228488922119,20.149600982666016,236.88514709472656,-268.59417724609375,-87.79938507080078,-28.200000762939453,-35.70000076293945,28.05000114440918
4.76,71.97927856445312,-7.967903137207031,17.851167678833008,247.94332885742188,-252.07350158691406,-90.33078002929688,-28.200000762939453,-35.70000076293945,28.05000114440918
4.77,66.5396499633789,-9.921571731567383,16.931795120239258,255.53750610351562,-220.36447143554688,-109.11638641357422,-29.55000114440918,-31.950000762939453,26.850000381469727
4.78,63.24523162841797,-9.806650161743164,16.089035034179688,253.1393585205078,-204.6431884765625,-93.12863159179688,-29.400001525878906,-31.500001907348633,24.0
4.79,59.22297286987305,-10.496180534362793,14.173673629760742,184.92495727539062,-180.26187133789062,-85.26799011230469,-32.55000305175781,-33.150001525878906,24.150001525878906
4.803,55.660400390625,-13.024456977844238,15.705963134765625,96.59264373779297,-157.612548828125,-97.7917251586914,-31.950000762939453,-31.80000114440918,24.450000762939453
4.81,57.23099899291992,-19.115306854248047,14.135366439819336,117.50994873046875,-144.2894287109375,-101.78866577148438,-31.950000762939453,-31.80000114440918,24.450000762939453
4.82,59.644351959228516,-18.617311477661133,14.939818382263184,157.87901306152344,-132.29861450195312,-108.18376159667969,-31.650001525878906,-31.500001907348633,24.450000762939453
4.83,61.5980224609375,-20.187908172607422,11.185709953308105,127.23583221435547,-103.7871322631836,-112.04747009277344,-31.950000762939453,-27.150001525878906,23.700000762939453
4.84,61.36817932128906,-20.724210739135742,6.320692539215088,100.18988800048828,-88.59877014160156,-107.65084075927734,-33.30000305175781,-28.500001907348633,23.55000114440918
4.859,57.307613372802734,-25.742456436157227,1.723825216293335,92.72894287109375,-86.86676788330078,-107.78407287597656,-32.55000305175781,-28.200000762939453,25.350000381469727
4.863,52.86397171020508,-27.88766098022461,-0.26815059781074524,72.74425506591797,-63.950992584228516,-93.66156005859375,-33.900001525878906,-27.900001525878906,24.0
4.87,44.704532623291016,-31.335311889648438,-4.9799394607543945,61.15313720703125,-50.4946403503418,-104.45329284667969,-33.900001525878906,-27.900001525878906,24.0
4.88,43.01901626586914,-31.182083129882812,-6.665457725524902,45.56508255004883,-33.30780792236328,-103.52066802978516,-33.0,-27.450000762939453,22.05000114440918
4.89,38.613685607910156,-31.948226928710938,-8.35097599029541,33.04134750366211,-9.326186180114746,-72.61102294921875,-33.150001525878906,-26.400001525878906,24.0
4.9,38.843528747558594,-31.641769409179688,-9.883264541625977,10.392036437988281,23.182235717773438,-83.13629150390625,-33.45000076293945,-25.650001525878906,21.75
4.919,39.30321502685547,-31.90991973876953,-12.411541938781738,-0.9326186776161194,40.635528564453125,-61.9525260925293,-31.950000762939453,-26.100000381469727,22.200000762939453
4.923,41.98472213745117,-29.4582576751709,-14.09705924987793,-38.50382614135742,65.54976654052734,-36.10566711425781,-31.950000762939453,-26.100000381469727,22.200000762939453
4.93,48.765098571777344,-24.89969825744629,-13.828908920288086,-57.822357177734375,70.61255645751953,-21.316997528076172,-31.950000762939453,-26.100000381469727,22.200000762939453
4.94,50.06754684448242,-21.98834800720215,-13.292608261108398,-84.06890869140625,86.60030364990234,-12.923430442810059,-34.5,-25.05000114440918,22.80000114440918
4.95,55.73701477050781,-17.659631729125977,-10.687716484069824,-85.00152587890625,84.06890869140625,-18.78560447692871,-33.30000305175781,-25.500001907348633,23.850000381469727
4.96,62.32585906982422,-12.526463508605957,-10.994174003601074,-94.72740936279297,89.66461944580078,-32.24195861816406,-33.0,-24.750001907348633,24.150001525878906
4.979,68.99131774902344,-6.550535678863525,-15.207969665527344,-95.66002655029297,90.06431579589844,-17.852985382080078,-32.70000076293945,-25.650001525878906,22.5
4.983,80.63671112060547,-6.627150535583496,-22.869415283203125,-77.4073486328125,74.74272155761719,-54.75803756713867,-32.70000076293945,-25.650001525878906,22.5
4.99,95.07853698730469,3.2561142444610596,-22.60126495361328,-31.575803756713867,18.652372360229492,-26.779478073120117,-31.80000114440918,-25.500001907348633,26.100000381469727
5.0,102.77828979492188,13.599065780639648,-30.952239990234375,29.577335357666016,-3.197549819946289,-26.64624786376953,-32.55000305175781,-25.500001907348633,25.350000381469727
5.01,115.61121368408203,16.35718536376953,-50.5655403137207,41.701377868652344,-7.327718257904053,-59.95405578613281,-33.75,-25.500001907348633,27.150001525878906
5.02,125.72431945800781,17.353174209594727,-62.785545349121094,98.59111785888672,-9.859111785888672,-1.9984685182571411,-33.900001525878906,-24.900001525878906,23.700000762939453
5.039,127.86952209472656,21.45204734802246,-60.257266998291016,106.58499145507812,-19.31852912902832,-19.98468589782715,-33.30000305175781,-25.05000114440918,25.650001525878906
5.043,123.31096649169922,26.240449905395508,-48.88002014160156,94.19448852539062,-42.36753463745117,5.196018218994141,-34.05000305175781,-23.850000381469727,24.900001525878906
5.05,104.00411987304688,18.732234954833984,-39.035064697265625,76.74119567871094,-54.35834503173828,-4.929555892944336,-34.05000305175781,-23.850000381469727,24.900001525878906
5.06,94.08255004882812,13.330915451049805,-32.52283477783203,82.33690643310547,-77.27411651611328,6.395099639892578,-33.0,-25.500001907348633,24.150001525878906
5.07,79.29595947265625,7.7763671875,-19.115306854248047,87.39968872070312,-92.72894287109375,11.058192253112793,-33.45000076293945,-23.700000762939453,24.750001907348633
5.08,72.74542236328125,3.4093432426452637,-9.53849983215332,101.2557373046875,-108.58345794677734,37.304744720458984,-33.30000305175781,-24.30000114440918,25.350000381469727
5.099,67.72718048095703,-1.800439715385437,-10.72602367401123,105.25267791748047,-130.30015563964844,55.15773391723633,-33.30000305175781,-24.30000114440918,25.350000381469727
5.104,68.34009552001953,-3.026270866394043,-8.580819129943848,130.83306884765625,-112.4471664428711,83.40275573730469,-32.70000076293945,-24.900001525878906,23.700000762939453
5.11,66.30980682373047,-7.814674377441406,-6.01423454284668,139.89280700683594,-77.14088439941406,84.4686050415039,-32.70000076293945,-24.900001525878906,23.700000762939453
5.12,70.17884063720703,-10.955866813659668,-4.213795185089111,116.31086730957031,-59.55436325073242,101.38896942138672,-33.900001525878906,-24.450000762939453,23.25
5.13,82.13069152832031,-20.609289169311523,-7.316680431365967,30.37672233581543,-50.4946403503418,101.2557373046875,-33.45000076293945,-25.650001525878906,24.0
5.14,98.41127014160156,-40.60565948486328,-25.052927017211914,-14.522205352783203,-62.485450744628906,114.04593658447266,-34.650001525878906,-24.150001525878906,24.750001907348633
5.16,120.47622680664062,-76.99752807617188,-42.1762580871582,2.531393527984619,-93.39509582519531,109.51607513427734,-34.650001525878906,-24.150001525878906,24.750001907348633
5.163,134.5732879638672,-99.36894989013672,-38.03907775878906,66.21592712402344,-62.618682861328125,90.59724426269531,-33.30000305175781,-25.80000114440918,23.100000381469727
5.17,131.5087127685547,-109.06067657470703,-29.803022384643555,108.45022583007812,-24.381317138671875,74.74272155761719,-33.30000305175781,-25.80000114440918,23.100000381469727
5.18,94.42731475830078,-88.48969268798828,-16.47210693359375,81.27105712890625,28.378253936767578,45.69831466674805,-31.650001525878906,-25.200000762939453,22.5
5.19,54.51118469238281,-41.946414947509766,-4.865017890930176,44.63246536254883,67.41500854492188,54.62480926513672,-33.30000305175781,-26.250001907348633,24.0
5.2,36.621707916259766,-22.754493713378906,0.4596867263317108,-1.5987749099731445,111.24808502197266,24.11485481262207,-33.30000305175781,-26.250001907348633,22.350000381469727
5.219,34.20835494995117,-17.42978858947754,11.070788383483887,-44.76569747924805,144.42266845703125,58.4885139465332,-33.30000305175781,-26.250001907348633,22.350000381469727
5.223,32.44622039794922,-13.828908920288086,13.828908920288086,-102.32159423828125,149.21897888183594,63.551300048828125,-34.20000076293945,-27.600000381469727,24.450000762939453
5.23,37.924156188964844,-10.879252433776855,18.04270362854004,-123.50535583496094,120.17457580566406,81.40428924560547,-32.70000076293945,-26.850000381469727,24.750001907348633
5.24,47.2711181640625,-9.998186111450195,22.37141990661621,-169.4701385498047,97.25880432128906,106.31852722167969,-31.950000762939453,-27.600000381469727,25.500001907348633
5.25,62.479087829589844,-11.070788383483887,25.81907081604004,-211.5712127685547,69.81317138671875,147.8866729736328,-31.950000762939453,-27.600000381469727,25.500001907348633
5.26,73.81802368164062,-15.476119995117188,25.09123420715332,-217.1669158935547,41.701377868652344,166.53904724121094,-33.0,-28.950000762939453,26.100000381469727
5.28,81.90084838867188,-24.44001007080078,22.90772247314453,-206.6416473388672,26.513015747070312,167.73812866210938,-32.400001525878906,-29.100000381469727,24.750001907348633
5.283,86.57433319091797,-28.883649826049805,17.391481399536133,-165.73965454101562,52.75957107543945,137.3614044189453,-31.200000762939453,-29.55000114440918,26.55000114440918
5.29,92.39703369140625,-26.776752471923828,6.167463779449463,-140.5589599609375,74.8759536743164,127.76875305175781,-31.80000114440918,-30.450000762939453,25.350000381469727
5.3,92.62687683105469,-27.198131561279297,4.252102375030518,-91.66309356689453,110.04900360107422,125.23736572265625,-31.80000114440918,-32.400001525878906,26.100000381469727
5.31,95.1168441772461,-25.627534866333008,3.869029998779297,-47.0306282043457,146.5543670654297,102.32159423828125,-31.80000114440918,-32.400001525878906,26.100000381469727
5.32,98.33465576171875,-19.68991470336914,5.899312973022461,-8.660030364990234,162.5421142578125,95.39356231689453,-30.750001907348633,-34.35000228881836,26.100000381469727
5.34,98.6794204711914,-13.445837020874023,8.772355079650879,31.042879104614258,151.88360595703125,103.38744354248047,-30.30000114440918,-33.900001525878906,26.400001525878906
5.343,95.23176574707031,-8.65743350982666,12.22000503540039,84.86830139160156,146.1546630859375,105.65237426757812,-30.30000114440918,-34.35000228881836,26.100000381469727
5.35,85.5783462524414,-6.550535678863525,13.599065780639648,128.3016815185547,142.5574188232422,100.85604858398438,-28.950000762939453,-33.75,28.80000114440918
5.36,80.63671112060547,-5.822698593139648,10.879252433776855,173.33384704589844,146.5543670654297,93.2618637084961,-28.950000762939453,-33.75,28.80000114440918
5.37,72.01758575439453,-4.903325080871582,8.312667846679688,240.882080078125,159.74424743652344,95.9264907836914,-28.950000762939453,-33.75,28.80000114440918
5.38,66.5013427734375,-2.7964274883270264,8.427590370178223,294.174560546875,195.1837615966797,65.81623077392578,-28.05000114440918,-34.35000228881836,30.150001525878906
5.399,59.452816009521484,-4.8267107009887695,6.282385349273682,303.2342834472656,224.3614044189453,40.9019889831543,-26.700000762939453,-33.75,31.80000114440918
5.404,59.5294303894043,-9.806650161743164,7.086836814880371,269.52679443359375,243.81317138671875,13.056661605834961,-26.700000762939453,-33.0,32.10000228881836
5.41,62.479087829589844,-7.661445617675781,3.3710360527038574,239.28330993652344,258.06890869140625,-0.6661561727523804,-27.30000114440918,-33.900001525878906,34.20000076293945
5.42,63.97306823730469,-11.377246856689453,2.873042106628418,142.82388305664062,297.6385803222656,-19.584991455078125,-27.30000114440918,-33.900001525878906,34.20000076293945
5.43,62.74723815917969,-14.09705924987793,-19.306842803955078,-10.392036437988281,356.7932434082031,-35.705970764160156,-26.55000114440918,-32.85000228881836,37.05000305175781
5.44,61.52140808105469,-18.693927764892578,-23.252487182617188,-159.61102294921875,377.0444030761719,-34.10719680786133,-25.500001907348633,-31.200000762939453,37.80000305175781
5.459,67.19087982177734,-14.901511192321777,0.9193734526634216,-268.9938659667969,316.4241943359375,-44.76569747924805,-24.750001907348633,-31.650001525878906,38.55000305175781
5.463,74.2394027709961,-7.661445617675781,27.15982437133789,-296.43951416015625,157.0796356201172,-51.4272575378418,-23.55000114440918,-31.200000762939453,39.0
5.47,80.63671112060547,-4.32871675491333,33.17405700683594,-296.8392028808594,88.46553802490234,-47.297088623046875,-24.0,-32.400001525878906,38.25
5.48,80.90486145019531,-7.163451671600342,19.881450653076172,-314.42572021484375,57.955589294433594,-63.28483963012695,-24.0,-32.400001525878906,38.25
5.49,80.98147583007812,-5.861005783081055,6.856993675231934,-321.0872802734375,68.61408996582031,-52.75957107543945,-23.55000114440918,-34.80000305175781,38.25
5.5,81.28793334960938,-4.596867084503174,0.8044517636299133,-308.4303283691406,83.26952362060547,-43.43338394165039,-22.05000114440918,-34.35000228881836,37.80000305175781
5.519,80.13871765136719,-3.8307228088378906,-1.2641384601593018,-271.1255798339844,103.38744354248047,-45.831546783447266,-24.30000114440918,-35.10000228881836,38.25
5.522,77.41890716552734,-3.064578056335449,0.4596867263317108,-205.30934143066406,136.69525146484375,-43.69984436035156,-22.650001525878906,-36.45000076293945,37.650001525878906
5.53,73.7031021118164,-5.018246650695801,2.0685901641845703,-170.53598022460938,153.34915161132812,-51.82695007324219,-22.650001525878906,-36.45000076293945,37.650001525878906
5.54,71.67282104492188,-7.354987621307373,2.604891538619995,-118.70903015136719,164.4073486328125,-51.82695007324219,-22.650001525878906,-36.45000076293945,37.650001525878906
5.55,70.67683410644531,-12.181697845458984,1.0342950820922852,-79.9387435913086,184.92495727539062,-60.62021255493164,-22.200000762939453,-36.150001525878906,37.650001525878906
5.56,71.90266418457031,-15.131354331970215,-1.9153614044189453,-56.22358322143555,219.16539001464844,-65.81623077392578,-22.5,-35.85000228881836,39.30000305175781
5.581,71.32805633544922,-18.502389907836914,-4.060565948486328,-11.324655532836914,233.9540557861328,-53.82542037963867,-22.950000762939453,-37.20000076293945,37.95000076293945
5.585,70.94498443603516,-21.030668258666992,-4.060565948486328,11.857580184936523,226.49310302734375,-49.42878723144531,-21.900001525878906,-38.400001525878906,39.900001525878906
5.59,66.69288635253906,-16.318878173828125,2.2601263523101807,2.9310872554779053,212.9035186767578,-45.831546783447266,-21.900001525878906,-38.400001525878906,39.900001525878906
5.6,66.4630355834961,-16.012420654296875,2.6815059185028076,-41.434913635253906,175.59877014160156,-13.722817420959473,-21.75,-34.80000305175781,40.35000228881836
5.61,68.45501708984375,-13.867216110229492,6.971915245056152,-91.52986145019531,127.76875305175781,-14.255742073059082,-21.450000762939453,-35.25,39.900001525878906
5.62,75.42693328857422,-18.579004287719727,8.08282470703125,-116.84379577636719,94.86064147949219,-19.584991455078125,-20.400001525878906,-34.95000076293945,42.75
5.639,84.73558807373047,-20.992361068725586,7.738059997558594,-101.78866577148438,67.41500854492188,-27.84532928466797,-21.150001525878906,-36.150001525878906,42.0
5.642,88.25984954833984,-22.984336853027344,7.240066051483154,-74.8759536743164,37.70444107055664,-7.06125545501709,-21.150001525878906,-36.45000076293945,41.25
5.65,84.8888168334961,-26.2021427154541,4.941632270812988,-74.60948944091797,42.500762939453125,-5.8621745109558105,-21.150001525878906,-36.45000076293945,41.25
5.66,83.0500717163086,-25.857378005981445,2.911349296569824,-71.41194152832031,40.23583221435547,12.923430442810059,-19.05000114440918,-35.55000305175781,42.30000305175781
5.67,81.74761962890625,-26.508602142333984,7.240066051483154,-67.14854431152344,21.183767318725586,35.57273864746094,-21.0,-36.60000228881836,41.55000305175781
5.68,77.53382873535156,-26.96828842163086,11.72201156616211,-67.68146514892578,-2.2649309635162354,32.24195861816406,-19.950000762939453,-36.150001525878906,42.0
5.7,76.30799865722656,-24.286781311035156,14.326903343200684,-73.67687225341797,-14.388973236083984,28.378253936767578,-19.80000114440918,-37.5,42.60000228881836
5.704,73.77971649169922,-18.502389907836914,16.127342224121094,-76.20826721191406,-32.37519073486328,49.56201934814453,-18.75,-38.25,41.85000228881836
5.71,72.05589294433594,-13.560758590698242,15.207969665527344,-74.07656860351562,-41.168453216552734,42.500762939453125,-18.75,-38.25,41.85000228881836
5.72,72.82203674316406,-12.22000503540039,13.943830490112305,-65.016845703125,-30.90964698791504,39.16998291015625,-20.700000762939453,-38.85000228881836,40.95000076293945
5.73,77.34229278564453,-13.062764167785645,12.526463508605957,-51.560489654541016,-25.846860885620117,33.30780792236328,-19.950000762939453,-39.150001525878906,41.70000076293945
5.74,85.23358154296875,-12.90953540802002,12.526463508605957,-12.390504837036133,-14.255742073059082,29.044410705566406,-21.150001525878906,-40.35000228881836,41.70000076293945
5.759,92.81841278076172,-11.683704376220703,11.530475616455078,0.9326186776161194,14.12251091003418,23.04900360107422,-19.650001525878906,-41.10000228881836,42.45000076293945
5.762,99.56048583984375,-12.22000503540039,9.346963882446289,30.110260009765625,48.22970962524414,1.8652373552322388,-19.650001525878906,-41.10000228881836,42.45000076293945
5.77,98.18142700195312,-14.250288963317871,8.619126319885254,42.90045928955078,75.14241790771484,-6.261868000030518,-19.650001525878906,-39.900001525878906,42.0
5.78,94.38900756835938,-12.717999458312988,2.1068975925445557,58.355281829833984,102.8545150756836,-1.1990811824798584,-19.5,-38.25,40.05000305175781
5.79,90.94136047363281,-10.5344877243042,-6.627150535583496,40.36906433105469,151.084228515625,1.1990811824798584,-19.05000114440918,-39.75,41.85000228881836
5.8,90.9030532836914,-9.921571731567383,-15.897499084472656,18.652372360229492,178.6630859375,15.188361167907715,-18.900001525878906,-38.400001525878906,41.70000076293945
5.819,90.71151733398438,-10.342951774597168,-19.421764373779297,-29.444103240966797,180.5283203125,-20.251148223876953,-18.900001525878906,-38.400001525878906,41.70000076293945
5.822,109.09898376464844,-12.411541938781738,-7.6997528076171875,-78.87289428710938,127.76875305175781,-22.51607894897461,-18.30000114440918,-37.80000305175781,43.05000305175781
5.83,117.8330307006836,-12.871228218078613,-3.6391866207122803,-94.19448852539062,58.4885139465332,12.523736000061035,-18.30000114440918,-37.80000305175781,43.05000305175781
5.84,134.5349884033203,-11.492168426513672,8.580819129943848,-120.70750427246094,-80.60489654541016,13.456355094909668,-17.400001525878906,-37.95000076293945,43.95000076293945
5.85,144.99285888671875,-2.5665841102600098,23.367408752441406,-96.05972290039062,-230.3568115234375,57.289432525634766,-18.150001525878906,-38.85000228881836,43.95000076293945
5.86,141.39198303222656,-4.596867084503174,4.137180328369141,-55.69065856933594,-304.96630859375,57.02296829223633,-18.900001525878906,-38.400001525878906,43.95000076293945
5.879,131.6619415283203,-14.058752059936523,-17.161638259887695,-8.660030364990234,-387.7029113769531,74.34303283691406,-18.900001525878906,-38.400001525878906,43.95000076293945
5.882,106.07271575927734,-9.84495735168457,-4.6734819412231445,42.90045928955078,-527.8621826171875,97.7917251586914,-20.700000762939453,-41.10000228881836,40.650001525878906
5.89,84.85050964355469,-7.661445617675781,5.975927352905273,100.9892807006836,-591.679931640625,81.00459289550781,-20.700000762939453,-41.10000228881836,40.650001525878906
5.9,76.34630584716797,-6.627150535583496,11.03248119354248,169.4701385498047,-625.1209716796875,76.4747314453125,-21.450000762939453,-39.60000228881836,39.45000076293945
5.91,70.44699096679688,-4.405331134796143,12.679692268371582,233.55435180664062,-627.65234375,65.41653442382812,-23.400001525878906,-39.60000228881836,37.95000076293945
5.92,67.72718048095703,-0.4213795065879822,14.556746482849121,251.67381286621094,-618.0596923828125,39.83613967895508,-24.900001525878906,-37.650001525878906,38.400001525878906
5.939,65.888427734375,-0.2298433631658554,16.931795120239258,227.02603149414062,-563.0352172851562,10.92496109008789,-24.900001525878906,-37.650001525878906,38.400001525878906
5.943,71.8260498046875,1.1492167711257935,23.9420166015625,181.19448852539062,-491.22357177734375,-28.911178588867188,-26.55000114440918,-37.80000305175781,33.0
5.95,73.7031021118164,1.5705963373184204,25.359384536743164,179.4624786376953,-454.4517517089844,-41.701377868652344,-26.55000114440918,-37.80000305175781,33.0
5.96,78.72135162353516,4.558559894561768,28.040889739990234,178.79632568359375,-416.88055419921875,-50.4946403503418,-30.000001907348633,-37.05000305175781,31.500001907348633
5.97,82.0540771484375,6.282385349273682,27.236438751220703,200.646240234375,-403.0245056152344,-43.03369140625,-30.000001907348633,-36.30000305175781,33.0
5.98,85.80818939208984,5.592854976654053,22.103269577026367,232.62173461914062,-370.915771484375,-39.03675079345703,-30.000001907348633,-36.30000305175781,33.0
5.999,87.91508483886719,-0.07661445438861847,17.12333106994629,272.32464599609375,-332.0122375488281,-60.62021255493164,-30.000001907348633,-36.30000305175781,33.0
6.004,90.44336700439453,-5.363011837005615,14.173673629760742,311.2281799316406,-252.3399658203125,-68.34762573242188,-33.150001525878906,-33.75,27.30000114440918
6.01,101.01615905761719,-7.661445617675781,12.947842597961426,331.74578857421875,-219.29861450195312,-81.8039779663086,-34.20000076293945,-33.0,27.30000114440918
6.02,104.7319564819336,-2.3750481605529785,14.67166805267334,391.96630859375,-179.32923889160156,-76.60796356201172,-34.5,-32.85000228881836,27.450000762939453
6.03,102.58675384521484,3.4093432426452637,14.288596153259277,355.59417724609375,-111.24808502197266,-84.20214080810547,-34.5,-32.85000228881836,27.450000762939453
6.04,98.75603485107422,0.9193734526634216,5.2480902671813965,286.58038330078125,-44.76569747924805,-97.39203643798828,-34.95000076293945,-29.100000381469727,27.750001907348633
6.059,98.33465576171875,-3.7924153804779053,8.121131896972656,239.949462890625,-10.258805274963379,-112.98008728027344,-35.55000305175781,-28.950000762939453,27.900001525878906
6.063,89.94536590576172,2.0685901641845703,15.744270324707031,152.1500701904297,30.110260009765625,-173.0673828125,-34.95000076293945,-29.55000114440918,28.500001907348633
6.07,86.88079071044922,3.179499864578247,15.705963134765625,76.20826721191406,22.915773391723633,-204.11026000976562,-35.25,-27.750001907348633,26.850000381469727
6.08,82.0540771484375,-3.2561142444610596,19.000385284423828,37.4379768371582,-9.326186180114746,-237.2848358154297,-36.0,-26.250001907348633,27.900001525878906
6.09,74.04786682128906,-2.7964274883270264,23.13756561279297,53.42572784423828,-50.09494400024414,-242.8805389404297,-36.0,-26.250001907348633,27.900001525878906
6.1,69.9489974975586,-2.2601263523101807,21.75850486755371,99.52373504638672,-69.81317138671875,-242.21438598632812,-36.30000305175781,-22.80000114440918,27.150001525878906
6.112,66.27149963378906,0.19153612852096558,18.808849334716797,189.5880584716797,-75.40888214111328,-257.5359802246094,-36.75,-23.100000381469727,27.150001525878906
6.12,62.977081298828125,1.1109095811843872,19.460071563720703,255.80397033691406,-70.87902069091797,-234.62020874023438,-36.900001525878906,-20.55000114440918,26.55000114440918
6.13,65.46704864501953,4.137180328369141,19.613300323486328,330.54669189453125,-66.34915924072266,-255.80397033691406,-37.05000305175781,-20.100000381469727,27.150001525878906
6.14,63.85814666748047,14.250288963317871,18.464082717895508,386.6370544433594,-41.568145751953125,-223.0290985107422,-37.05000305175781,-20.100000381469727,27.150001525878906
6.15,67.26749420166016,18.88546371459961,22.524648666381836,428.4716491699219,-36.5053596496582,-196.1163787841797,-37.05000305175781,-20.100000381469727,27.150001525878906
6.16,69.87238311767578,21.0689754486084,26.163835525512695,436.1990661621094,-38.50382614135742,-188.92189025878906,-37.650001525878906,-15.90000057220459,26.55000114440918
6.178,74.43093872070312,16.70195198059082,29.419950485229492,433.8009033203125,-78.73966217041016,-151.88360595703125,-37.650001525878906,-12.15000057220459,24.750001907348633
6.181,75.04386138916016,1.2258312702178955,32.484527587890625,431.9356689453125,-89.13169860839844,-141.35833740234375,-37.650001525878906,-12.15000057220459,24.750001907348633
6.19,73.93294525146484,-1.3407529592514038,31.794998168945312,435.5329284667969,-104.85298156738281,-118.17610931396484,-38.400001525878906,-12.15000057220459,25.500001907348633
6.2,69.3743896484375,-9.002198219299316,29.611486434936523,431.9356689453125,-121.3736572265625,-107.11791229248047,-38.400001525878906,-12.15000057220459,25.500001907348633
6.21,65.2755126953125,-14.326903343200684,29.726408004760742,430.0704345703125,-128.96783447265625,-88.59877014160156,-36.30000305175781,-8.40000057220459,23.100000381469727
6.22,63.66661071777344,-20.95405387878418,26.393678665161133,413.5497741699219,-135.22970581054688,-82.07044219970703,-38.70000076293945,-8.25,22.5
6.235,60.7552604675293,-26.087221145629883,21.528661727905273,385.4379577636719,-106.05206298828125,-86.86676788330078,-36.45000076293945,-9.0,22.950000762939453
6.24,55.73701477050781,-30.26270866394043,15.820884704589844,369.1837463378906,-96.05972290039062,-92.46247863769531,-36.900001525878906,-5.850000381469727,21.450000762939453
6.25,55.813629150390625,-30.952239990234375,13.292608261108398,334.0107116699219,-48.22970962524414,-106.98468017578125,-38.55000305175781,-6.450000286102295,22.350000381469727
6.26,53.40027618408203,-32.10145568847656,11.798625946044922,316.8238830566406,-21.583459854125977,-103.65390014648438,-38.55000305175781,-6.450000286102295,22.350000381469727
6.27,54.54949188232422,-31.10546875,11.568782806396484,288.9785461425781,25.447166442871094,-126.16998291015625,-37.5,-4.5,20.100000381469727
6.28,54.12811279296875,-30.26270866394043,11.990161895751953,266.9953918457031,52.3598747253418,-124.97090148925781,-36.150001525878906,-4.350000381469727,19.200000762939453
6.299,58.38021469116211,-28.768728256225586,14.326903343200684,240.74884033203125,58.62174606323242,-103.52066802978516,-36.900001525878906,-3.1500000953674316,19.200000762939453
6.304,62.555702209472656,-28.92195701599121,8.389283180236816,185.99081420898438,93.66156005859375,-92.72894287109375,-36.900001525878906,-3.1500000953674316,19.200000762939453
6.31,62.172630310058594,-29.4582576751709,5.4013190269470215,167.33843994140625,109.11638641357422,-84.06890869140625,-36.900001525878906,-3.1500000953674316,19.200000762939453
6.32,65.62027740478516,-31.871612548828125,0.0,138.6937255859375,134.03062438964844,-60.62021255493164,-36.900001525878906,-3.1500000953674316,19.200000762939453
6.33,69.9873046875,-36.008792877197266,-11.951854705810547,96.45941925048828,159.07809448242188,-48.09647750854492,-35.55000305175781,-1.0500000715255737,20.850000381469727
6.34,76.88260650634766,-39.035064697265625,-26.623523712158203,49.82848358154297,177.06431579589844,-31.842266082763672,-34.80000305175781,0.0,21.30000114440918
6.353,85.76988220214844,-36.621707916259766,-37.00477981567383,-23.04900360107422,124.17151641845703,14.255742073059082,-34.80000305175781,-0.30000001192092896,20.850000381469727
6.36,102.8932113647461,-23.290794372558594,-37.809234619140625,-61.28636932373047,88.06584930419922,1.0658499002456665,-35.400001525878906,1.6500000953674316,22.5
6.37,118.33102416992188,-13.867216110229492,-36.04710006713867,-74.07656860351562,65.81623077392578,-41.30168533325195,-35.400001525878906,1.6500000953674316,22.5
6.38,137.1781768798828,4.443638324737549,-31.7183837890625,-50.62786865234375,60.48698043823242,-79.80551147460938,-33.45000076293945,1.350000023841858,21.150001525878906
6.39,150.8921661376953,32.599449157714844,-25.933992385864258,14.655436515808105,47.696781158447266,-146.5543670654297,-32.70000076293945,0.15000000596046448,21.450000762939453
6.409,148.2872772216797,58.61005783081055,-13.369222640991211,55.4241943359375,24.381317138671875,-144.1562042236328,-33.45000076293945,0.9000000357627869,21.150001525878906
6.413,129.63165283203125,70.5619125366211,-7.623138427734375,110.98162078857422,-27.31240463256836,-102.05513000488281,-32.55000305175781,0.30000001192092896,22.350000381469727
6.42,104.31057739257812,53.055511474609375,-10.649409294128418,161.34303283691406,-46.63093185424805,-79.67227935791016,-33.30000305175781,1.0500000715255737,21.30000114440918
6.43,92.43534088134766,43.93838882446289,-9.155426979064941,252.73965454101562,-90.19754791259766,-65.81623077392578,-33.30000305175781,1.0500000715255737,21.30000114440918
6.44,76.92091369628906,31.565155029296875,2.5282769203186035,311.62786865234375,-125.23736572265625,-59.4211311340332,-33.0,2.25,20.55000114440918
6.45,66.23319244384766,21.183897018432617,18.579004287719727,377.31085205078125,-162.40887451171875,-30.24349021911621,-32.25,2.700000047683716,18.75
6.468,56.886234283447266,10.955866813659668,35.28095626831055,467.241943359375,-210.63858032226562,1.7320060729980469,-32.25,3.750000238418579,19.05000114440918
6.472,51.676448822021484,-2.6431987285614014,46.84973907470703,551.444091796875,-234.62020874023438,40.102603912353516,-32.70000076293945,3.1500000953674316,17.100000381469727
6.48,61.21495056152344,-23.290794372558594,42.94240188598633,534.7901611328125,-237.15159606933594,45.43185043334961,-32.70000076293945,3.1500000953674316,17.100000381469727
6.49,76.76768493652344,-31.22039031982422,38.230613708496094,446.8575744628906,-218.36599731445312,76.34149932861328,-32.70000076293945,3.1500000953674316,17.100000381469727
6.5,95.04022979736328,-43.24885940551758,27.849353790283203,348.6661376953125,-201.17916870117188,131.49923706054688,-32.70000076293945,4.800000190734863,12.600000381469727
6.51,111.2824935913086,-52.787357330322266,15.667655944824219,251.94027709960938,-172.53445434570312,131.7657012939453,-31.80000114440918,4.200000286102295,12.450000762939453
6.529,107.98807525634766,-54.089805603027344,-1.2258312702178955,350.5313720703125,3.3307809829711914,127.76875305175781,-31.950000762939453,4.050000190734863,9.75
6.533,82.70530700683594,-100.55647277832031,-107.79653930664062,347.4670715332031,201.71209716796875,-54.35834503173828,-31.200000762939453,2.8500001430511475,10.800000190734863
6.54,70.94498443603516,-54.35795593261719,-62.670623779296875,230.09034729003906,212.37059020996094,-50.4946403503418,-31.200000762939453,2.8500001430511475,10.800000190734863
6.55,62.862159729003906,-38.65199279785156,-15.820884704589844,138.2940216064453,145.48851013183594,-28.911178588867188,-31.200000762939453,1.350000023841858,10.050000190734863
6.56,53.63011932373047,-29.879636764526367,25.857378005981445,94.19448852539062,27.978559494018555,16.12097930908203,-31.650001525878906,0.9000000357627869,12.300000190734863
6.57,54.54949188232422,-20.800825119018555,43.44039535522461,62.618682861328125,-74.60948944091797,76.4747314453125,-31.500001907348633,2.25,10.950000762939453
6.588,60.678646087646484,-20.877439498901367,41.5633430480957,47.830013275146484,-129.90045166015625,107.65084075927734,-29.700000762939453,2.8500001430511475,11.550000190734863
6.592,66.15657806396484,-28.19411849975586,29.994558334350586,84.4686050415039,-175.0658416748047,147.22052001953125,-30.450000762939453,2.1000001430511475,9.75
6.6,70.90667724609375,-31.41192626953125,17.238252639770508,128.83460998535156,-162.1424102783203,149.08575439453125,-30.450000762939453,2.1000001430511475,9.75
6.61,70.29376220703125,-30.224401473999023,13.10107135772705,189.45481872558594,-151.88360595703125,148.4196014404297,-31.05000114440918,0.30000001192092896,9.15000057220459
6.62,70.94498443603516,-28.692113876342773,13.330915451049805,246.61102294921875,-130.1669158935547,136.56201171875,-31.650001525878906,0.45000001788139343,9.300000190734863
6.63,72.05589294433594,-26.508602142333984,17.12333106994629,303.2342834472656,-136.69525146484375,132.83154296875,-30.450000762939453,0.15000000596046448,6.750000476837158
6.649,73.58818054199219,-19.19192123413086,18.923770904541016,371.98162841796875,-145.75497436523438,150.2848358154297,-31.80000114440918,0.0,7.950000286102295
6.653,79.71733856201172,-12.90953540802002,21.26051139831543,454.71820068359375,-162.6753387451172,144.2894287109375,-30.450000762939453,-0.45000001788139343,6.300000190734863
6.66,94.08255004882812,-7.508216381072998,26.700138092041016,519.8682861328125,-182.7932586669922,142.69065856933594,-30.450000762939453,-0.45000001788139343,6.300000190734863
6.67,101.78230285644531,-6.473921298980713,26.355371475219727,624.8544921875,-216.10107421875,171.86830139160156,-32.25,-1.8000000715255737,5.100000381469727
6.68,110.47804260253906,-1.072602391242981,24.36339569091797,744.7626342773438,-204.6431884765625,95.79325866699219,-31.05000114440918,-3.0,3.6000001430511475
6.69,116.37735748291016,1.0342950820922852,11.03248119354248,828.83154296875,-145.0888214111328,85.93415069580078,-30.900001525878906,-4.350000381469727,2.25
6.71,111.85710144042969,3.294421434402466,-14.748282432556152,787.2633666992188,-20.117916107177734,89.26493072509766,-30.900001525878906,-3.6000001430511475,2.25
6.713,101.97383880615234,16.05072784423828,-49.60786056518555,496.6860656738281,205.5758056640625,32.5084228515625,-30.450000762939453,-7.050000190734863,1.2000000476837158
6.72,73.0901870727539,15.782577514648438,-34.62973403930664,375.3124084472656,256.86981201171875,14.255742073059082,-30.450000762939453,-7.050000190734863,1.2000000476837158
6.73,63.896453857421875,4.865017890930176,-14.480132102966309,301.6355285644531,244.87901306152344,-79.40581512451172,-30.900001525878906,-8.700000762939453,0.9000000357627869
6.74,54.166419982910156,-1.3407529592514038,2.9496564865112305,283.78253173828125,205.5758056640625,-141.0918731689453,-32.25,-7.200000286102295,3.3000001907348633
6.75,54.472877502441406,1.3024457693099976,5.899312973022461,243.41346740722656,161.87594604492188,-169.4701385498047,-30.30000114440918,-7.650000095367432,2.8500001430511475
6.769,62.32585906982422,-0.38307225704193115,3.064578056335449,221.83001708984375,134.83001708984375,-158.9448699951172,-30.30000114440918,-7.650000095367432,2.8500001430511475
6.773,67.80379486083984,-0.49799394607543945,-1.5322890281677246,223.9617156982422,102.05513000488281,-134.16384887695312,-30.450000762939453,-7.050000190734863,4.5
6.78,70.40868377685547,-9.615114212036133,0.3064578175544739,228.4915771484375,91.66309356689453,-130.83306884765625,-31.05000114440918,-6.450000286102295,4.350000381469727
6.79,71.13652038574219,-11.338939666748047,2.3750481605529785,236.08575439453125,60.35375213623047,-135.0964813232422,-32.400001525878906,-7.050000190734863,4.200000286102295
6.8,71.8643569946289,-9.232041358947754,3.9839515686035156,263.93109130859375,31.44257164001465,-135.0964813232422,-30.900001525878906,-5.850000381469727,5.25
6.81,69.52761840820312,-8.65743350982666,5.937620162963867,276.05511474609375,19.584991455078125,-108.45022583007812,-30.900001525878906,-5.850000381469727,5.25
6.829,69.87238311767578,-9.53849983215332,8.772355079650879,259.5344543457031,15.854516983032227,-109.38284301757812,-30.900001525878906,-5.850000381469727,5.25
6.833,67.68887329101562,-11.60708999633789,9.193734169006348,180.5283203125,18.91883659362793,-120.84072875976562,-30.900001525878906,-4.050000190734863,3.750000238418579
6.84,69.3743896484375,-16.242263793945312,11.798625946044922,124.43797302246094,27.84532928466797,-111.24808502197266,-31.05000114440918,-6.150000095367432,5.400000095367432
6.85,72.13250732421875,-20.072986602783203,10.457873344421387,18.652372360229492,77.94027709960938,-118.57579803466797,-30.750001907348633,-5.400000095367432,4.350000381469727
6.86,78.87458038330078,-23.367408752441406,11.91354751586914,-70.87902069091797,127.36906433105469,-96.05972290039062,-31.200000762939453,-4.800000190734863,4.5
6.87,84.54405212402344,-27.811046600341797,11.453861236572266,-120.97396087646484,155.08116149902344,-103.12097930908203,-31.200000762939453,-4.800000190734863,4.5
6.889,84.50574493408203,-36.16202163696289,13.48414421081543,-110.71515655517578,187.05665588378906,-112.71363067626953,-31.200000762939453,-4.350000381469727,6.300000190734863
6.893,85.76988220214844,-41.98472213745117,16.203956604003906,-73.14395141601562,217.30015563964844,-129.2342987060547,-30.900001525878906,-3.6000001430511475,6.300000190734863
6.9,82.74361419677734,-42.09964370727539,14.67166805267334,-40.23583221435547,228.4915771484375,-120.30780792236328,-31.200000762939453,-4.050000190734863,7.050000190734863
6.91,79.06611633300781,-41.5633430480957,14.824896812438965,19.31852912902832,228.35833740234375,-91.26339721679688,-30.900001525878906,-2.4000000953674316,9.0
6.92,72.09420013427734,-36.77493667602539,14.97812557220459,61.01990509033203,229.4241943359375,-66.08269500732422,-30.30000114440918,-3.0,6.900000095367432
6.93,65.73519897460938,-29.994558334350586,17.889474868774414,104.32006072998047,209.4394989013672,-28.111791610717773,-30.30000114440918,-3.0,6.900000095367432
6.95,62.13432312011719,-22.562957763671875,21.98834800720215,136.56201171875,153.7488555908203,14.92189884185791,-30.000001907348633,-0.75,9.90000057220459
6.953,60.44880294799805,-23.02264404296875,23.9420166015625,188.1225128173828,97.65850067138672,59.4211311340332,-30.30000114440918,-3.450000047683716,10.950000762939453
6.96,59.22297286987305,-25.09123420715332,17.889474868774414,211.5712127685547,89.7978515625,63.684532165527344,-30.750001907348633,-2.700000047683716,10.65000057220459
6.97,59.950809478759766,-22.639572143554688,9.346963882446289,281.91729736328125,73.81010437011719,86.20060729980469,-30.750001907348633,-3.0,10.65000057220459
6.98,64.0879898071289,-17.697938919067383,0.689530074596405,338.27410888671875,61.01990509033203,133.89739990234375,-30.750001907348633,-3.0,10.65000057220459
6.99,71.28974914550781,-14.863204002380371,2.9496564865112305,363.98773193359375,59.287899017333984,117.77641296386719,-31.05000114440918,-2.700000047683716,11.40000057220459
7.009,79.67903137207031,-14.748282432556152,6.3973069190979,355.9938659667969,35.439510345458984,115.51148223876953,-30.30000114440918,-3.0,10.65000057220459
7.013,85.23358154296875,-16.931795120239258,7.508216381072998,299.90350341796875,18.652372360229492,128.83460998535156,-31.05000114440918,-3.750000238418579,10.950000762939453
7.02,87.76185607910156,-11.760318756103516,4.060565948486328,250.74119567871094,14.655436515808105,131.23277282714844,-30.750001907348633,-4.950000286102295,10.950000762939453
7.03,86.1529541015625,-10.72602367401123,5.363011837005615,139.6263427734375,12.390504837036133,110.18223571777344,-31.950000762939453,-5.850000381469727,10.800000190734863
7.04,82.36053466796875,-10.036493301391602,9.576807022094727,38.77029037475586,-17.453292846679688,74.8759536743164,-31.950000762939453,-5.850000381469727,10.800000190734863
