time,accel_x,accel_y,accel_z,gyro_x,gyro_y,gyro_z,mag_x,mag_y,mag_z
0.0,74.6607894897461,-10.457873344421387,-13.21599292755127,-4.396630764007568,-6.5283308029174805,-0.7993874549865723,-33.45000076293945,-20.55000114440918,-24.450000762939453
0.01,77.68705749511719,-0.8427590131759644,-12.7946138381958,-10.125574111938477,-5.462480545043945,-16.520673751831055,-33.45000076293945,-20.55000114440918,-24.450000762939453
0.02,77.8019790649414,-1.0342950820922852,-12.48815631866455,-4.929555892944336,4.263399600982666,-3.197549819946289,-34.20000076293945,-20.25,-24.750001907348633
0.03,77.49552154541016,0.26815059781074524,-11.990161895751953,-3.0643184185028076,3.86370587348938,-0.2664624750614166,-33.900001525878906,-19.80000114440918,-24.450000762939453
0.04,77.22737121582031,-0.8810662031173706,-12.986149787902832,0.9326186776161194,-4.396630764007568,-3.0643184185028076,-33.30000305175781,-20.100000381469727,-25.350000381469727
0.059,76.65276336669922,-1.5322890281677246,-12.105083465576172,0.0,3.3307809829711914,0.1332312375307083,-33.45000076293945,-19.05000114440918,-24.750001907348633
0.063,77.763671875,-2.3750481605529785,-13.062764167785645,-8.926492691040039,4.396630764007568,-6.9280242919921875,-33.45000076293945,-19.05000114440918,-24.750001907348633
0.07,77.57213592529297,-0.8044517636299133,-11.760318756103516,1.4655436277389526,-6.5283308029174805,0.6661561727523804,-34.650001525878906,-19.80000114440918,-23.25
0.08,76.84429931640625,-1.2258312702178955,-13.10107135772705,0.1332312375307083,-2.2649309635162354,3.197549819946289,-33.75,-20.400001525878906,-24.600000381469727
0.09,77.53382873535156,-1.9153614044189453,-12.181697845458984,-8.127105712890625,4.263399600982666,0.7993874549865723,-33.45000076293945,-20.25,-25.200000762939453
0.1,76.30799865722656,-1.455674648284912,-12.48815631866455,3.4640121459960938,-3.0643184185028076,-7.460949420928955,-33.150001525878906,-19.05000114440918,-24.450000762939453
0.12,77.57213592529297,-2.2218191623687744,-12.947842597961426,3.0643184185028076,-4.130168437957764,7.460949420928955,-33.150001525878906,-19.05000114440918,-24.450000762939453
0.123,78.07012939453125,-2.6431987285614014,-12.947842597961426,-0.7993874549865723,-1.9984685182571411,-1.0658499002456665,-34.20000076293945,-19.05000114440918,-25.500001907348633
0.13,77.84028625488281,-2.3367409706115723,-13.330915451049805,-9.192955017089844,7.194486618041992,-7.72741174697876,-32.400001525878906,-19.5,-25.200000762939453
0.14,78.4148941040039,-2.6815059185028076,-12.60307788848877,-3.86370587348938,0.2664624750614166,5.995405673980713,-33.30000305175781,-18.450000762939453,-23.100000381469727
0.15,78.3382797241211,-2.4899697303771973,-12.143390655517578,-0.5329249501228333,0.6661561727523804,-2.398162364959717,-34.20000076293945,-19.05000114440918,-24.750001907348633
0.16,76.80599212646484,-1.2258312702178955,-12.986149787902832,-9.859111785888672,6.395099639892578,-4.396630764007568,-34.20000076293945,-19.05000114440918,-24.750001907348633
0.179,76.88260650634766,-1.5322890281677246,-12.48815631866455,-6.5283308029174805,7.460949420928955,-0.39969372749328613,-33.75,-18.150001525878906,-24.150001525878906
0.183,77.1507568359375,-1.4173674583435059,-12.641385078430176,1.9984685182571411,4.263399600982666,8.660030364990234,-33.900001525878906,-19.5,-23.700000762939453
0.19,77.22737121582031,-1.2258312702178955,-12.181697845458984,2.6646246910095215,0.1332312375307083,-0.39969372749328613,-33.900001525878906,-18.75,-24.0
0.2,77.763671875,-1.5322890281677246,-12.679692268371582,1.5987749099731445,-2.6646246910095215,0.1332312375307083,-34.80000305175781,-19.650001525878906,-24.900001525878906
0.21,77.763671875,-2.3367409706115723,-12.258312225341797,-4.263399600982666,14.388973236083984,-3.197549819946289,-34.80000305175781,-19.650001525878906,-24.900001525878906
0.22,77.7253646850586,-1.9919757843017578,-12.60307788848877,-1.8652373552322388,0.2664624750614166,8.127105712890625,-33.45000076293945,-19.80000114440918,-25.500001907348633
0.239,78.56812286376953,-2.7964274883270264,-12.22000503540039,-8.526799201965332,13.456355094909668,3.0643184185028076,-33.45000076293945,-20.55000114440918,-23.25
0.243,78.60643005371094,-2.030282974243164,-10.764330863952637,-8.926492691040039,8.526799201965332,-7.327718257904053,-33.45000076293945,-19.5,-25.200000762939453
0.25,77.53382873535156,-2.451662540435791,-12.871228218078613,-6.794793128967285,3.4640121459960938,7.594180583953857,-35.400001525878906,-19.5,-25.200000762939453
0.26,77.03583526611328,-2.719813108444214,-12.02846908569336,-6.9280242919921875,-6.128636837005615,3.9969370365142822,-35.400001525878906,-19.5,-25.200000762939453
0.27,78.14674377441406,-2.0685901641845703,-12.7946138381958,-12.390504837036133,6.794793128967285,2.797856092453003,-33.150001525878906,-19.05000114440918,-25.200000762939453
0.28,78.10843658447266,-2.1068975925445557,-12.48815631866455,-11.591117858886719,9.992342948913574,0.6661561727523804,-32.400001525878906,-20.25,-25.200000762939453
0.299,76.84429931640625,-1.5322890281677246,-12.526463508605957,-3.0643184185028076,5.196018218994141,6.261868000030518,-34.650001525878906,-17.850000381469727,-24.0
0.304,78.83627319335938,-0.8427590131759644,-12.373234748840332,-3.7304747104644775,1.9984685182571411,14.522205352783203,-33.75,-20.400001525878906,-24.600000381469727
0.31,77.95520782470703,-2.9496564865112305,-12.373234748840332,-13.58958625793457,5.995405673980713,8.526799201965332,-33.75,-20.400001525878906,-24.600000381469727
0.32,78.26166534423828,-1.8387469053268433,-12.334927558898926,-3.86370587348938,-1.4655436277389526,8.526799201965332,-34.05000305175781,-20.400001525878906,-23.850000381469727
0.33,78.3382797241211,-1.9919757843017578,-12.7946138381958,-2.398162364959717,0.2664624750614166,19.052066802978516,-33.150001525878906,-19.80000114440918,-23.700000762939453
0.34,78.07012939453125,-3.7924153804779053,-12.717999458312988,-11.591117858886719,5.8621745109558105,12.25727367401123,-33.0,-19.650001525878906,-24.600000381469727
0.36,77.41890716552734,-3.4093432426452637,-13.407529830932617,-16.387441635131836,6.9280242919921875,9.192955017089844,-33.0,-19.650001525878906,-24.150001525878906
0.363,78.18505096435547,-3.2561142444610596,-12.60307788848877,-21.84992218017578,9.992342948913574,13.722817420959473,-33.0,-19.650001525878906,-24.150001525878906
0.37,78.29997253417969,-2.3367409706115723,-12.832921028137207,-22.116384506225586,6.128636837005615,15.055130004882812,-34.20000076293945,-19.5,-24.450000762939453
0.38,78.56812286376953,-1.8770540952682495,-12.717999458312988,-28.24502182006836,7.327718257904053,13.58958625793457,-32.55000305175781,-20.100000381469727,-25.650001525878906
0.39,77.45721435546875,-1.647210717201233,-13.407529830932617,-22.649311065673828,7.194486618041992,29.444103240966797,-34.20000076293945,-19.05000114440918,-24.750001907348633
0.4,78.03182220458984,-1.7621324062347412,-14.173673629760742,-23.315465927124023,19.45176124572754,27.978559494018555,-33.30000305175781,-20.100000381469727,-23.850000381469727
0.421,78.52981567382812,-1.8770540952682495,-15.361198425292969,-21.050535202026367,15.987748146057129,25.447166442871094,-33.30000305175781,-20.100000381469727,-23.850000381469727
0.424,79.06611633300781,-1.5705963373184204,-14.901511192321777,-23.315465927124023,15.854516983032227,29.977027893066406,-34.650001525878906,-20.25,-24.450000762939453
0.43,79.18103790283203,-0.8810662031173706,-15.705963134765625,-19.718223571777344,17.852985382080078,28.24502182006836,-34.650001525878906,-20.25,-24.450000762939453
0.44,79.87056732177734,-1.2641384601593018,-16.203956604003906,-16.520673751831055,15.721285820007324,32.24195861816406,-34.5,-21.600000381469727,-23.850000381469727
0.45,81.17301177978516,-3.5242648124694824,-14.824896812438965,-23.715160369873047,13.323123931884766,33.70750427246094,-34.20000076293945,-21.0,-24.0
0.46,80.90486145019531,-4.9799394607543945,-15.093047142028809,-22.382848739624023,4.130168437957764,40.102603912353516,-34.20000076293945,-21.0,-24.0
0.48,80.44517517089844,-4.711789131164551,-15.437812805175781,-23.581928253173828,8.526799201965332,42.500762939453125,-35.400001525878906,-21.450000762939453,-23.700000762939453
0.483,79.48749542236328,-5.20978307723999,-16.433799743652344,-28.24502182006836,10.258805274963379,44.09954071044922,-33.30000305175781,-20.400001525878906,-22.80000114440918
0.49,78.14674377441406,-4.711789131164551,-16.395492553710938,-34.64012145996094,19.052066802978516,39.9693717956543,-33.30000305175781,-20.400001525878906,-22.80000114440918
0.5,77.07414245605469,-3.332728862762451,-16.625335693359375,-29.31087303161621,8.260336875915527,49.96171569824219,-34.05000305175781,-18.900001525878906,-24.150001525878906
0.51,77.49552154541016,-2.0685901641845703,-15.207969665527344,-28.644716262817383,14.92189884185791,42.633995056152344,-34.05000305175781,-18.900001525878906,-24.150001525878906
0.52,75.81000518798828,0.8810662031173706,-17.238252639770508,-26.912710189819336,13.58958625793457,36.63859176635742,-34.05000305175781,-22.350000381469727,-24.600000381469727
0.54,75.31201171875,0.7661445140838623,-17.276559829711914,-14.255742073059082,9.72588062286377,49.16232681274414,-33.45000076293945,-22.200000762939453,-24.0
0.543,74.39263153076172,0.5746083855628967,-17.1999454498291,0.0,3.0643184185028076,50.4946403503418,-34.5,-19.650001525878906,-22.80000114440918
0.55,75.8866195678711,0.07661445438861847,-16.35718536376953,-9.72588062286377,14.788667678833008,39.569679260253906,-34.5,-19.650001525878906,-22.80000114440918
0.56,75.38862609863281,-1.647210717201233,-17.161638259887695,-5.196018218994141,8.793261528015137,37.97090148925781,-34.5,-19.650001525878906,-22.80000114440918
0.57,76.00154113769531,-2.3367409706115723,-15.744270324707031,7.594180583953857,8.926492691040039,44.89892578125,-32.70000076293945,-21.450000762939453,-23.700000762939453
0.58,76.34630584716797,-2.873042106628418,-16.855180740356445,-11.191424369812012,9.192955017089844,80.07197570800781,-32.25,-21.900001525878906,-24.600000381469727
0.6,75.69508361816406,-1.5322890281677246,-15.629348754882812,-8.926492691040039,12.656967163085938,32.77488327026367,-34.05000305175781,-21.150001525878906,-23.850000381469727
0.604,75.69508361816406,-1.800439715385437,-15.705963134765625,-1.9984685182571411,12.25727367401123,25.7136287689209,-34.05000305175781,-21.150001525878906,-23.850000381469727
0.61,73.89463806152344,-0.689530074596405,-16.35718536376953,4.796324729919434,13.856048583984375,20.650842666625977,-34.05000305175781,-21.150001525878906,-23.850000381469727
0.62,73.24341583251953,0.07661445438861847,-15.591041564941406,11.990811347961426,13.722817420959473,23.848390579223633,-33.45000076293945,-22.5,-23.25
0.63,73.54987335205078,-0.7661445140838623,-15.24627685546875,15.987748146057129,14.388973236083984,21.316997528076172,-33.0,-21.900001525878906,-23.850000381469727
0.64,73.0518798828125,1.0342950820922852,-16.66364288330078,31.309341430664062,7.9938740730285645,35.839202880859375,-34.20000076293945,-22.950000762939453,-22.200000762939453
0.659,73.39664459228516,0.3447650372982025,-15.361198425292969,40.23583221435547,12.790199279785156,33.57427215576172,-34.20000076293945,-22.950000762939453,-22.200000762939453
0.663,73.6264877319336,-0.4596867263317108,-14.709975242614746,53.69218826293945,8.260336875915527,23.98162269592285,-33.0,-23.100000381469727,-23.100000381469727
0.67,71.97927856445312,-0.038307227194309235,-14.09705924987793,58.355281829833984,5.595712184906006,32.37519073486328,-33.0,-23.100000381469727,-23.100000381469727
0.68,70.98329162597656,1.0342950820922852,-13.48414421081543,55.4241943359375,13.056661605834961,23.448698043823242,-34.80000305175781,-24.30000114440918,-22.350000381469727
0.69,70.17884063720703,0.0,-12.181697845458984,61.552833557128906,17.053598403930664,-4.796324729919434,-33.150001525878906,-24.450000762939453,-24.0
0.7,70.29376220703125,0.7661445140838623,-12.02846908569336,70.3460922241211,16.12097930908203,6.128636837005615,-33.150001525878906,-24.450000762939453,-24.0
0.719,68.56993865966797,1.9153614044189453,-11.530475616455078,74.60948944091797,16.12097930908203,27.84532928466797,-33.150001525878906,-24.450000762939453,-24.0
0.723,70.52360534667969,2.451662540435791,-9.461885452270508,77.94027709960938,8.660030364990234,21.316997528076172,-33.0,-23.100000381469727,-22.350000381469727
0.73,71.8260498046875,2.3367409706115723,-9.27034854888916,79.80551147460938,22.116384506225586,18.91883659362793,-33.0,-23.100000381469727,-22.350000381469727
0.74,73.89463806152344,2.75812029838562,-8.274360656738281,91.79632568359375,14.255742073059082,0.39969372749328613,-33.30000305175781,-23.850000381469727,-22.05000114440918
0.75,75.77169799804688,1.6855180263519287,-6.129156112670898,87.9326171875,10.392036437988281,-2.797856092453003,-33.30000305175781,-23.850000381469727,-22.05000114440918
0.76,78.83627319335938,1.723825216293335,-6.665457725524902,90.4640121459961,22.915773391723633,-12.923430442810059,-34.650001525878906,-24.450000762939453,-22.950000762939453
0.781,82.20730590820312,0.038307227194309235,-5.4013190269470215,101.78866577148438,29.444103240966797,-17.586523056030273,-34.80000305175781,-24.750001907348633,-22.05000114440918
0.785,84.9271240234375,-1.5322890281677246,-3.2561142444610596,97.92495727539062,22.649311065673828,-36.10566711425781,-33.30000305175781,-25.500001907348633,-22.80000114440918
0.79,88.91107177734375,0.5746083855628967,-5.975927352905273,101.9218978881836,21.84992218017578,-57.822357177734375,-33.30000305175781,-25.500001907348633,-22.80000114440918
0.8,88.06831359863281,0.6129156351089478,-5.1331682205200195,108.050537109375,23.04900360107422,-45.298622131347656,-33.30000305175781,-25.500001907348633,-22.80000114440918
0.81,88.75784301757812,3.2561142444610596,-8.734047889709473,106.31852722167969,13.189892768859863,-39.03675079345703,-34.5,-26.250001907348633,-21.30000114440918
0.82,88.6429214477539,4.63517427444458,-11.070788383483887,106.85145568847656,12.923430442810059,-57.955589294433594,-33.75,-25.500001907348633,-19.80000114440918
0.839,88.18323516845703,7.086836814880371,-11.91354751586914,106.98468017578125,17.453292846679688,-57.289432525634766,-33.75,-24.750001907348633,-19.80000114440918
0.843,87.64693450927734,5.439626216888428,-12.717999458312988,109.38284301757812,13.989279747009277,-65.68299865722656,-33.75,-24.750001907348633,-19.80000114440918
0.85,86.88079071044922,5.784391403198242,-10.84094524383545,129.90045166015625,3.197549819946289,-40.102603912353516,-34.650001525878906,-26.100000381469727,-21.75
0.86,85.15696716308594,4.750096321105957,-10.074800491333008,135.76263427734375,-2.131699800491333,-48.8958625793457,-34.05000305175781,-24.750001907348633,-19.5
0.87,83.47145080566406,3.294421434402466,-8.274360656738281,130.96630859375,-2.2649309635162354,-55.29096221923828,-34.20000076293945,-26.400001525878906,-21.450000762939453
0.88,82.78192138671875,2.604891538619995,-6.129156112670898,134.43031311035156,-24.781009674072266,-63.418067932128906,-33.75,-26.55000114440918,-20.55000114440918
0.9,81.59439086914062,0.2298433631658554,-5.439626216888428,123.2388916015625,-34.50688934326172,-65.949462890625,-33.75,-26.55000114440918,-20.55000114440918
0.904,78.989501953125,0.4596867263317108,-4.405331134796143,116.9770278930664,-44.23276901245117,-69.4134750366211,-33.75,-25.05000114440918,-18.75
0.91,76.537841796875,0.727837324142456,-4.290409564971924,104.5865249633789,-45.96477508544922,-83.26952362060547,-34.650001525878906,-26.100000381469727,-19.650001525878906
0.92,74.77571105957031,1.800439715385437,-4.941632270812988,103.25421142578125,-58.08882141113281,-81.13782501220703,-35.55000305175781,-26.250001907348633,-20.55000114440918
0.93,74.62248229980469,3.485957622528076,-4.520252704620361,97.39203643798828,-63.151607513427734,-83.13629150390625,-34.80000305175781,-24.30000114440918,-19.05000114440918
0.94,74.20109558105469,4.711789131164551,-5.822698593139648,94.72740936279297,-54.62480926513672,-96.45941925048828,-34.80000305175781,-24.30000114440918,-19.05000114440918
0.959,74.16278839111328,6.244078159332275,-4.941632270812988,92.86217498779297,-61.81929397583008,-109.38284301757812,-33.900001525878906,-25.650001525878906,-20.700000762939453
0.962,75.00555419921875,9.730035781860352,-5.5545477867126465,99.3905029296875,-64.48391723632812,-122.57273864746094,-34.20000076293945,-24.150001525878906,-21.450000762939453
0.97,75.3503189086914,9.921571731567383,-4.903325080871582,105.11944580078125,-71.2787094116211,-123.50535583496094,-35.25,-23.850000381469727,-20.55000114440918
0.98,75.04386138916016,9.998186111450195,-5.477933406829834,101.9218978881836,-71.2787094116211,-127.90198516845703,-33.75,-24.750001907348633,-21.30000114440918
0.99,76.4995346069336,9.653421401977539,-6.129156112670898,111.5145492553711,-79.53904724121094,-136.4287872314453,-33.75,-24.750001907348633,-21.30000114440918
1.0,75.9632339477539,9.002198219299316,-7.201758861541748,105.11944580078125,-69.54670715332031,-139.7595672607422,-34.05000305175781,-25.80000114440918,-20.850000381469727
1.02,75.46524047851562,7.240066051483154,-7.661445617675781,110.18223571777344,-72.87748718261719,-143.4900360107422,-36.150001525878906,-22.200000762939453,-20.700000762939453
1.023,76.46122741699219,4.941632270812988,-7.240066051483154,108.983154296875,-82.7365951538086,-150.01837158203125,-36.150001525878906,-22.200000762939453,-20.700000762939453
1.03,77.49552154541016,3.754108190536499,-8.925583839416504,104.45329284667969,-80.8713607788086,-155.08116149902344,-34.05000305175781,-23.55000114440918,-21.600000381469727
1.04,77.26567840576172,3.1028854846954346,-8.772355079650879,88.19908142089844,-77.00765228271484,-164.94027709960938,-34.05000305175781,-23.55000114440918,-21.600000381469727
1.05,77.22737121582031,1.723825216293335,-9.232041358947754,75.14241790771484,-76.20826721191406,-170.13629150390625,-34.05000305175781,-22.80000114440918,-22.80000114440918
1.06,77.1507568359375,3.5242648124694824,-10.572794914245605,75.67534637451172,-83.80245208740234,-156.01377868652344,-34.20000076293945,-21.75,-23.25
1.079,76.00154113769531,4.941632270812988,-11.530475616455078,61.68606185913086,-83.26952362060547,-166.00611877441406,-34.05000305175781,-22.350000381469727,-22.05000114440918
1.082,74.81401824951172,8.236053466796875,-12.411541938781738,53.82542037963867,-77.27411651611328,-166.53904724121094,-34.20000076293945,-21.75,-23.700000762939453
1.09,74.85232543945312,9.576807022094727,-12.29662036895752,40.36906433105469,-69.67993927001953,-165.2067413330078,-34.20000076293945,-21.75,-23.700000762939453
1.1,74.89063262939453,10.41956615447998,-12.373234748840332,30.509952545166016,-69.28024291992188,-170.4027557373047,-34.20000076293945,-21.0,-23.700000762939453
1.11,74.81401824951172,12.871228218078613,-13.139378547668457,25.980091094970703,-74.07656860351562,-164.80703735351562,-34.95000076293945,-20.55000114440918,-23.25
1.12,74.92893981933594,15.437812805175781,-14.633360862731934,17.852985382080078,-70.21286010742188,-156.14700317382812,-33.150001525878906,-19.5,-23.700000762939453
1.139,75.46524047851562,17.62132453918457,-14.786589622497559,13.189892768859863,-58.4885139465332,-146.28790283203125,-33.45000076293945,-19.5,-23.700000762939453
1.143,76.23138427734375,19.230228424072266,-16.740259170532227,10.258805274963379,-62.085758209228516,-138.2940216064453,-33.45000076293945,-19.5,-23.700000762939453
1.15,74.54586791992188,19.49837875366211,-15.897499084472656,9.192955017089844,-61.68606185913086,-141.0918731689453,-33.75,-18.900001525878906,-25.350000381469727
1.163,75.3503189086914,21.183897018432617,-18.272546768188477,6.128636837005615,-64.75038146972656,-119.10872650146484,-32.55000305175781,-17.400001525878906,-26.400001525878906
1.17,74.77571105957031,21.030668258666992,-18.387468338012695,-2.131699800491333,-53.82542037963867,-126.43644714355469,-34.650001525878906,-17.55000114440918,-24.450000762939453
1.18,75.08216857910156,21.0689754486084,-18.77054214477539,3.86370587348938,-56.889739990234375,-116.9770278930664,-33.0,-16.200000762939453,-25.650001525878906
1.19,74.6607894897461,24.095245361328125,-18.808849334716797,-5.196018218994141,-47.9632453918457,-107.25114440917969,-33.0,-16.200000762939453,-25.650001525878906
1.2,75.3503189086914,25.81907081604004,-18.23423957824707,-11.058192253112793,-44.49923324584961,-107.91730499267578,-34.05000305175781,-16.5,-26.100000381469727
1.219,76.30799865722656,26.66183090209961,-18.579004287719727,-12.390504837036133,-55.82388687133789,-90.4640121459961,-32.55000305175781,-16.5,-26.850000381469727
1.223,78.29997253417969,29.611486434936523,-19.306842803955078,-11.324655532836914,-44.76569747924805,-76.4747314453125,-32.400001525878906,-15.90000057220459,-25.500001907348633
1.23,78.56812286376953,30.0711727142334,-19.000385284423828,-16.65390396118164,-40.76875686645508,-74.74272155761719,-34.05000305175781,-15.000000953674316,-26.400001525878906
1.24,79.37257385253906,31.335311889648438,-19.421764373779297,-7.06125545501709,-34.64012145996094,-66.48238372802734,-34.05000305175781,-15.000000953674316,-26.400001525878906
1.25,84.73558807373047,32.178070068359375,-22.141576766967773,-13.58958625793457,-16.520673751831055,-60.88667678833008,-32.70000076293945,-15.15000057220459,-27.000001907348633
1.26,90.40505981445312,32.676063537597656,-24.938005447387695,-25.18070411682129,-3.3307809829711914,-51.82695007324219,-31.650001525878906,-12.450000762939453,-27.30000114440918
1.278,92.43534088134766,34.55311965942383,-28.07919692993164,-21.716691970825195,8.260336875915527,-27.31240463256836,-32.70000076293945,-13.65000057220459,-27.000001907348633
1.283,86.84248352050781,38.03907775878906,-31.028854370117188,-17.32006072998047,26.779478073120117,9.459418296813965,-32.55000305175781,-13.800000190734863,-27.450000762939453
1.29,80.36856079101562,41.10365295410156,-28.998571395874023,-9.459418296813965,42.23430252075195,26.513015747070312,-32.55000305175781,-13.800000190734863,-27.450000762939453
1.3,77.03583526611328,40.91211700439453,-26.048913955688477,24.914241790771484,36.238895416259766,52.626338958740234,-32.55000305175781,-14.250000953674316,-27.150001525878906
1.31,75.2737045288086,37.84754180908203,-23.788787841796875,50.89433288574219,41.967838287353516,69.4134750366211,-33.0,-12.300000190734863,-26.850000381469727
1.32,75.84831237792969,34.09343338012695,-20.532672882080078,65.68299865722656,41.701377868652344,68.74732208251953,-33.150001525878906,-15.15000057220459,-25.80000114440918
1.34,78.4148941040039,28.462270736694336,-17.238252639770508,78.20673370361328,31.842266082763672,70.74578857421875,-33.30000305175781,-14.550000190734863,-25.650001525878906
1.343,81.4794692993164,18.617311477661133,-13.369222640991211,79.53904724121094,12.790199279785156,80.20520782470703,-33.30000305175781,-14.550000190734863,-25.650001525878906
1.35,83.47145080566406,6.358999729156494,-10.342951774597168,64.61714935302734,11.191424369812012,80.20520782470703,-33.75,-14.250000953674316,-26.400001525878906
1.36,82.59038543701172,-0.9959878921508789,-10.879252433776855,37.83767318725586,12.923430442810059,71.81163787841797,-33.75,-18.150001525878906,-26.100000381469727
1.37,80.52178955078125,-8.887276649475098,-14.211980819702148,0.9326186776161194,15.055130004882812,67.5482406616211,-34.05000305175781,-16.5,-26.100000381469727
1.38,77.57213592529297,-12.449849128723145,-15.782577514648438,-29.444103240966797,7.194486618041992,81.53751373291016,-33.150001525878906,-16.80000114440918,-27.000001907348633
1.399,74.92893981933594,-13.254301071166992,-16.35718536376953,-65.41653442382812,11.857580184936523,76.07503509521484,-33.150001525878906,-16.80000114440918,-27.000001907348633
1.404,70.10222625732422,-12.449849128723145,-13.637372970581055,-104.85298156738281,10.392036437988281,87.13323211669922,-35.400001525878906,-17.850000381469727,-25.80000114440918
1.41,64.31783294677734,-7.508216381072998,-10.266336441040039,-116.9770278930664,8.260336875915527,92.3292465209961,-35.400001525878906,-17.850000381469727,-25.80000114440918
1.42,63.20692443847656,-6.627150535583496,-10.687716484069824,-120.04134368896484,10.92496109008789,99.79019927978516,-33.30000305175781,-17.400001525878906,-25.650001525878906
1.43,61.06172180175781,-2.719813108444214,-10.572794914245605,-131.63246154785156,24.381317138671875,94.59417724609375,-32.400001525878906,-17.850000381469727,-25.500001907348633
1.44,59.452816009521484,-2.719813108444214,-10.764330863952637,-122.03981018066406,29.444103240966797,92.06278228759766,-32.400001525878906,-17.850000381469727,-25.500001907348633
1.46,60.563724517822266,-4.558559894561768,-12.181697845458984,-104.85298156738281,33.70750427246094,109.51607513427734,-33.0,-15.750000953674316,-27.150001525878906
1.464,63.168617248535156,-5.937620162963867,-13.905523300170898,-94.86064147949219,44.76569747924805,105.5191421508789,-34.05000305175781,-18.150001525878906,-27.900001525878906
1.47,68.49332427978516,-10.342951774597168,-15.552734375,-89.26493072509766,63.018375396728516,108.050537109375,-34.05000305175781,-18.150001525878906,-27.900001525878906
1.48,72.36235046386719,-10.879252433776855,-16.395492553710938,-89.39816284179688,58.355281829833984,112.98008728027344,-34.95000076293945,-17.55000114440918,-27.000001907348633
1.49,77.91690063476562,-13.943830490112305,-14.901511192321777,-95.26033782958984,57.289432525634766,114.3124008178711,-34.95000076293945,-17.55000114440918,-27.000001907348633
1.6,77.68705749511719,10.381258964538574,-16.510414123535156,-208.10719299316406,28.111791610717773,103.12097930908203,-35.400001525878906,-17.100000381469727,-25.80000114440918
1.61,73.74140930175781,12.832921028137207,-16.510414123535156,-186.92343139648438,36.5053596496582,168.27105712890625,-35.25,-17.400001525878906,-24.150001525878906
1.62,73.43495178222656,13.21599292755127,-16.778566360473633,-153.61561584472656,20.650842666625977,189.32159423828125,-34.95000076293945,-17.100000381469727,-25.200000762939453
1.639,71.213134765625,12.258312225341797,-17.085023880004883,-128.83460998535156,27.045940399169922,202.11178588867188,-35.25,-18.150001525878906,-26.100000381469727
1.643,70.86837005615234,8.236053466796875,-15.667655944824219,-110.44869232177734,31.309341430664062,195.050537109375,-33.75,-16.950000762939453,-23.55000114440918
1.65,70.33206939697266,3.7924153804779053,-15.016432762145996,-106.05206298828125,24.64777946472168,190.25421142578125,-33.75,-16.950000762939453,-23.55000114440918
1.66,70.71514129638672,-0.26815059781074524,-15.093047142028809,-98.32465362548828,25.7136287689209,189.5880584716797,-34.80000305175781,-18.900001525878906,-23.55000114440918
1.67,70.6002197265625,-4.290409564971924,-13.828908920288086,-110.04900360107422,32.24195861816406,201.9785614013672,-35.400001525878906,-18.30000114440918,-24.0
1.68,71.40467071533203,-8.236053466796875,-15.093047142028809,-114.57886505126953,30.24349021911621,158.4119415283203,-33.900001525878906,-19.80000114440918,-24.0
1.7,71.63451385498047,-10.342951774597168,-15.744270324707031,-123.2388916015625,31.44257164001465,161.7427215576172,-33.900001525878906,-19.80000114440918,-24.0
1.8,73.47325897216797,4.098873138427734,-19.038692474365234,-40.23583221435547,36.905052185058594,118.04287719726562,-34.95000076293945,-22.200000762939453,-24.0
1.82,74.50755310058594,0.4213795065879822,-16.58702850341797,-30.24349021911621,42.36753463745117,123.10566711425781,-35.70000076293945,-22.5,-22.950000762939453
1.823,75.08216857910156,-2.298433542251587,-15.782577514648438,-23.98162269592285,28.911178588867188,122.57273864746094,-36.30000305175781,-23.100000381469727,-24.150001525878906
1.83,76.537841796875,-6.052541732788086,-15.361198425292969,-20.650842666625977,19.052066802978516,116.17764282226562,-36.30000305175781,-23.100000381469727,-24.150001525878906
1.84,77.1507568359375,-6.89530086517334,-15.093047142028809,-26.246553421020508,28.77794647216797,101.9218978881836,-35.70000076293945,-23.25,-23.700000762939453
1.85,77.07414245605469,-6.856993675231934,-16.05072784423828,-21.45022964477539,33.70750427246094,92.19601440429688,-36.150001525878906,-24.900001525878906,-23.25
1.86,77.57213592529297,-6.320692539215088,-18.34916114807129,-16.12097930908203,31.309341430664062,87.26646423339844,-34.5,-24.30000114440918,-23.100000381469727
1.879,77.45721435546875,-4.941632270812988,-19.153614044189453,-10.125574111938477,25.447166442871094,79.9387435913086,-34.5,-24.30000114440918,-23.100000381469727
1.882,79.29595947265625,-5.784391403198242,-19.000385284423828,-8.127105712890625,34.373661041259766,59.95405578613281,-34.5,-24.30000114440918,-23.100000381469727
1.89,82.0157699584961,-6.435614109039307,-19.115306854248047,-1.0658499002456665,34.24042892456055,61.01990509033203,-35.70000076293945,-24.900001525878906,-22.5
1.9,81.21131896972656,-5.286397457122803,-18.732234954833984,4.929555892944336,27.71209716796875,48.76263427734375,-34.95000076293945,-25.200000762939453,-22.950000762939453
1.91,81.82423400878906,-3.6774938106536865,-18.4257755279541,11.990811347961426,30.643184661865234,41.30168533325195,-35.55000305175781,-23.850000381469727,-23.850000381469727
1.92,82.74361419677734,-2.298433542251587,-16.127342224121094,14.522205352783203,30.643184661865234,17.053598403930664,-35.55000305175781,-23.850000381469727,-23.850000381469727
1.939,85.27188873291016,-2.183511972427368,-12.526463508605957,30.776416778564453,23.581928253173828,16.520673751831055,-35.25,-24.750001907348633,-21.600000381469727
1.943,90.17520904541016,-6.512228488922119,-4.32871675491333,59.55436325073242,2.6646246910095215,4.796324729919434,-34.20000076293945,-24.900001525878906,-21.75
1.95,91.55427551269531,-7.661445617675781,-3.2178070545196533,73.0107192993164,-2.398162364959717,-8.127105712890625,-36.0,-25.80000114440918,-22.80000114440918
1.96,90.71151733398438,-11.492168426513672,-2.4133553504943848,86.20060729980469,-5.8621745109558105,-40.9019889831543,-34.5,-26.55000114440918,-23.55000114440918
1.97,88.71953582763672,-15.935806274414062,-6.818686485290527,94.9938735961914,-7.9938740730285645,-57.15620040893555,-34.5,-26.55000114440918,-23.55000114440918
1.98,86.765869140625,-18.272546768188477,-11.683704376220703,96.32618713378906,-10.392036437988281,-72.34455871582031,-34.5,-24.30000114440918,-22.350000381469727
1.999,86.65094757080078,-18.693927764892578,-13.828908920288086,90.86370086669922,5.8621745109558105,-85.26799011230469,-34.95000076293945,-26.100000381469727,-21.75
2.004,87.76185607910156,-20.187908172607422,-13.48414421081543,94.0612564086914,3.0643184185028076,-90.73047637939453,-36.0,-26.250001907348633,-23.100000381469727
2.01,90.86474609375,-23.060951232910156,-11.836933135986328,89.7978515625,5.329249382019043,-103.38744354248047,-36.30000305175781,-24.30000114440918,-23.100000381469727
2.02,90.59659576416016,-23.52063751220703,-10.611102104187012,98.32465362548828,5.462480545043945,-101.38896942138672,-36.30000305175781,-24.30000114440918,-23.100000381469727
2.03,91.93734741210938,-23.290794372558594,-7.967903137207031,97.12557220458984,7.06125545501709,-128.56814575195312,-35.400001525878906,-24.450000762939453,-22.200000762939453
2.04,93.12487030029297,-19.115306854248047,-8.274360656738281,109.64930725097656,-5.728943347930908,-141.75804138183594,-36.0,-25.05000114440918,-23.55000114440918
2.059,90.32844543457031,-15.667655944824219,-6.090848922729492,130.56661987304688,-15.45482349395752,-144.55589294433594,-36.900001525878906,-24.900001525878906,-23.700000762939453
2.063,85.5017318725586,-4.9799394607543945,-2.719813108444214,150.6845245361328,-25.580398559570312,-148.95252990722656,-36.45000076293945,-23.700000762939453,-22.950000762939453
2.07,84.314208984375,-3.907337188720703,-2.5665841102600098,162.5421142578125,-42.90045928955078,-148.0198974609375,-36.45000076293945,-23.700000762939453,-22.950000762939453
2.08,80.71332550048828,-3.3710360527038574,-2.873042106628418,184.5252685546875,-57.422664642333984,-133.23123168945312,-35.55000305175781,-24.750001907348633,-23.100000381469727
2.09,77.34229278564453,-1.1492167711257935,-3.44765043258667,206.37518310546875,-62.485450744628906,-118.97549438476562,-35.55000305175781,-23.55000114440918,-22.80000114440918
2.1,73.39664459228516,-1.5322890281677246,-1.647210717201233,221.29708862304688,-73.27718353271484,-101.38896942138672,-36.150001525878906,-23.25,-21.75
2.115,70.14053344726562,-4.443638324737549,-0.49799394607543945,247.67686462402344,-79.67227935791016,-100.58958435058594,-36.150001525878906,-24.150001525878906,-22.950000762939453
2.12,70.10222625732422,-9.84495735168457,2.719813108444214,253.93873596191406,-81.67074584960938,-113.11331939697266,-36.150001525878906,-24.150001525878906,-22.950000762939453
2.13,70.48529815673828,-11.1474027633667,4.8267107009887695,262.1990661621094,-86.46707153320312,-120.04134368896484,-35.25,-25.500001907348633,-23.55000114440918
2.14,72.55388641357422,-15.169661521911621,8.772355079650879,268.4609375,-111.38131713867188,-125.23736572265625,-34.05000305175781,-25.05000114440918,-22.350000381469727
2.15,76.34630584716797,-18.693927764892578,12.90953540802002,279.9188232421875,-134.03062438964844,-146.0214385986328,-36.45000076293945,-22.950000762939453,-24.0
2.16,80.36856079101562,-22.7161865234375,15.361198425292969,267.39508056640625,-139.6263427734375,-151.48391723632812,-34.05000305175781,-23.850000381469727,-22.80000114440918
2.179,82.0540771484375,-26.087221145629883,13.254301071166992,224.8943328857422,-153.48239135742188,-178.79632568359375,-35.25,-22.80000114440918,-23.850000381469727
2.182,79.87056732177734,-34.62973403930664,6.703764915466309,215.16844177246094,-155.747314453125,-188.2557373046875,-35.25,-22.80000114440918,-23.850000381469727
2.19,78.989501953125,-34.55311965942383,4.290409564971924,195.45022583007812,-150.01837158203125,-204.11026000976562,-34.5,-24.30000114440918,-24.600000381469727
2.409,60.52541732788086,-6.856993675231934,-9.730035781860352,-16.520673751831055,-90.86370086669922,-137.3614044189453,-30.30000114440918,-18.900001525878906,-31.200000762939453
2.413,58.226985931396484,-7.4316020011901855,-11.530475616455078,-33.30780792236328,-67.814697265625,-150.01837158203125,-29.250001907348633,-16.200000762939453,-33.0
2.42,56.311622619628906,-5.286397457122803,-10.955866813659668,-37.70444107055664,-55.29096221923828,-149.48544311523438,-29.250001907348633,-16.200000762939453,-33.0
2.43,54.089805603027344,-4.405331134796143,-11.990161895751953,-39.43644714355469,-52.493106842041016,-164.00765991210938,-29.400001525878906,-15.600000381469727,-31.350000381469727
2.44,54.20472717285156,-4.481945514678955,-11.492168426513672,-53.82542037963867,-42.633995056152344,-137.8943328857422,-29.700000762939453,-16.350000381469727,-31.350000381469727
2.45,54.05149841308594,-2.604891538619995,-10.074800491333008,-65.68299865722656,-35.839202880859375,-157.612548828125,-28.950000762939453,-14.100000381469727,-33.30000305175781
2.468,55.89024353027344,1.1492167711257935,-9.308655738830566,-72.61102294921875,-28.24502182006836,-160.2771759033203,-27.900001525878906,-15.15000057220459,-31.80000114440918
2.472,57.46084213256836,2.4899697303771973,-9.806650161743164,-88.59877014160156,-41.168453216552734,-149.7519073486328,-28.950000762939453,-13.65000057220459,-33.60000228881836
2.48,55.89024353027344,7.240066051483154,-9.500192642211914,-102.58805084228516,-44.09954071044922,-148.95252990722656,-28.950000762939453,-13.65000057220459,-33.60000228881836
2.49,55.77532196044922,11.951854705810547,-9.117119789123535,-108.71669006347656,-41.83460998535156,-141.22511291503906,-28.500001907348633,-13.500000953674316,-32.70000076293945
2.5,55.200714111328125,16.510414123535156,-12.717999458312988,-104.7197494506836,-47.830013275146484,-125.10413360595703,-29.250001907348633,-11.550000190734863,-32.70000076293945
2.51,54.702720642089844,18.732234954833984,-15.016432762145996,-107.91730499267578,-43.03369140625,-113.77947998046875,-29.400001525878906,-12.15000057220459,-34.650001525878906
2.53,57.34592056274414,21.950040817260742,-16.81687355041504,-113.64624786376953,-31.042879104614258,-108.45022583007812,-29.400001525878906,-12.15000057220459,-34.650001525878906
2.533,58.9165153503418,23.597251892089844,-16.855180740356445,-96.19295501708984,-28.511484146118164,-98.4578857421875,-30.150001525878906,-10.5,-33.60000228881836
2.54,61.17664337158203,26.623523712158203,-17.00840950012207,-93.92802429199219,-27.84532928466797,-105.5191421508789,-30.150001525878906,-10.5,-33.60000228881836
2.55,60.64033889770508,27.58120346069336,-17.966089248657227,-82.7365951538086,-23.848390579223633,-91.3966293334961,-29.250001907348633,-8.100000381469727,-33.75
2.56,60.1806526184082,30.0711727142334,-19.919757843017578,-72.34455871582031,-16.65390396118164,-84.73506927490234,-27.450000762939453,-8.700000762939453,-36.60000228881836
2.57,58.3419075012207,31.067161560058594,-19.230228424072266,-46.897396087646484,-21.84992218017578,-79.9387435913086,-27.450000762939453,-8.700000762939453,-36.60000228881836
2.588,57.95883560180664,31.450233459472656,-20.226215362548828,-53.558956146240234,-20.517610549926758,-68.21439361572266,-28.05000114440918,-9.600000381469727,-34.95000076293945
2.592,59.337894439697266,30.875625610351562,-19.306842803955078,-32.90811538696289,-18.385910034179688,-79.2725830078125,-28.650001525878906,-6.750000476837158,-33.900001525878906
2.709,84.85050964355469,48.68848419189453,-42.44440841674805,-132.83154296875,62.21898651123047,120.97396087646484,-28.650001525878906,-5.550000190734863,-35.10000228881836
2.713,81.4028549194336,54.93256378173828,-41.83149337768555,-81.00459289550781,68.74732208251953,143.09034729003906,-28.650001525878906,-5.550000190734863,-35.10000228881836
2.72,79.0278091430664,53.13212585449219,-34.51481246948242,-53.95865249633789,73.9433364868164,183.05972290039062,-29.250001907348633,-5.400000095367432,-34.20000076293945
2.73,77.49552154541016,48.841712951660156,-29.76471519470215,-13.856048583984375,64.084228515625,180.9280242919922,-28.80000114440918,-5.700000286102295,-33.0
2.74,77.763671875,35.97048568725586,-25.70414924621582,15.188361167907715,53.69218826293945,187.05665588378906,-28.500001907348633,-4.5,-33.0
2.75,79.21934509277344,21.796812057495117,-22.17988395690918,30.509952545166016,30.643184661865234,184.5252685546875,-28.80000114440918,-6.150000095367432,-33.45000076293945
2.77,86.07633972167969,8.848969459533691,-20.83913230895996,13.456355094909668,26.246553421020508,177.73046875,-28.80000114440918,-6.150000095367432,-33.45000076293945
2.774,95.1168441772461,-2.030282974243164,-24.095245361328125,-54.62480926513672,47.9632453918457,170.0030517578125,-31.05000114440918,-7.200000286102295,-31.500001907348633
2.78,101.6673812866211,-7.240066051483154,-32.905906677246094,-87.13323211669922,45.69831466674805,174.39968872070312,-30.900001525878906,-7.800000190734863,-34.35000228881836
2.79,101.32261657714844,-6.435614109039307,-33.51882553100586,-121.24042510986328,62.21898651123047,175.33230590820312,-30.30000114440918,-6.900000095367432,-33.45000076293945
2.8,96.9555892944336,0.0,-37.043087005615234,-144.2894287109375,81.93721008300781,181.46095275878906,-31.80000114440918,-6.450000286102295,-33.0
2.81,95.57653045654297,8.121131896972656,-36.27694320678711,-145.2220458984375,99.52373504638672,191.9862060546875,-31.80000114440918,-6.450000286102295,-33.0
2.829,97.87496185302734,13.560758590698242,-31.258697509765625,-132.6983184814453,87.39968872070312,215.16844177246094,-32.55000305175781,-8.850000381469727,-31.950000762939453
2.833,97.72173309326172,13.713987350463867,-27.15982437133789,-134.03062438964844,82.47013854980469,211.9709014892578,-32.55000305175781,-9.15000057220459,-31.200000762939453
2.84,99.2540283203125,7.8529815673828125,-22.141576766967773,-148.8192901611328,82.20367431640625,201.578857421875,-33.900001525878906,-9.450000762939453,-32.55000305175781
2.85,100.21170806884766,4.558559894561768,-20.800825119018555,-164.4073486328125,68.88054656982422,192.25267028808594,-33.150001525878906,-7.500000476837158,-32.10000228881836
2.86,100.21170806884766,2.75812029838562,-23.482330322265625,-178.26339721679688,63.950992584228516,195.983154296875,-33.150001525878906,-7.500000476837158,-32.10000228881836
2.87,98.48788452148438,3.869029998779297,-27.27474594116211,-199.18069458007812,73.54364013671875,200.11331176757812,-32.55000305175781,-9.15000057220459,-29.700000762939453
2.889,93.00994873046875,8.848969459533691,-27.351360321044922,-202.64471435546875,66.21592712402344,213.16998291015625,-34.05000305175781,-9.15000057220459,-30.450000762939453
2.893,88.45138549804688,16.05072784423828,-27.044902801513672,-185.32464599609375,69.81317138671875,246.61102294921875,-33.45000076293945,-10.950000762939453,-31.350000381469727
2.9,79.83226013183594,22.409727096557617,-22.37141990661621,-178.39662170410156,66.48238372802734,261.6661376953125,-33.900001525878906,-9.450000762939453,-31.05000114440918
2.91,74.7374038696289,24.478317260742188,-21.6818904876709,-155.6140899658203,66.61561584472656,273.9234313964844,-33.900001525878906,-9.450000762939453,-31.05000114440918
2.92,66.9227294921875,24.78477668762207,-18.464082717895508,-137.22817993164062,61.15313720703125,276.4548034667969,-34.650001525878906,-11.40000057220459,-28.80000114440918
2.93,61.751251220703125,20.379444122314453,-17.161638259887695,-106.98468017578125,55.55742645263672,293.1087341308594,-34.5,-11.850000381469727,-30.150001525878906
2.949,59.91250228881836,16.970102310180664,-16.970102310180664,-91.52986145019531,60.62021255493164,288.8453369140625,-34.05000305175781,-12.300000190734863,-27.900001525878906
2.953,59.06974411010742,12.641385078430176,-16.433799743652344,-59.55436325073242,53.82542037963867,285.2480773925781,-34.650001525878906,-14.100000381469727,-27.750001907348633
2.96,59.18466567993164,8.810662269592285,-16.89348793029785,-29.444103240966797,50.36140823364258,287.9126892089844,-34.650001525878906,-14.100000381469727,-27.750001907348633
2.97,59.91250228881836,7.5848307609558105,-16.548721313476562,-5.196018218994141,45.16539001464844,276.5880432128906,-34.80000305175781,-14.250000953674316,-27.450000762939453
2.98,61.67463684082031,5.861005783081055,-13.79060173034668,4.663093090057373,45.56508255004883,274.18988037109375,-34.95000076293945,-15.600000381469727,-27.30000114440918
2.99,63.36015319824219,3.6774938106536865,-10.84094524383545,10.791729927062988,42.101070404052734,248.7427215576172,-34.80000305175781,-15.750000953674316,-28.950000762939453
3.009,61.21495056152344,2.3750481605529785,-10.687716484069824,19.052066802978516,27.31240463256836,258.6018371582031,-36.0,-19.200000762939453,-27.150001525878906
3.013,60.90849304199219,1.800439715385437,-11.1474027633667,5.062787055969238,29.177640914916992,260.6003112792969,-36.0,-19.200000762939453,-27.150001525878906
3.02,57.57576370239258,-1.800439715385437,-13.905523300170898,-4.529861927032471,36.372127532958984,251.14088439941406,-36.150001525878906,-18.75,-28.500001907348633
3.03,57.26930618286133,-3.2178070545196533,-13.599065780639648,-9.859111785888672,31.842266082763672,242.747314453125,-36.0,-20.400001525878906,-27.450000762939453
3.04,58.9165153503418,-6.856993675231934,-12.334927558898926,-20.784072875976562,29.444103240966797,230.88973999023438,-34.5,-19.650001525878906,-27.450000762939453
3.05,60.44880294799805,-10.228029251098633,-11.798625946044922,-48.8958625793457,35.17304611206055,217.69984436035156,-36.45000076293945,-22.950000762939453,-27.750001907348633
3.07,60.985107421875,-14.901511192321777,-14.288596153259277,-67.94792938232422,40.76875686645508,197.9816131591797,-36.45000076293945,-22.950000762939453,-27.750001907348633
3.074,61.942787170410156,-13.330915451049805,-12.717999458312988,-97.7917251586914,37.03828430175781,176.9310760498047,-35.55000305175781,-23.100000381469727,-25.350000381469727
3.08,61.52140808105469,-11.377246856689453,-12.947842597961426,-98.59111785888672,31.176109313964844,179.0627899169922,-34.80000305175781,-22.80000114440918,-27.150001525878906
3.09,61.253257751464844,-7.661445617675781,-13.369222640991211,-110.04900360107422,25.846860885620117,160.41041564941406,-36.900001525878906,-24.450000762939453,-27.30000114440918
3.1,59.79758071899414,-2.1068975925445557,-14.518439292907715,-87.13323211669922,19.718223571777344,170.93568420410156,-36.900001525878906,-24.450000762939453,-27.30000114440918
3.11,58.99312973022461,3.4093432426452637,-17.046716690063477,-76.60796356201172,25.7136287689209,152.68299865722656,-36.900001525878906,-24.450000762939453,-27.30000114440918
3.129,59.60604476928711,5.746084213256836,-19.230228424072266,-61.01990509033203,34.373661041259766,141.35833740234375,-35.25,-25.05000114440918,-27.450000762939453
3.133,59.146358489990234,5.631162166595459,-20.41775131225586,-28.24502182006836,35.57273864746094,135.76263427734375,-34.20000076293945,-26.850000381469727,-26.55000114440918
3.14,57.0777702331543,5.094861030578613,-17.468095779418945,-22.51607894897461,33.04134750366211,133.09800720214844,-35.400001525878906,-26.400001525878906,-26.250001907348633
3.15,58.9548225402832,4.252102375030518,-15.361198425292969,-7.460949420928955,31.842266082763672,114.44563293457031,-35.400001525878906,-26.400001525878906,-26.250001907348633
3.16,59.26128005981445,5.018246650695801,-11.377246856689453,-13.58958625793457,23.848390579223633,88.73200225830078,-34.80000305175781,-26.55000114440918,-27.150001525878906
3.17,59.759273529052734,4.558559894561768,-9.193734169006348,4.130168437957764,10.125574111938477,97.25880432128906,-34.20000076293945,-26.850000381469727,-27.000001907348633
3.19,58.26529312133789,6.358999729156494,-9.308655738830566,12.124042510986328,-2.531393527984619,86.73353576660156,-34.650001525878906,-26.850000381469727,-25.80000114440918
3.193,59.337894439697266,8.312667846679688,-9.959878921508789,39.70290756225586,-6.261868000030518,67.41500854492188,-34.20000076293945,-27.150001525878906,-26.55000114440918
3.2,61.48310089111328,7.2783732414245605,-8.848969459533691,62.485450744628906,-5.595712184906006,69.94640350341797,-34.20000076293945,-27.150001525878906,-26.55000114440918
3.21,61.329872131347656,5.094861030578613,-6.627150535583496,98.99080657958984,-14.522205352783203,57.55589294433594,-35.25,-28.500001907348633,-26.100000381469727
3.22,63.13031005859375,-0.5746083855628967,-3.7158010005950928,141.22511291503906,-15.588054656982422,38.90352249145508,-34.5,-27.450000762939453,-26.100000381469727
3.23,66.34811401367188,-7.240066051483154,-1.9153614044189453,156.41346740722656,-13.722817420959473,1.0658499002456665,-34.95000076293945,-28.80000114440918,-26.55000114440918
3.249,71.63451385498047,-19.07699966430664,1.9536685943603516,169.73660278320312,-21.583459854125977,-21.45022964477539,-34.650001525878906,-29.55000114440918,-25.500001907348633
3.252,79.21934509277344,-37.54108428955078,8.695740699768066,143.3568115234375,-23.182235717773438,-63.018375396728516,-34.650001525878906,-29.55000114440918,-25.500001907348633
3.26,80.10041046142578,-39.07337188720703,8.274360656738281,127.63552856445312,-31.176109313964844,-77.14088439941406,-34.5,-30.450000762939453,-25.350000381469727
3.27,83.43314361572266,-42.71255874633789,7.738059997558594,95.52679443359375,-39.16998291015625,-98.99080657958984,-35.55000305175781,-33.150001525878906,-26.850000381469727
3.28,87.14894104003906,-43.74685287475586,0.26815059781074524,85.66768646240234,-33.04134750366211,-106.98468017578125,-34.95000076293945,-31.500001907348633,-25.200000762939453
3.29,88.37477111816406,-42.71255874633789,-8.08282470703125,82.47013854980469,-18.2526798248291,-108.18376159667969,-34.20000076293945,-29.100000381469727,-25.200000762939453
3.309,87.14894104003906,-40.567352294921875,-14.786589622497559,95.12710571289062,14.12251091003418,-147.0872802734375,-35.70000076293945,-31.500001907348633,-26.55000114440918
3.313,97.49188995361328,-32.331298828125,-14.058752059936523,98.85757446289062,17.986217498779297,-160.8101043701172,-35.70000076293945,-31.500001907348633,-26.55000114440918
3.32,100.90123748779297,-31.90991973876953,-11.798625946044922,119.24195861816406,10.92496109008789,-162.80857849121094,-34.650001525878906,-29.55000114440918,-25.500001907348633
3.33,109.4820556640625,-29.76471519470215,-4.32871675491333,120.57427215576172,8.260336875915527,-172.134765625,-35.55000305175781,-30.450000762939453,-25.650001525878906
3.34,114.2321548461914,-27.198131561279297,7.8529815673828125,128.96783447265625,-17.852985382080078,-177.19754028320312,-34.80000305175781,-31.950000762939453,-24.600000381469727
3.35,115.80274963378906,-25.780763626098633,14.326903343200684,146.68759155273438,-38.77029037475586,-179.595703125,-34.80000305175781,-31.950000762939453,-24.600000381469727
3.369,116.6838150024414,-23.597251892089844,10.074800491333008,158.0122528076172,-57.422664642333984,-181.59417724609375,-34.95000076293945,-27.900001525878906,-24.450000762939453
3.373,120.51453399658203,-23.175872802734375,1.9919757843017578,165.2067413330078,-73.27718353271484,-191.32005310058594,-35.25,-29.700000762939453,-25.350000381469727
3.38,121.39559936523438,-23.9420166015625,0.3447650372982025,179.9954071044922,-72.21133422851562,-185.32464599609375,-35.25,-29.700000762939453,-25.350000381469727
3.39,122.77466583251953,-27.006595611572266,-1.455674648284912,189.9877471923828,-73.14395141601562,-201.578857421875,-37.05000305175781,-28.200000762939453,-25.350000381469727
3.4,124.69002532958984,-27.734432220458984,-1.6089035272598267,194.2511444091797,-60.08728790283203,-232.35528564453125,-37.05000305175781,-28.200000762939453,-25.350000381469727
3.41,124.9964828491211,-28.462270736694336,0.26815059781074524,191.71975708007812,-76.34149932861328,-231.1562042236328,-35.70000076293945,-27.150001525878906,-24.450000762939453
3.426,123.196044921875,-29.305028915405273,0.4213795065879822,140.6921844482422,-79.67227935791016,-253.93873596191406,-35.70000076293945,-28.80000114440918,-25.200000762939453
3.43,114.61522674560547,-26.12552833557129,-5.669469833374023,128.03521728515625,-82.7365951538086,-256.4701232910156,-35.70000076293945,-28.80000114440918,-25.200000762939453
3.44,110.0566635131836,-24.516624450683594,-7.469909191131592,95.9264907836914,-83.80245208740234,-257.4027404785156,-36.150001525878906,-27.600000381469727,-25.500001907348633
3.45,102.9698257446289,-19.460071563720703,-10.074800491333008,78.87289428710938,-92.72894287109375,-226.35987854003906,-36.150001525878906,-27.600000381469727,-25.500001907348633
3.46,96.03621673583984,-12.334927558898926,-9.53849983215332,50.22817611694336,-82.6033706665039,-227.6921844482422,-36.0,-26.55000114440918,-23.850000381469727
3.47,89.90705871582031,-5.2480902671813965,-10.15141487121582,42.23430252075195,-87.79938507080078,-215.3016815185547,-37.5,-23.55000114440918,-25.350000381469727
3.489,83.7012939453125,2.7964274883270264,-8.695740699768066,50.36140823364258,-75.8085708618164,-176.9310760498047,-36.45000076293945,-24.150001525878906,-25.500001907348633
3.493,75.65677642822266,13.10107135772705,-7.967903137207031,64.084228515625,-81.93721008300781,-176.6646270751953,-36.45000076293945,-24.150001525878906,-25.500001907348633
3.5,73.77971649169922,13.943830490112305,-7.4316020011901855,83.93567657470703,-80.60489654541016,-158.545166015625,-36.45000076293945,-24.150001525878906,-25.500001907348633
3.51,72.97526550292969,15.552734375,-6.473921298980713,105.38591003417969,-81.13782501220703,-164.27410888671875,-36.150001525878906,-21.75,-26.55000114440918
3.52,69.3360824584961,13.10107135772705,-4.558559894561768,140.42572021484375,-94.59417724609375,-162.94180297851562,-35.55000305175781,-23.100000381469727,-26.400001525878906
3.53,66.11827087402344,9.461885452270508,-3.294421434402466,158.545166015625,-97.39203643798828,-171.3353729248047,-36.45000076293945,-22.5,-26.250001907348633
3.543,62.59400939941406,4.596867084503174,-2.183511972427368,172.93414306640625,-103.7871322631836,-166.2725830078125,-36.150001525878906,-21.75,-27.30000114440918
3.55,60.60203170776367,0.689530074596405,-0.2298433631658554,168.80397033691406,-99.79019927978516,-179.19601440429688,-36.150001525878906,-21.75,-27.30000114440918
3.56,59.98911666870117,-2.9879636764526367,1.1109095811843872,174.53292846679688,-120.70750427246094,-167.87135314941406,-35.55000305175781,-20.100000381469727,-27.900001525878906
3.57,58.03544998168945,-6.205770969390869,3.6391866207122803,152.81622314453125,-114.44563293457031,-171.20213317871094,-33.45000076293945,-20.55000114440918,-27.000001907348633
3.58,55.009178161621094,-9.423578262329102,1.6855180263519287,118.44257354736328,-115.91117858886719,-177.5972442626953,-35.400001525878906,-19.80000114440918,-26.100000381469727
3.59,51.71475601196289,-10.074800491333008,1.1875240802764893,99.79019927978516,-129.36753845214844,-174.1332244873047,-35.400001525878906,-19.80000114440918,-28.05000114440918
3.603,50.68046188354492,-13.407529830932617,-0.6129156351089478,58.4885139465332,-123.9050521850586,-177.46400451660156,-34.80000305175781,-18.900001525878906,-29.700000762939453
3.61,47.539268493652344,-15.093047142028809,0.9959878921508789,28.24502182006836,-128.3016815185547,-196.64930725097656,-34.05000305175781,-19.200000762939453,-29.700000762939453
3.62,47.07958221435547,-15.054739952087402,1.0342950820922852,-2.398162364959717,-126.96936798095703,-204.7764129638672,-35.25,-20.100000381469727,-29.400001525878906
3.63,47.46265411376953,-12.90953540802002,0.19153612852096558,-27.978559494018555,-136.4287872314453,-205.30934143066406,-33.75,-18.150001525878906,-29.700000762939453
3.64,49.18648147583008,-9.078812599182129,0.6129156351089478,-63.950992584228516,-132.16539001464844,-203.04440307617188,-33.75,-18.150001525878906,-29.700000762939453
3.658,47.96064758300781,-5.51624059677124,-2.6431987285614014,-100.05665588378906,-119.7748794555664,-216.50076293945312,-33.900001525878906,-16.80000114440918,-31.05000114440918
3.662,47.96064758300781,-1.9536685943603516,-5.056553840637207,-129.36753845214844,-114.97856140136719,-213.56967163085938,-32.25,-15.750000953674316,-30.450000762939453
3.67,49.18648147583008,4.098873138427734,-4.137180328369141,-141.75804138183594,-104.05359649658203,-198.781005859375,-32.55000305175781,-14.550000190734863,-32.70000076293945
3.68,48.30541229248047,8.159439086914062,-4.252102375030518,-148.68606567382812,-99.65696716308594,-204.6431884765625,-32.25,-13.500000953674316,-31.500001907348633
3.69,48.152183532714844,13.675680160522461,-5.2480902671813965,-146.9540557861328,-99.52373504638672,-178.26339721679688,-32.25,-13.500000953674316,-31.500001907348633
3.7,47.232810974121094,17.73624610900879,-8.887276649475098,-133.23123168945312,-100.9892807006836,-167.2052001953125,-31.650001525878906,-12.15000057220459,-31.350000381469727
3.72,49.224788665771484,22.83110809326172,-11.760318756103516,-120.84072875976562,-78.60643005371094,-145.0888214111328,-31.650001525878906,-10.200000762939453,-32.85000228881836
3.724,51.21676254272461,25.321077346801758,-15.093047142028809,-94.32771301269531,-59.15467071533203,-163.6079559326172,-30.150001525878906,-9.75,-32.85000228881836
3.73,58.112064361572266,27.542896270751953,-13.292608261108398,-88.06584930419922,-51.82695007324219,-136.0290985107422,-31.80000114440918,-10.050000190734863,-33.45000076293945
3.74,61.17664337158203,26.929981231689453,-12.947842597961426,-52.3598747253418,-61.15313720703125,-126.5696792602539,-31.80000114440918,-10.050000190734863,-33.45000076293945
3.75,64.66259765625,28.960264205932617,-14.97812557220459,-44.23276901245117,-54.89126968383789,-112.71363067626953,-31.200000762939453,-6.300000190734863,-32.55000305175781
3.76,68.30178833007812,30.26270866394043,-16.242263793945312,-34.373661041259766,-53.29249572753906,-92.72894287109375,-30.750001907348633,-8.100000381469727,-34.20000076293945
3.77,71.94097137451172,30.91393280029297,-22.7161865234375,-15.055130004882812,-48.09647750854492,-66.34915924072266,-30.000001907348633,-7.650000095367432,-34.20000076293945
3.782,79.48749542236328,30.530860900878906,-28.73042106628418,-21.183767318725586,-14.255742073059082,-49.16232681274414,-30.30000114440918,-6.900000095367432,-33.45000076293945
3.79,85.38681030273438,30.4925537109375,-32.75267791748047,-25.313934326171875,2.6646246910095215,-42.500762939453125,-30.30000114440918,-6.900000095367432,-33.45000076293945
3.8,91.05628204345703,31.871612548828125,-32.676063537597656,-21.716691970825195,5.8621745109558105,-19.45176124572754,-30.000001907348633,-6.450000286102295,-34.95000076293945
3.81,96.30436706542969,32.02484130859375,-36.008792877197266,-25.04747200012207,18.2526798248291,-0.2664624750614166,-30.150001525878906,-5.100000381469727,-34.35000228881836
3.82,93.46963500976562,32.71437072753906,-38.99675750732422,-19.718223571777344,28.77794647216797,13.456355094909668,-29.700000762939453,-5.850000381469727,-32.85000228881836
3.839,88.45138549804688,32.13976287841797,-44.398075103759766,-3.9969370365142822,40.36906433105469,35.839202880859375,-30.30000114440918,-5.400000095367432,-33.45000076293945
3.843,83.39483642578125,28.53888511657715,-45.35575866699219,2.531393527984619,53.558956146240234,68.34762573242188,-30.30000114440918,-5.400000095367432,-33.45000076293945
3.85,84.9654312133789,25.51261329650879,-36.8132438659668,-2.9310872554779053,52.75957107543945,80.60489654541016,-31.500001907348633,-5.700000286102295,-34.95000076293945
3.86,86.03803253173828,22.448034286499023,-34.3615837097168,-8.39356803894043,49.02909469604492,83.66921997070312,-31.05000114440918,-7.650000095367432,-34.5
3.87,84.9271240234375,18.923770904541016,-30.0711727142334,-16.65390396118164,46.897396087646484,99.65696716308594,-30.000001907348633,-7.200000286102295,-32.70000076293945
3.88,81.93915557861328,15.935806274414062,-27.925968170166016,-26.379785537719727,28.911178588867188,117.37671661376953,-30.450000762939453,-6.750000476837158,-32.55000305175781
3.899,82.66699981689453,13.713987350463867,-26.929981231689453,-42.23430252075195,35.17304611206055,124.17151641845703,-30.450000762939453,-6.750000476837158,-32.55000305175781
3.904,84.62066650390625,14.250288963317871,-27.236438751220703,-57.422664642333984,31.709033966064453,155.747314453125,-31.200000762939453,-7.500000476837158,-33.60000228881836
3.91,92.090576171875,14.633360862731934,-29.688100814819336,-67.68146514892578,39.83613967895508,156.81317138671875,-30.150001525878906,-6.300000190734863,-31.80000114440918
3.92,95.46160888671875,14.824896812438965,-33.672054290771484,-84.60183715820312,54.75803756713867,170.26951599121094,-31.05000114440918,-7.200000286102295,-31.500001907348633
3.93,98.83264923095703,12.334927558898926,-37.08139419555664,-95.79325866699219,70.3460922241211,172.134765625,-32.400001525878906,-7.800000190734863,-31.80000114440918
3.94,100.09678649902344,9.461885452270508,-38.57537841796875,-116.9770278930664,87.39968872070312,156.5467071533203,-32.400001525878906,-7.800000190734863,-31.80000114440918
3.96,98.87095642089844,6.205770969390869,-40.33750915527344,-115.51148223876953,94.86064147949219,174.0,-31.80000114440918,-9.600000381469727,-33.0
3.963,95.95960235595703,6.89530086517334,-33.59543991088867,-133.76416015625,95.9264907836914,181.59417724609375,-32.25,-8.40000057220459,-31.500001907348633
3.97,91.97565460205078,13.139378547668457,-24.59324073791504,-143.88973999023438,92.06278228759766,197.0489959716797,-30.450000762939453,-10.200000762939453,-30.30000114440918
3.98,92.39703369140625,14.863204002380371,-20.95405387878418,-150.01837158203125,73.9433364868164,215.03521728515625,-31.950000762939453,-8.25,-31.05000114440918
3.99,91.93734741210938,17.161638259887695,-19.038692474365234,-163.4747314453125,65.28330993652344,228.6248016357422,-31.950000762939453,-8.25,-31.05000114440918
4.0,91.97565460205078,18.732234954833984,-18.23423957824707,-173.33384704589844,68.4808578491211,235.15313720703125,-32.70000076293945,-9.75,-31.80000114440918
4.02,91.05628204345703,17.046716690063477,-22.333112716674805,-163.6079559326172,57.289432525634766,234.8866729736328,-33.900001525878906,-10.5,-29.850000381469727
4.023,88.33646392822266,15.514427185058594,-25.742456436157227,-151.084228515625,80.07197570800781,227.1592559814453,-33.0,-11.850000381469727,-30.150001525878906
4.03,85.69326782226562,16.05072784423828,-28.117504119873047,-143.09034729003906,79.67227935791016,238.48391723632812,-33.900001525878906,-10.200000762939453,-29.55000114440918
4.04,83.16499328613281,13.867216110229492,-29.53487205505371,-115.51148223876953,85.00152587890625,245.9448699951172,-33.900001525878906,-10.200000762939453,-29.55000114440918
4.05,77.26567840576172,12.986149787902832,-27.811046600341797,-93.79479217529297,78.47319793701172,258.2021484375,-33.30000305175781,-12.300000190734863,-28.200000762939453
4.06,72.43896484375,9.078812599182129,-24.823083877563477,-80.20520782470703,75.27565002441406,267.7947998046875,-33.900001525878906,-12.90000057220459,-29.850000381469727
4.079,66.69288635253906,5.822698593139648,-23.290794372558594,-77.27411651611328,82.33690643310547,271.9249572753906,-35.25,-11.850000381469727,-29.400001525878906
4.083,63.168617248535156,3.3710360527038574,-21.030668258666992,-63.418067932128906,74.74272155761719,288.0459289550781,-35.25,-13.500000953674316,-27.450000762939453
4.09,60.60203170776367,-3.9839515686035156,-17.391481399536133,-60.88667678833008,75.40888214111328,285.91424560546875,-35.25,-13.500000953674316,-27.450000762939453
4.204,46.58158874511719,-0.9959878921508789,-9.615114212036133,-10.791729927062988,40.36906433105469,248.7427215576172,-34.20000076293945,-24.450000762939453,-24.450000762939453
4.21,43.4020881652832,-6.703764915466309,-8.044517517089844,2.6646246910095215,32.5084228515625,231.55589294433594,-34.20000076293945,-24.450000762939453,-24.450000762939453
4.22,42.865787506103516,-10.84094524383545,-8.619126319885254,1.9984685182571411,30.509952545166016,216.10107421875,-33.75,-24.750001907348633,-25.650001525878906
4.23,42.674251556396484,-17.31486701965332,-12.373234748840332,-20.38437843322754,22.382848739624023,204.11026000976562,-33.45000076293945,-26.400001525878906,-26.250001907348633
4.24,46.696510314941406,-20.915746688842773,-12.181697845458984,-56.889739990234375,29.977027893066406,195.5834503173828,-33.45000076293945,-26.400001525878906,-26.250001907348633
4.26,49.3014030456543,-19.99637222290039,-13.48414421081543,-100.18988800048828,42.101070404052734,183.85910034179688,-35.25,-26.250001907348633,-23.55000114440918
4.264,53.361968994140625,-9.768342971801758,-13.599065780639648,-108.18376159667969,49.42878723144531,201.17916870117188,-35.400001525878906,-27.600000381469727,-25.500001907348633
4.27,56.77130889892578,5.2480902671813965,-13.10107135772705,-91.13016510009766,46.63093185424805,188.78866577148438,-35.400001525878906,-27.600000381469727,-25.500001907348633
4.28,59.644351959228516,9.500192642211914,-12.02846908569336,-68.34762573242188,55.4241943359375,173.86676025390625,-34.95000076293945,-28.350000381469727,-22.5
4.29,62.70893096923828,11.91354751586914,-8.274360656738281,-22.782541275024414,49.29555892944336,160.94332885742188,-34.95000076293945,-28.350000381469727,-22.5
4.3,66.34811401367188,7.2783732414245605,-5.5545477867126465,15.854516983032227,35.439510345458984,130.69984436035156,-35.400001525878906,-28.80000114440918,-24.0
4.32,72.05589294433594,-3.332728862762451,-4.596867084503174,33.04134750366211,33.17457962036133,100.05665588378906,-33.75,-28.950000762939453,-24.150001525878906
4.323,79.14273071289062,-13.675680160522461,-4.788403511047363,56.356815338134766,29.31087303161621,43.56661605834961,-34.80000305175781,-30.450000762939453,-23.850000381469727
4.33,86.88079071044922,-24.13355255126953,-4.32871675491333,65.28330993652344,30.509952545166016,52.75957107543945,-34.80000305175781,-30.450000762939453,-23.850000381469727
4.34,90.78813171386719,-27.811046600341797,-2.145204782485962,56.22358322143555,19.98468589782715,11.591117858886719,-34.80000305175781,-30.450000762939453,-23.850000381469727
4.35,97.26204681396484,-32.484527587890625,-0.689530074596405,64.61714935302734,27.445634841918945,-24.51454734802246,-34.5,-31.200000762939453,-24.900001525878906
4.36,98.52619171142578,-33.13574981689453,1.6855180263519287,75.94180297851562,15.188361167907715,-56.22358322143555,-34.20000076293945,-30.600000381469727,-22.5
4.38,97.72173309326172,-38.613685607910156,-1.2641384601593018,75.67534637451172,18.91883659362793,-80.47166442871094,-33.150001525878906,-31.500001907348633,-23.700000762939453
4.383,97.6068115234375,-43.44039535522461,-6.933608055114746,49.29555892944336,32.24195861816406,-122.57273864746094,-34.650001525878906,-30.30000114440918,-22.5
4.39,100.86293029785156,-45.96867370605469,-10.764330863952637,36.771820068359375,26.779478073120117,-118.30934143066406,-34.650001525878906,-30.30000114440918,-22.5
4.4,104.08073425292969,-41.5250358581543,-10.879252433776855,26.513015747070312,13.189892768859863,-117.50994873046875,-34.20000076293945,-29.850000381469727,-23.700000762939453
4.41,104.65534210205078,-31.067161560058594,-9.615114212036133,27.578866958618164,10.92496109008789,-117.11026000976562,-36.75,-30.150001525878906,-23.100000381469727
4.42,105.76625061035156,-18.34916114807129,-7.967903137207031,50.36140823364258,-8.660030364990234,-98.19142150878906,-34.05000305175781,-28.950000762939453,-20.850000381469727
4.44,103.5827407836914,-10.41956615447998,-8.772355079650879,95.9264907836914,-17.719755172729492,-106.18529510498047,-34.05000305175781,-28.950000762939453,-20.850000381469727
4.443,102.05045318603516,-8.197746276855469,-6.818686485290527,175.33230590820312,-43.56661605834961,-106.31852722167969,-35.400001525878906,-29.850000381469727,-23.25
4.45,100.40324401855469,-11.760318756103516,-2.145204782485962,212.1041259765625,-51.4272575378418,-115.64471435546875,-35.400001525878906,-29.850000381469727,-23.25
4.46,101.39923095703125,-14.67166805267334,0.26815059781074524,235.9525146484375,-58.888206481933594,-128.7013702392578,-35.25,-29.250001907348633,-21.600000381469727
4.47,102.77828979492188,-21.950040817260742,3.5242648124694824,263.66461181640625,-79.40581512451172,-145.75497436523438,-36.150001525878906,-27.900001525878906,-21.75
4.48,102.85490417480469,-27.657817840576172,6.3973069190979,256.0704345703125,-81.67074584960938,-175.46554565429688,-36.150001525878906,-27.900001525878906,-21.75
4.5,107.26023864746094,-33.94020462036133,8.810662269592285,242.21438598632812,-79.80551147460938,-180.12863159179688,-35.70000076293945,-28.80000114440918,-22.5
4.504,109.63528442382812,-38.38384246826172,7.8529815673828125,207.17457580566406,-86.3338394165039,-217.5666046142578,-34.5,-28.500001907348633,-22.05000114440918
4.51,110.51634979248047,-39.41813659667969,7.508216381072998,197.58192443847656,-98.05818939208984,-215.03521728515625,-34.5,-28.500001907348633,-22.05000114440918
4.52,110.63127136230469,-39.149986267089844,5.286397457122803,162.40887451171875,-97.12557220458984,-241.0153045654297,-33.75,-29.700000762939453,-21.30000114440918
4.53,107.26023864746094,-36.50678634643555,4.213795185089111,123.10566711425781,-94.19448852539062,-265.2633972167969,-33.75,-29.700000762939453,-21.30000114440918
4.54,104.54042053222656,-31.028854370117188,0.9959878921508789,86.73353576660156,-90.06431579589844,-276.05511474609375,-34.20000076293945,-27.600000381469727,-23.700000762939453
4.56,101.55245971679688,-24.631547927856445,0.07661445438861847,72.0781021118164,-95.66002655029297,-276.5880432128906,-34.95000076293945,-25.650001525878906,-22.200000762939453
4.564,99.59879302978516,-18.77054214477539,-2.2218191623687744,57.15620040893555,-79.67227935791016,-275.12249755859375,-34.5,-25.05000114440918,-22.80000114440918
4.57,97.0322036743164,-10.994174003601074,-4.443638324737549,58.355281829833984,-87.0,-281.2511291503906,-34.5,-25.05000114440918,-22.80000114440918
4.58,96.4192886352539,-7.4316020011901855,-3.6391866207122803,69.54670715332031,-91.26339721679688,-275.38897705078125,-34.5,-25.05000114440918,-22.80000114440918
4.59,93.04825592041016,-3.5625722408294678,-5.1331682205200195,66.74884796142578,-87.53292083740234,-274.7228088378906,-34.80000305175781,-23.850000381469727,-23.850000381469727
4.6,90.9030532836914,0.38307225704193115,-4.060565948486328,79.13935852050781,-100.05665588378906,-268.9938659667969,-35.400001525878906,-21.450000762939453,-23.700000762939453
4.619,88.18323516845703,4.32871675491333,-5.5545477867126465,86.60030364990234,-101.65543365478516,-261.79937744140625,-34.05000305175781,-21.900001525878906,-22.350000381469727
4.622,83.81621551513672,5.018246650695801,-6.971915245056152,108.983154296875,-94.32771301269531,-243.81317138671875,-35.400001525878906,-21.0,-22.950000762939453
4.63,78.3382797241211,4.405331134796143,-7.967903137207031,114.04593658447266,-93.39509582519531,-242.8805389404297,-35.400001525878906,-21.0,-22.950000762939453
4.64,73.93294525146484,3.2561142444610596,-7.738059997558594,122.17304229736328,-99.12403869628906,-229.95712280273438,-34.650001525878906,-21.0,-25.500001907348633
4.65,69.79576873779297,1.5322890281677246,-6.588842868804932,139.89280700683594,-104.32006072998047,-232.35528564453125,-34.05000305175781,-20.400001525878906,-24.900001525878906
4.66,65.8501205444336,0.4213795065879822,-5.975927352905273,144.55589294433594,-104.98621368408203,-228.35833740234375,-34.20000076293945,-20.25,-25.80000114440918
4.68,62.01940155029297,-2.9879636764526367,-3.754108190536499,134.16384887695312,-105.38591003417969,-235.4196014404297,-34.20000076293945,-18.30000114440918,-25.80000114440918
4.684,59.452816009521484,-3.9456443786621094,1.8387469053268433,121.3736572265625,-120.70750427246094,-228.89126586914062,-34.20000076293945,-18.30000114440918,-25.80000114440918
4.69,55.23902130126953,-5.20978307723999,1.7621324062347412,112.31393432617188,-133.76416015625,-215.56814575195312,-33.150001525878906,-18.75,-25.80000114440918
4.7,53.668426513671875,-4.520252704620361,2.0685901641845703,83.5359878540039,-135.0964813232422,-223.4287872314453,-34.05000305175781,-16.5,-27.150001525878906
4.71,54.31964874267578,-7.4316020011901855,0.8044517636299133,59.4211311340332,-144.1562042236328,-213.9693603515625,-32.25,-18.900001525878906,-27.150001525878906
4.72,54.12811279296875,-7.967903137207031,1.1109095811843872,34.50688934326172,-144.2894287109375,-218.23277282714844,-32.70000076293945,-15.90000057220459,-26.250001907348633
4.74,55.622093200683594,-8.810662269592285,0.1149216815829277,2.797856092453003,-146.9540557861328,-228.75804138183594,-32.70000076293945,-15.90000057220459,-26.250001907348633
4.744,54.31964874267578,-7.086836814880371,-1.2641384601593018,-36.238895416259766,-150.01837158203125,-232.62173461914062,-32.70000076293945,-15.15000057220459,-28.80000114440918
4.75,51.867984771728516,-4.941632270812988,0.15322890877723694,-55.82388687133789,-154.0153045654297,-243.679931640625,-32.400001525878906,-13.200000762939453,-28.80000114440918
4.76,51.21676254272461,-2.7964274883270264,-2.183511972427368,-78.3399658203125,-152.28330993652344,-244.21286010742188,-30.450000762939453,-13.200000762939453,-29.250001907348633
4.77,48.956634521484375,0.2298433631658554,-2.604891538619995,-103.52066802978516,-143.62327575683594,-243.14700317382812,-31.650001525878906,-15.15000057220459,-29.850000381469727
4.78,46.12190246582031,5.70777702331543,-3.3710360527038574,-121.90658569335938,-141.0918731689453,-240.0826873779297,-31.650001525878906,-15.15000057220459,-29.850000381469727
4.8,45.54729461669922,9.768342971801758,-5.1331682205200195,-121.77335357666016,-143.09034729003906,-224.22817993164062,-29.55000114440918,-9.600000381469727,-30.900001525878906
4.804,44.819454193115234,14.36521053314209,-5.861005783081055,-136.0290985107422,-114.71209716796875,-217.96630859375,-30.150001525878906,-9.75,-32.10000228881836
4.81,46.0452880859375,20.609289169311523,-11.990161895751953,-130.43338012695312,-111.64777374267578,-209.3062744140625,-29.250001907348633,-7.200000286102295,-30.900001525878906
4.82,47.04127502441406,21.911733627319336,-12.641385078430176,-116.9770278930664,-107.65084075927734,-200.11331176757812,-28.500001907348633,-6.900000095367432,-31.500001907348633
4.83,50.37400436401367,26.087221145629883,-12.334927558898926,-101.65543365478516,-96.8591079711914,-189.5880584716797,-28.500001907348633,-6.900000095367432,-31.500001907348633
4.84,52.94058609008789,29.53487205505371,-11.41555404663086,-84.4686050415039,-93.39509582519531,-188.92189025878906,-27.30000114440918,-4.950000286102295,-31.500001907348633
4.859,53.553504943847656,33.25067138671875,-13.675680160522461,-68.34762573242188,-89.26493072509766,-177.86370849609375,-27.900001525878906,-5.850000381469727,-32.10000228881836
4.863,52.480899810791016,35.702335357666016,-15.322891235351562,-40.76875686645508,-88.19908142089844,-143.88973999023438,-26.700000762939453,-4.050000190734863,-31.80000114440918
4.87,49.18648147583008,37.694313049316406,-18.962078094482422,-19.718223571777344,-99.79019927978516,-134.29708862304688,-27.900001525878906,-4.050000190734863,-32.10000228881836
4.88,47.65419006347656,37.34954833984375,-19.728221893310547,-7.194486618041992,-90.4640121459961,-117.50994873046875,-27.900001525878906,-4.050000190734863,-32.10000228881836
4.89,46.658203125,38.422149658203125,-22.103269577026367,11.724349021911621,-74.74272155761719,-99.79019927978516,-25.200000762939453,-3.6000001430511475,-31.350000381469727
4.9,50.18246841430664,35.510799407958984,-23.63555908203125,17.586523056030273,-70.3460922241211,-78.73966217041016,-24.900001525878906,-2.8500001430511475,-34.35000228881836
4.92,58.99312973022461,34.476505279541016,-26.393678665161133,24.64777946472168,-71.14547729492188,-74.20980072021484,-24.30000114440918,-2.25,-34.95000076293945
4.923,76.26969146728516,31.450233459472656,-28.92195701599121,-3.0643184185028076,-53.29249572753906,-64.88361358642578,-24.30000114440918,-2.25,-34.95000076293945
4.93,78.56812286376953,31.680076599121094,-29.95625114440918,-10.125574111938477,-58.4885139465332,-47.297088623046875,-24.30000114440918,-2.25,-34.95000076293945
4.94,80.2536392211914,34.74465560913086,-36.77493667602539,-31.975496292114258,-28.644716262817383,-27.045940399169922,-23.700000762939453,-0.9000000357627869,-34.650001525878906
4.95,82.28392028808594,39.035064697265625,-44.206539154052734,-54.75803756713867,9.192955017089844,-7.194486618041992,-24.0,-1.5,-33.45000076293945
4.96,83.31822204589844,45.66221618652344,-42.52102279663086,-57.289432525634766,25.04747200012207,27.578866958618164,-25.05000114440918,-1.0500000715255737,-35.25
4.979,84.85050964355469,47.57757568359375,-44.206539154052734,-28.111791610717773,25.980091094970703,38.90352249145508,-23.700000762939453,-1.350000023841858,-34.35000228881836
4.983,77.68705749511719,41.29519271850586,-45.85375213623047,13.189892768859863,43.03369140625,45.298622131347656,-23.700000762939453,-1.350000023841858,-34.35000228881836
4.99,76.03984832763672,38.69029998779297,-45.31745147705078,22.116384506225586,59.95405578613281,50.62786865234375,-24.750001907348633,-1.8000000715255737,-33.45000076293945
5.0,74.35432434082031,35.0128059387207,-43.63193130493164,49.69525146484375,66.08269500732422,60.48698043823242,-23.25,-1.5,-33.45000076293945
5.01,72.78372955322266,29.84132957458496,-37.00477981567383,66.21592712402344,56.356815338134766,86.20060729980469,-24.750001907348633,-1.5,-33.0
5.02,73.20510864257812,23.13756561279297,-27.46628189086914,60.88667678833008,57.15620040893555,84.20214080810547,-24.150001525878906,-2.1000001430511475,-31.350000381469727
5.039,73.0135726928711,14.939818382263184,-23.21417999267578,6.128636837005615,38.37059783935547,96.32618713378906,-25.500001907348633,-3.750000238418579,-32.25
5.042,75.31201171875,2.9496564865112305,-18.579004287719727,-8.526799201965332,36.238895416259766,97.25880432128906,-25.500001907348633,-3.750000238418579,-32.25
5.05,76.76768493652344,1.455674648284912,-20.456058502197266,-38.50382614135742,23.04900360107422,120.04134368896484,-26.250001907348633,-3.750000238418579,-32.25
5.06,80.10041046142578,0.3064578175544739,-24.05693817138672,-91.52986145019531,39.83613967895508,112.84685516357422,-25.650001525878906,-4.050000190734863,-31.80000114440918
5.07,89.71552276611328,3.332728862762451,-33.02082824707031,-136.82847595214844,45.56508255004883,134.5635528564453,-25.650001525878906,-2.4000000953674316,-33.30000305175781
5.08,97.76004028320312,11.492168426513672,-37.694313049316406,-173.2006072998047,60.62021255493164,157.21286010742188,-25.650001525878906,-2.4000000953674316,-33.30000305175781
5.099,98.83264923095703,24.66985511779785,-39.91613006591797,-191.8529815673828,79.80551147460938,176.53138732910156,-27.150001525878906,-3.1500000953674316,-32.10000228881836
5.103,86.22956848144531,39.18829345703125,-40.03105163574219,-167.73812866210938,108.45022583007812,204.90963745117188,-25.650001525878906,-2.4000000953674316,-31.80000114440918
5.11,85.61665344238281,38.65199279785156,-38.537071228027344,-135.4961700439453,109.51607513427734,219.83154296875,-26.55000114440918,-3.750000238418579,-31.500001907348633
5.12,86.45941162109375,38.613685607910156,-33.44221115112305,-115.2450180053711,119.24195861816406,229.0244903564453,-26.250001907348633,-4.950000286102295,-30.900001525878906
5.13,92.090576171875,32.02484130859375,-28.347347259521484,-117.64318084716797,128.16845703125,223.29554748535156,-26.250001907348633,-4.950000286102295,-30.900001525878906
5.14,99.9052505493164,24.286781311035156,-23.9420166015625,-125.90351867675781,117.24349212646484,246.07809448242188,-28.200000762939453,-2.8500001430511475,-30.30000114440918
5.158,105.76625061035156,18.157625198364258,-21.26051139831543,-152.1500701904297,114.71209716796875,248.60948181152344,-29.400001525878906,-5.850000381469727,-28.80000114440918
5.162,103.96581268310547,14.786589622497559,-28.309040069580078,-154.814697265625,117.24349212646484,264.86370849609375,-29.400001525878906,-5.850000381469727,-28.80000114440918
5.17,102.47183227539062,15.361198425292969,-28.270732879638672,-149.21897888183594,116.71056365966797,264.0643005371094,-29.250001907348633,-5.700000286102295,-27.450000762939453
5.18,100.4415512084961,15.514427185058594,-26.891674041748047,-135.89585876464844,117.24349212646484,276.4548034667969,-29.250001907348633,-5.700000286102295,-27.450000762939453
5.19,96.45759582519531,16.35718536376953,-26.048913955688477,-127.76875305175781,116.0444107055664,283.915771484375,-30.450000762939453,-5.550000190734863,-28.05000114440918
5.208,90.8264389038086,16.47210693359375,-24.05693817138672,-111.781005859375,99.65696716308594,294.57427978515625,-29.700000762939453,-5.850000381469727,-25.80000114440918
5.212,87.26386260986328,11.951854705810547,-22.409727096557617,-118.17610931396484,89.39816284179688,286.3139343261719,-32.400001525878906,-9.0,-27.150001525878906
5.22,78.9511947631836,3.7158010005950928,-20.456058502197266,-113.77947998046875,80.20520782470703,287.9126892089844,-32.400001525878906,-9.0,-25.500001907348633
5.23,75.69508361816406,-0.9576807022094727,-20.570980072021484,-119.5084228515625,80.73812866210938,283.5160827636719,-32.400001525878906,-9.0,-25.500001907348633
5.24,71.8643569946289,-3.600879430770874,-20.992361068725586,-122.43950653076172,71.67840576171875,284.98162841796875,-30.000001907348633,-10.050000190734863,-26.400001525878906
5.25,68.37840270996094,-3.026270866394043,-21.222204208374023,-112.98008728027344,59.82082748413086,301.76873779296875,-30.900001525878906,-10.200000762939453,-26.250001907348633
5.26,66.5396499633789,-0.3447650372982025,-21.37543296813965,-115.77794647216797,48.49617004394531,305.2327575683594,-32.55000305175781,-13.050000190734863,-24.900001525878906
5.275,68.1102523803711,2.8347349166870117,-18.387468338012695,-130.43338012695312,47.163856506347656,326.016845703125,-31.650001525878906,-10.5,-25.500001907348633
5.28,67.45903015136719,7.1251444816589355,-21.45204734802246,-119.64165496826172,36.63859176635742,340.9387512207031,-31.650001525878906,-10.5,-25.500001907348633
5.29,65.58197021484375,9.346963882446289,-22.2948055267334,-96.8591079711914,35.306278228759766,364.25421142578125,-33.150001525878906,-12.450000762939453,-25.500001907348633
5.3,62.670623779296875,13.943830490112305,-22.026655197143555,-66.34915924072266,56.22358322143555,380.37518310546875,-33.0,-12.300000190734863,-24.900001525878906
5.31,59.950809478759766,17.42978858947754,-23.290794372558594,-15.987748146057129,57.689125061035156,378.9096374511719,-32.70000076293945,-15.15000057220459,-24.450000762939453
5.329,57.001155853271484,14.863204002380371,-20.685903549194336,43.83307647705078,51.160797119140625,389.8345947265625,-33.45000076293945,-16.350000381469727,-24.450000762939453
5.333,57.614070892333984,11.875240325927734,-18.272546768188477,94.59417724609375,63.551300048828125,379.1761169433594,-32.400001525878906,-18.75,-24.450000762939453
5.34,53.13212585449219,4.903325080871582,-17.42978858947754,116.17764282226562,57.955589294433594,367.3185119628906,-32.400001525878906,-18.75,-24.450000762939453
5.35,51.94459915161133,1.3024457693099976,-16.433799743652344,125.7702865600586,54.89126968383789,357.9923400878906,-33.45000076293945,-20.55000114440918,-22.950000762939453
5.36,48.650177001953125,-5.746084213256836,-14.135366439819336,117.11026000976562,54.89126968383789,350.66461181640625,-34.05000305175781,-21.600000381469727,-23.850000381469727
5.37,49.87601089477539,-14.211980819702148,-14.480132102966309,74.74272155761719,57.55589294433594,331.74578857421875,-32.70000076293945,-23.25,-22.5
5.38,52.13613510131836,-18.310853958129883,-12.526463508605957,55.55742645263672,67.28177642822266,317.49005126953125,-32.70000076293945,-23.25,-22.5
5.392,51.48491287231445,-19.421764373779297,-9.883264541625977,20.517610549926758,69.94640350341797,308.0306091308594,-31.650001525878906,-27.150001525878906,-22.5
5.4,49.76108932495117,-24.478317260742188,-8.465897560119629,-6.395099639892578,63.950992584228516,291.7763977050781,-31.650001525878906,-27.150001525878906,-22.5
5.41,49.76108932495117,-25.321077346801758,-6.933608055114746,-45.43185043334961,71.81163787841797,259.6676940917969,-32.70000076293945,-26.850000381469727,-22.200000762939453
5.42,49.14817428588867,-23.290794372558594,-6.3973069190979,-58.4885139465332,63.950992584228516,239.949462890625,-32.25,-27.000001907348633,-20.850000381469727
5.43,48.42033386230469,-21.45204734802246,-6.205770969390869,-78.07350158691406,64.75038146972656,208.3736572265625,-32.25,-27.000001907348633,-20.850000381469727
5.449,47.76911163330078,-15.399505615234375,-7.7763671875,-97.5252685546875,68.21439361572266,175.19908142089844,-31.80000114440918,-29.700000762939453,-20.100000381469727
5.453,47.615882873535156,-10.611102104187012,-11.530475616455078,-93.12863159179688,55.95711898803711,157.87901306152344,-31.950000762939453,-31.05000114440918,-20.400001525878906
5.46,48.841712951660156,-1.2641384601593018,-12.22000503540039,-84.73506927490234,58.62174606323242,149.08575439453125,-30.900001525878906,-30.600000381469727,-20.700000762939453
5.47,48.956634521484375,3.6391866207122803,-12.947842597961426,-75.94180297851562,59.68759536743164,136.0290985107422,-30.900001525878906,-30.600000381469727,-20.700000762939453
5.48,51.52322006225586,12.373234748840332,-10.342951774597168,-37.304744720458984,64.084228515625,128.03521728515625,-32.55000305175781,-33.150001525878906,-20.700000762939453
5.49,52.787357330322266,15.24627685546875,-9.921571731567383,0.6661561727523804,62.8851432800293,125.10413360595703,-30.750001907348633,-30.900001525878906,-21.30000114440918
5.51,55.58378601074219,13.560758590698242,-4.213795185089111,40.76875686645508,50.62786865234375,96.72587585449219,-31.200000762939453,-31.80000114440918,-19.950000762939453
5.513,59.26128005981445,4.596867084503174,-1.7621324062347412,92.19601440429688,16.387441635131836,75.27565002441406,-31.200000762939453,-32.55000305175781,-20.400001525878906
5.52,64.31783294677734,-8.580819129943848,7.354987621307373,99.25727081298828,10.92496109008789,58.222049713134766,-31.200000762939453,-32.55000305175781,-20.400001525878906
5.53,67.91871643066406,-15.744270324707031,9.461885452270508,125.7702865600586,-12.656967163085938,33.70750427246094,-30.900001525878906,-35.25,-19.200000762939453
5.54,72.01758575439453,-26.163835525512695,10.84094524383545,155.88055419921875,-17.186830520629883,0.2664624750614166,-30.900001525878906,-34.20000076293945,-19.650001525878906
5.55,76.38461303710938,-38.422149658203125,9.346963882446289,171.06890869140625,-5.728943347930908,-46.497703552246094,-31.05000114440918,-33.900001525878906,-18.75
5.569,81.441162109375,-54.97087097167969,11.30063247680664,165.2067413330078,-14.255742073059082,-85.66768646240234,-28.950000762939453,-34.95000076293945,-18.900001525878906
5.573,84.65897369384766,-70.71514129638672,12.986149787902832,131.63246154785156,-21.84992218017578,-160.8101043701172,-28.950000762939453,-34.95000076293945,-18.900001525878906
5.58,90.86474609375,-83.58637237548828,18.34916114807129,96.32618713378906,-45.03215789794922,-185.19142150878906,-31.650001525878906,-34.95000076293945,-17.700000762939453
5.59,95.04022979736328,-85.00373840332031,16.970102310180664,28.511484146118164,-52.3598747253418,-219.56507873535156,-30.900001525878906,-33.0,-17.700000762939453
5.6,99.94355773925781,-82.59038543701172,6.742072105407715,-35.03981399536133,-47.9632453918457,-239.68299865722656,-32.400001525878906,-32.55000305175781,-17.700000762939453
5.61,100.86293029785156,-69.83407592773438,-2.8347349166870117,-80.60489654541016,-31.44257164001465,-236.88514709472656,-31.950000762939453,-32.55000305175781,-18.150001525878906
5.63,100.40324401855469,-48.57356262207031,-8.96389102935791,-106.31852722167969,2.398162364959717,-234.35374450683594,-31.950000762939453,-32.55000305175781,-18.150001525878906
5.633,98.14311981201172,-27.15982437133789,-11.645397186279297,-88.06584930419922,12.25727367401123,-210.90504455566406,-33.0,-30.450000762939453,-18.0
5.64,99.10079956054688,-4.865017890930176,-13.675680160522461,-44.63246536254883,0.7993874549865723,-188.92189025878906,-30.900001525878906,-30.600000381469727,-19.200000762939453
5.65,99.17741394042969,3.2178070545196533,-12.986149787902832,6.661561965942383,-6.5283308029174805,-183.85910034179688,-31.950000762939453,-29.100000381469727,-18.900001525878906
5.66,98.6028060913086,7.929595947265625,-12.526463508605957,70.61255645751953,-21.316997528076172,-173.33384704589844,-33.0,-28.200000762939453,-18.0
5.67,98.21973419189453,6.167463779449463,-8.006210327148438,145.75497436523438,-47.163856506347656,-174.79937744140625,-33.0,-28.200000762939453,-18.0
5.689,100.05847930908203,1.2641384601593018,-2.9496564865112305,193.7182159423828,-66.21592712402344,-180.66156005859375,-32.70000076293945,-26.850000381469727,-18.900001525878906
5.693,100.32662963867188,-8.006210327148438,3.294421434402466,222.62939453125,-96.72587585449219,-201.578857421875,-33.30000305175781,-27.450000762939453,-19.05000114440918
5.7,105.49810028076172,-17.8128604888916,7.967903137207031,222.62939453125,-102.05513000488281,-214.3690643310547,-31.950000762939453,-27.600000381469727,-18.150001525878906
5.71,106.14933013916016,-21.37543296813965,9.423578262329102,232.62173461914062,-120.4410400390625,-236.88514709472656,-33.900001525878906,-25.650001525878906,-19.200000762939453
5.72,108.44776153564453,-23.75048065185547,8.274360656738281,220.6309356689453,-113.11331939697266,-265.9295349121094,-33.900001525878906,-25.650001525878906,-19.200000762939453
5.73,112.24017333984375,-24.018630981445312,7.738059997558594,206.37518310546875,-125.37059783935547,-269.2603454589844,-32.400001525878906,-24.900001525878906,-18.900001525878906
5.751,116.6838150024414,-23.482330322265625,11.760318756103516,197.848388671875,-145.2220458984375,-273.6569519042969,-32.70000076293945,-24.900001525878906,-19.200000762939453
5.755,120.13146209716797,-27.006595611572266,9.768342971801758,170.53598022460938,-142.82388305664062,-301.3690490722656,-31.80000114440918,-24.30000114440918,-18.75
5.76,117.94795227050781,-31.986534118652344,-0.6129156351089478,161.7427215576172,-139.6263427734375,-301.6355285644531,-34.05000305175781,-23.55000114440918,-19.80000114440918
5.77,118.29271697998047,-32.676063537597656,-3.2178070545196533,124.30474090576172,-121.3736572265625,-323.6186828613281,-34.05000305175781,-23.55000114440918,-19.80000114440918
5.78,114.8450698852539,-35.89387130737305,-8.580819129943848,91.26339721679688,-109.11638641357422,-330.679931640625,-33.30000305175781,-21.900001525878906,-18.75
5.79,112.546630859375,-38.46045684814453,-12.526463508605957,46.364471435546875,-105.11944580078125,-337.8744201660156,-33.150001525878906,-22.5,-19.950000762939453
5.81,109.06067657470703,-32.292991638183594,-11.875240325927734,-6.261868000030518,-100.85604858398438,-348.1332092285156,-33.150001525878906,-21.75,-21.150001525878906
5.813,103.08474731445312,-21.950040817260742,-12.871228218078613,-41.568145751953125,-112.71363067626953,-324.6845397949219,-32.25,-20.100000381469727,-20.850000381469727
5.82,94.04424285888672,-4.596867084503174,-13.79060173034668,-41.701377868652344,-122.70597076416016,-308.9632263183594,-32.25,-20.100000381469727,-20.850000381469727
5.83,88.87276458740234,4.443638324737549,-13.139378547668457,-44.76569747924805,-114.57886505126953,-279.252685546875,-34.05000305175781,-16.950000762939453,-22.80000114440918
5.84,79.79395294189453,13.330915451049805,-17.889474868774414,-26.379785537719727,-107.11791229248047,-247.01071166992188,-34.80000305175781,-17.700000762939453,-21.600000381469727
5.85,73.35833740234375,19.038692474365234,-18.387468338012695,5.728943347930908,-111.24808502197266,-218.0995330810547,-32.70000076293945,-17.55000114440918,-20.700000762939453
5.87,67.42072296142578,20.685903549194336,-18.88546371459961,37.97090148925781,-101.2557373046875,-207.5742645263672,-34.20000076293945,-15.90000057220459,-22.200000762939453
5.873,64.47106170654297,21.75850486755371,-14.09705924987793,72.74425506591797,-106.85145568847656,-193.58499145507812,-34.20000076293945,-15.90000057220459,-22.200000762939453
5.88,60.831878662109375,20.264522552490234,-8.848969459533691,87.26646423339844,-113.64624786376953,-175.7320098876953,-31.500001907348633,-13.500000953674316,-23.55000114440918
5.89,59.5677375793457,17.276559829711914,-8.542511940002441,90.4640121459961,-113.51301574707031,-165.4731903076172,-33.150001525878906,-13.65000057220459,-24.0
5.9,59.146358489990234,12.143390655517578,-6.512228488922119,93.39509582519531,-120.70750427246094,-161.47625732421875,-32.25,-11.850000381469727,-22.350000381469727
5.91,56.733001708984375,9.078812599182129,-4.903325080871582,85.93415069580078,-121.64012145996094,-154.814697265625,-32.55000305175781,-12.750000953674316,-24.900001525878906
5.93,55.27732849121094,4.63517427444458,-4.290409564971924,86.86676788330078,-131.0995330810547,-154.9479217529297,-32.55000305175781,-12.750000953674316,-24.900001525878906
5.933,54.85594940185547,2.1068975925445557,-4.137180328369141,65.68299865722656,-128.16845703125,-167.47166442871094,-30.150001525878906,-11.700000762939453,-23.700000762939453
5.94,52.289363861083984,-1.9536685943603516,-3.44765043258667,61.68606185913086,-122.3062744140625,-167.2052001953125,-31.500001907348633,-12.750000953674316,-24.150001525878906
5.95,52.74905014038086,-3.026270866394043,-2.873042106628418,48.362937927246094,-127.63552856445312,-169.60336303710938,-31.200000762939453,-11.700000762939453,-26.250001907348633
5.96,52.4042854309082,-4.596867084503174,-1.4939818382263184,23.04900360107422,-130.69984436035156,-188.1225128173828,-29.700000762939453,-11.700000762939453,-26.250001907348633
5.97,48.841712951660156,-3.7924153804779053,-0.4213795065879822,4.663093090057373,-130.69984436035156,-194.38436889648438,-29.700000762939453,-11.700000762939453,-26.250001907348633
5.99,48.343719482421875,-2.5282769203186035,-0.8810662031173706,-28.77794647216797,-130.1669158935547,-204.50994873046875,-28.500001907348633,-10.800000190734863,-26.400001525878906
5.993,47.117889404296875,-2.0685901641845703,-1.2641384601593018,-75.00918579101562,-139.7595672607422,-205.44256591796875,-28.80000114440918,-9.600000381469727,-28.950000762939453
6.0,43.32547378540039,1.3024457693099976,-3.5625722408294678,-97.65850067138672,-134.96324157714844,-199.5803985595703,-28.80000114440918,-9.15000057220459,-28.200000762939453
6.01,42.44440841674805,4.481945514678955,-6.01423454284668,-123.37212371826172,-122.83920288085938,-194.51760864257812,-28.80000114440918,-9.15000057220459,-28.200000762939453
6.02,40.33750915527344,9.078812599182129,-10.572794914245605,-135.22970581054688,-121.64012145996094,-180.5283203125,-28.80000114440918,-9.15000057220459,-28.200000762939453
6.03,38.80522155761719,13.369222640991211,-12.02846908569336,-144.95558166503906,-111.91423797607422,-176.53138732910156,-28.500001907348633,-5.700000286102295,-30.150001525878906
6.05,38.537071228027344,18.34916114807129,-11.645397186279297,-152.41653442382812,-94.0612564086914,-185.5911102294922,-27.000001907348633,-4.5,-29.400001525878906
6.054,38.49876403808594,24.78477668762207,-13.905523300170898,-130.30015563964844,-78.87289428710938,-172.6676788330078,-25.80000114440918,-3.750000238418579,-28.650001525878906
6.06,40.069358825683594,30.60747528076172,-13.139378547668457,-116.31086730957031,-91.92955017089844,-146.9540557861328,-25.80000114440918,-3.750000238418579,-28.650001525878906
6.07,42.32948684692383,33.02082824707031,-12.143390655517578,-84.20214080810547,-91.13016510009766,-132.29861450195312,-25.950000762939453,-5.100000381469727,-29.250001907348633
6.08,45.394065856933594,37.77092742919922,-13.637372970581055,-73.81010437011719,-92.99540710449219,-125.90351867675781,-25.80000114440918,-2.700000047683716,-28.950000762939453
6.09,47.19450378417969,40.107666015625,-13.522451400756836,-39.43644714355469,-101.52220153808594,-100.05665588378906,-25.05000114440918,-2.700000047683716,-28.650001525878906
6.109,48.30541229248047,42.7891731262207,-15.744270324707031,-23.98162269592285,-85.66768646240234,-155.747314453125,-22.950000762939453,0.45000001788139343,-30.30000114440918
6.113,47.76911163330078,40.91211700439453,-21.6818904876709,13.989279747009277,-76.07503509521484,-66.08269500732422,-22.950000762939453,0.45000001788139343,-30.30000114440918
6.12,53.74504089355469,37.27293395996094,-24.89969825744629,11.457886695861816,-57.15620040893555,-68.4808578491211,-22.650001525878906,-1.350000023841858,-30.30000114440918
6.13,61.06172180175781,35.35757064819336,-26.66183090209961,15.188361167907715,-43.96630859375,-42.23430252075195,-22.650001525878906,-0.15000000596046448,-29.250001907348633
6.14,69.9873046875,34.85957717895508,-32.676063537597656,0.1332312375307083,-19.45176124572754,-42.90045928955078,-22.80000114440918,0.75,-30.150001525878906
6.15,79.0278091430664,36.66001510620117,-39.68628692626953,-5.995405673980713,9.192955017089844,-17.186830520629883,-22.650001525878906,-1.350000023841858,-29.850000381469727
6.17,85.19527435302734,40.49073791503906,-42.32948684692383,-2.531393527984619,27.31240463256836,12.390504837036133,-22.650001525878906,-1.350000023841858,-29.850000381469727
6.173,90.02198028564453,43.13393783569336,-39.72459411621094,13.189892768859863,24.781009674072266,37.4379768371582,-22.200000762939453,-1.6500000953674316,-29.55000114440918
6.18,90.2518310546875,42.674251556396484,-37.809234619140625,19.98468589782715,32.37519073486328,41.701377868652344,-22.200000762939453,-1.6500000953674316,-29.55000114440918
6.19,86.1146469116211,40.49073791503906,-40.91211700439453,31.042879104614258,39.03675079345703,67.5482406616211,-21.450000762939453,0.9000000357627869,-28.500001907348633
6.2,83.54806518554688,34.170047760009766,-43.593624114990234,15.188361167907715,57.15620040893555,77.94027709960938,-22.5,0.0,-30.150001525878906
6.21,83.1266860961914,26.96828842163086,-43.63193130493164,-3.9969370365142822,61.68606185913086,90.99693298339844,-22.5,0.0,-30.150001525878906
6.229,85.92311096191406,18.808849334716797,-42.559329986572266,-34.64012145996094,79.40581512451172,109.78253936767578,-23.700000762939453,-0.9000000357627869,-29.55000114440918
6.233,84.69728088378906,14.441824913024902,-39.68628692626953,-60.08728790283203,69.14701080322266,126.03675079345703,-23.400001525878906,-3.6000001430511475,-28.500001907348633
6.24,83.43314361572266,14.135366439819336,-34.55311965942383,-70.21286010742188,77.54058074951172,137.62786865234375,-23.400001525878906,-3.6000001430511475,-28.500001907348633
6.25,81.05809020996094,15.705963134765625,-34.24666213989258,-73.54364013671875,85.80091857910156,131.89892578125,-24.0,-0.75,-28.200000762939453
6.26,80.7899398803711,16.625335693359375,-31.7183837890625,-76.34149932861328,92.72894287109375,148.0198974609375,-24.0,-0.75,-28.200000762939453
6.27,82.4371566772461,16.70195198059082,-30.339323043823242,-68.61408996582031,92.3292465209961,155.08116149902344,-24.750001907348633,-2.25,-26.400001525878906
6.29,84.00775146484375,15.514427185058594,-27.504589080810547,-69.67993927001953,83.5359878540039,166.67227172851562,-24.750001907348633,-1.8000000715255737,-27.150001525878906
6.293,84.73558807373047,13.48414421081543,-22.7161865234375,-84.4686050415039,80.8713607788086,166.53904724121094,-25.950000762939453,-2.4000000953674316,-27.000001907348633
6.3,90.86474609375,11.990161895751953,-22.409727096557617,-79.53904724121094,78.07350158691406,168.67074584960938,-25.950000762939453,-2.4000000953674316,-27.000001907348633
6.31,93.2780990600586,12.066776275634766,-24.938005447387695,-96.32618713378906,81.8039779663086,181.99386596679688,-25.950000762939453,-2.4000000953674316,-27.000001907348633
6.32,94.15916442871094,9.959878921508789,-27.504589080810547,-121.50688934326172,102.45481872558594,181.19448852539062,-25.650001525878906,-2.4000000953674316,-25.200000762939453
6.33,93.9676284790039,9.461885452270508,-29.34333610534668,-149.21897888183594,113.3797836303711,199.18069458007812,-27.000001907348633,-3.0,-26.400001525878906
6.349,92.81841278076172,12.449849128723145,-32.9442138671875,-161.2097930908203,126.7029037475586,210.37213134765625,-26.250001907348633,-4.200000286102295,-26.850000381469727
6.352,87.03401947021484,13.48414421081543,-31.028854370117188,-171.86830139160156,136.56201171875,223.82847595214844,-28.950000762939453,-2.8500001430511475,-24.450000762939453
6.36,88.29815673828125,14.173673629760742,-27.925968170166016,-188.52220153808594,152.949462890625,230.75650024414062,-28.950000762939453,-2.8500001430511475,-24.450000762939453
6.37,89.90705871582031,14.633360862731934,-26.355371475219727,-185.85757446289062,137.22817993164062,244.21286010742188,-27.750001907348633,-5.400000095367432,-23.100000381469727
6.38,90.74982452392578,14.67166805267334,-27.46628189086914,-186.25726318359375,126.43644714355469,247.8101043701172,-28.80000114440918,-3.450000047683716,-24.150001525878906
6.39,89.44737243652344,13.330915451049805,-24.05693817138672,-195.1837615966797,126.03675079345703,240.48239135742188,-28.950000762939453,-4.050000190734863,-22.5
6.41,85.11865997314453,13.637372970581055,-24.9763126373291,-170.53598022460938,104.18682861328125,254.73812866210938,-28.950000762939453,-4.050000190734863,-22.5
6.413,75.19709014892578,14.633360862731934,-17.966089248657227,-155.6140899658203,88.99846649169922,230.4900360107422,-30.450000762939453,-5.100000381469727,-19.950000762939453
6.42,74.2777099609375,15.591041564941406,-16.47210693359375,-135.76263427734375,75.27565002441406,246.74424743652344,-31.05000114440918,-6.900000095367432,-20.55000114440918
6.43,71.8260498046875,17.42978858947754,-14.058752059936523,-124.03828430175781,60.75344467163086,251.67381286621094,-30.450000762939453,-7.800000190734863,-21.450000762939453
6.44,65.69689178466797,18.195932388305664,-15.131354331970215,-91.26339721679688,61.81929397583008,255.40428161621094,-31.200000762939453,-7.050000190734863,-20.400001525878906
6.45,60.44880294799805,17.774553298950195,-16.012420654296875,-58.08882141113281,56.356815338134766,266.72894287109375,-31.200000762939453,-7.050000190734863,-20.400001525878906
6.469,57.26930618286133,15.667655944824219,-15.399505615234375,-40.36906433105469,64.3506851196289,269.2603454589844,-32.70000076293945,-9.75,-18.150001525878906
6.472,53.40027618408203,9.078812599182129,-15.054739952087402,-11.324655532836914,64.61714935302734,269.9264831542969,-31.80000114440918,-8.40000057220459,-19.05000114440918
6.48,53.247047424316406,9.117119789123535,-14.709975242614746,-5.8621745109558105,67.94792938232422,266.3292541503906,-32.55000305175781,-9.600000381469727,-19.80000114440918
6.49,54.894256591796875,4.443638324737549,-13.943830490112305,1.3323123455047607,70.07962799072266,269.7932434082031,-30.900001525878906,-11.40000057220459,-19.200000762939453
6.5,53.553504943847656,3.3710360527038574,-12.373234748840332,1.5987749099731445,76.4747314453125,255.67074584960938,-30.900001525878906,-11.40000057220459,-19.200000762939453
6.51,53.476890563964844,1.8387469053268433,-12.717999458312988,2.398162364959717,65.41653442382812,263.1316833496094,-33.30000305175781,-12.300000190734863,-18.75
6.529,54.54949188232422,-0.8044517636299133,-11.875240325927734,-13.856048583984375,73.14395141601562,255.67074584960938,-32.55000305175781,-15.000000953674316,-18.30000114440918
6.533,59.146358489990234,-2.604891538619995,-12.02846908569336,-13.856048583984375,66.34915924072266,264.0643005371094,-32.55000305175781,-15.000000953674316,-18.30000114440918
6.54,60.44880294799805,-3.754108190536499,-11.185709953308105,-33.57427215576172,72.61102294921875,251.4073486328125,-33.30000305175781,-15.450000762939453,-18.75
6.55,61.36817932128906,-6.167463779449463,-11.60708999633789,-35.306278228759766,67.814697265625,246.477783203125,-33.30000305175781,-15.450000762939453,-18.75
6.56,60.64033889770508,-4.711789131164551,-9.84495735168457,-37.57120895385742,67.94792938232422,245.9448699951172,-31.80000114440918,-16.200000762939453,-17.55000114440918
6.57,62.32585906982422,-0.5746083855628967,-8.006210327148438,-47.830013275146484,66.48238372802734,229.82388305664062,-32.70000076293945,-16.80000114440918,-16.650001525878906
6.589,61.17664337158203,2.2218191623687744,-9.155426979064941,-36.238895416259766,67.41500854492188,219.29861450195312,-33.0,-17.700000762939453,-17.55000114440918
6.593,63.62830352783203,2.9496564865112305,-8.159439086914062,-8.39356803894043,62.35221862792969,215.3016815185547,-31.650001525878906,-17.850000381469727,-17.400001525878906
6.6,63.168617248535156,3.026270866394043,-6.971915245056152,-8.526799201965332,65.28330993652344,193.45175170898438,-31.650001525878906,-17.850000381469727,-17.400001525878906
6.61,64.85413360595703,-1.800439715385437,-4.098873138427734,-12.124042510986328,53.95865249633789,158.67840576171875,-32.55000305175781,-18.450000762939453,-16.80000114440918
6.62,69.4126968383789,-9.806650161743164,1.072602391242981,-13.189892768859863,18.119447708129883,130.43338012695312,-32.70000076293945,-19.80000114440918,-16.650001525878906
6.63,72.51557922363281,-15.897499084472656,1.4939818382263184,-46.764163970947266,-7.460949420928955,104.7197494506836,-32.25,-19.650001525878906,-16.5
6.648,70.98329162597656,-21.605276107788086,-3.8307228088378906,-112.58039855957031,5.196018218994141,87.9326171875,-32.55000305175781,-19.200000762939453,-15.450000762939453
6.652,69.3360824584961,-16.318878173828125,-21.56696891784668,-137.09494018554688,24.51454734802246,75.94180297851562,-32.55000305175781,-19.200000762939453,-15.450000762939453
6.66,68.87639617919922,-13.21599292755127,-21.87342643737793,-149.08575439453125,49.42878723144531,89.26493072509766,-32.55000305175781,-21.150001525878906,-17.25
6.67,70.14053344726562,-5.171475887298584,-20.456058502197266,-144.82235717773438,66.882080078125,108.45022583007812,-32.70000076293945,-19.5,-15.600000381469727
6.68,70.33206939697266,2.604891538619995,-19.460071563720703,-127.90198516845703,83.26952362060547,95.12710571289062,-31.650001525878906,-20.25,-16.650001525878906
6.69,70.71514129638672,2.873042106628418,-13.407529830932617,-94.19448852539062,62.35221862792969,77.54058074951172,-32.70000076293945,-21.450000762939453,-16.650001525878906
6.703,76.38461303710938,-5.171475887298584,-8.197746276855469,-60.62021255493164,40.635528564453125,33.84073257446289,-32.70000076293945,-21.450000762939453,-16.650001525878906
6.71,84.19928741455078,-13.407529830932617,-6.512228488922119,-57.02296829223633,39.30321502685547,1.5987749099731445,-31.950000762939453,-21.0,-15.15000057220459
6.72,88.06831359863281,-15.629348754882812,-2.8347349166870117,-48.22970962524414,27.84532928466797,-10.125574111938477,-33.30000305175781,-21.900001525878906,-15.450000762939453
6.73,93.69947814941406,-22.562957763671875,1.1875240802764893,-47.9632453918457,5.728943347930908,-19.584991455078125,-33.45000076293945,-21.0,-14.40000057220459
6.74,97.45358276367188,-30.99054718017578,4.63517427444458,-64.61714935302734,-0.5329249501228333,-64.61714935302734,-30.900001525878906,-19.80000114440918,-15.15000057220459
6.75,97.76004028320312,-32.331298828125,4.941632270812988,-55.15773391723633,-19.45176124572754,-71.94486999511719,-30.900001525878906,-19.80000114440918,-15.15000057220459
6.769,95.7297592163086,-32.21637725830078,-5.861005783081055,-82.6033706665039,-2.797856092453003,-103.65390014648438,-31.80000114440918,-18.150001525878906,-14.700000762939453
6.773,93.39302062988281,-29.305028915405273,-8.810662269592285,-73.0107192993164,-2.9310872554779053,-102.32159423828125,-31.80000114440918,-18.150001525878906,-14.700000762939453
6.78,91.01797485351562,-26.929981231689453,-7.7763671875,-86.0673828125,-6.661561965942383,-125.63705444335938,-32.25,-18.450000762939453,-13.950000762939453
6.79,90.40505981445312,-26.31706428527832,-5.1331682205200195,-73.41041564941406,-28.111791610717773,-119.10872650146484,-32.70000076293945,-17.850000381469727,-14.40000057220459
6.8,90.74982452392578,-20.149600982666016,-0.6512228846549988,-74.34303283691406,-42.633995056152344,-141.35833740234375,-32.70000076293945,-17.850000381469727,-14.40000057220459
6.81,92.20549774169922,-15.399505615234375,5.363011837005615,-56.09035110473633,-72.87748718261719,-127.90198516845703,-32.55000305175781,-16.5,-16.05000114440918
6.822,91.89904022216797,-11.453861236572266,6.358999729156494,-36.238895416259766,-86.3338394165039,-124.43797302246094,-31.80000114440918,-15.450000762939453,-14.700000762939453
6.83,90.71151733398438,-11.72201156616211,-2.451662540435791,-15.721285820007324,-79.40581512451172,-137.22817993164062,-32.400001525878906,-15.600000381469727,-13.65000057220459
6.84,90.36675262451172,-15.897499084472656,-5.20978307723999,1.8652373552322388,-63.28483963012695,-151.48391723632812,-31.950000762939453,-14.40000057220459,-15.600000381469727
6.85,92.97164154052734,-21.720197677612305,-4.558559894561768,2.531393527984619,-53.026031494140625,-169.8698272705078,-31.950000762939453,-14.40000057220459,-15.600000381469727
6.86,98.98587799072266,-27.27474594116211,-1.1109095811843872,7.594180583953857,-44.36600112915039,-198.51454162597656,-31.05000114440918,-13.500000953674316,-15.450000762939453
6.87,106.9920883178711,-29.34333610534668,0.15322890877723694,24.381317138671875,-50.89433288574219,-214.90199279785156,-29.700000762939453,-14.100000381469727,-15.90000057220459
6.886,115.76444244384766,-30.339323043823242,3.1028854846954346,17.719755172729492,-63.950992584228516,-256.4701232910156,-31.650001525878906,-11.700000762939453,-15.600000381469727
6.89,120.78268432617188,-29.76471519470215,1.8770540952682495,15.45482349395752,-67.28177642822266,-274.5895690917969,-31.650001525878906,-11.700000762939453,-15.600000381469727
6.9,121.74037170410156,-30.952239990234375,-0.19153612852096558,7.860642910003662,-80.47166442871094,-296.5727233886719,-31.650001525878906,-11.700000762939453,-15.600000381469727
6.91,119.82500457763672,-29.64979362487793,-6.435614109039307,-12.124042510986328,-88.73200225830078,-305.09954833984375,-30.750001907348633,-10.800000190734863,-17.55000114440918
6.92,115.57290649414062,-28.883649826049805,-12.143390655517578,-49.42878723144531,-86.3338394165039,-322.81927490234375,-29.400001525878906,-8.700000762939453,-17.700000762939453
6.939,113.31277465820312,-24.708162307739258,-15.169661521911621,-84.20214080810547,-87.79938507080078,-312.42724609375,-30.30000114440918,-8.100000381469727,-18.0
6.943,111.58895111083984,-20.992361068725586,-20.187908172607422,-111.11485290527344,-102.05513000488281,-295.9065856933594,-28.950000762939453,-7.050000190734863,-18.450000762939453
6.95,108.869140625,-10.611102104187012,-20.264522552490234,-121.64012145996094,-112.31393432617188,-278.5865173339844,-28.950000762939453,-7.050000190734863,-18.450000762939453
6.96,104.1956558227539,-3.3710360527038574,-21.107282638549805,-133.09800720214844,-113.77947998046875,-263.66461181640625,-28.950000762939453,-6.300000190734863,-17.100000381469727
6.97,97.87496185302734,5.784391403198242,-22.677879333496094,-121.10719299316406,-125.7702865600586,-233.42112731933594,-29.55000114440918,-4.950000286102295,-17.55000114440918
6.98,90.2901382446289,14.67166805267334,-23.367408752441406,-99.65696716308594,-131.89892578125,-213.9693603515625,-28.950000762939453,-3.6000001430511475,-19.200000762939453
6.99,85.23358154296875,20.685903549194336,-22.524648666381836,-90.06431579589844,-122.43950653076172,-207.17457580566406,-27.30000114440918,-4.200000286102295,-18.0
7.003,81.21131896972656,23.63555908203125,-23.060951232910156,-51.027565002441406,-129.6339874267578,-181.3277130126953,-27.30000114440918,-4.200000286102295,-18.0
7.01,77.03583526611328,22.60126495361328,-21.030668258666992,-33.17457962036133,-133.89739990234375,-178.13015747070312,-27.30000114440918,-1.8000000715255737,-18.30000114440918
7.02,75.31201171875,22.141576766967773,-17.697938919067383,-19.185298919677734,-139.2266387939453,-160.94332885742188,-25.950000762939453,-0.45000001788139343,-19.950000762939453
7.03,72.01758575439453,20.685903549194336,-18.464082717895508,-17.186830520629883,-138.16079711914062,-150.01837158203125,-26.55000114440918,0.0,-18.75
7.04,69.3743896484375,17.92778205871582,-19.306842803955078,-7.06125545501709,-146.1546630859375,-149.88514709472656,-26.250001907348633,-0.30000001192092896,-19.05000114440918
7.059,68.34009552001953,13.79060173034668,-17.544710159301758,-7.194486618041992,-148.8192901611328,-150.151611328125,-26.250001907348633,-0.30000001192092896,-19.05000114440918
7.063,65.8501205444336,11.91354751586914,-17.583017349243164,-18.519142150878906,-147.0872802734375,-157.21286010742188,-24.750001907348633,-0.75,-20.100000381469727
7.07,62.670623779296875,11.03248119354248,-17.161638259887695,-24.11485481262207,-151.35069274902344,-151.48391723632812,-24.750001907348633,-0.75,-20.100000381469727
7.08,59.29958724975586,10.41956615447998,-15.667655944824219,-33.4410400390625,-158.9448699951172,-147.4869842529297,-24.750001907348633,0.75,-19.80000114440918
7.09,58.80159378051758,9.346963882446289,-16.089035034179688,-46.897396087646484,-155.747314453125,-156.14700317382812,-22.950000762939453,1.6500000953674316,-21.450000762939453
7.1,55.009178161621094,7.623138427734375,-15.093047142028809,-61.15313720703125,-164.80703735351562,-152.68299865722656,-22.950000762939453,1.6500000953674316,-21.450000762939453
7.119,52.21274948120117,6.971915245056152,-13.637372970581055,-78.3399658203125,-157.612548828125,-161.87594604492188,-22.5,2.25,-20.850000381469727
7.123,50.98691940307617,6.780379295349121,-11.798625946044922,-99.3905029296875,-163.4747314453125,-156.679931640625,-22.05000114440918,3.750000238418579,-20.850000381469727
7.13,51.982906341552734,7.163451671600342,-11.262324333190918,-122.57273864746094,-155.48085021972656,-159.3445587158203,-22.05000114440918,3.750000238418579,-20.850000381469727
7.14,54.702720642089844,9.576807022094727,-12.90953540802002,-140.95864868164062,-157.0796356201172,-164.94027709960938,-21.0,4.5,-22.80000114440918
7.15,58.76328659057617,10.074800491333008,-11.760318756103516,-159.8774871826172,-163.0750274658203,-152.016845703125,-21.0,4.5,-22.80000114440918
7.16,61.67463684082031,15.284584045410156,-11.990161895751953,-179.86216735839844,-161.07656860351562,-153.34915161132812,-19.950000762939453,6.750000476837158,-22.200000762939453
7.179,65.888427734375,18.54069709777832,-12.90953540802002,-199.18069458007812,-152.28330993652344,-146.9540557861328,-20.400001525878906,5.850000381469727,-22.950000762939453
7.183,68.91470336914062,24.631547927856445,-16.127342224121094,-209.1730499267578,-146.9540557861328,-141.75804138183594,-19.80000114440918,7.200000286102295,-22.05000114440918
7.19,68.7231674194336,30.530860900878906,-19.153614044189453,-205.84225463867188,-142.82388305664062,-121.50688934326172,-19.80000114440918,7.200000286102295,-22.05000114440918
7.2,68.1102523803711,34.9744987487793,-21.45204734802246,-197.0489959716797,-120.57427215576172,-113.51301574707031,-19.80000114440918,7.200000286102295,-22.05000114440918
7.21,66.00334930419922,39.68628692626953,-28.347347259521484,-174.66615295410156,-106.31852722167969,-76.74119567871094,-18.30000114440918,9.15000057220459,-20.55000114440918
7.22,64.39444732666016,41.98472213745117,-30.4925537109375,-148.15313720703125,-87.39968872070312,-69.28024291992188,-18.75,9.600000381469727,-20.100000381469727
7.239,65.3138198852539,42.09964370727539,-31.794998168945312,-113.64624786376953,-76.20826721191406,-47.56355285644531,-17.55000114440918,10.050000190734863,-20.55000114440918
7.243,67.5739517211914,40.33750915527344,-31.143775939941406,-94.19448852539062,-55.4241943359375,-30.509952545166016,-16.200000762939453,10.950000762939453,-22.5
7.25,73.0901870727539,38.728607177734375,-32.331298828125,-89.39816284179688,-68.34762573242188,-10.92496109008789,-16.200000762939453,10.950000762939453,-22.5
7.26,75.58016204833984,37.46446990966797,-32.86759948730469,-108.18376159667969,-56.889739990234375,9.459418296813965,-16.950000762939453,11.700000762939453,-21.75
7.27,79.90887451171875,35.93217849731445,-34.170047760009766,-124.57120513916016,-53.42572784423828,40.76875686645508,-16.5,11.850000381469727,-20.55000114440918
7.28,80.06210327148438,34.170047760009766,-36.08540725708008,-135.76263427734375,-42.633995056152344,61.552833557128906,-16.80000114440918,10.800000190734863,-20.100000381469727
7.299,80.94316864013672,30.99054718017578,-39.60967254638672,-136.29556274414062,-41.035221099853516,94.19448852539062,-16.80000114440918,10.800000190734863,-20.100000381469727
7.304,77.84028625488281,30.301015853881836,-41.37180709838867,-136.9617156982422,-16.520673751831055,107.51760864257812,-16.5,11.100000381469727,-20.55000114440918
7.31,73.20510864257812,26.96828842163086,-39.647979736328125,-134.43031311035156,-5.196018218994141,103.25421142578125,-16.5,11.100000381469727,-20.55000114440918
7.32,73.32003021240234,25.39769172668457,-37.234622955322266,-140.02603149414062,0.9326186776161194,115.51148223876953,-16.200000762939453,10.5,-18.450000762939453
7.33,75.46524047851562,21.796812057495117,-29.305028915405273,-141.75804138183594,-2.2649309635162354,120.84072875976562,-16.200000762939453,10.5,-18.450000762939453
7.34,77.7253646850586,19.345149993896484,-23.405715942382812,-158.27871704101562,-2.398162364959717,117.50994873046875,-16.200000762939453,10.5,-18.450000762939453
7.36,77.30398559570312,14.939818382263184,-18.847156524658203,-176.6646270751953,-9.059723854064941,139.09341430664062,-17.700000762939453,10.950000762939453,-18.450000762939453
7.364,72.97526550292969,11.72201156616211,-17.50640296936035,-192.65237426757812,-11.324655532836914,147.8866729736328,-17.700000762939453,12.15000057220459,-19.200000762939453
7.37,65.12228393554688,7.240066051483154,-23.175872802734375,-191.58651733398438,-6.9280242919921875,149.3522186279297,-18.75,11.550000190734863,-19.05000114440918
7.38,62.01940155029297,4.865017890930176,-25.052927017211914,-205.04287719726562,15.188361167907715,156.679931640625,-18.75,11.550000190734863,-19.05000114440918
7.39,62.057708740234375,1.9153614044189453,-25.665842056274414,-221.69677734375,32.64165496826172,162.6753387451172,-18.75,10.800000190734863,-18.0
7.4,62.862159729003906,-0.3447650372982025,-22.946029663085938,-228.4915771484375,32.37519073486328,161.87594604492188,-18.900001525878906,11.40000057220459,-16.350000381469727
7.42,66.19488525390625,-3.294421434402466,-21.14558982849121,-267.66156005859375,41.30168533325195,166.67227172851562,-18.900001525878906,10.200000762939453,-16.650001525878906
7.424,68.26348114013672,-4.213795185089111,-19.919757843017578,-305.2327575683594,36.905052185058594,172.80091857910156,-19.200000762939453,12.450000762939453,-15.15000057220459
7.43,74.00955963134766,-2.145204782485962,-16.28057098388672,-318.15618896484375,32.5084228515625,178.79632568359375,-19.200000762939453,12.450000762939453,-15.15000057220459
7.44,74.77571105957031,0.15322890877723694,-15.782577514648438,-332.67840576171875,10.92496109008789,185.99081420898438,-20.400001525878906,10.5,-15.15000057220459
7.45,76.00154113769531,3.9839515686035156,-14.36521053314209,-370.3828430175781,12.790199279785156,191.4532928466797,-21.450000762939453,11.40000057220459,-13.050000190734863
7.46,77.38059997558594,8.197746276855469,-14.441824913024902,-387.7029113769531,4.529861927032471,200.24655151367188,-21.30000114440918,11.100000381469727,-13.500000953674316
7.479,75.9632339477539,14.288596153259277,-13.599065780639648,-401.0260314941406,-13.056661605834961,226.89279174804688,-20.400001525878906,11.700000762939453,-11.550000190734863
7.483,76.15476989746094,17.085023880004883,-14.518439292907715,-429.00457763671875,-12.25727367401123,230.62327575683594,-20.400001525878906,11.700000762939453,-11.550000190734863
7.49,75.31201171875,18.34916114807129,-14.709975242614746,-436.5987548828125,-14.522205352783203,243.41346740722656,-22.80000114440918,10.800000190734863,-9.15000057220459
7.5,74.54586791992188,19.07699966430664,-13.560758590698242,-436.1990661621094,-23.98162269592285,272.4578857421875,-22.650001525878906,10.950000762939453,-8.25
7.51,74.39263153076172,21.030668258666992,-13.675680160522461,-435.6661376953125,-21.050535202026367,259.4012145996094,-22.05000114440918,11.100000381469727,-7.950000286102295
7.52,72.86034393310547,23.175872802734375,-12.90953540802002,-433.93414306640625,-20.650842666625977,262.3323059082031,-24.150001525878906,9.75,-8.550000190734863
7.539,70.21714782714844,26.85336685180664,-12.411541938781738,-422.0765686035156,-13.189892768859863,267.2618713378906,-24.150001525878906,9.75,-8.550000190734863
7.543,69.75746154785156,29.266721725463867,-12.143390655517578,-389.16845703125,-10.525267601013184,278.18682861328125,-24.30000114440918,9.600000381469727,-6.900000095367432
7.55,68.60824584960938,34.51481246948242,-13.139378547668457,-366.252685546875,-23.04900360107422,291.376708984375,-25.05000114440918,10.800000190734863,-6.600000381469727
7.56,66.15657806396484,34.3998908996582,-15.361198425292969,-348.2664489746094,-7.460949420928955,283.6492919921875,-25.950000762939453,9.75,-5.25
7.57,68.1102523803711,33.44221115112305,-17.583017349243164,-317.22357177734375,-12.390504837036133,303.6340026855469,-27.000001907348633,8.40000057220459,-3.9000000953674316
7.58,68.56993865966797,28.653806686401367,-19.421764373779297,-306.03216552734375,-4.529861927032471,304.96630859375,-27.000001907348633,8.40000057220459,-3.9000000953674316
7.6,71.32805633544922,22.792800903320312,-20.187908172607422,-309.3629455566406,5.995405673980713,305.89892578125,-26.700000762939453,7.800000190734863,-2.700000047683716
7.604,73.28172302246094,16.127342224121094,-20.532672882080078,-322.9525146484375,12.390504837036133,316.55743408203125,-28.05000114440918,6.150000095367432,-1.8000000715255737
