time,accel_x,accel_y,accel_z,gyro_x,gyro_y,gyro_z,mag_x,mag_y,mag_z
0.0,0.016749758273363113,-9.68375301361084,-1.3986047506332397,-0.020616700872778893,0.023365594446659088,-0.001679879380390048,-19.33645248413086,48.14381790161133,-20.666471481323242
0.01,0.09930214285850525,-9.65503978729248,-1.4117653369903564,-0.010079275816679,0.02168571576476097,0.004581489134579897,-19.891843795776367,48.099971771240234,-20.798011779785156
0.02,0.12323036044836044,-9.625128746032715,-1.3674980401992798,0.001527163083665073,0.01191187184303999,0.013591751456260681,-19.380298614501953,47.866119384765625,-20.695703506469727
0.03,0.09571290761232376,-9.66939640045166,-1.3387842178344727,0.0036651913542300463,0.005803219974040985,0.01878410577774048,-19.80415153503418,47.924583435058594,-20.505699157714844
0.04,0.0203389935195446,-9.701699256896973,-1.3244272470474243,-0.001527163083665073,0.005497787147760391,0.020311269909143448,-19.672609329223633,47.69073486328125,-19.614147186279297
0.059,0.0011964113218709826,-9.667003631591797,-1.3471590280532837,-0.009926560334861279,0.009926560334861279,0.015118913725018501,-19.774919509887695,47.8807373046875,-19.45337677001953
0.063,0.004785645287483931,-9.622735977172852,-1.3962119817733765,-0.015577062964439392,0.014508049935102463,0.009010262787342072,-19.19029426574707,47.734580993652344,-19.482608795166016
0.07,0.016749758273363113,-9.608378410339355,-1.4009976387023926,-0.013744467869400978,0.01237002108246088,0.006261368282139301,-19.17568016052246,47.99766159057617,-19.80415153503418
0.08,-0.010767702013254166,-9.596414566040039,-1.435693621635437,-0.0074830991216003895,0.010995574295520782,0.004123340360820293,-19.08798599243164,48.099971771240234,-19.83338165283203
0.09,0.0131605239585042,-9.637092590332031,-1.4117653369903564,-0.0003054326225537807,0.005803219974040985,-0.0007635815418325365,-19.62876319885254,47.74919891357422,-19.891843795776367
0.1,-0.0131605239585042,-9.677770614624023,-1.3854442834854126,0.002138028386980295,-0.0010690141934901476,-0.008399397134780884,-19.760305404663086,47.909969329833984,-21.01724624633789
0.12,-0.0323031060397625,-9.723234176635742,-1.3603196144104004,0.005497787147760391,-0.0007635815418325365,-0.009468411095440388,-20.02338409423828,47.82227325439453,-20.198772430419922
0.123,-0.0526420958340168,-9.742377281188965,-1.3938192129135132,0.005497787147760391,0.007941247895359993,-0.01114829070866108,-19.55568504333496,47.836891174316406,-20.038002014160156
0.13,-0.07178467512130737,-9.728019714355469,-1.4249258041381836,0.005650503095239401,0.013744467869400978,-0.010079275816679,-19.45337677001953,47.836891174316406,-20.388774871826172
0.14,-0.08255238085985184,-9.664609909057617,-1.4536396265029907,0.00931569468230009,0.023365594446659088,-0.00809396430850029,-19.511838912963867,47.836891174316406,-20.403390884399414
0.15,-0.010767702013254166,-9.625128746032715,-1.4787644147872925,0.01924225501716137,0.02321287989616394,-0.004581489134579897,-19.687227249145508,47.76381301879883,-20.315698623657227
0.16,0.03469592705368996,-9.611968040466309,-1.4069796800613403,0.029168814420700073,0.020922133699059486,0.0025961773935705423,-19.409530639648438,47.836891174316406,-19.672609329223633
0.179,0.05982056260108948,-9.671788215637207,-1.3734800815582275,0.03726277872920036,0.014049900695681572,0.01191187184303999,-19.204912185668945,48.12919998168945,-20.052616119384766
0.183,0.08255238085985184,-9.717252731323242,-1.3184452056884766,0.041233401745557785,0.005650503095239401,0.02275473065674305,-19.599531173706055,48.45074462890625,-19.46799087524414
0.19,0.04666003957390785,-9.713663101196289,-1.345962643623352,0.03878994286060333,0.001679879380390048,0.025656340643763542,-19.760305404663086,47.8807373046875,-19.979537963867188
0.2,0.019142581149935722,-9.717252731323242,-1.357926845550537,0.04077525436878204,-0.0006108652451075613,0.029932396486401558,-19.497222900390625,48.041507720947266,-19.877227783203125
0.21,-0.02273181453347206,-9.708877563476562,-1.3555339574813843,0.043218713253736496,-0.0013744467869400978,0.030237827450037003,-19.380298614501953,47.64688491821289,-20.257234573364258
0.22,-0.04905286058783531,-9.736394882202148,-1.306481122970581,0.04734205827116966,0.0036651913542300463,0.033597588539123535,-19.33645248413086,47.866119384765625,-19.62876319885254
0.239,-0.10289137810468674,-9.790233612060547,-1.2765707969665527,0.04214970022439957,0.013591751456260681,0.036041051149368286,-18.824905395507812,47.33995819091797,-20.08184814453125
0.243,-0.12442676723003387,-9.780662536621094,-1.3088740110397339,0.028405234217643738,0.027947084978222847,0.032070424407720566,-19.862613677978516,48.77228546142578,-20.067232131958008
0.25,-0.13040883839130402,-9.723234176635742,-1.32921302318573,0.025503622367978096,0.0354301817715168,0.03329215571284294,-19.81876564025879,47.836891174316406,-19.599531173706055
0.26,-0.10049854964017868,-9.67657470703125,-1.3423734903335571,0.027183502912521362,0.04520402476191521,0.03588833287358284,-20.067232131958008,47.909969329833984,-20.564163208007812
0.27,-0.015553345903754234,-9.66939640045166,-1.3818550109863281,0.03695734962821007,0.04703662171959877,0.042760565876960754,-19.83338165283203,47.69073486328125,-20.344928741455078
0.28,0.0263210479170084,-9.708877563476562,-1.3627125024795532,0.048258356750011444,0.04948008432984352,0.06215553730726242,-19.74568748474121,48.085357666015625,-19.614147186279297
0.299,0.044267214834690094,-9.738787651062012,-1.3435698747634888,0.04963279888033867,0.046731188893318176,0.08246680349111557,-19.599531173706055,47.64688491821289,-20.35954475402832
0.304,-0.09930214285850525,-9.804591178894043,-1.3435698747634888,0.04596760869026184,0.04337143152952194,0.1039998009800911,-19.380298614501953,48.31920623779297,-20.71031951904297
0.31,-0.12801600992679596,-9.832107543945312,-1.345962643623352,0.04108068719506264,0.04764748737215996,0.10873401165008545,-19.7310733795166,47.8807373046875,-20.257234573364258
0.32,-0.1615155190229416,-9.817750930786133,-1.3734800815582275,0.03588833287358284,0.04948008432984352,0.10995574295520782,-19.74568748474121,48.465362548828125,-20.871089935302734
0.33,-0.1986042857170105,-9.80100154876709,-1.3435698747634888,0.035582900047302246,0.05207626149058342,0.1137736514210701,-19.321834564208984,47.544578552246094,-20.154926300048828
0.34,-0.234496608376503,-9.735198020935059,-1.3387842178344727,0.03787364438176155,0.06505714356899261,0.11804971098899841,-19.307220458984375,47.734580993652344,-20.315698623657227
0.36,-0.26081767678260803,-9.711270332336426,-1.3399806022644043,0.04153883829712868,0.08368853479623795,0.11713340878486633,-19.321834564208984,48.289974212646484,-20.62262535095215
0.363,-0.16510476171970367,-9.745965957641602,-1.399801254272461,0.04886921867728233,0.12018773704767227,0.11957687139511108,-19.0733699798584,47.96842956542969,-20.666471481323242
0.37,-0.05623133108019829,-9.743573188781738,-1.4021941423416138,0.05696318298578262,0.13545936346054077,0.12889257073402405,-19.599531173706055,47.95381546020508,-20.1110782623291
0.38,-0.02991028130054474,-9.731609344482422,-1.4775679111480713,0.0630718320608139,0.146913081407547,0.14798210561275482,-19.234142303466797,48.01227569580078,-20.228002548217773
0.39,-0.003589233849197626,-9.739984512329102,-1.5421741008758545,0.07483098655939102,0.15347988903522491,0.16783522069454193,-18.737211227416992,48.27535629272461,-20.798011779785156
0.4,0.038285162299871445,-9.7938232421875,-1.6271193027496338,0.08261951804161072,0.1449277698993683,0.1875356286764145,-18.927213668823242,47.89535140991211,-19.877227783203125
0.421,0.016749758273363113,-9.860821723937988,-1.6929219961166382,0.08536841720342636,0.12950342893600464,0.19715675711631775,-18.956445693969727,48.713829040527344,-21.09032440185547
0.424,-0.02871387079358101,-9.90269660949707,-1.7754743099212646,0.09941831976175308,0.11438451707363129,0.22449298202991486,-18.89798355102539,48.1584358215332,-20.564163208007812
0.43,-0.0849451944231987,-9.93978500366211,-1.7335999011993408,0.10644327104091644,0.11362093687057495,0.24098633229732513,-19.26337242126465,48.406898498535156,-20.534931182861328
0.44,-0.18544374406337738,-10.039087295532227,-1.6618152856826782,0.11041389405727386,0.12568552792072296,0.26710081100463867,-18.751827239990234,47.98304748535156,-20.198772430419922
0.45,-0.3230310380458832,-10.130014419555664,-1.6414762735366821,0.10002917796373367,0.14385876059532166,0.2877175211906433,-19.029523849487305,48.37766647338867,-20.695703506469727
0.46,-0.436690092086792,-10.100104331970215,-1.7072789669036865,0.0832303911447525,0.1696678102016449,0.3019201457500458,-18.751827239990234,48.23151397705078,-20.02338409423828
0.48,-0.47617167234420776,-9.937392234802246,-1.8771692514419556,0.08536841720342636,0.1892155110836029,0.31383201479911804,-18.941829681396484,48.465362548828125,-20.73954963684082
0.483,-0.3649054169654846,-9.786643981933594,-1.8951154947280884,0.10064005106687546,0.2203696370124817,0.3376557528972626,-18.459514617919922,48.289974212646484,-21.178016662597656
0.49,-0.20099709928035736,-9.753144264221191,-1.8460626602172852,0.10506881773471832,0.23258693516254425,0.3484986424446106,-18.649517059326172,48.1584358215332,-20.46185302734375
0.5,0.06221338361501694,-9.700502395629883,-1.782652735710144,0.1007927656173706,0.23686298727989197,0.36193764209747314,-17.743350982666016,48.494590759277344,-20.98801612854004
0.51,0.2548356056213379,-9.601200103759766,-1.8029918670654297,0.078343465924263,0.20815233886241913,0.37110063433647156,-17.641040802001953,48.07073974609375,-21.674949645996094
0.52,0.4175475239753723,-9.406185150146484,-1.891526222229004,0.06582073122262955,0.16081027686595917,0.37171149253845215,-18.079509735107422,47.99766159057617,-21.29494285583496
0.54,0.380458801984787,-9.329615592956543,-1.9465612173080444,0.06444628536701202,0.10766499489545822,0.37461310625076294,-17.451038360595703,48.026893615722656,-20.92955207824707
0.543,0.23569302260875702,-9.34875774383545,-1.8747763633728027,0.06719517707824707,0.046731188893318176,0.37659841775894165,-17.582576751708984,47.96842956542969,-20.4326229095459
0.55,0.11964112520217896,-9.384650230407715,-1.9178473949432373,0.06979135423898697,0.031612277030944824,0.3753766715526581,-17.31949806213379,48.099971771240234,-21.20724868774414
0.56,0.0131605239585042,-9.436095237731934,-1.9130616188049316,0.07376197725534439,0.01038470957428217,0.3649919927120209,-17.97719955444336,48.30459213256836,-20.63724136352539
0.57,-0.04546362906694412,-9.473184585571289,-1.887937068939209,0.07360926270484924,-0.001679879380390048,0.35475999116897583,-17.217187881469727,48.33382034301758,-20.973400115966797
0.58,0.0131605239585042,-9.503094673156738,-1.8149559497833252,0.07360926270484924,-0.015577062964439392,0.33948835730552673,-17.071033477783203,48.01227569580078,-20.90032196044922
0.6,0.05742774158716202,-9.436095237731934,-1.7790635824203491,0.07269296050071716,-0.027947084978222847,0.32528576254844666,-16.822566986083984,48.406898498535156,-21.236480712890625
0.604,0.1543370485305786,-9.34157943725586,-1.7479568719863892,0.07284567505121231,-0.06230825185775757,0.30695977807044983,-16.807950973510742,48.30459213256836,-21.8503360748291
0.61,0.17946170270442963,-9.286543846130371,-1.7706886529922485,0.07498370856046677,-0.08460482954978943,0.29825496673583984,-17.04180145263672,47.64688491821289,-21.134170532226562
0.62,0.25244277715682983,-9.195616722106934,-1.7850456237792969,0.07696902006864548,-0.1235474944114685,0.28496861457824707,-16.501022338867188,48.33382034301758,-21.10494041442871
0.63,0.33379876613616943,-9.168099403381348,-1.781456470489502,0.08292495459318161,-0.17501288652420044,0.26969701051712036,-16.617948532104492,48.085357666015625,-21.4703311920166
0.64,0.3349951505661011,-9.17886734008789,-1.7766706943511963,0.0858265683054924,-0.23258693516254425,0.25534167885780334,-16.471790313720703,48.12919998168945,-21.26571273803711
0.659,0.32901307940483093,-9.129814147949219,-1.6869399547576904,0.09117163717746735,-0.3010038435459137,0.23716843128204346,-16.091785430908203,48.085357666015625,-21.163402557373047
0.663,0.30987051129341125,-8.998208999633789,-1.5242280960083008,0.09957103431224823,-0.40103304386138916,0.20402897894382477,-15.945630073547363,47.851505279541016,-21.19263458251953
0.67,0.30149564146995544,-8.955138206481934,-1.499103307723999,0.10781770944595337,-0.44486260414123535,0.18417586386203766,-16.13563346862793,47.486114501953125,-21.587255477905273
0.68,0.3242274522781372,-8.815157890319824,-1.377069354057312,0.1212567538022995,-0.4963279962539673,0.1621847152709961,-16.033323287963867,47.851505279541016,-22.011106491088867
0.69,0.349352091550827,-8.731410026550293,-1.294516921043396,0.13209959864616394,-0.5329799056053162,0.14385876059532166,-15.331774711608887,47.866119384765625,-21.236480712890625
0.7,0.41874393820762634,-8.707481384277344,-1.1856435537338257,0.14263702929019928,-0.5561928153038025,0.12858712673187256,-15.477930068969727,47.909969329833984,-21.967260360717773
0.719,0.5252245664596558,-8.770891189575195,-1.015753149986267,0.13500121235847473,-0.5904012322425842,0.12767083942890167,-15.024847030639648,48.07073974609375,-21.4703311920166
0.723,0.5958127975463867,-8.927620887756348,-0.8997012972831726,0.13820825517177582,-0.5998696684837341,0.12721268832683563,-14.586379051208496,48.36305236816406,-21.981876373291016
0.73,0.6221339106559753,-9.120243072509766,-0.8458627462387085,0.14614950120449066,-0.6214026212692261,0.12293662130832672,-14.571762084960938,48.041507720947266,-22.332651138305664
0.74,0.6089733242988586,-9.422935485839844,-0.6999006271362305,0.1572977900505066,-0.6705772876739502,0.10537425428628922,-14.469453811645508,47.99766159057617,-22.11341667175293
0.75,0.5108676552772522,-9.736394882202148,-0.6017948985099792,0.17058412730693817,-0.7263187766075134,0.06017022579908371,-13.548670768737793,47.8807373046875,-21.952646255493164
0.76,0.3613162338733673,-10.124032020568848,-0.4630111753940582,0.1869247555732727,-0.7764097452163696,-0.007635815534740686,-13.972522735595703,47.95381546020508,-22.44957733154297
0.781,0.24406790733337402,-10.547561645507812,-0.3122633397579193,0.18936823308467865,-0.8182539939880371,-0.11591167747974396,-13.855597496032715,47.8807373046875,-22.639577865600586
0.785,0.2309073656797409,-10.951948165893555,-0.5060819387435913,0.1719585657119751,-0.820850133895874,-0.25442537665367126,-13.665594100952148,47.96842956542969,-23.326513290405273
0.79,0.3278166949748993,-10.98784065246582,-0.5635097026824951,0.1699732542037964,-0.81581050157547,-0.2968805134296417,-13.417129516601562,47.89535140991211,-22.639577865600586
0.8,0.6376872062683105,-11.027322769165039,-0.7262216210365295,0.1511891484260559,-0.831845760345459,-0.3640756905078888,-13.44636058807373,48.085357666015625,-22.873428344726562
0.81,0.9020940661430359,-11.021340370178223,-1.0444670915603638,0.13988813757896423,-0.8478809595108032,-0.4011857509613037,-13.21251106262207,47.77842712402344,-23.414207458496094
0.82,1.0325030088424683,-11.014162063598633,-1.3208380937576294,0.1434006243944168,-0.8736900091171265,-0.39965859055519104,-13.943290710449219,48.14381790161133,-24.042678833007812
0.839,1.026520848274231,-11.015358924865723,-1.4309078454971313,0.1368338167667389,-0.9483683109283447,-0.369878888130188,-13.066354751586914,48.216896057128906,-23.66267204284668
0.843,0.9930213689804077,-10.899307250976562,-1.231107234954834,0.1238529235124588,-0.9812023043632507,-0.36819902062416077,-13.051739692687988,47.96842956542969,-23.38497543334961
0.85,0.9559326767921448,-10.790432929992676,-1.0743772983551025,0.09269880503416061,-1.0320568084716797,-0.3758348524570465,-13.095585823059082,48.01227569580078,-23.194971084594727
0.86,0.8087739944458008,-10.621739387512207,-0.92482590675354,0.039095375686883926,-1.0823004245758057,-0.39446622133255005,-13.373282432556152,48.52382278442383,-23.867290496826172
0.87,0.5958127975463867,-10.48534870147705,-0.7262216210365295,-0.03222314268350601,-1.0974193811416626,-0.4375322163105011,-13.256357192993164,49.049983978271484,-24.071908950805664
0.88,0.2991028130054474,-10.314261436462402,-0.4977070689201355,-0.10812314599752426,-1.0835222005844116,-0.48380523920059204,-13.504822731018066,48.465362548828125,-23.867290496826172
0.9,0.17587246000766754,-10.090532302856445,-0.39960137009620667,-0.19562958180904388,-1.0422887802124023,-0.5297728776931763,-13.300204277038574,49.2984504699707,-23.545745849609375
0.904,0.24765713512897491,-9.720841407775879,-0.3254238963127136,-0.31810805201530457,-0.9392052888870239,-0.584750771522522,-13.329436302185059,48.90382766723633,-23.881906509399414
0.91,0.29790639877319336,-9.598808288574219,-0.37806597352027893,-0.35094207525253296,-0.9036223888397217,-0.6017022132873535,-13.241742134094238,48.75767135620117,-23.764982223510742
0.92,0.5000999569892883,-9.438488960266113,-0.43549370765686035,-0.4057672321796417,-0.8327620029449463,-0.6476698517799377,-13.139432907104492,48.976905822753906,-23.867290496826172
0.93,0.7310072779655457,-9.316454887390137,-0.5096712112426758,-0.4352414906024933,-0.7988590598106384,-0.6866125464439392,-13.373282432556152,48.24612808227539,-24.071908950805664
0.94,1.0121638774871826,-9.298508644104004,-0.4223332107067108,-0.46043968200683594,-0.7991644144058228,-0.7399104833602905,-13.7240571975708,48.43613052368164,-23.487285614013672
0.959,1.2885348796844482,-9.414560317993164,-0.4139583110809326,-0.5177083015441895,-0.8355109095573425,-0.8576547503471375,-14.089447021484375,48.83074951171875,-23.253435134887695
0.962,1.384247899055481,-9.45763111114502,-0.38285163044929504,-0.5250386595726013,-0.8394815921783447,-0.8732318878173828,-14.030985832214355,48.479976654052734,-23.443437576293945
0.97,1.4452649354934692,-9.467202186584473,-0.38285163044929504,-0.5531384348869324,-0.8660541772842407,-0.9312640428543091,-13.943290710449219,49.07921600341797,-21.967260360717773
0.98,1.521835207939148,-9.479166984558105,-0.5551348328590393,-0.5766568183898926,-0.892779529094696,-0.9844093322753906,-14.030985832214355,48.94767761230469,-22.610347747802734
0.99,1.4333007335662842,-9.474380493164062,-0.6975077390670776,-0.5812382698059082,-0.917672336101532,-1.037249207496643,-14.294065475463867,48.39228439331055,-23.22420310974121
1.0,1.1102696657180786,-9.512666702270508,-0.7381857633590698,-0.5816964507102966,-0.9321803450584412,-1.0876455307006836,-14.557147026062012,48.494590759277344,-22.74188804626465
1.02,0.7860422134399414,-9.605986595153809,-0.7764708995819092,-0.5958990454673767,-0.906676709651947,-1.1856893301010132,-14.937153816223145,48.289974212646484,-21.64571762084961
1.023,0.6640082597732544,-9.614360809326172,-0.8303093910217285,-0.6018549799919128,-0.8804094791412354,-1.2066115140914917,-15.244080543518066,49.035369873046875,-21.981876373291016
1.03,0.5826523303985596,-9.644271850585938,-0.8961120247840881,-0.6049093008041382,-0.8384125232696533,-1.2371548414230347,-15.507162094116211,48.6407470703125,-21.54340934753418
1.04,0.41156551241874695,-9.69810962677002,-0.9738787412643433,-0.6059783101081848,-0.7652614116668701,-1.2664763927459717,-15.507162094116211,48.07073974609375,-21.718795776367188
1.05,0.48693937063217163,-9.677770614624023,-1.0348957777023315,-0.6081163287162781,-0.6887505650520325,-1.2889256477355957,-16.121017456054688,48.55305480957031,-22.04033851623535
1.06,0.662811815738678,-9.562914848327637,-1.168893814086914,-0.6067418456077576,-0.611934244632721,-1.3055716753005981,-16.23794174194336,48.50920867919922,-21.119556427001953
1.079,1.0887342691421509,-9.43489933013916,-1.2921241521835327,-0.5826126933097839,-0.45433101058006287,-1.3243557214736938,-17.363344192504883,47.99766159057617,-20.871089935302734
1.082,1.1904292106628418,-9.45045280456543,-1.2969098091125488,-0.5795583724975586,-0.42592576146125793,-1.3280209302902222,-17.53873062133789,48.37766647338867,-20.08184814453125
1.09,1.3746765851974487,-9.474380493164062,-1.294516921043396,-0.5815436840057373,-0.3799581825733185,-1.3266466856002808,-17.71411895751953,47.95381546020508,-20.067232131958008
1.1,1.688136339187622,-9.492326736450195,-1.428515076637268,-0.5882632732391357,-0.32009339332580566,-1.310916781425476,-18.18181800842285,48.27535629272461,-19.7310733795166
1.11,1.9669002294540405,-9.394221305847168,-1.5625131130218506,-0.5807800889015198,-0.2690861225128174,-1.275792121887207,-18.678749084472656,48.289974212646484,-20.169540405273438
1.12,2.17627215385437,-9.397810935974121,-1.6821541786193848,-0.5601634383201599,-0.20830504596233368,-1.2304352521896362,-19.33645248413086,48.43613052368164,-20.37415885925293
1.139,2.5076780319213867,-9.363115310668945,-1.8065810203552246,-0.5035056471824646,-0.1466076523065567,-1.1403326988220215,-20.403390884399414,48.056121826171875,-19.570301055908203
1.143,2.531606435775757,-9.365507125854492,-1.8388842344284058,-0.4963279962539673,-0.13087788224220276,-1.1155925989151,-20.242618560791016,48.421512603759766,-19.46799087524414
1.15,2.675175428390503,-9.381060600280762,-1.8999011516571045,-0.48579058051109314,-0.10949759185314178,-1.0798569917678833,-20.578777313232422,47.98304748535156,-19.497222900390625
1.163,2.7122642993927,-9.366703987121582,-2.025524377822876,-0.45982882380485535,-0.07422012835741043,-1.034500241279602,-20.973400115966797,48.43613052368164,-18.839519500732422
1.17,2.7110679149627686,-9.321240425109863,-2.018345832824707,-0.4482223689556122,-0.05757404863834381,-1.0091493129730225,-21.031862258911133,47.95381546020508,-18.737211227416992
1.18,3.0352954864501953,-9.34157943725586,-2.053041696548462,-0.42332959175109863,-0.01924225501716137,-0.9526443481445312,-21.908798217773438,48.24612808227539,-18.737211227416992
1.19,3.266202688217163,-9.354740142822266,-2.0482561588287354,-0.4043927788734436,0.015271631069481373,-0.8985827565193176,-21.938030242919922,47.544578552246094,-18.89798355102539
1.2,3.3547372817993164,-9.42054271697998,-2.094916343688965,-0.3848450779914856,0.04184426739811897,-0.8300131559371948,-22.537269592285156,47.427650451660156,-18.70798110961914
1.219,3.706482172012329,-9.511469841003418,-2.1020946502685547,-0.36331209540367126,0.07559457421302795,-0.7461718320846558,-22.771120071411133,47.63227081298828,-18.196434020996094
1.223,3.968496322631836,-9.66221809387207,-2.1774685382843018,-0.32910364866256714,0.0910189226269722,-0.6262896060943604,-23.31189727783203,47.661502838134766,-18.196434020996094
1.23,4.115654468536377,-9.790233612060547,-2.1846470832824707,-0.30711251497268677,0.08414668589830399,-0.5748242139816284,-23.648056030273438,47.2230339050293,-17.52411651611328
1.24,4.183850288391113,-10.340582847595215,-2.407179594039917,-0.2597704529762268,0.06368270516395569,-0.5134322047233582,-24.013446807861328,47.58842468261719,-17.129493713378906
1.25,4.1623148918151855,-10.96750259399414,-2.778066873550415,-0.16294831037521362,0.06963863968849182,-0.45234569907188416,-24.13037109375,47.99766159057617,-17.407190322875977
1.26,4.323830604553223,-11.309675216674805,-3.0855445861816406,-0.04871650040149689,0.1319468915462494,-0.37171149253845215,-24.451913833618164,47.36919021606445,-17.275650024414062
1.278,4.683949947357178,-10.910075187683105,-3.404986619949341,0.06688974052667618,0.17928895354270935,-0.24404066801071167,-24.729610443115234,47.26688003540039,-17.3341121673584
1.283,5.335994243621826,-10.023533821105957,-3.3619158267974854,0.23900103569030762,0.1485929638147354,0.05513058975338936,-24.96346092224121,47.61765670776367,-16.807950973510742
1.29,5.552545070648193,-9.65384292602539,-3.0544381141662598,0.2955060601234436,0.058490343391895294,0.2122756689786911,-25.270387649536133,47.63227081298828,-17.14410972595215
1.3,5.4209394454956055,-9.443273544311523,-2.8247268199920654,0.3384193181991577,-0.13408491015434265,0.37110063433647156,-25.25577163696289,47.734580993652344,-17.187957763671875
1.31,4.971088886260986,-9.4121675491333,-2.462214469909668,0.35781431198120117,-0.36621370911598206,0.4769330322742462,-25.40192985534668,47.71996307373047,-17.114879608154297
1.32,4.147957801818848,-9.741181373596191,-1.956132411956787,0.331852525472641,-0.5587889552116394,0.5514585971832275,-24.510377883911133,47.79304122924805,-17.80181312561035
1.34,3.022134780883789,-10.102496147155762,-1.5397813320159912,0.2762638032436371,-0.6713408827781677,0.5965099334716797,-23.954984664916992,47.79304122924805,-17.480268478393555
1.343,1.1365907192230225,-10.516454696655273,-1.0325030088424683,0.152105450630188,-0.6553056836128235,0.6459900140762329,-23.618824005126953,47.95381546020508,-17.187957763671875
1.35,0.1543370485305786,-10.476973533630371,-1.2011969089508057,0.09285151958465576,-0.5760459303855896,0.6436992287635803,-22.917274475097656,47.74919891357422,-17.43642234802246
1.36,-0.9990034103393555,-10.232906341552734,-1.5397813320159912,0.06322455406188965,-0.408974289894104,0.616973876953125,-22.493423461914062,47.99766159057617,-17.655654907226562
1.37,-1.7575281858444214,-9.90748119354248,-1.7156537771224976,0.06276640295982361,-0.16233743727207184,0.5977316498756409,-22.47880744934082,47.76381301879883,-18.196434020996094
1.38,-2.0231313705444336,-9.454041481018066,-1.7563318014144897,0.08048149198293686,0.14569135010242462,0.6023131012916565,-22.186494827270508,47.77842712402344,-17.494884490966797
1.399,-1.8400804996490479,-8.912067413330078,-1.557727575302124,0.09651671350002289,0.4967861771583557,0.621097207069397,-22.11341667175293,47.5591926574707,-17.451038360595703
1.404,-1.160519003868103,-8.2157564163208,-1.153340458869934,0.08765916526317596,0.7709118723869324,0.6612616181373596,-21.674949645996094,47.79304122924805,-17.69950294494629
1.41,-0.8602197170257568,-7.911867618560791,-1.153340458869934,0.09010262042284012,0.8915578126907349,0.6896668672561646,-21.674949645996094,47.76381301879883,-17.61180877685547
1.42,-0.4175475239753723,-7.612764835357666,-1.0552347898483276,0.1137736514210701,0.9854783415794373,0.7350236177444458,-21.894182205200195,47.76381301879883,-18.298744201660156
1.43,-0.1543370485305786,-7.4285173416137695,-1.0552347898483276,0.13698652386665344,1.0080803632736206,0.7883215546607971,-21.631101608276367,47.63227081298828,-17.9918155670166
1.44,-0.13878370821475983,-7.46082067489624,-1.231107234954834,0.18448129296302795,0.9599747061729431,0.8460482954978943,-21.92341423034668,47.80765914916992,-17.918737411499023
1.46,-0.34695929288864136,-7.758727073669434,-1.5074782371520996,0.2541199326515198,0.8825475573539734,0.8776606321334839,-21.338788986206055,47.79304122924805,-16.793336868286133
1.464,-0.7728817462921143,-8.334200859069824,-1.7551352977752686,0.38759398460388184,0.7658722400665283,0.8943067193031311,-21.689563751220703,47.76381301879883,-17.62642478942871
1.47,-0.989432156085968,-8.811569213867188,-1.7754743099212646,0.42668935656547546,0.7415904402732849,0.8972083330154419,-21.83572006225586,47.5591926574707,-17.465654373168945
1.48,-1.4009976387023926,-9.503094673156738,-1.712064504623413,0.474642276763916,0.7266241908073425,0.9101892113685608,-21.64571762084961,47.67612075805664,-17.465654373168945
1.49,-1.8388842344284058,-10.15155029296875,-1.7168502807617188,0.4712825417518616,0.7687739133834839,0.9150761365890503,-21.8503360748291,48.07073974609375,-17.71411895751953
1.6,2.0829520225524902,-9.485148429870605,-1.9094724655151367,0.2050980031490326,1.6911803483963013,1.3672691583633423,-22.215726852416992,48.9184455871582,-19.0733699798584
1.61,2.1774685382843018,-9.20997428894043,-1.932204246520996,0.1999056488275528,1.482569932937622,1.4387402534484863,-22.303421020507812,48.9622917175293,-19.90645980834961
1.62,2.0159530639648438,-9.008976936340332,-1.8460626602172852,0.19058994948863983,1.2693780660629272,1.495245337486267,-21.64571762084961,48.713829040527344,-19.570301055908203
1.639,1.6941183805465698,-8.907281875610352,-1.7599210739135742,0.18325957655906677,1.0824532508850098,1.5354098081588745,-21.353404998779297,48.77228546142578,-19.0733699798584
1.643,0.8805586695671082,-8.806783676147461,-1.6546367406845093,0.18066339194774628,0.8692612051963806,1.5566374063491821,-21.00263023376465,48.93306350708008,-19.935691833496094
1.65,0.5288137793540955,-8.793622970581055,-1.6354942321777344,0.17577646672725677,0.8205447196960449,1.5515977144241333,-20.4326229095459,49.093833923339844,-19.81876564025879
1.66,-0.31106695532798767,-8.818747520446777,-1.6342978477478027,0.1748601794242859,0.8113817572593689,1.5306755304336548,-20.30108070373535,48.87459945678711,-19.979537963867188
1.67,-0.873380184173584,-8.864211082458496,-1.6809579133987427,0.18310685455799103,0.8442157506942749,1.4915802478790283,-20.228002548217773,49.00613784790039,-20.198772430419922
1.68,-1.1114661693572998,-8.901299476623535,-1.7036895751953125,0.2076941728591919,0.9196576476097107,1.4486669301986694,-19.614147186279297,49.2984504699707,-19.17568016052246
1.7,-1.0552347898483276,-8.904889106750488,-1.7407783269882202,0.24648413062095642,1.0140362977981567,1.4008666276931763,-19.146448135375977,48.845367431640625,-19.935691833496094
1.8,0.6903292536735535,-9.321240425109863,-2.0446667671203613,0.3176499307155609,0.3856086730957031,1.1582005023956299,-16.9541072845459,48.90382766723633,-22.332651138305664
1.82,0.22133608162403107,-9.433703422546387,-1.8352948427200317,0.2451096773147583,0.20402897894382477,1.013578176498413,-16.15024757385254,48.75767135620117,-21.20724868774414
1.823,-0.3732803165912628,-9.558130264282227,-1.7228323221206665,0.237321138381958,0.1944078654050827,0.9931141138076782,-16.42794418334961,49.00613784790039,-21.29494285583496
1.83,-0.5623133182525635,-9.65503978729248,-1.7036895751953125,0.21273382008075714,0.17150041460990906,0.9337075352668762,-15.697164535522461,48.99152374267578,-21.689563751220703
1.84,-0.5874379277229309,-9.711270332336426,-1.765903115272522,0.19624045491218567,0.1644754558801651,0.8677340149879456,-15.85793685913086,48.94767761230469,-21.324174880981445
1.85,-0.5443671345710754,-9.671788215637207,-1.95852530002594,0.20265454053878784,0.1336267739534378,0.778242290019989,-15.711779594421387,48.9622917175293,-21.83572006225586
1.86,-0.27038896083831787,-9.724431037902832,-2.049452543258667,0.2275473028421402,0.11468994617462158,0.6995934247970581,-15.390236854553223,49.166908264160156,-21.879568099975586
1.879,-0.5874379277229309,-9.826126098632812,-2.1738791465759277,0.260992169380188,0.06902776658535004,0.5546656250953674,-14.717918395996094,49.13768005371094,-22.244956970214844
1.882,-0.5682953596115112,-10.065407752990723,-2.2265214920043945,0.2692388594150543,0.07147122919559479,0.5152648091316223,-14.45483684539795,49.42999267578125,-21.514177322387695
1.89,-0.34576284885406494,-10.219745635986328,-2.187039852142334,0.2744311988353729,0.06200282275676727,0.4554000496864319,-14.410990715026855,49.32768249511719,-21.26571273803711
1.9,-0.039481572806835175,-10.272387504577637,-2.0554347038269043,0.2687807083129883,-0.004734205547720194,0.3585779070854187,-14.264835357666016,49.51768493652344,-22.084184646606445
1.91,0.09212366491556168,-10.411170959472656,-1.8963117599487305,0.2632829248905182,-0.05955936014652252,0.2932153046131134,-14.045600891113281,49.53229904174805,-22.215726852416992
1.92,0.234496608376503,-10.640881538391113,-1.5074782371520996,0.2292271852493286,-0.1563815027475357,0.2243402600288391,-14.220989227294922,49.766151428222656,-22.157264709472656
1.939,-0.30508488416671753,-11.272586822509766,-0.6927221417427063,0.11621711403131485,-0.36804628372192383,0.07360926270484924,-14.294065475463867,48.83074951171875,-22.93189239501953
1.943,-0.397208571434021,-11.490333557128906,-0.3696911036968231,0.09575312584638596,-0.3978259861469269,0.048258356750011444,-14.381760597229004,49.48845672607422,-22.84419822692871
1.95,-0.7130610942840576,-11.509476661682129,-0.22492532432079315,0.02535090781748295,-0.5497786998748779,-0.08368853479623795,-14.235603332519531,49.210758209228516,-22.230342864990234
1.96,-1.3016955852508545,-11.252248764038086,-0.607776939868927,-0.058795779943466187,-0.684779942035675,-0.23915374279022217,-13.753289222717285,49.473838806152344,-22.274188995361328
1.97,-1.872383713722229,-10.858628273010254,-1.0492527484893799,-0.07208210229873657,-0.7669413089752197,-0.3903428912162781,-14.016368865966797,49.69307327270508,-22.44957733154297
1.98,-2.1367905139923096,-10.74018383026123,-1.361515998840332,-0.06322455406188965,-0.797179102897644,-0.5143485069274902,-13.680211067199707,49.73691940307617,-22.522653579711914
1.999,-2.3569302558898926,-10.87178897857666,-1.5206387042999268,0.010842857882380486,-0.780380368232727,-0.6553056836128235,-14.381760597229004,49.45922088623047,-21.894182205200195
2.004,-2.6297121047973633,-11.204391479492188,-1.3411771059036255,0.038179077208042145,-0.7713701128959656,-0.6853907704353333,-13.855597496032715,49.73691940307617,-22.20111083984375
2.01,-2.6691935062408447,-11.302497863769531,-1.2119646072387695,0.06872233748435974,-0.7626652121543884,-0.7400632500648499,-14.030985832214355,49.780765533447266,-22.244956970214844
2.02,-2.537588357925415,-11.552547454833984,-1.0013961791992188,0.07376197725534439,-0.7866417169570923,-0.8475754857063293,-14.060215950012207,49.41537857055664,-22.74188804626465
2.03,-2.2600209712982178,-11.651848793029785,-0.8410770893096924,0.04245513305068016,-0.8361217975616455,-0.9804387092590332,-14.337912559509277,49.95615005493164,-22.157264709472656
2.04,-1.6845470666885376,-11.536993980407715,-0.6783652305603027,-0.01191187184303999,-0.9150761365890503,-1.10139000415802,-14.747150421142578,50.29231262207031,-22.054954528808594
2.059,-0.35533416271209717,-10.935198783874512,-0.29431718587875366,-0.152105450630188,-1.1607966423034668,-1.1892019510269165,-15.507162094116211,50.10231018066406,-22.318035125732422
2.063,-0.13280165195465088,-10.77727222442627,-0.20817556977272034,-0.19868391752243042,-1.2324206829071045,-1.1801916360855103,-15.507162094116211,49.839229583740234,-21.864952087402344
2.07,0.08733802288770676,-10.459028244018555,-0.16390834748744965,-0.279928982257843,-1.3393220901489258,-1.143234372138977,-15.434082984924316,49.766151428222656,-22.274188995361328
2.08,0.24047866463661194,-9.90269660949707,-0.16031910479068756,-0.38041630387306213,-1.4822643995285034,-1.069166898727417,-14.966383934020996,49.98538589477539,-22.186494827270508
2.09,0.16390834748744965,-9.410971641540527,-0.09930214285850525,-0.45402559638023376,-1.6195564270019531,-0.9757044911384583,-14.615609169006348,50.08769607543945,-22.1718807220459
2.1,-0.06699903309345245,-9.06401252746582,0.10887342691421509,-0.5054909586906433,-1.7617353200912476,-0.8878926634788513,-15.448699951171875,49.2984504699707,-21.689563751220703
2.115,-0.7345964908599854,-8.888139724731445,0.5407779216766357,-0.587041437625885,-1.9863810539245605,-0.8332201838493347,-15.14177131652832,49.25460433959961,-21.26571273803711
2.12,-1.0564311742782593,-8.939584732055664,0.8099704384803772,-0.6181955933570862,-2.0457875728607178,-0.8446739315986633,-15.127155303955078,49.56153106689453,-21.119556427001953
2.13,-1.514656662940979,-9.190832138061523,1.1964112520217896,-0.6950119137763977,-2.146885871887207,-0.8993463516235352,-15.14177131652832,49.53229904174805,-21.36802101135254
2.14,-1.88075852394104,-9.694520950317383,1.6857434511184692,-0.7965682744979858,-2.2215640544891357,-0.9758571982383728,-14.381760597229004,48.99152374267578,-20.37415885925293
2.15,-2.410768747329712,-10.175477981567383,1.9884356260299683,-0.921184778213501,-2.253329038619995,-1.0644326210021973,-14.337912559509277,48.83074951171875,-20.608009338378906
2.16,-2.987438917160034,-10.438688278198242,1.9680966138839722,-1.0687086582183838,-2.177887201309204,-1.1849257946014404,-14.220989227294922,48.62613296508789,-21.324174880981445
2.179,-4.205385684967041,-10.207781791687012,1.1461620330810547,-1.1840095520019531,-1.8865046501159668,-1.4017831087112427,-14.410990715026855,48.5822868347168,-19.46799087524414
2.182,-4.412364959716797,-10.005587577819824,0.8207381367683411,-1.1850786209106445,-1.7814357280731201,-1.4760030508041382,-14.440221786499023,48.62613296508789,-19.45337677001953
2.19,-4.49132776260376,-9.708877563476562,0.35772696137428284,-1.1578950881958008,-1.629024863243103,-1.592373013496399,-14.703303337097168,47.924583435058594,-19.760305404663086
2.409,-0.8997012972831726,-7.261020183563232,-1.1042876243591309,-0.7096726894378662,0.06643159687519073,-1.1372783184051514,-21.48494529724121,44.16836929321289,-12.1455717086792
2.413,-0.6317051649093628,-6.954739093780518,-1.164108157157898,-0.570853590965271,0.1921171098947525,-1.157131552696228,-21.397253036499023,43.94913864135742,-11.677871704101562
2.42,-0.5407779216766357,-6.7417778968811035,-1.2263215780258179,-0.49953505396842957,0.2376265674829483,-1.1603385210037231,-22.025724411010742,43.992984771728516,-11.312481880187988
2.43,-0.38763725757598877,-6.6077799797058105,-1.2681959867477417,-0.4063781201839447,0.30466902256011963,-1.1678215265274048,-22.44957733154297,43.802982330322266,-11.122478485107422
2.44,-0.23688943684101105,-6.73818826675415,-1.153340458869934,-0.3205515146255493,0.3926336169242859,-1.1843149662017822,-23.063430786132812,43.65682601928711,-11.634024620056152
2.45,0.08015955239534378,-7.003791332244873,-0.9798608422279358,-0.2860376536846161,0.4847215414047241,-1.1893545389175415,-23.706518173217773,43.876060485839844,-11.824028015136719
2.468,0.26919254660606384,-7.134200572967529,-0.8985048532485962,-0.28955012559890747,0.5677992701530457,-1.1859948635101318,-24.422683715820312,43.56913375854492,-11.458637237548828
2.472,0.906879723072052,-7.128218650817871,-0.9702895283699036,-0.31383201479911804,0.7206682562828064,-1.1595749855041504,-25.036537170410156,43.6422119140625,-10.932476043701172
2.48,1.439282774925232,-7.010970115661621,-1.0408778190612793,-0.33337968587875366,0.7770205736160278,-1.1435396671295166,-26.0304012298584,43.817596435546875,-10.68401050567627
2.49,1.978864312171936,-6.914061069488525,-1.1282157897949219,-0.3631593883037567,0.8216137290000916,-1.10139000415802,-26.468870162963867,43.393741607666016,-10.874013900756836
2.5,2.400001049041748,-6.847061634063721,-1.4249258041381836,-0.3608686327934265,0.864679753780365,-1.0276280641555786,-27.141185760498047,42.98450469970703,-10.230926513671875
2.51,2.7804598808288574,-6.957131385803223,-1.782652735710144,-0.3149010241031647,0.891252338886261,-0.946382999420166,-27.594270706176758,43.01374053955078,-10.304004669189453
2.53,3.0855445861816406,-7.211967468261719,-1.8269200325012207,-0.2522873282432556,0.8680394887924194,-0.8633052706718445,-28.485822677612305,42.823734283447266,-10.05553913116455
2.533,3.483949661254883,-7.47637414932251,-1.872383713722229,-0.21212296187877655,0.8084800839424133,-0.8100072741508484,-28.763521194458008,42.67757797241211,-9.807073593139648
2.54,3.6981072425842285,-7.508677005767822,-1.956132411956787,-0.1966986060142517,0.7612908482551575,-0.7796167731285095,-29.494300842285156,43.14527893066406,-9.003214836120605
2.55,3.913461446762085,-7.4045891761779785,-2.108076810836792,-0.18448129296302795,0.6841690540313721,-0.7336491346359253,-30.28354263305664,42.92604446411133,-10.274772644042969
2.56,4.201796531677246,-7.2634124755859375,-2.1846470832824707,-0.1739438772201538,0.5703954100608826,-0.6728680729866028,-30.181232452392578,43.3645133972168,-9.704765319824219
2.57,4.2795634269714355,-7.179664134979248,-2.2408783435821533,-0.156686931848526,0.4340197443962097,-0.5830708742141724,-30.53200912475586,42.57527160644531,-9.704765319824219
2.588,4.063012599945068,-7.294519424438477,-2.2061824798583984,-0.14049901068210602,0.3504839241504669,-0.5146539211273193,-31.45279312133789,42.73604202270508,-9.514761924743652
2.592,3.8979079723358154,-7.908278465270996,-1.9298113584518433,-0.13255774974822998,0.2973386347293854,-0.44715335965156555,-31.233558654785156,42.326805114746094,-10.230926513671875
2.709,6.918846607208252,-9.986444473266602,-4.884947299957275,0.4239404797554016,1.0714576244354248,0.7657195925712585,-34.419761657714844,43.10143280029297,-10.070155143737793
2.713,7.429713726043701,-9.818947792053223,-4.326223373413086,0.5662720799446106,0.8232936263084412,1.2205086946487427,-33.65974807739258,43.6422119140625,-10.874013900756836
2.72,7.076772689819336,-9.832107543945312,-3.754338502883911,0.579405665397644,0.5714644193649292,1.3364204168319702,-34.09821701049805,43.30604934692383,-10.508623123168945
2.73,5.842076301574707,-9.761519432067871,-3.098705291748047,0.4902193546295166,0.11743884533643723,1.494939923286438,-34.21514129638672,43.90529251098633,-10.567085266113281
2.74,3.5054850578308105,-9.966106414794922,-2.5914268493652344,0.38866299390792847,-0.15241087973117828,1.5030338764190674,-32.87050247192383,44.577606201171875,-11.064016342163086
2.75,1.5852450132369995,-10.679167747497559,-2.427518606185913,0.290313720703125,-0.25625795125961304,1.4534010887145996,-32.63665771484375,44.446067810058594,-11.75094985961914
2.77,-0.04785645380616188,-11.648260116577148,-2.6261227130889893,0.23258693516254425,-0.14156801998615265,1.398423194885254,-32.11049270629883,44.88453674316406,-11.312481880187988
2.774,-1.2418749332427979,-12.577872276306152,-3.6705896854400635,0.2877175211906433,0.35445454716682434,1.3596333265304565,-31.11663246154785,44.91376876831055,-11.911721229553223
2.78,-1.2275179624557495,-12.585049629211426,-3.9218363761901855,0.35705074667930603,0.6414085030555725,1.363909363746643,-30.868165969848633,44.811458587646484,-11.75094985961914
2.79,-0.29790639877319336,-12.0335054397583,-4.363311767578125,0.4541782736778259,0.9454666376113892,1.405295491218567,-30.91201400756836,45.57147216796875,-11.838644027709961
2.8,0.9367900490760803,-11.837292671203613,-4.309473514556885,0.5832235813140869,1.1050552129745483,1.4984524250030518,-30.868165969848633,46.02455520629883,-11.75094985961914
2.81,1.746760368347168,-11.976076126098633,-3.779463291168213,0.6966918110847473,1.1352930068969727,1.5977181196212769,-30.678165435791016,46.27302169799805,-13.417129516601562
2.829,2.0123636722564697,-12.229716300964355,-3.3056843280792236,0.7454083561897278,1.11085844039917,1.66949462890625,-29.771995544433594,46.682254791259766,-13.44636058807373
2.833,1.2502497434616089,-12.468997955322266,-2.5639095306396484,0.6843218207359314,1.080467939376831,1.6760615110397339,-29.37737464904785,47.04764938354492,-12.905582427978516
2.84,0.8075776100158691,-12.653244972229004,-2.3605194091796875,0.6131559610366821,1.1206321716308594,1.6446019411087036,-30.049694061279297,47.500728607177734,-13.44636058807373
2.85,0.33379876613616943,-12.64606761932373,-2.620140552520752,0.531758189201355,1.256091594696045,1.6033685207366943,-29.26045036315918,47.1207275390625,-14.294065475463867
2.86,0.4618147313594818,-12.330214500427246,-2.9934210777282715,0.49984046816825867,1.4219416379928589,1.5825990438461304,-29.24583625793457,47.69073486328125,-14.469453811645508
2.87,1.0301101207733154,-11.803792953491211,-3.232703447341919,0.49816060066223145,1.5431982278823853,1.6250542402267456,-29.669687271118164,48.07073974609375,-13.943290710449219
2.889,1.867598056793213,-11.263016700744629,-3.1369903087615967,0.5105305910110474,1.5920674800872803,1.7716618776321411,-29.742765426635742,48.39228439331055,-14.790996551513672
2.893,3.1178479194641113,-10.207781791687012,-2.6249263286590576,0.5152648091316223,1.518916368484497,1.9550741910934448,-28.748903274536133,48.2607421875,-15.551008224487305
2.9,3.404986619949341,-9.534201622009277,-2.3844475746154785,0.5038110613822937,1.4359915256500244,2.06075382232666,-28.573516845703125,48.77228546142578,-15.56562328338623
2.91,3.538984537124634,-8.701499938964844,-2.1188442707061768,0.4813618063926697,1.2930489778518677,2.177123546600342,-27.62350082397461,48.8599853515625,-15.887167930603027
2.92,3.3236305713653564,-7.9860453605651855,-1.920240044593811,0.4534147381782532,1.1221593618392944,2.2652411460876465,-27.360422134399414,49.2984504699707,-15.317158699035645
2.93,2.726621150970459,-7.581658363342285,-1.8400804996490479,0.4308127164840698,0.93095862865448,2.3293817043304443,-26.731950759887695,49.50307083129883,-16.13563346862793
2.949,2.2157537937164307,-7.4811601638793945,-1.7886348962783813,0.40851613879203796,0.6991352438926697,2.3529000282287598,-25.81116485595703,49.2984504699707,-16.13563346862793
2.953,1.628315806388855,-7.448856830596924,-1.8544374704360962,0.38377609848976135,0.45952337980270386,2.3318252563476562,-25.67962646484375,49.88307571411133,-16.442562103271484
2.96,1.3938192129135132,-7.506284236907959,-1.8472589254379272,0.38896840810775757,0.32100966572761536,2.2933406829833984,-24.77345848083496,49.73691940307617,-17.50950050354004
2.97,1.2059825658798218,-7.671389579772949,-1.5314065217971802,0.38148534297943115,0.13545936346054077,2.230268955230713,-24.2911434173584,50.20461654663086,-16.70564079284668
2.98,0.8003991842269897,-7.8664045333862305,-1.2215359210968018,0.34376442432403564,-0.023976460099220276,2.154827117919922,-22.186494827270508,50.17538833618164,-16.895645141601562
2.99,0.6532405614852905,-7.923831462860107,-1.101894736289978,0.2831360399723053,-0.13469578325748444,2.0784690380096436,-21.54340934753418,50.01461410522461,-16.749486923217773
3.009,0.50129634141922,-7.5912299156188965,-1.2263215780258179,0.2393064647912979,-0.11285734921693802,2.023796558380127,-19.760305404663086,49.94153594970703,-16.793336868286133
3.013,0.041874393820762634,-7.201199531555176,-1.5397813320159912,0.247094988822937,-0.07971791177988052,2.0167715549468994,-19.43876075744629,49.50307083129883,-16.793336868286133
3.02,-0.2069791555404663,-7.21316385269165,-1.5481561422348022,0.2587014436721802,-0.025045473128557205,2.0034852027893066,-18.664133071899414,49.649227142333984,-17.34872817993164
3.03,-0.787238597869873,-7.35912561416626,-1.399801254272461,0.270766019821167,0.057879481464624405,1.959502935409546,-17.918737411499023,49.853843688964844,-17.407190322875977
3.04,-1.1330015659332275,-7.575676441192627,-1.2215359210968018,0.2580905556678772,0.19914206862449646,1.8747453689575195,-17.494884490966797,49.73691940307617,-17.860275268554688
3.05,-1.688136339187622,-7.661818027496338,-1.5110673904418945,0.2509129047393799,0.34666600823402405,1.768607497215271,-16.486408233642578,49.225372314453125,-16.9541072845459
3.07,-1.8484554290771484,-7.765905857086182,-1.5254243612289429,0.2606867253780365,0.4970915913581848,1.6430747509002686,-15.653318405151367,49.50307083129883,-17.085647583007812
3.074,-1.3674980401992798,-7.865207672119141,-1.3627125024795532,0.2304489016532898,0.6934847235679626,1.4816536903381348,-15.22946548461914,49.00613784790039,-17.772581100463867
3.08,-1.1198409795761108,-7.752745151519775,-1.439282774925232,0.2148718386888504,0.7504479885101318,1.4387402534484863,-14.73253345489502,49.51768493652344,-17.553346633911133
3.09,-0.3840480148792267,-7.570890426635742,-1.6043875217437744,0.18051066994667053,0.8084800839424133,1.342987298965454,-14.469453811645508,49.13768005371094,-17.42180633544922
3.1,0.7369893193244934,-7.365107536315918,-1.8065810203552246,0.16325373947620392,0.7351763248443604,1.2809842824935913,-13.899443626403809,49.42999267578125,-18.123355865478516
3.11,0.9631110429763794,-7.258627414703369,-2.1750757694244385,0.18096882104873657,0.6311764717102051,1.2469285726547241,-13.738672256469727,48.9184455871582,-17.71411895751953
3.129,1.34476637840271,-7.293323516845703,-2.2265214920043945,0.2744311988353729,0.3228422701358795,1.1511754989624023,-13.21251106262207,48.83074951171875,-17.31949806213379
3.133,1.0839486122131348,-7.3160552978515625,-2.124826431274414,0.28787022829055786,0.25014930963516235,1.1162035465240479,-12.452499389648438,48.75767135620117,-17.027183532714844
3.14,0.9284151792526245,-7.372286796569824,-1.9130616188049316,0.29168814420700073,0.17088955640792847,1.0548114776611328,-12.554807662963867,48.78690719604492,-17.071033477783203
3.15,0.7022933959960938,-7.526623249053955,-1.3651052713394165,0.25854870676994324,0.09941831976175308,0.9489791393280029,-12.1455717086792,48.9184455871582,-17.3341121673584
3.16,0.784845769405365,-7.539783954620361,-1.0660024881362915,0.182648703455925,0.05467243865132332,0.8382598161697388,-11.809412002563477,48.74305725097656,-18.225666046142578
3.17,1.098305583000183,-7.509873390197754,-1.0564311742782593,0.09712757170200348,0.014966198243200779,0.7590000629425049,-11.254019737243652,48.655364990234375,-18.16720199584961
3.19,1.439282774925232,-7.512266635894775,-1.054038405418396,0.0277943667024374,-0.08109235763549805,0.6982190012931824,-10.844781875610352,48.5384407043457,-18.576440811157227
3.193,1.4404791593551636,-7.627121925354004,-0.9882357120513916,-0.05345070734620094,-0.3283400535583496,0.6385068893432617,-10.347851753234863,48.465362548828125,-18.605670928955078
3.2,1.3339985609054565,-7.716853141784668,-0.7226324677467346,-0.07284567505121231,-0.4767802953720093,0.5960517525672913,-9.894767761230469,49.13768005371094,-18.6933650970459
3.21,0.7621140480041504,-7.77906608581543,-0.3936192989349365,-0.09773843735456467,-0.7379251718521118,0.49525898694992065,-10.01169204711914,48.494590759277344,-18.547208786010742
3.22,-0.11605189740657806,-8.169095993041992,-0.15074782073497772,-0.1059851199388504,-1.0227410793304443,0.3361286222934723,-9.646302223205566,48.56766891479492,-18.474130630493164
3.23,-1.4799607992172241,-8.810372352600098,0.30987051129341125,-0.09743300080299377,-1.2570078372955322,0.14294245839118958,-9.22244930267334,48.026893615722656,-19.219526290893555
3.249,-4.293920040130615,-9.863214492797852,1.0839486122131348,-0.19104810059070587,-1.3272573947906494,-0.2750420570373535,-8.301666259765625,48.56766891479492,-18.941829681396484
3.252,-4.790431022644043,-10.126425743103027,1.1916255950927734,-0.22586742043495178,-1.2573133707046509,-0.38667771220207214,-7.892428874969482,48.34843444824219,-18.78105926513672
3.26,-5.288137912750244,-10.50808048248291,1.1820544004440308,-0.2796235680580139,-1.1171197891235352,-0.5345070958137512,-8.170125961303711,48.479976654052734,-19.43876075744629
3.27,-5.56450891494751,-10.834700584411621,0.5000999569892883,-0.32192596793174744,-0.8906415104866028,-0.6948592066764832,-7.687810897827148,48.18766403198242,-19.219526290893555
3.28,-5.3276190757751465,-10.926823616027832,-0.45942193269729614,-0.2672535479068756,-0.7079927921295166,-0.8242099285125732,-7.61473274230957,48.72844314575195,-19.0733699798584
3.29,-4.809573173522949,-10.779664993286133,-1.3507484197616577,-0.14004085958003998,-0.6435465216636658,-0.93889981508255,-7.3370361328125,48.94767761230469,-18.88336753845215
3.309,-3.665804386138916,-11.868399620056152,-1.8400804996490479,0.12171489745378494,-0.7657195925712585,-1.1618657112121582,-7.921660900115967,49.15229415893555,-19.424144744873047
3.313,-3.541377305984497,-12.42832088470459,-1.506281852722168,0.14446963369846344,-0.8258897662162781,-1.208749532699585,-8.155509948730469,49.06460189819336,-19.760305404663086
3.32,-3.3272199630737305,-13.416556358337402,-0.6412764191627502,0.1443169116973877,-0.917061448097229,-1.266170859336853,-8.52090072631836,49.4007568359375,-20.286466598510742
3.33,-3.125026226043701,-14.386845588684082,0.7573283314704895,0.08628471195697784,-1.0169378519058228,-1.3251194953918457,-9.090909004211426,49.53229904174805,-19.74568748474121
3.34,-2.8905298709869385,-14.812768936157227,1.683350682258606,-0.033139437437057495,-1.0978776216506958,-1.378722906112671,-9.22244930267334,50.07307434082031,-20.008769989013672
3.35,-2.586641311645508,-14.854642868041992,1.6522438526153564,-0.24556781351566315,-1.2052371501922607,-1.437366008758545,-9.704765319824219,50.043846130371094,-19.511838912963867
3.369,-2.5435705184936523,-15.035301208496094,0.5539384484291077,-0.5064072608947754,-1.3490958213806152,-1.4593570232391357,-10.070155143737793,50.5992431640625,-20.505699157714844
3.373,-2.603391170501709,-15.16211986541748,0.35892340540885925,-0.5267185568809509,-1.3703234195709229,-1.4619531631469727,-10.070155143737793,50.160770416259766,-19.74568748474121
3.38,-2.83669114112854,-15.358331680297852,0.04307080805301666,-0.5537493228912354,-1.432478904724121,-1.4892895221710205,-10.713241577148438,50.263084411621094,-20.91493797302246
3.39,-2.9551358222961426,-15.51984691619873,-0.07896314561367035,-0.5262603759765625,-1.522581696510315,-1.5792393684387207,-10.610932350158691,50.48231506347656,-20.18415641784668
3.4,-3.2231318950653076,-15.683754920959473,0.17228323221206665,-0.4966334402561188,-1.6044374704360962,-1.7244725227355957,-10.727856636047363,50.83308792114258,-19.99415397644043
3.41,-3.5198421478271484,-15.598810195922852,0.2835494577884674,-0.5334380269050598,-1.5624405145645142,-1.8558086156845093,-10.625548362731934,50.48231506347656,-21.29494285583496
3.426,-3.555734395980835,-14.645270347595215,-0.34576284885406494,-0.6298020482063293,-1.271515965461731,-1.9811886548995972,-11.853259086608887,50.365386962890625,-20.695703506469727
3.43,-3.3164520263671875,-14.164313316345215,-0.6005984544754028,-0.6525567770004272,-1.141554355621338,-1.987602710723877,-12.218649864196777,50.745399475097656,-20.71031951904297
3.44,-2.6943180561065674,-13.185648918151855,-0.8745766282081604,-0.669355571269989,-0.8970555663108826,-1.95828115940094,-12.993276596069336,50.3800048828125,-20.841859817504883
3.45,-1.9226329326629639,-12.345767974853516,-0.9212366938591003,-0.6710354089736938,-0.650418758392334,-1.8585575819015503,-13.519438743591309,50.87693786621094,-19.92107582092285
3.46,-0.8721838593482971,-11.393424987792969,-0.9343971610069275,-0.6722572445869446,-0.48685958981513977,-1.756237506866455,-14.11867904663086,50.950016021728516,-20.038002014160156
3.47,0.17706885933876038,-10.627720832824707,-0.9834501147270203,-0.6624833345413208,-0.3730859160423279,-1.6397150754928589,-14.878690719604492,50.42385482788086,-18.89798355102539
3.489,1.998006820678711,-9.600004196166992,-0.8327022790908813,-0.6192646622657776,-0.4509712755680084,-1.430799126625061,-15.624086380004883,50.146156311035156,-18.269512176513672
3.493,2.117647886276245,-9.481559753417969,-0.787238597869873,-0.6189591884613037,-0.48884493112564087,-1.4106405973434448,-16.267173767089844,50.160770416259766,-18.079509735107422
3.5,2.214557409286499,-9.20877742767334,-0.6915256977081299,-0.6201809048652649,-0.6609561443328857,-1.3507758378982544,-16.413330078125,50.62847137451172,-18.152587890625
3.51,2.2396819591522217,-8.756534576416016,-0.4331009089946747,-0.6378960609436035,-0.8707883954048157,-1.3242030143737793,-16.398714065551758,50.48231506347656,-18.751827239990234
3.52,1.7228323221206665,-8.346165657043457,-0.26919254660606384,-0.669966459274292,-1.070388674736023,-1.3220651149749756,-17.15872573852539,50.146156311035156,-18.766441345214844
3.53,1.2275179624557495,-8.036294937133789,-0.03110669180750847,-0.7005097270011902,-1.245248794555664,-1.3419182300567627,-17.202571868896484,50.336158752441406,-17.860275268554688
3.543,0.5970092415809631,-7.688138484954834,0.17946170270442963,-0.7608326077461243,-1.378722906112671,-1.3486377000808716,-17.377958297729492,50.07307434082031,-17.655654907226562
3.55,0.06580261886119843,-7.550551891326904,0.2225324958562851,-0.7890851497650146,-1.423926830291748,-1.3584116697311401,-17.831043243408203,49.88307571411133,-17.59719467163086
3.56,-0.4893321990966797,-7.386643409729004,0.519242525100708,-0.8487972617149353,-1.3959797620773315,-1.3613131046295166,-17.87489128112793,49.853843688964844,-16.676410675048828
3.57,-1.1353943347930908,-7.008577346801758,0.4127618968486786,-0.9002626538276672,-1.2779301404953003,-1.3506230115890503,-18.035661697387695,49.34230041503906,-17.23180389404297
3.58,-1.4189437627792358,-6.720242023468018,0.33020952343940735,-0.9369145631790161,-1.1009318828582764,-1.363756537437439,-18.18181800842285,49.225372314453125,-16.69102668762207
3.59,-1.7288143634796143,-6.382853984832764,0.22612173855304718,-0.9558513760566711,-0.8765915632247925,-1.3921618461608887,-18.137971878051758,49.663841247558594,-16.369482040405273
3.603,-1.9956140518188477,-6.1124653816223145,0.2883351147174835,-0.9781479835510254,-0.5097670555114746,-1.4735596179962158,-18.72259521484375,49.049983978271484,-15.916398048400879
3.61,-1.9764714241027832,-6.061019420623779,0.2787638306617737,-0.9938777089118958,-0.33307427167892456,-1.5218180418014526,-19.044137954711914,48.56766891479492,-15.507162094116211
3.62,-1.7958134412765503,-5.982056140899658,0.2464607208967209,-1.0074695348739624,-0.0933096632361412,-1.5847371816635132,-19.424144744873047,52.17772674560547,-14.95176887512207
3.63,-1.4919248819351196,-5.986842155456543,0.19262221455574036,-1.0193814039230347,0.1667662113904953,-1.6255124807357788,-20.35954475402832,48.216896057128906,-13.548670768737793
3.64,-0.9906285405158997,-5.989234924316406,-0.016749758273363113,-1.0100656747817993,0.44165557622909546,-1.6366606950759888,-21.10494041442871,48.421512603759766,-13.782519340515137
3.658,-0.5479563474655151,-5.917449951171875,-0.34576284885406494,-0.9611964225769043,0.7046330571174622,-1.638645887374878,-22.1718807220459,47.500728607177734,-13.680211067199707
3.662,0.20099709928035736,-6.095715522766113,-0.2105683833360672,-0.9014843702316284,0.9980010986328125,-1.627803087234497,-22.93189239501953,47.82227325439453,-12.744811058044434
3.67,0.8961120247840881,-6.0155558586120605,-0.2823530435562134,-0.8839219808578491,1.0842857360839844,-1.601230502128601,-24.144987106323242,47.61765670776367,-12.949429512023926
3.68,1.7802599668502808,-5.97607421875,-0.40677982568740845,-0.8671231865882874,1.1459832191467285,-1.5433509349822998,-25.41654396057129,46.82841491699219,-12.408652305603027
3.69,2.376072883605957,-5.871986389160156,-0.6783652305603027,-0.8422304391860962,1.1403326988220215,-1.4537066221237183,-26.629642486572266,46.50687026977539,-12.014030456542969
3.7,2.8223342895507812,-5.876771926879883,-1.0145567655563354,-0.7742716670036316,1.0879509449005127,-1.3617713451385498,-27.57965660095215,46.346099853515625,-12.37942123413086
3.72,3.2709884643554688,-6.111268997192383,-1.3938192129135132,-0.6285803318023682,0.9894489645957947,-1.250899314880371,-28.368898391723633,46.316864013671875,-11.911721229553223
3.724,3.7328033447265625,-6.911667823791504,-1.4620145559310913,-0.49495354294776917,0.823599100112915,-1.1566733121871948,-29.391992568969727,45.98070526123047,-11.867875099182129
3.73,3.882354736328125,-7.424928665161133,-1.3423734903335571,-0.46593746542930603,0.6837109327316284,-1.1003210544586182,-29.655071258544922,45.615318298339844,-11.999415397644043
3.74,4.006781578063965,-7.99681282043457,-1.5038889646530151,-0.46700647473335266,0.4899139106273651,-1.016479730606079,-30.663549423217773,46.03916931152344,-11.838644027709961
3.75,4.1036906242370605,-8.433503150939941,-1.7168502807617188,-0.46563202142715454,0.3430008292198181,-0.9078984260559082,-30.37123680114746,45.27915573120117,-11.23940372467041
3.76,4.180261135101318,-8.74337387084961,-2.183450698852539,-0.4433354437351227,0.21090121567249298,-0.7240279912948608,-31.350481033325195,45.14761734008789,-10.420929908752441
3.77,4.147957801818848,-9.436095237731934,-3.0999014377593994,-0.33597588539123535,0.1508837193250656,-0.5804746747016907,-31.511253356933594,44.446067810058594,-11.078632354736328
3.782,3.9589247703552246,-10.334601402282715,-3.586841106414795,-0.13316862285137177,0.15806137025356293,-0.41141775250434875,-32.25665283203125,45.162235260009766,-10.4063138961792
3.79,4.061816215515137,-11.00459098815918,-3.8189449310302734,-0.0277943667024374,0.1846340149641037,-0.30863967537879944,-32.417423248291016,44.51914596557617,-10.377082824707031
3.8,4.23529577255249,-11.71047306060791,-4.059423446655273,0.06322455406188965,0.20082195103168488,-0.17699819803237915,-32.27126693725586,44.51914596557617,-10.026308059692383
3.81,4.229313850402832,-11.752347946166992,-4.4410786628723145,0.12079859524965286,0.18356500566005707,-0.022602012380957603,-32.46126937866211,44.70914840698242,-11.370944023132324
3.82,4.287938117980957,-10.882556915283203,-5.158925533294678,0.18509215116500854,0.12828169763088226,0.12247847765684128,-32.5489616394043,44.6799201965332,-10.099386215209961
3.839,3.8943188190460205,-10.241281509399414,-5.349154949188232,0.3240639865398407,0.04657847434282303,0.26893341541290283,-32.432037353515625,45.29377365112305,-10.4063138961792
3.843,3.4480574131011963,-10.439885139465332,-4.603790283203125,0.451123982667923,-0.025503622367978096,0.46105054020881653,-32.2274169921875,45.41069793701172,-10.874013900756836
3.85,3.1441688537597656,-10.74616527557373,-4.146761417388916,0.45295655727386475,-0.026114489883184433,0.5768095254898071,-31.993568420410156,45.206077575683594,-10.610932350158691
3.86,2.6249263286590576,-10.837093353271484,-3.6741790771484375,0.379652738571167,0.024892758578062057,0.7380779385566711,-31.81818199157715,45.27915573120117,-10.844781875610352
3.87,2.0865414142608643,-10.50808048248291,-3.3068807125091553,0.3055853545665741,0.10094548016786575,0.8374962210655212,-31.847414016723633,45.746856689453125,-11.254019737243652
3.88,1.7862420082092285,-10.260422706604004,-3.084348201751709,0.24358251690864563,0.19165895879268646,0.930347740650177,-31.540485382080078,45.615318298339844,-11.999415397644043
3.899,1.750349760055542,-10.518848419189453,-3.067598581314087,0.2168571650981903,0.2834414541721344,1.0279334783554077,-31.292020797729492,45.8199348449707,-12.189417839050293
3.904,1.8113667964935303,-11.297711372375488,-3.4265217781066895,0.24694228172302246,0.43447789549827576,1.1826351881027222,-30.970474243164062,45.65916442871094,-12.130955696105957
3.91,1.7886348962783813,-11.57408332824707,-3.678964614868164,0.2750420570373535,0.4946480989456177,1.2347114086151123,-31.306636810302734,45.995323181152344,-12.101724624633789
3.92,1.6390833854675293,-12.064611434936523,-4.240081787109375,0.39416077733039856,0.6520985960960388,1.3350459337234497,-31.014324188232422,46.097633361816406,-12.934814453125
3.93,1.148554801940918,-12.386445999145508,-4.480560302734375,0.4948008358478546,0.7585418820381165,1.3671164512634277,-30.122772216796875,46.097633361816406,-12.978660583496094
3.94,0.9391828775405884,-12.29432201385498,-4.650450706481934,0.608421802520752,0.868803083896637,1.37765371799469,-30.298158645629883,46.43379211425781,-12.964046478271484
3.96,0.989432156085968,-11.996416091918945,-4.1419758796691895,0.7050911784172058,0.9385944604873657,1.3816243410110474,-30.707395553588867,46.4191780090332,-13.914060592651367
3.963,1.4691929817199707,-11.71286678314209,-2.985046148300171,0.7127270102500916,1.0497719049453735,1.4700472354888916,-29.655071258544922,47.1207275390625,-13.592517852783203
3.97,1.695314884185791,-11.609975814819336,-2.651247262954712,0.6785185933113098,1.130711555480957,1.5544993877410889,-29.36275863647461,46.974571228027344,-14.220989227294922
3.98,2.1200408935546875,-11.534601211547852,-2.231307029724121,0.623235285282135,1.2345587015151978,1.6777414083480835,-28.924291610717773,47.39842224121094,-13.738672256469727
3.99,2.403590202331543,-11.638689041137695,-2.0482561588287354,0.5590943694114685,1.3264938592910767,1.7931948900222778,-29.15814208984375,47.63227081298828,-14.11867904663086
4.0,2.39401912689209,-11.562119483947754,-2.344965934753418,0.5041165351867676,1.356884479522705,1.8593209981918335,-28.953521728515625,47.909969329833984,-14.191757202148438
4.02,2.3234305381774902,-11.197213172912598,-2.8701906204223633,0.49724429845809937,1.3373366594314575,1.8727600574493408,-28.485822677612305,48.216896057128906,-14.001753807067871
4.023,2.3330020904541016,-10.808380126953125,-3.1956145763397217,0.5517640113830566,1.233642339706421,1.913688063621521,-28.398128509521484,48.465362548828125,-14.381760597229004
4.03,2.3198413848876953,-10.481759071350098,-3.2709884643554688,0.57436603307724,1.1282680034637451,1.9460639953613281,-27.886581420898438,49.13768005371094,-14.717918395996094
4.04,2.0757734775543213,-9.82971477508545,-3.25663161277771,0.5928446650505066,0.9439395070075989,1.9894354343414307,-27.345806121826172,48.99152374267578,-15.434082984924316
4.05,1.6139588356018066,-9.265008926391602,-2.967099905014038,0.5917757153511047,0.7883215546607971,2.0424277782440186,-26.921951293945312,48.62613296508789,-15.770242691040039
4.06,1.1904292106628418,-8.691927909851074,-2.6811578273773193,0.5855143666267395,0.679740309715271,2.1094703674316406,-26.30809783935547,48.9622917175293,-14.95176887512207
4.079,0.794417142868042,-8.103293418884277,-2.4023938179016113,0.5926920175552368,0.5842925906181335,2.194075107574463,-25.533470153808594,49.45922088623047,-16.311019897460938
4.083,0.08973085135221481,-7.542176723480225,-1.9920247793197632,0.6062837243080139,0.5439754724502563,2.267226219177246,-25.021923065185547,49.473838806152344,-16.164865493774414
4.09,-0.15912269055843353,-7.465606689453125,-1.7874385118484497,0.6006332635879517,0.5117523670196533,2.297616958618164,-24.334989547729492,49.56153106689453,-17.012569427490234
4.204,-0.15672987699508667,-5.5692949295043945,-0.8745766282081604,0.2574796974658966,0.07116580009460449,2.0474674701690674,-14.133294105529785,49.44460678100586,-19.029523849487305
4.21,-0.696311354637146,-5.491527557373047,-0.8865407705307007,0.23136521875858307,-0.005192354787141085,1.973705530166626,-13.577900886535645,49.25460433959961,-19.424144744873047
4.22,-1.8616158962249756,-5.477170944213867,-1.1389836072921753,0.19226983189582825,-0.06215553730726242,1.7996089458465576,-13.124817848205566,48.87459945678711,-19.497222900390625
4.23,-2.6763720512390137,-5.714060306549072,-1.3986047506332397,0.20066924393177032,0.11835514008998871,1.635897159576416,-12.262495994567871,48.596900939941406,-19.81876564025879
4.24,-2.8737800121307373,-6.1675004959106445,-1.4464612007141113,0.22372940182685852,0.3878994286060333,1.5819882154464722,-11.897106170654297,48.93306350708008,-19.62876319885254
4.26,-1.8113667964935303,-6.503691673278809,-1.4572290182113647,0.26114487648010254,0.6656904220581055,1.5560264587402344,-11.487869262695312,49.239986419677734,-19.99415397644043
4.264,0.647258460521698,-7.012166500091553,-1.408176064491272,0.3390301764011383,0.8535314798355103,1.5401439666748047,-11.137094497680664,48.479976654052734,-19.71645736694336
4.27,1.112662434577942,-7.195217609405518,-1.325623631477356,0.3637702465057373,0.817337691783905,1.5306755304336548,-10.596317291259766,48.6407470703125,-19.219526290893555
4.28,2.043470621109009,-7.677371501922607,-1.0037890672683716,0.389426589012146,0.5523748993873596,1.4410310983657837,-10.581701278686523,48.5384407043457,-20.02338409423828
4.29,1.8065810203552246,-8.38564682006836,-0.5802595019340515,0.3741549551486969,0.2382374405860901,1.3048081398010254,-10.508623123168945,47.866119384765625,-19.979537963867188
4.3,0.5455635190010071,-8.900103569030762,-0.35772696137428284,0.32681289315223694,-0.06658431142568588,1.1145235300064087,-9.880152702331543,47.76381301879883,-20.02338409423828
4.32,-0.8997012972831726,-9.585646629333496,-0.5060819387435913,0.2802344262599945,-0.2860376536846161,0.8979719281196594,-8.857059478759766,47.89535140991211,-20.724933624267578
4.323,-2.526820659637451,-10.765308380126953,-0.49172505736351013,0.2733621895313263,-0.43905937671661377,0.5532912015914917,-8.973984718322754,47.41303634643555,-19.570301055908203
4.33,-2.764906644821167,-11.198410034179688,-0.26440688967704773,0.2554943859577179,-0.4767802953720093,0.3900374472141266,-8.696288108825684,47.427650451660156,-20.549545288085938
4.34,-3.6011979579925537,-12.055039405822754,0.06221338361501694,0.21410825848579407,-0.483957976102829,0.1543961763381958,-8.550130844116211,47.851505279541016,-20.286466598510742
4.35,-3.6335010528564453,-12.41037368774414,0.3445664644241333,0.17776179313659668,-0.5222897529602051,-0.11178833991289139,-8.111662864685059,47.76381301879883,-20.958784103393555
4.36,-4.2616167068481445,-12.31107234954834,0.007178467698395252,0.1540907472372055,-0.5962044596672058,-0.4017966091632843,-8.345513343811035,47.661502838134766,-21.397253036499023
4.38,-5.009374141693115,-12.259626388549805,-0.5371886491775513,0.16279558837413788,-0.6146831512451172,-0.6530149579048157,-8.447822570800781,47.734580993652344,-21.806488037109375
4.383,-5.710471153259277,-12.710674285888672,-1.1629117727279663,0.20326539874076843,-0.4813618063926697,-0.8840747475624084,-8.608593940734863,48.27535629272461,-21.616485595703125
4.39,-5.332405090332031,-12.994222640991211,-1.2227323055267334,0.20922134816646576,-0.3594941794872284,-0.930347740650177,-8.842443466186523,48.23151397705078,-22.259572982788086
4.4,-4.037888050079346,-13.332807540893555,-1.0923235416412354,0.16920965909957886,-0.22403483092784882,-0.9193521738052368,-9.397836685180664,48.27535629272461,-22.347267150878906
4.41,-2.3030917644500732,-13.345968246459961,-0.9583254456520081,0.07987063378095627,-0.21609358489513397,-0.8477282524108887,-9.558608055114746,48.611515045166016,-22.347267150878906
4.42,-0.8614161610603333,-13.13420295715332,-0.9080761671066284,-0.02122756652534008,-0.39538252353668213,-0.7779368162155151,-9.748611450195312,48.8599853515625,-22.94650650024414
4.44,-0.1459621787071228,-12.887742042541504,-0.8386843204498291,-0.13515393435955048,-0.8272642493247986,-0.7696901559829712,-10.143233299255371,48.69921112060547,-21.996492385864258
4.443,-0.45104703307151794,-12.853046417236328,-0.2632104754447937,-0.2617557644844055,-1.3487904071807861,-0.8445212244987488,-10.391697883605957,49.020755767822266,-22.47880744934082
4.45,-1.026520848274231,-12.939188003540039,0.06580261886119843,-0.34116825461387634,-1.6218472719192505,-0.9106473326683044,-10.157849311828613,48.62613296508789,-22.888044357299805
4.46,-1.9190436601638794,-12.991829872131348,0.4809573292732239,-0.44806966185569763,-1.9017761945724487,-1.0093021392822266,-10.420929908752441,48.93306350708008,-23.03420066833496
4.47,-2.882154941558838,-13.107881546020508,0.8243273496627808,-0.5410738587379456,-2.0726656913757324,-1.1238393783569336,-9.923998832702637,48.69921112060547,-22.94650650024414
4.48,-3.702892780303955,-13.41176986694336,1.1162517070770264,-0.6255260109901428,-2.125200033187866,-1.2803735733032227,-10.128617286682129,48.75767135620117,-22.712656021118164
4.5,-4.587040901184082,-13.737194061279297,1.2023932933807373,-0.668744683265686,-2.0366246700286865,-1.429271936416626,-10.567085266113281,48.976905822753906,-22.712656021118164
4.504,-4.968696117401123,-13.904691696166992,1.0863415002822876,-0.707534670829773,-1.7528778314590454,-1.6639968156814575,-10.333235740661621,48.93306350708008,-22.522653579711914
4.51,-5.051248073577881,-13.823335647583008,0.9296115636825562,-0.7122688889503479,-1.6325373649597168,-1.743256688117981,-10.537854194641113,48.289974212646484,-22.215726852416992
4.52,-4.829912185668945,-13.566107749938965,0.6448656916618347,-0.7195992469787598,-1.3703234195709229,-1.89811110496521,-10.990938186645508,49.020755767822266,-22.873428344726562
4.53,-4.289134502410889,-13.233505249023438,0.4247260093688965,-0.7316638231277466,-1.0910053253173828,-2.029447078704834,-11.283249855041504,48.27535629272461,-22.610347747802734
4.54,-3.4779675006866455,-12.890134811401367,0.1423729509115219,-0.736245334148407,-0.7816020846366882,-2.1447479724884033,-12.262495994567871,49.07921600341797,-22.347267150878906
4.56,-2.3270199298858643,-12.510872840881348,-0.09451649338006973,-0.7150177359580994,-0.6027712821960449,-2.194075107574463,-14.206372261047363,49.37152862548828,-22.215726852416992
4.564,-1.368694543838501,-12.198609352111816,-0.32901307940483093,-0.6733261942863464,-0.4908302128314972,-2.2119429111480713,-14.177140235900879,49.41537857055664,-21.631101608276367
4.57,-0.92482590675354,-12.119646072387695,-0.2679961323738098,-0.6655376553535461,-0.48579058051109314,-2.2130119800567627,-14.323297500610352,48.976905822753906,-21.616485595703125
4.58,-0.27756741642951965,-11.895917892456055,-0.2560320198535919,-0.6860016584396362,-0.5151121020317078,-2.199267625808716,-14.980999946594238,48.9622917175293,-20.885705947875977
4.59,0.15314064919948578,-11.577672004699707,-0.3529413342475891,-0.7144068479537964,-0.5717698335647583,-2.1591031551361084,-16.13563346862793,49.093833923339844,-20.65185546875
4.6,0.7405785322189331,-11.09192943572998,-0.3433700203895569,-0.7538076639175415,-0.6586654186248779,-2.1111502647399902,-17.202571868896484,49.13768005371094,-20.125694274902344
4.619,0.9475577473640442,-10.588239669799805,-0.5802595019340515,-0.7716754674911499,-0.8330674767494202,-1.9636262655258179,-17.947969436645508,49.48845672607422,-20.213388442993164
4.622,1.0085747241973877,-9.940980911254883,-0.6819544434547424,-0.7715228199958801,-0.860556423664093,-1.9463694095611572,-18.079509735107422,49.35691452026367,-19.847997665405273
4.63,0.9343971610069275,-9.537790298461914,-0.7417749762535095,-0.7709118723869324,-0.941343367099762,-1.891544222831726,-18.28412628173828,49.4007568359375,-20.09646224975586
4.64,0.5874379277229309,-9.008976936340332,-0.6209374666213989,-0.7709118723869324,-1.072068452835083,-1.8319847583770752,-19.307220458984375,49.00613784790039,-19.672609329223633
4.65,0.24167509377002716,-8.323433876037598,-0.5623133182525635,-0.7756461501121521,-1.1268937587738037,-1.8061758279800415,-18.956445693969727,48.34843444824219,-19.83338165283203
4.66,-0.2225324958562851,-7.913064479827881,-0.3649054169654846,-0.7680103182792664,-1.149037480354309,-1.8034268617630005,-19.044137954711914,48.74305725097656,-19.05875587463379
4.68,-0.44386857748031616,-7.649853706359863,0.2069791555404663,-0.8107708692550659,-1.1632400751113892,-1.8037323951721191,-19.847997665405273,47.89535140991211,-18.459514617919922
4.684,-0.7082754373550415,-7.1748785972595215,0.4163511395454407,-0.9396634101867676,-1.0404561758041382,-1.7785340547561646,-20.35954475402832,48.114585876464844,-18.576440811157227
4.69,-0.7980062961578369,-7.042076587677002,0.453439861536026,-0.9983065128326416,-0.9279043078422546,-1.7592918872833252,-20.63724136352539,47.96842956542969,-18.927213668823242
4.7,-0.9391828775405884,-6.88534688949585,0.34576284885406494,-1.0604619979858398,-0.7499897480010986,-1.7438675165176392,-21.061092376708984,47.9391975402832,-17.918737411499023
4.71,-1.0492527484893799,-6.912864685058594,0.2679961323738098,-1.1000155210494995,-0.5616905689239502,-1.7460055351257324,-21.55802345275879,47.39842224121094,-18.25489616394043
4.72,-1.1306086778640747,-6.946363925933838,0.22851455211639404,-1.1217013597488403,-0.33017265796661377,-1.7724254131317139,-22.230342864990234,47.13534164428711,-16.457176208496094
4.74,-1.2514461278915405,-6.866204261779785,0.11844471842050552,-1.1577422618865967,0.15225815773010254,-1.871996521949768,-23.618824005126953,47.1207275390625,-15.711779594421387
4.744,-0.9655039310455322,-6.612565040588379,0.10408778488636017,-1.165683627128601,0.25931230187416077,-1.8993327617645264,-24.276527404785156,46.44840621948242,-15.945630073547363
4.75,-0.698704183101654,-6.412764072418213,0.039481572806835175,-1.1797335147857666,0.4115704298019409,-1.926363468170166,-24.510377883911133,45.922245025634766,-16.15024757385254
4.76,-0.20937196910381317,-6.14716100692749,-0.014356935396790504,-1.1789699792861938,0.5849034786224365,-1.952478051185608,-25.41654396057129,45.84916687011719,-15.01023006439209
4.77,0.43190446496009827,-5.903093338012695,-0.11246266216039658,-1.1775954961776733,0.7521278262138367,-1.942856788635254,-26.87810707092285,44.91376876831055,-14.425606727600098
4.78,1.101894736289978,-5.656632423400879,-0.3613162338733673,-1.1600329875946045,0.888350784778595,-1.901318073272705,-27.857351303100586,45.14761734008789,-13.782519340515137
4.8,1.7395819425582886,-5.539383888244629,-0.5467599630355835,-1.105207920074463,0.9863946437835693,-1.8241963386535645,-29.275066375732422,44.38760757446289,-13.534053802490234
4.804,2.606980323791504,-5.55613374710083,-0.9786643981933594,-1.0221302509307861,1.0212138891220093,-1.7371480464935303,-30.239694595336914,44.3437614440918,-12.730195999145508
4.81,2.9168508052825928,-5.674578666687012,-1.2119646072387695,-0.9476047158241272,1.023352026939392,-1.6884315013885498,-30.327388763427734,43.83221435546875,-13.300204277038574
4.82,3.370290756225586,-6.003591537475586,-1.3651052713394165,-0.8385652303695679,0.9601274132728577,-1.6329954862594604,-31.438175201416016,42.91142654418945,-12.70096492767334
4.83,3.8428730964660645,-6.440281867980957,-1.2610174417495728,-0.7577782869338989,0.854295015335083,-1.5752687454223633,-32.59280776977539,42.56065368652344,-13.227126121520996
4.84,4.387239933013916,-6.719045639038086,-1.2287143468856812,-0.7386887669563293,0.7124215364456177,-1.4918856620788574,-33.2066650390625,42.47296142578125,-12.788658142089844
4.859,4.753342151641846,-6.722634792327881,-1.412961721420288,-0.7463245987892151,0.3536909520626068,-1.2121094465255737,-34.84361267089844,42.12218475341797,-11.56094741821289
4.863,5.029713153839111,-6.2536420822143555,-2.0279171466827393,-0.7470881938934326,0.31123584508895874,-1.1785117387771606,-34.88745880126953,41.56679153442383,-11.75094985961914
4.87,5.076373100280762,-6.020341396331787,-2.155933141708374,-0.7451028823852539,0.18707747757434845,-1.0806206464767456,-35.45746612548828,41.47909927368164,-11.824028015136719
4.88,5.010570526123047,-5.807380199432373,-2.372483730316162,-0.7322747111320496,0.029932396486401558,-0.949895441532135,-35.50131607055664,41.40602111816406,-11.56094741821289
4.89,4.758127689361572,-5.966503143310547,-2.5674986839294434,-0.6899722814559937,-0.1039998009800911,-0.8248208165168762,-35.42823791503906,40.42677688598633,-11.312481880187988
4.9,4.480560302734375,-6.7310099601745605,-2.81276273727417,-0.5986478924751282,-0.1950187236070633,-0.7035639882087708,-35.6474723815918,40.63139724731445,-11.195556640625
4.92,4.034298896789551,-9.345169067382812,-3.1274189949035645,-0.502436637878418,-0.09575312584638596,-0.5410738587379456,-36.655948638916016,40.25138854980469,-10.01169204711914
4.923,3.992424488067627,-9.516255378723145,-3.253042459487915,-0.4934263825416565,-0.0656680166721344,-0.5190827250480652,-36.524410247802734,39.579071044921875,-10.333235740661621
4.93,4.107280254364014,-9.745965957641602,-3.871586799621582,-0.4427245557308197,0.04184426739811897,-0.4427245557308197,-36.75825881958008,39.140602111816406,-10.391697883605957
4.94,4.360918998718262,-9.756733894348145,-4.910071849822998,-0.2626720666885376,0.19517144560813904,-0.30604347586631775,-36.78749084472656,39.43291473388672,-9.573224067687988
4.95,5.2151570320129395,-9.878767967224121,-5.020142078399658,0.02229658141732216,0.4095851480960846,-0.039248090237379074,-36.845951080322266,39.564453125,-10.68401050567627
4.96,6.175874710083008,-10.415956497192383,-5.1565327644348145,0.15134187042713165,0.45555275678634644,0.19165895879268646,-36.90441131591797,39.330604553222656,-10.201695442199707
4.979,5.921039581298828,-9.857233047485352,-5.431707382202148,0.3205515146255493,0.020616700872778893,0.36819902062416077,-37.31365203857422,39.19906234741211,-9.982461929321289
4.983,5.54895544052124,-9.548558235168457,-5.401796817779541,0.3399465084075928,-0.03741549327969551,0.3828597962856293,-36.90441131591797,39.82753372192383,-9.82168960571289
4.99,5.041677474975586,-9.181260108947754,-5.266602516174316,0.40515637397766113,-0.1875356286764145,0.4427245557308197,-37.0067253112793,39.213680267333984,-10.625548362731934
5.0,4.4135613441467285,-9.05444049835205,-4.67078971862793,0.49525898694992065,-0.40515637397766113,0.5638285875320435,-36.159019470214844,39.5059928894043,-10.143233299255371
5.01,3.236292600631714,-9.233901977539062,-3.3678977489471436,0.48976120352745056,-0.5224425196647644,0.6488915681838989,-35.76439666748047,39.79830551147461,-10.318620681762695
5.02,2.0709879398345947,-9.279365539550781,-2.8175485134124756,0.4285219609737396,-0.5192354321479797,0.7156286239624023,-36.115169525146484,40.04676818847656,-10.567085266113281
5.039,0.11126624792814255,-9.549755096435547,-2.135594129562378,0.2828305959701538,-0.1696678102016449,0.8231408596038818,-35.20900344848633,40.83601379394531,-11.312481880187988
5.042,-0.0131605239585042,-9.631111145019531,-2.1750757694244385,0.2606867253780365,-0.09285151958465576,0.8402451872825623,-34.93130874633789,40.73370361328125,-11.429407119750977
5.05,-0.24406790733337402,-9.90987491607666,-2.5639095306396484,0.2054034322500229,0.25182920694351196,0.9028587937355042,-34.93130874633789,40.309852600097656,-11.838644027709961
5.06,-0.08255238085985184,-10.924431800842285,-3.6837503910064697,0.247094988822937,0.6319400668144226,0.9586002826690674,-34.989768981933594,40.967552185058594,-11.487869262695312
5.07,0.7920242547988892,-11.96770191192627,-4.249652862548828,0.35964691638946533,1.0334312915802002,1.0387763977050781,-34.712074279785156,40.48523712158203,-12.37942123413086
5.08,2.403590202331543,-12.30389404296875,-4.502095699310303,0.4625777006149292,1.381929874420166,1.171334147453308,-34.60976028442383,40.82139587402344,-13.154048919677734
5.099,5.142175674438477,-10.692327499389648,-4.7641096115112305,0.6745479106903076,1.4483615159988403,1.5543466806411743,-35.0043830871582,41.37678909301758,-13.007892608642578
5.103,5.3347978591918945,-10.526025772094727,-4.55354118347168,0.7493789196014404,1.3445144891738892,1.63162100315094,-34.989768981933594,41.756797790527344,-13.504822731018066
5.11,5.295316219329834,-10.627720832824707,-4.006781578063965,0.8613199591636658,1.1688907146453857,1.733788251876831,-34.9459228515625,42.12218475341797,-13.987138748168945
5.12,4.564309120178223,-11.304889678955078,-3.370290756225586,0.9760099053382874,0.9837984442710876,1.83992600440979,-34.536685943603516,42.3414192199707,-13.782519340515137
5.13,3.4683964252471924,-12.398409843444824,-2.7601208686828613,1.0059423446655273,0.9040805101394653,1.9037615060806274,-33.9082145690918,42.58988571166992,-14.542531967163086
5.14,2.4705893993377686,-13.311272621154785,-2.414357900619507,0.9459247589111328,0.9541714787483215,1.9408715963363647,-33.8643684387207,43.17451095581055,-14.776381492614746
5.158,1.8843477964401245,-13.004990577697754,-3.1932218074798584,0.8871290683746338,1.1843149662017822,2.024407386779785,-33.19205093383789,43.61297607421875,-16.179479598999023
5.162,1.9417754411697388,-12.917652130126953,-3.190828800201416,0.9010262489318848,1.2203559875488281,2.0592267513275146,-33.557437896728516,44.10990905761719,-16.223325729370117
5.17,2.2265214920043945,-12.629317283630371,-3.080759048461914,0.9059131145477295,1.2212722301483154,2.1120665073394775,-32.73896408081055,44.03683090209961,-15.85793685913086
5.18,2.4023938179016113,-12.171091079711914,-2.967099905014038,0.8950702548027039,1.1313223838806152,2.1896464824676514,-32.490501403808594,44.91376876831055,-16.617948532104492
5.19,2.3545374870300293,-11.651848793029785,-2.757727861404419,0.8680394887924194,1.018923282623291,2.269517183303833,-31.248172760009766,44.88453674316406,-17.407190322875977
5.208,1.904686689376831,-11.204391479492188,-2.5698914527893066,0.807563841342926,0.9158397316932678,2.3461806774139404,-30.985092163085938,45.51300811767578,-18.035661697387695
5.212,1.0348957777023315,-10.463812828063965,-2.4095723628997803,0.6853907704353333,0.8846855759620667,2.3667972087860107,-30.137386322021484,45.95147705078125,-18.021047592163086
5.22,0.1746760457754135,-9.781858444213867,-2.3784656524658203,0.6305656433105469,0.9063712954521179,2.356565475463867,-29.523530960083008,46.43379211425781,-18.108739852905273
5.23,-0.21655045449733734,-9.20997428894043,-2.3401803970336914,0.5691736936569214,0.9233227968215942,2.32586932182312,-29.1873722076416,46.726104736328125,-19.0733699798584
5.24,-0.15912269055843353,-8.732605934143066,-2.3605194091796875,0.5175555348396301,0.9280570149421692,2.309223175048828,-28.69044303894043,47.26688003540039,-18.985675811767578
5.25,-0.061016976833343506,-8.443074226379395,-2.475374937057495,0.46822819113731384,0.9251554012298584,2.3301455974578857,-27.681964874267578,47.19380569458008,-19.55568504333496
5.26,0.24406790733337402,-8.60219669342041,-2.2983059883117676,0.38576140999794006,0.9485209584236145,2.4211645126342773,-27.945045471191406,47.41303634643555,-19.614147186279297
5.275,0.8757730722427368,-8.605786323547363,-2.1822540760040283,0.28466320037841797,0.9917396903038025,2.626873016357422,-26.088863372802734,47.61765670776367,-20.008769989013672
5.28,1.317248821258545,-8.437091827392578,-2.321038007736206,0.27809640765190125,0.9798278212547302,2.705522060394287,-26.454252243041992,48.041507720947266,-19.979537963867188
5.29,2.2719850540161133,-8.049454689025879,-2.5148565769195557,0.2981022298336029,0.8533787131309509,2.8625144958496094,-25.577316284179688,47.57380676269531,-19.90645980834961
5.3,2.667997121810913,-7.554140567779541,-2.575873613357544,0.33017265796661377,0.583528995513916,2.9965994358062744,-23.998830795288086,48.01227569580078,-20.18415641784668
5.31,2.798405885696411,-7.325625896453857,-2.4263219833374023,0.3874412775039673,0.11316278576850891,3.101057529449463,-23.370359420776367,47.79304122924805,-20.695703506469727
5.329,2.3126630783081055,-7.076772689819336,-2.1774685382843018,0.40912699699401855,-0.29046642780303955,3.131906270980835,-21.82110595703125,48.33382034301758,-20.783395767211914
5.333,1.3866406679153442,-6.662814617156982,-1.9441683292388916,0.436157763004303,-0.7286095023155212,3.0949487686157227,-20.052616119384766,47.33995819091797,-20.578777313232422
5.34,0.8458627462387085,-6.447460651397705,-1.794616937637329,0.4433354437351227,-0.9158397316932678,3.034625768661499,-18.591054916381836,47.33995819091797,-21.075708389282227
5.35,-0.21655045449733734,-6.2081780433654785,-1.6582260131835938,0.4421136975288391,-1.014952540397644,2.942690372467041,-16.778718948364258,47.01841354370117,-21.38263702392578
5.36,-1.34476637840271,-6.211767196655273,-1.5984054803848267,0.42500948905944824,-0.9421069025993347,2.8073840141296387,-15.024847030639648,47.354576110839844,-21.55802345275879
5.37,-2.321038007736206,-6.433103561401367,-1.4237295389175415,0.42439863085746765,-0.716697633266449,2.7070491313934326,-13.797135353088379,47.07687759399414,-21.4703311920166
5.38,-2.5710878372192383,-6.364907741546631,-1.0851449966430664,0.43875396251678467,-0.516333818435669,2.623818874359131,-12.598654747009277,46.76995086669922,-21.704179763793945
5.392,-3.160918712615967,-6.178267955780029,-0.9152546525001526,0.48747044801712036,-0.20906862616539001,2.4825563430786133,-11.780181884765625,46.740718841552734,-22.11341667175293
5.4,-3.13220477104187,-6.156732559204102,-0.6891329288482666,0.5274821519851685,-0.029016099870204926,2.3736696243286133,-10.742472648620605,46.4191780090332,-22.800350189208984
5.41,-3.036491870880127,-6.180660724639893,-0.6173481941223145,0.559857964515686,0.27641651034355164,2.1394028663635254,-10.143233299255371,46.097633361816406,-23.458053588867188
5.42,-2.6452653408050537,-6.193820953369141,-0.5694918036460876,0.5601634383201599,0.4815145432949066,1.9216293096542358,-9.50014591217041,46.1414794921875,-22.72727394104004
5.43,-2.084148406982422,-6.1328043937683105,-0.6975077390670776,0.5241223573684692,0.6207917928695679,1.706910252571106,-9.03244686126709,46.43379211425781,-23.428821563720703
5.449,-1.4715858697891235,-6.017949104309082,-1.0456634759902954,0.48548513650894165,0.7183775305747986,1.514182209968567,-8.47705364227295,46.21455764770508,-23.706518173217773
5.453,-0.43190446496009827,-5.9916276931762695,-1.3950154781341553,0.46273043751716614,0.755182147026062,1.2625057697296143,-7.8047356605529785,45.556854248046875,-23.5895938873291
5.46,0.3732803165912628,-6.104090690612793,-1.3483555316925049,0.4583016633987427,0.7206682562828064,1.1859948635101318,-7.497807502746582,45.60070037841797,-24.48114585876465
5.47,1.9190436601638794,-6.394818305969238,-1.1365907192230225,0.45555275678634644,0.5778785347938538,1.150259256362915,-7.36626672744751,45.32300567626953,-23.22420310974121
5.48,2.4406790733337402,-6.5527448654174805,-1.042074203491211,0.46899178624153137,0.32498031854629517,1.1386528015136719,-7.015492916107178,45.39608383178711,-23.355743408203125
5.49,2.4777677059173584,-6.9750776290893555,-0.558724045753479,0.45921796560287476,0.02886338159441948,1.0943650007247925,-6.547792911529541,45.35223388671875,-24.144987106323242
5.51,1.4632110595703125,-7.4907307624816895,-0.18544374406337738,0.3839287757873535,-0.2912300229072571,0.959058403968811,-5.553931713104248,45.46916198730469,-23.85267448425293
5.513,-0.2883351147174835,-8.25284481048584,0.8901299834251404,0.1820378452539444,-0.7127270102500916,0.6467536091804504,-5.363928318023682,45.235313415527344,-25.606548309326172
5.52,-0.9535397887229919,-8.46341323852539,1.1413763761520386,0.06169738993048668,-0.8475754857063293,0.483957976102829,-4.779304027557373,45.33761978149414,-25.197309494018555
5.53,-2.5232315063476562,-8.884550094604492,1.4811570644378662,-0.046273037791252136,-0.9958630204200745,0.26710081100463867,-4.983922958374023,45.27915573120117,-24.714996337890625
5.54,-3.8153557777404785,-9.404989242553711,1.4057832956314087,-0.06994406878948212,-1.193325161933899,0.02321287989616394,-4.457760810852051,45.52762222290039,-25.22654151916504
5.55,-5.7786664962768555,-10.112068176269531,1.3890334367752075,-0.07009679079055786,-1.3698652982711792,-0.25335633754730225,-3.946214437484741,44.82607650756836,-26.176557540893555
5.569,-7.939384937286377,-10.671988487243652,1.5912269353866577,-0.09926559776067734,-1.4146111011505127,-0.5824600458145142,-4.1508331298828125,45.191463470458984,-26.86349105834961
5.573,-10.301101684570312,-11.541779518127441,2.0961124897003174,-0.2070833146572113,-1.15178644657135,-1.1519391536712646,-4.3262200355529785,45.04530715942383,-26.176557540893555
5.58,-10.918450355529785,-12.038290023803711,2.1415762901306152,-0.3173445165157318,-0.9002626538276672,-1.4089607000350952,-4.282373428344727,45.07453918457031,-26.176557540893555
5.59,-11.009376525878906,-12.42832088470459,1.1964112520217896,-0.42867469787597656,-0.4118758738040924,-1.6992744207382202,-4.823151111602783,45.01607894897461,-26.161941528320312
5.6,-9.780662536621094,-12.461820602416992,0.038285162299871445,-0.4043927788734436,0.13637566566467285,-1.9029979705810547,-4.866997718811035,45.191463470458984,-26.30809783935547
5.61,-7.29691219329834,-12.320642471313477,-0.7357929348945618,-0.2713768780231476,0.5815436840057373,-1.9465219974517822,-6.343174934387207,45.90762710571289,-25.88424301147461
5.63,-4.351347923278809,-12.0993070602417,-1.148554801940918,-0.058795779943466187,0.8573493957519531,-1.839468002319336,-7.380882740020752,45.68839645385742,-25.752704620361328
5.633,-0.3278166949748993,-12.315857887268066,-1.466800332069397,0.06291911751031876,0.735634446144104,-1.6731598377227783,-7.965507507324219,46.170711517333984,-25.957321166992188
5.64,1.0336993932724,-12.437891960144043,-1.5469597578048706,0.0555887334048748,0.4918992221355438,-1.5714508295059204,-9.120140075683594,46.62379455566406,-26.556564331054688
5.65,1.9310078620910645,-12.440284729003906,-1.439282774925232,-0.02580905519425869,0.04749477282166481,-1.4653130769729614,-10.187079429626465,46.88687515258789,-26.556564331054688
5.66,1.9549360275268555,-12.56112289428711,-1.1198409795761108,-0.1368338167667389,-0.44944408535957336,-1.401172161102295,-10.245542526245117,47.26688003540039,-26.585792541503906
5.67,1.2550355195999146,-12.735798835754395,-0.46061834692955017,-0.2935207188129425,-1.0850493907928467,-1.4002559185028076,-11.078632354736328,47.32534408569336,-26.176557540893555
5.689,-0.08614161610603333,-12.952347755432129,0.3768695592880249,-0.44028112292289734,-1.4950926303863525,-1.4540119171142578,-11.47325325012207,46.930721282958984,-26.23501968383789
5.693,-1.5960125923156738,-13.299307823181152,0.9667003750801086,-0.6352998614311218,-1.7876970767974854,-1.5706872940063477,-11.210172653198242,47.61765670776367,-26.42502212524414
5.7,-2.1643080711364746,-13.465608596801758,1.293320655822754,-0.7506006360054016,-1.867567777633667,-1.672243595123291,-11.780181884765625,47.836891174316406,-26.702720642089844
5.71,-2.6811578273773193,-13.676177978515625,1.31365966796875,-0.8683449029922485,-1.8892533779144287,-1.8193093538284302,-12.072493553161621,47.32534408569336,-26.118093490600586
5.72,-2.9383859634399414,-14.006386756896973,1.1114661693572998,-0.9140071272850037,-1.8266397714614868,-1.9853119850158691,-12.42326831817627,47.77842712402344,-26.483484268188477
5.73,-2.7637100219726562,-14.803196907043457,1.530210018157959,-0.9538660645484924,-1.7424931526184082,-2.0813705921173096,-12.788658142089844,47.38380432128906,-26.483484268188477
5.751,-3.1621150970458984,-15.107085227966309,1.4763715267181396,-1.0601565837860107,-1.6400203704833984,-2.1685714721679688,-12.949429512023926,47.281497955322266,-26.045015335083008
5.755,-3.820141077041626,-14.800803184509277,0.3158525824546814,-1.0798569917678833,-1.4306464195251465,-2.35595440864563,-14.410990715026855,47.33995819091797,-26.42502212524414
5.76,-4.053441524505615,-14.685948371887207,0.07417750358581543,-1.051146388053894,-1.3437508344650269,-2.4135286808013916,-14.776381492614746,47.427650451660156,-25.665008544921875
5.77,-4.469792366027832,-14.413166999816895,-0.6173481941223145,-0.9654725193977356,-1.080467939376831,-2.548987865447998,-14.688687324523926,47.19380569458008,-25.22654151916504
5.78,-4.934000015258789,-14.043475151062012,-1.2370892763137817,-0.8287914395332336,-0.778242290019989,-2.6722300052642822,-16.42794418334961,47.64688491821289,-25.650394439697266
5.79,-4.4410786628723145,-13.686945915222168,-1.2717852592468262,-0.7809911966323853,-0.42791110277175903,-2.7566819190979004,-17.04180145263672,47.70534896850586,-25.021923065185547
5.81,-3.3678977489471436,-13.115060806274414,-1.3663017749786377,-0.8006916046142578,-0.07635815441608429,-2.760805368423462,-19.409530639648438,47.64688491821289,-23.925752639770508
5.813,-1.3196415901184082,-12.232109069824219,-1.3639088869094849,-0.8788823485374451,0.27611106634140015,-2.6004531383514404,-19.964923858642578,47.13534164428711,-23.5895938873291
5.82,0.07896314561367035,-11.570493698120117,-1.490728497505188,-0.9075930714607239,0.33200523257255554,-2.5085179805755615,-20.169540405273438,47.70534896850586,-23.66267204284668
5.83,1.4787644147872925,-10.478169441223145,-1.8771692514419556,-0.9254608750343323,0.337044894695282,-2.236377477645874,-21.66033363342285,47.106109619140625,-23.414207458496094
5.84,2.620140552520752,-9.239884376525879,-1.9848462343215942,-0.896902859210968,0.19303342700004578,-2.0390682220458984,-22.610347747802734,46.81379699707031,-22.888044357299805
5.85,3.1345977783203125,-8.465806007385254,-1.9956140518188477,-0.8520042896270752,-0.0032070425804704428,-1.85244882106781,-23.238819122314453,47.354576110839844,-22.639577865600586
5.87,3.2374887466430664,-8.002795219421387,-1.659422516822815,-0.8006916046142578,-0.2200642079114914,-1.7024813890457153,-24.46653175354004,47.296112060546875,-22.347267150878906
5.873,2.8893332481384277,-7.689335346221924,-1.0097711086273193,-0.7909177541732788,-0.5199990272521973,-1.5066990852355957,-24.524991989135742,46.40456008911133,-21.83572006225586
5.88,2.6321046352386475,-7.642675399780273,-0.8398807048797607,-0.8147415518760681,-0.6446155309677124,-1.4246904850006104,-25.24115753173828,46.95995330810547,-21.528793334960938
5.89,1.88075852394104,-7.477570533752441,-0.5682953596115112,-0.8520042896270752,-0.735634446144104,-1.3370312452316284,-25.109615325927734,46.346099853515625,-20.608009338378906
5.9,1.3830513954162598,-7.34357213973999,-0.35892340540885925,-0.9011789560317993,-0.7787004113197327,-1.28434419631958,-25.650394439697266,46.302249908447266,-21.075708389282227
5.91,0.818345308303833,-7.103094100952148,-0.35772696137428284,-0.945772111415863,-0.7632761001586914,-1.2460123300552368,-25.855012893676758,46.02455520629883,-19.584917068481445
5.93,0.3768695592880249,-6.9320068359375,-0.2512463629245758,-0.9747881889343262,-0.7220426797866821,-1.235474944114685,-26.746564865112305,45.77608871459961,-19.877227783203125
5.933,-0.1375872939825058,-6.594618797302246,-0.22851455211639404,-0.9784533381462097,-0.6050620079040527,-1.2733485698699951,-26.264249801635742,45.67377853393555,-18.795673370361328
5.94,-0.2620140612125397,-6.4941205978393555,-0.1459621787071228,-0.9708175659179688,-0.5426010489463806,-1.3165671825408936,-27.009645462036133,45.4399299621582,-19.19029426574707
5.95,-0.44745784997940063,-6.428317546844482,0.0011964113218709826,-0.9680687189102173,-0.4418082535266876,-1.3843733072280884,-27.1704158782959,45.39608383178711,-18.664133071899414
5.96,-0.4666004180908203,-6.337390422821045,0.17108681797981262,-0.9894489645957947,-0.3124575614929199,-1.450194001197815,-27.740427017211914,44.19760513305664,-18.298744201660156
5.97,-0.4977070689201355,-6.161518096923828,0.18903298676013947,-1.0325149297714233,-0.14034628868103027,-1.5073100328445435,-27.784273147583008,43.6422119140625,-17.87489128112793
5.99,-0.4307080805301666,-5.910271644592285,0.06939185410737991,-1.063821792602539,0.14553864300251007,-1.5566374063491821,-29.216602325439453,43.29143524169922,-18.25489616394043
5.993,-0.21774685382843018,-5.4951171875,-0.23808583617210388,-1.069472312927246,0.470671683549881,-1.5841262340545654,-30.298158645629883,42.502193450927734,-17.53873062133789
6.0,0.11126624792814255,-5.295316219329834,-0.3613162338733673,-1.0627528429031372,0.6618725061416626,-1.5825990438461304,-30.239694595336914,42.85296630859375,-16.895645141601562
6.01,0.727418065071106,-4.977071285247803,-0.8243273496627808,-1.0283915996551514,0.8914051055908203,-1.54640531539917,-31.05817222595215,42.48757553100586,-16.398714065551758
6.02,1.4261221885681152,-4.749752521514893,-1.1150553226470947,-0.9553932547569275,1.0685560703277588,-1.4924964904785156,-31.64279556274414,42.268341064453125,-16.807950973510742
6.03,2.1475582122802734,-4.666004180908203,-1.124626636505127,-0.8571966290473938,1.1675162315368652,-1.4202616214752197,-33.29435729980469,41.069862365722656,-16.164865493774414
6.05,2.9970104694366455,-4.613361835479736,-1.3567304611206055,-0.7843509316444397,1.1722503900527954,-1.3434453010559082,-34.27360534667969,40.967552185058594,-16.223325729370117
6.054,3.974478244781494,-4.908875465393066,-1.4237295389175415,-0.6824891567230225,1.0538952350616455,-1.2261593341827393,-34.9459228515625,40.99678421020508,-16.70564079284668
6.06,4.370490550994873,-5.245067119598389,-1.2897313833236694,-0.6808093190193176,0.9813550114631653,-1.1893545389175415,-35.3843879699707,41.084476470947266,-16.13563346862793
6.07,4.962713718414307,-5.582455158233643,-1.4500504732131958,-0.7011205554008484,0.8017606139183044,-1.107040524482727,-36.61210250854492,40.324466705322266,-16.369482040405273
6.08,5.367100715637207,-5.942574977874756,-1.3914263248443604,-0.7406740784645081,0.5566509366035461,-0.9731083512306213,-37.035953521728516,39.53522491455078,-15.843321800231934
6.09,5.821736812591553,-6.044269561767578,-1.6235301494598389,-0.7849618196487427,0.3533855378627777,-0.820850133895874,-36.90441131591797,39.72522735595703,-15.594855308532715
6.109,5.56450891494751,-5.814558506011963,-2.289931058883667,-0.637132465839386,-0.018020525574684143,-0.5838344097137451,-37.91289138793945,38.789825439453125,-16.194095611572266
6.113,5.021337985992432,-6.3661041259765625,-2.695514678955078,-0.608421802520752,-0.055436018854379654,-0.5674937963485718,-37.98596954345703,38.62905502319336,-15.258696556091309
6.12,4.669593334197998,-7.107879161834717,-2.840280294418335,-0.5265658497810364,-0.13484850525856018,-0.5204571485519409,-38.219818115234375,38.4244384765625,-15.112540245056152
6.13,4.470988750457764,-8.123632431030273,-3.401397228240967,-0.41004326939582825,-0.14844025671482086,-0.43829578161239624,-37.81058120727539,38.54136276245117,-15.390236854553223
6.14,4.438685894012451,-9.169296264648438,-4.474577903747559,-0.1794416606426239,-0.08139779418706894,-0.3017674386501312,-38.4828987121582,37.854427337646484,-15.024847030639648
6.15,4.851447582244873,-10.246066093444824,-4.91126823425293,0.05146539583802223,0.0010690141934901476,-0.15363259613513947,-38.29289627075195,37.98596954345703,-15.214850425720215
6.17,5.504688262939453,-10.990234375,-4.7605204582214355,0.21624629199504852,0.040164388716220856,0.024587325751781464,-38.161354064941406,38.05904769897461,-15.56562328338623
6.173,5.7786664962768555,-11.379068374633789,-4.411168098449707,0.24465152621269226,-0.08903361111879349,0.251676470041275,-38.33674621582031,37.78135299682617,-16.311019897460938
6.18,5.584847927093506,-11.029715538024902,-4.620540142059326,0.25045475363731384,-0.15974126756191254,0.30573806166648865,-38.36597442626953,38.1467399597168,-15.711779594421387
6.19,4.8191447257995605,-10.444670677185059,-5.090729713439941,0.3257438838481903,-0.2451096773147583,0.4583016633987427,-37.91289138793945,37.605960845947266,-15.726396560668945
6.2,3.483949661254883,-10.225727081298828,-5.150550842285156,0.4121812880039215,-0.18295413255691528,0.6177374720573425,-37.31365203857422,38.49751663208008,-16.208711624145508
6.21,2.441875457763672,-10.411170959472656,-5.0811591148376465,0.4922046661376953,-0.010537425056099892,0.7754933834075928,-37.37211227416992,38.833675384521484,-15.989476203918457
6.229,1.8089739084243774,-10.606185913085938,-4.721038818359375,0.5824600458145142,0.3854559361934662,0.9682213664054871,-36.61210250854492,38.54136276245117,-16.822566986083984
6.233,1.7096717357635498,-10.484152793884277,-4.175475120544434,0.5858197212219238,0.45921796560287476,1.0083857774734497,-36.78749084472656,39.00905990600586,-16.924875259399414
6.24,1.9812570810317993,-10.26640510559082,-4.037888050079346,0.6035348773002625,0.532369077205658,1.0684032440185547,-36.56825256347656,39.05290985107422,-16.997953414916992
6.25,2.1858434677124023,-10.053443908691406,-3.73041033744812,0.6276640295982361,0.5621487498283386,1.1436923742294312,-36.20286560058594,40.07600402832031,-17.14410972595215
6.26,2.172683000564575,-10.15753173828125,-3.572484016418457,0.669966459274292,0.5493205189704895,1.1980594396591187,-36.6851806640625,39.82753372192383,-17.582576751708984
6.27,2.0985054969787598,-10.426724433898926,-3.2039895057678223,0.7081454992294312,0.5511531829833984,1.2489140033721924,-36.33440399169922,40.017539978027344,-17.845659255981445
6.29,1.935793399810791,-10.744969367980957,-2.7517459392547607,0.7092145085334778,0.5658139586448669,1.288620114326477,-36.18824768066406,40.61677932739258,-18.28412628173828
6.293,1.6666009426116943,-11.340782165527344,-2.445464611053467,0.6194173693656921,0.6131559610366821,1.3397800922393799,-35.95439910888672,40.63139724731445,-18.152587890625
6.3,1.5397813320159912,-11.541779518127441,-2.8079774379730225,0.6142250299453735,0.6719517707824707,1.36955988407135,-35.969017028808594,41.04063034057617,-18.576440811157227
6.31,1.3148560523986816,-11.742776870727539,-3.13220477104187,0.6571382284164429,0.7699956297874451,1.419803500175476,-35.48670196533203,41.59602355957031,-19.46799087524414
6.32,1.0552347898483276,-11.706884384155273,-3.328416109085083,0.7257079482078552,0.9225592017173767,1.4741705656051636,-35.39900588989258,41.47909927368164,-18.737211227416992
6.33,1.171286702156067,-11.432906150817871,-3.576073169708252,0.8118398785591125,1.1258245706558228,1.5399912595748901,-34.88745880126953,42.10757064819336,-19.46799087524414
6.349,1.7682960033416748,-10.780862808227539,-3.6370902061462402,1.0680978298187256,1.3808609247207642,1.7179057598114014,-34.05436706542969,43.01374053955078,-20.768781661987305
6.352,1.8305093050003052,-10.961520195007324,-3.304487705230713,1.0978776216506958,1.4091134071350098,1.7624988555908203,-34.47822189331055,42.9406623840332,-20.885705947875977
6.36,1.9477574825286865,-11.33958625793457,-3.040081262588501,1.1061242818832397,1.4553864002227783,1.8449656963348389,-34.44898986816406,43.15989685058594,-20.92955207824707
6.37,1.9800606966018677,-11.428120613098145,-3.1513471603393555,1.1021536588668823,1.5196800231933594,1.933541178703308,-34.419761657714844,43.61297607421875,-21.777257919311523
6.38,1.9417754411697388,-11.328818321228027,-2.8905298709869385,1.055269718170166,1.5306755304336548,1.9657642841339111,-33.995906829833984,44.24144744873047,-22.186494827270508
6.39,2.0410776138305664,-11.032108306884766,-2.8175485134124756,0.9260717034339905,1.5051718950271606,1.98500657081604,-33.45513153076172,44.182987213134766,-22.712656021118164
6.41,2.2372889518737793,-9.80100154876709,-2.1415762901306152,0.7200573682785034,1.2611312866210938,1.9469802379608154,-33.11897277832031,45.4837760925293,-23.794212341308594
6.413,2.359323024749756,-9.614360809326172,-1.8747763633728027,0.6898195743560791,1.2272282838821411,1.9453002214431763,-32.65127182006836,45.01607894897461,-23.867290496826172
6.42,2.581855535507202,-9.323633193969727,-1.5912269353866577,0.593913733959198,1.1334604024887085,1.961030125617981,-32.183570861816406,45.162235260009766,-24.32037353515625
6.43,2.8582265377044678,-8.709874153137207,-1.5708880424499512,0.4905247688293457,0.9808968305587769,2.0086777210235596,-31.730487823486328,45.46916198730469,-23.9695987701416
6.44,2.853440999984741,-7.901099681854248,-1.6091731786727905,0.4460843503475189,0.788627028465271,2.069000482559204,-31.350481033325195,45.33761978149414,-24.13037109375
6.45,2.5459630489349365,-7.2634124755859375,-1.688136339187622,0.4356996417045593,0.508087158203125,2.1287126541137695,-30.678165435791016,46.1414794921875,-25.41654396057129
6.469,1.6235301494598389,-6.681956768035889,-1.6785650253295898,0.5061018466949463,0.17119498550891876,2.1873557567596436,-28.9096736907959,46.302249908447266,-26.4104061126709
6.472,1.4691929817199707,-6.649653911590576,-1.6151552200317383,0.5148066878318787,0.13744467496871948,2.188119411468506,-29.36275863647461,46.22917175292969,-25.76732063293457
6.48,1.073180913925171,-6.660421848297119,-1.550549030303955,0.5375614166259766,0.06887505203485489,2.180636167526245,-28.588130950927734,46.4191780090332,-25.694242477416992
6.49,0.7322037220001221,-6.6831536293029785,-1.4811570644378662,0.5517640113830566,0.010079275816679,2.161241292953491,-27.813507080078125,46.69687271118164,-26.512714385986328
6.5,0.7357929348945618,-6.728616714477539,-1.3399806022644043,0.5534439086914062,-0.04214970022439957,2.140929937362671,-27.316574096679688,46.930721282958984,-26.673486709594727
6.51,0.2141576111316681,-6.803991317749023,-1.3112667798995972,0.5568036437034607,-0.04184426739811897,2.1209239959716797,-25.577316284179688,46.82841491699219,-27.404266357421875
6.529,-0.4307080805301666,-7.436892509460449,-1.322034478187561,0.5557346343994141,0.07177666574716568,2.0722076892852783,-24.539608001708984,46.916107177734375,-27.06810760498047
6.533,-0.5144568085670471,-7.47517728805542,-1.2837493419647217,0.5535966157913208,0.09560041129589081,2.066404342651367,-24.101139068603516,47.237648010253906,-27.1704158782959
6.54,-0.49651068449020386,-7.592426300048828,-1.1904292106628418,0.5473352670669556,0.17027868330478668,2.04349684715271,-23.56036376953125,47.471500396728516,-27.375036239624023
6.55,-0.4019941985607147,-7.575676441192627,-1.0612168312072754,0.5389358401298523,0.2768746614456177,1.9929478168487549,-22.639577865600586,47.281497955322266,-27.755043029785156
6.56,0.11605189740657806,-7.700103282928467,-0.8781659007072449,0.5148066878318787,0.3231476843357086,1.9488128423690796,-22.011106491088867,47.427650451660156,-27.535808563232422
6.57,0.5312066078186035,-7.676174640655518,-0.8781659007072449,0.4922046661376953,0.3149010241031647,1.898263692855835,-21.48494529724121,47.2230339050293,-28.003507614135742
6.589,0.92482590675354,-7.871189594268799,-0.7884350419044495,0.4922046661376953,0.17776179313659668,1.7263052463531494,-20.18415641784668,47.14995574951172,-28.968137741088867
6.593,0.7956134676933289,-7.884350299835205,-0.7752745151519775,0.4934263825416565,0.1134682148694992,1.6603316068649292,-19.789535522460938,47.310726165771484,-29.085063934326172
6.6,0.3696911036968231,-8.079365730285645,-0.6556333899497986,0.48884493112564087,0.04520402476191521,1.5383113622665405,-19.54106903076172,47.1791877746582,-28.63197898864746
6.61,-0.5886343717575073,-8.825925827026367,0.1423729509115219,0.4043927788734436,0.013744467869400978,1.3347405195236206,-19.409530639648438,47.36919021606445,-29.31891441345215
6.62,-1.7910276651382446,-9.320043563842773,0.38763725757598877,0.21044306457042694,0.10170906037092209,1.1027644872665405,-18.956445693969727,47.310726165771484,-29.333528518676758
6.63,-2.8007986545562744,-9.176474571228027,-0.22133608162403107,0.007788531482219696,0.3423899710178375,0.8651378750801086,-18.795673370361328,47.06226348876953,-28.89505958557129
6.648,-2.57228422164917,-8.383254051208496,-2.1894326210021973,0.07131851464509964,0.9245445132255554,0.6383541822433472,-18.474130630493164,46.755332946777344,-29.114294052124023
6.652,-1.971685767173767,-8.353343963623047,-2.4263219833374023,0.1160643994808197,0.9798278212547302,0.6458372473716736,-17.845659255981445,46.945335388183594,-28.368898391723633
6.66,-0.672383189201355,-8.33898639678955,-2.262413740158081,0.30863967537879944,1.160185694694519,0.7344127297401428,-17.831043243408203,46.7991828918457,-28.412744522094727
6.67,0.49172505736351013,-8.420342445373535,-2.0578272342681885,0.5105305910110474,1.2127201557159424,0.8255844116210938,-18.313358306884766,46.726104736328125,-28.938907623291016
6.68,1.0815558433532715,-8.773283958435059,-1.4751750230789185,0.6250678896903992,1.0749701261520386,0.8184067010879517,-18.035661697387695,46.755332946777344,-29.085063934326172
6.69,0.2955136001110077,-9.455238342285156,-1.0755738019943237,0.5665775537490845,0.8597928285598755,0.669966459274292,-18.06489372253418,46.59456253051758,-29.055830001831055
6.703,-0.6173481941223145,-10.380064964294434,-0.6556333899497986,0.36453381180763245,0.5306891798973083,0.2945897579193115,-18.34259033203125,46.901493072509766,-29.961999893188477
6.71,-1.3902299404144287,-11.118249893188477,-0.4618147313594818,0.2857322096824646,0.4437935948371887,0.14752395451068878,-18.240280151367188,46.872257232666016,-29.845073699951172
6.72,-2.2911276817321777,-11.749955177307129,0.12921242415905,0.20586158335208893,0.3677408695220947,-0.0013744467869400978,-18.240280151367188,47.06226348876953,-29.655071258544922
6.73,-3.6406795978546143,-12.264412879943848,0.5240281224250793,0.1160643994808197,0.4184426963329315,-0.16783522069454193,-18.72259521484375,46.69687271118164,-30.985092163085938
6.74,-3.7220354080200195,-12.488141059875488,0.8111668825149536,-0.00931569468230009,0.4583016633987427,-0.38011088967323303,-18.678749084472656,46.65302658081055,-30.765857696533203
6.75,-3.7938201427459717,-12.17827033996582,-0.06580261886119843,-0.14034628868103027,0.49098294973373413,-0.616362988948822,-18.824905395507812,46.112247467041016,-30.751243591308594
6.769,-3.5772697925567627,-11.547761917114258,-1.0719845294952393,-0.07299839705228806,0.6017022132873535,-0.794277548789978,-20.228002548217773,46.76995086669922,-31.248172760009766
6.773,-3.4061830043792725,-11.456833839416504,-0.916451096534729,-0.052381694316864014,0.6206390857696533,-0.8338310718536377,-20.213388442993164,46.726104736328125,-30.049694061279297
6.78,-3.0664021968841553,-11.437692642211914,-0.5970092415809631,-0.052839841693639755,0.6328563690185547,-0.9024006724357605,-20.593395233154297,46.7991828918457,-29.961999893188477
6.79,-2.4227328300476074,-11.545369148254395,-0.03349951654672623,-0.12263119220733643,0.6140722632408142,-0.9863946437835693,-20.681087493896484,46.550716400146484,-30.751243591308594
6.8,-1.7012969255447388,-11.709277153015137,0.47138604521751404,-0.2768746614456177,0.5618432760238647,-1.0282388925552368,-21.616485595703125,46.4191780090332,-29.698917388916016
6.81,-1.1318050622940063,-11.796615600585938,0.8554341197013855,-0.5242750644683838,0.4528038501739502,-1.021519422531128,-21.689563751220703,46.44840621948242,-29.97661590576172
6.822,-1.0887342691421509,-11.349157333374023,0.014356935396790504,-0.6522513628005981,0.3055853545665741,-1.0279334783554077,-22.288803100585938,46.82841491699219,-29.46506690979004
6.83,-1.3710873126983643,-11.184053421020508,-0.348155677318573,-0.6178901791572571,0.19853119552135468,-1.0636690855026245,-23.28266716003418,45.68839645385742,-29.7281494140625
6.84,-2.053041696548462,-11.388638496398926,-0.3445664644241333,-0.5293146967887878,0.05497787147760391,-1.154382586479187,-23.545745849609375,45.52762222290039,-29.15814208984375
6.85,-2.8522443771362305,-12.044273376464844,-0.04905286058783531,-0.4550946056842804,-0.04688390716910362,-1.2829697132110596,-24.101139068603516,45.68839645385742,-29.1873722076416
6.86,-3.276970386505127,-12.951151847839355,0.04905286058783531,-0.3787364661693573,-0.09834930300712585,-1.4935654401779175,-24.641918182373047,45.615318298339844,-29.070446014404297
6.87,-3.342773199081421,-14.334203720092773,0.5144568085670471,-0.3672827482223511,-0.15836679935455322,-1.6969836950302124,-24.451913833618164,45.65916442871094,-29.81584358215332
6.886,-3.5222346782684326,-15.182459831237793,0.380458801984787,-0.474642276763916,-0.2099849283695221,-2.062739133834839,-26.60040855407715,45.14761734008789,-28.441978454589844
6.89,-3.5186455249786377,-15.31765365600586,0.24406790733337402,-0.5002986192703247,-0.20326539874076843,-2.1097757816314697,-26.658872604370117,45.162235260009766,-28.33966636657715
6.9,-3.647857904434204,-15.129817008972168,-0.46061834692955017,-0.583528995513916,-0.10613783448934555,-2.283414363861084,-27.50657844543457,45.206077575683594,-28.544286727905273
6.91,-3.755535125732422,-14.751750946044922,-1.1341978311538696,-0.6175847053527832,0.11301006376743317,-2.4769058227539062,-28.82198143005371,44.7822265625,-28.953521728515625
6.92,-3.4372897148132324,-14.313864707946777,-1.5996018648147583,-0.6612616181373596,0.32620203495025635,-2.5444064140319824,-29.011985778808594,44.97222900390625,-28.938907623291016
6.939,-2.9108684062957764,-14.080564498901367,-2.194218397140503,-0.7055493593215942,0.5830708742141724,-2.5132522583007812,-30.108156204223633,44.53376388549805,-28.26658821105957
6.943,-1.7001004219055176,-13.738390922546387,-2.533998966217041,-0.7400632500648499,0.8765915632247925,-2.3936755657196045,-32.1251106262207,44.41683578491211,-28.441978454589844
6.95,-0.6747759580612183,-13.417752265930176,-2.396411657333374,-0.8005388975143433,0.9662361145019531,-2.2962424755096436,-32.432037353515625,44.47529983520508,-28.500438690185547
6.96,0.3888336718082428,-12.629317283630371,-2.5806589126586914,-0.9198102951049805,1.0325149297714233,-2.0958786010742188,-33.060508728027344,43.55451583862305,-27.945045471191406
6.97,1.9609181880950928,-11.474781036376953,-2.726621150970459,-0.9619600176811218,0.9886853694915771,-1.9333884716033936,-34.31745147705078,43.627593994140625,-27.477344512939453
6.98,2.8342983722686768,-10.780862808227539,-2.6081764698028564,-0.9793696999549866,0.8594873547554016,-1.7777705192565918,-35.311309814453125,43.13066482543945,-27.404266357421875
6.99,3.1788647174835205,-10.225727081298828,-2.586641311645508,-0.9808968305587769,0.695164680480957,-1.6380351781845093,-35.12131118774414,42.48757553100586,-26.161941528320312
7.003,3.3200414180755615,-9.81535816192627,-2.283949136734009,-0.9995282292366028,0.4277583956718445,-1.4789047241210938,-36.97748947143555,42.92604446411133,-26.4104061126709
7.01,3.260220766067505,-9.517451286315918,-2.190629005432129,-1.0207557678222656,0.28848108649253845,-1.4103351831436157,-37.065185546875,42.3414192199707,-25.942707061767578
7.02,2.8223342895507812,-9.122635841369629,-1.998006820678711,-1.071763038635254,0.15775594115257263,-1.327410101890564,-37.299034118652344,41.683719635009766,-25.942707061767578
7.03,2.3437697887420654,-8.778069496154785,-2.043470621109009,-1.107040524482727,0.08567384630441666,-1.2605204582214355,-37.79596710205078,41.28909683227539,-25.32884979248047
7.04,2.0853447914123535,-8.511269569396973,-2.001595973968506,-1.119257926940918,0.05971207842230797,-1.2227994203567505,-38.07366180419922,41.069862365722656,-25.957321166992188
7.059,1.7611173391342163,-8.313861846923828,-1.9022939205169678,-1.1456778049468994,0.04948008432984352,-1.2121094465255737,-38.61444091796875,40.543701171875,-25.080385208129883
7.063,1.4021941423416138,-7.836493968963623,-1.9345970153808594,-1.177900791168213,0.11514809727668762,-1.21027672290802,-39.69599533081055,40.23677444458008,-23.85267448425293
7.07,1.416550874710083,-7.737191677093506,-1.8616158962249756,-1.1966850757598877,0.1595885455608368,-1.2137892246246338,-39.72522735595703,40.04676818847656,-23.355743408203125
7.08,1.1629117727279663,-7.36630392074585,-1.7742778062820435,-1.2270755767822266,0.24694228172302246,-1.221577763557434,-39.8859977722168,39.53522491455078,-23.326513290405273
7.09,0.9678966999053955,-6.947559833526611,-1.696511149406433,-1.2431107759475708,0.3381139039993286,-1.2350168228149414,-40.397544860839844,39.00905990600586,-22.37649917602539
7.1,1.0109676122665405,-6.545566558837891,-1.4871392250061035,-1.260367751121521,0.43478330969810486,-1.2429579496383667,-40.79216766357422,38.04443359375,-23.56036376953125
7.119,0.7393822073936462,-6.323033809661865,-1.2801601886749268,-1.2744176387786865,0.5474879741668701,-1.2473868131637573,-41.47909927368164,37.79596710205078,-22.508039474487305
7.123,0.8626124858856201,-6.480959892272949,-1.2131609916687012,-1.2848021984100342,0.7648032903671265,-1.2469285726547241,-41.683719635009766,37.54750061035156,-22.244956970214844
7.13,0.9643074870109558,-6.715456485748291,-1.2227323055267334,-1.2803735733032227,0.8924740552902222,-1.2512047290802002,-42.136802673339844,37.109031677246094,-22.785736083984375
7.14,1.1569297313690186,-7.202395915985107,-1.2406784296035767,-1.2666290998458862,1.06351637840271,-1.2599095106124878,-43.04296875,36.3636360168457,-22.639577865600586
7.15,1.5649060010910034,-7.664210319519043,-1.168893814086914,-1.2794573307037354,1.2324206829071045,-1.2527319192886353,-43.30604934692383,35.866703033447266,-22.47880744934082
7.16,2.029113531112671,-8.084151268005371,-1.3184452056884766,-1.2863293886184692,1.4115568399429321,-1.2177598476409912,-44.372989654541016,35.16515350341797,-21.791873931884766
7.179,2.706282138824463,-8.427520751953125,-1.5828521251678467,-1.2571606636047363,1.5687018632888794,-1.16293466091156,-44.82607650756836,34.65361022949219,-21.8503360748291
7.183,3.678964614868164,-8.553144454956055,-1.998006820678711,-1.1884382963180542,1.6464344263076782,-1.08718740940094,-45.45454788208008,34.346683502197266,-22.581117630004883
7.19,4.353740692138672,-8.449056625366211,-2.2396819591522217,-1.1371256113052368,1.6589572429656982,-1.0083857774734497,-45.8199348449707,33.820518493652344,-22.917274475097656
7.2,5.077569484710693,-8.084151268005371,-2.8893332481384277,-1.038318157196045,1.605048418045044,-0.8623890280723572,-46.19994354248047,33.68898010253906,-22.961122512817383
7.21,5.630311489105225,-7.819744110107422,-3.427718162536621,-0.8781187534332275,1.4604259729385376,-0.7113525867462158,-47.06226348876953,32.943580627441406,-23.39959144592285
7.22,5.681756973266602,-7.822136878967285,-3.5641093254089355,-0.684779942035675,1.1829404830932617,-0.5403103232383728,-47.89535140991211,32.5489616394043,-22.975738525390625
7.239,5.536991596221924,-8.189435005187988,-3.634697675704956,-0.5781839489936829,0.9555459022521973,-0.4054618179798126,-48.20227813720703,32.09587860107422,-23.618824005126953
7.243,5.123033046722412,-8.882157325744629,-3.669393539428711,-0.4993823170661926,0.755182147026062,-0.23548854887485504,-48.72844314575195,32.183570861816406,-23.268049240112305
7.25,4.8466620445251465,-9.30329418182373,-3.7399816513061523,-0.48349982500076294,0.7231117486953735,-0.12095130980014801,-48.69921112060547,31.935108184814453,-23.69190216064453
7.26,4.494917392730713,-9.767501831054688,-3.9074792861938477,-0.4816672205924988,0.7696901559829712,0.058184914290905,-48.713829040527344,31.59894561767578,-23.238819122314453
