time,accel_x,accel_y,accel_z,gyro_x,gyro_y,gyro_z,mag_x,mag_y,mag_z
0.0,75.54185485839844,-4.8267107009887695,-12.717999458312988,-1.3323123455047607,-0.5329249501228333,-5.728943347930908,-22.80000114440918,-18.900001525878906,-20.100000381469727
0.009,77.1124496459961,0.07661445438861847,-11.070788383483887,4.663093090057373,-3.7304747104644775,20.784072875976562,-23.700000762939453,-18.75,-17.400001525878906
0.029,78.87458038330078,-0.3064578175544739,-11.185709953308105,-0.5329249501228333,6.794793128967285,6.128636837005615,-21.900001525878906,-18.75,-19.200000762939453
0.032,78.3765869140625,0.4213795065879822,-10.266336441040039,-3.3307809829711914,3.3307809829711914,-0.2664624750614166,-21.900001525878906,-18.75,-19.200000762939453
0.039,77.7253646850586,-0.26815059781074524,-9.921571731567383,8.127105712890625,3.86370587348938,9.192955017089844,-24.0,-20.850000381469727,-20.850000381469727
0.049,77.53382873535156,-0.8427590131759644,-9.730035781860352,8.793261528015137,-3.197549819946289,4.130168437957764,-22.950000762939453,-19.80000114440918,-19.950000762939453
0.059,77.8019790649414,0.5746083855628967,-9.27034854888916,1.8652373552322388,0.5329249501228333,-2.9310872554779053,-22.80000114440918,-19.650001525878906,-18.75
0.069,77.45721435546875,0.19153612852096558,-9.423578262329102,5.995405673980713,-1.4655436277389526,2.531393527984619,-22.650001525878906,-18.75,-20.400001525878906
0.079,76.11646270751953,-0.6512228846549988,-10.228029251098633,6.9280242919921875,-4.529861927032471,5.196018218994141,-22.650001525878906,-18.75,-20.400001525878906
0.096,75.50354766845703,-0.9959878921508789,-11.377246856689453,5.329249382019043,-3.86370587348938,3.4640121459960938,-23.25,-19.200000762939453,-19.80000114440918
0.1,75.08216857910156,-2.183511972427368,-10.687716484069824,5.595712184906006,1.4655436277389526,5.995405673980713,-23.25,-19.200000762939453,-19.80000114440918
0.109,75.9249267578125,-2.6431987285614014,-10.687716484069824,9.192955017089844,-3.4640121459960938,-2.797856092453003,-23.55000114440918,-20.100000381469727,-19.80000114440918
0.119,76.84429931640625,-2.4899697303771973,-11.185709953308105,7.594180583953857,1.8652373552322388,6.5283308029174805,-22.05000114440918,-19.200000762939453,-19.5
0.129,77.30398559570312,-1.8770540952682495,-8.925583839416504,-0.6661561727523804,3.9969370365142822,-5.595712184906006,-22.05000114440918,-19.200000762939453,-19.5
0.148,79.5641098022461,-2.030282974243164,-9.117119789123535,4.529861927032471,-4.796324729919434,1.7320060729980469,-21.75,-20.850000381469727,-20.100000381469727
0.152,78.91288757324219,-1.4173674583435059,-9.232041358947754,-0.7993874549865723,-6.5283308029174805,4.529861927032471,-23.55000114440918,-21.150001525878906,-19.80000114440918
0.159,79.87056732177734,-0.9576807022094727,-9.53849983215332,-10.258805274963379,-5.062787055969238,-4.663093090057373,-22.5,-20.100000381469727,-19.5
0.169,78.4148941040039,-0.7661445140838623,-9.921571731567383,-0.1332312375307083,0.0,-3.4640121459960938,-24.30000114440918,-18.900001525878906,-19.5
0.179,77.22737121582031,0.0,-11.30063247680664,6.128636837005615,-5.329249382019043,4.396630764007568,-24.30000114440918,-18.900001525878906,-19.5
0.189,77.64875030517578,-0.07661445438861847,-10.572794914245605,7.06125545501709,-4.130168437957764,0.7993874549865723,-23.55000114440918,-18.450000762939453,-19.80000114440918
0.209,75.84831237792969,-0.5363011956214905,-10.917559623718262,7.9938740730285645,-1.5987749099731445,5.196018218994141,-21.450000762939453,-17.850000381469727,-17.700000762939453
0.212,76.38461303710938,-0.9959878921508789,-9.653421401977539,5.062787055969238,8.127105712890625,-4.663093090057373,-23.700000762939453,-20.25,-19.950000762939453
0.219,77.763671875,-0.689530074596405,-9.193734169006348,11.324655532836914,-0.6661561727523804,0.39969372749328613,-23.700000762939453,-18.75,-19.650001525878906
0.229,77.1124496459961,-1.0342950820922852,-9.576807022094727,4.529861927032471,7.72741174697876,-11.591117858886719,-23.700000762939453,-18.75,-19.650001525878906
0.239,77.1890640258789,-1.455674648284912,-9.27034854888916,0.5329249501228333,9.326186180114746,-5.8621745109558105,-21.75,-19.200000762939453,-19.80000114440918
0.249,78.22335815429688,-1.4939818382263184,-8.925583839416504,9.72588062286377,2.6646246910095215,-3.597243309020996,-22.5,-18.150001525878906,-19.80000114440918
0.259,79.6024169921875,-2.2218191623687744,-9.883264541625977,5.062787055969238,0.2664624750614166,-2.531393527984619,-23.55000114440918,-18.450000762939453,-19.5
0.272,79.06611633300781,-1.1492167711257935,-10.764330863952637,3.4640121459960938,-0.7993874549865723,-3.197549819946289,-22.5,-19.650001525878906,-20.850000381469727
0.279,78.60643005371094,-0.689530074596405,-9.423578262329102,-2.797856092453003,5.995405673980713,-12.124042510986328,-22.5,-19.650001525878906,-20.850000381469727
0.289,79.10442352294922,0.26815059781074524,-10.189722061157227,3.197549819946289,-7.860642910003662,-0.2664624750614166,-24.750001907348633,-18.900001525878906,-20.55000114440918
0.299,79.79395294189453,-0.1149216815829277,-9.461885452270508,4.529861927032471,3.4640121459960938,1.1990811824798584,-24.150001525878906,-19.05000114440918,-18.150001525878906
0.312,79.52580261230469,-0.1149216815829277,-10.764330863952637,12.25727367401123,-6.128636837005615,7.194486618041992,-22.80000114440918,-19.200000762939453,-18.75
0.319,79.6024169921875,-0.6512228846549988,-10.074800491333008,11.724349021911621,-1.5987749099731445,6.9280242919921875,-23.25,-19.200000762939453,-20.100000381469727
0.329,78.56812286376953,-1.1492167711257935,-11.338939666748047,13.323123931884766,-5.595712184906006,7.860642910003662,-23.25,-19.200000762939453,-20.100000381469727
0.339,78.26166534423828,-1.9153614044189453,-11.1474027633667,7.460949420928955,1.7320060729980469,5.329249382019043,-22.200000762939453,-18.30000114440918,-19.950000762939453
0.349,78.45320129394531,-2.0685901641845703,-10.189722061157227,1.3323123455047607,7.72741174697876,12.390504837036133,-23.400001525878906,-20.25,-20.400001525878906
0.359,78.68304443359375,-1.647210717201233,-9.461885452270508,8.526799201965332,-3.0643184185028076,18.119447708129883,-22.650001525878906,-19.05000114440918,-19.650001525878906
0.379,79.33426666259766,-2.604891538619995,-6.971915245056152,-7.72741174697876,2.531393527984619,27.71209716796875,-22.950000762939453,-19.05000114440918,-21.150001525878906
0.382,79.33426666259766,-4.443638324737549,-9.040505409240723,-16.387441635131836,-2.6646246910095215,37.4379768371582,-21.900001525878906,-19.80000114440918,-19.200000762939453
0.389,79.41088104248047,-6.320692539215088,-8.695740699768066,-25.580398559570312,0.0,45.43185043334961,-21.900001525878906,-19.80000114440918,-19.200000762939453
0.399,77.763671875,-8.887276649475098,-9.615114212036133,-30.37672233581543,2.531393527984619,40.102603912353516,-22.650001525878906,-20.25,-20.400001525878906
0.409,77.03583526611328,-11.41555404663086,-13.637372970581055,-41.568145751953125,15.721285820007324,46.63093185424805,-21.75,-19.200000762939453,-20.55000114440918
0.419,78.49150848388672,-11.185709953308105,-14.36521053314209,-49.16232681274414,25.04747200012207,39.16998291015625,-23.25,-19.200000762939453,-20.100000381469727
0.435,78.49150848388672,-9.691728591918945,-13.10107135772705,-54.22511291503906,18.519142150878906,57.422664642333984,-24.450000762939453,-19.80000114440918,-20.400001525878906
0.44,81.74761962890625,-6.971915245056152,-9.193734169006348,-55.4241943359375,11.324655532836914,59.4211311340332,-24.450000762939453,-19.80000114440918,-20.400001525878906
0.449,82.4371566772461,-5.70777702331543,-9.730035781860352,-52.3598747253418,11.591117858886719,57.15620040893555,-24.450000762939453,-19.5,-20.400001525878906
0.459,83.1266860961914,-5.5545477867126465,-8.65743350982666,-52.626338958740234,4.263399600982666,54.091880798339844,-22.05000114440918,-19.650001525878906,-18.75
0.469,82.62869262695312,-4.788403511047363,-10.764330863952637,-55.02450180053711,5.329249382019043,61.01990509033203,-24.0,-20.400001525878906,-20.850000381469727
0.479,81.97746276855469,-4.060565948486328,-11.224017143249512,-57.422664642333984,9.72588062286377,57.02296829223633,-24.0,-20.400001525878906,-20.850000381469727
0.499,80.10041046142578,-3.754108190536499,-12.29662036895752,-58.222049713134766,9.192955017089844,56.22358322143555,-24.750001907348633,-22.350000381469727,-19.80000114440918
0.503,77.87859344482422,-2.3750481605529785,-13.79060173034668,-50.4946403503418,15.055130004882812,54.75803756713867,-23.25,-21.600000381469727,-20.100000381469727
0.509,76.80599212646484,-2.9879636764526367,-15.207969665527344,-40.23583221435547,12.124042510986328,68.21439361572266,-23.25,-21.600000381469727,-20.100000381469727
0.519,77.07414245605469,-1.072602391242981,-15.361198425292969,-43.96630859375,23.315465927124023,54.89126968383789,-24.150001525878906,-20.25,-20.400001525878906
0.529,74.50755310058594,-1.4173674583435059,-13.982137680053711,-35.439510345458984,10.392036437988281,58.222049713134766,-24.150001525878906,-20.25,-20.400001525878906
0.539,75.15878295898438,-1.9153614044189453,-12.756306648254395,-32.77488327026367,12.25727367401123,58.754974365234375,-23.400001525878906,-21.450000762939453,-20.400001525878906
0.556,73.0518798828125,0.2298433631658554,-13.48414421081543,-31.975496292114258,8.926492691040039,63.418067932128906,-23.700000762939453,-19.05000114440918,-21.450000762939453
0.56,71.55789947509766,2.0685901641845703,-14.824896812438965,-36.5053596496582,18.2526798248291,62.485450744628906,-22.950000762939453,-19.5,-19.950000762939453
0.569,71.71112823486328,1.8770540952682495,-14.786589622497559,-24.11485481262207,10.658498764038086,73.41041564941406,-22.950000762939453,-19.5,-19.950000762939453
0.579,70.83006286621094,5.324704647064209,-14.97812557220459,-19.31852912902832,14.12251091003418,66.882080078125,-22.950000762939453,-19.5,-19.950000762939453
0.589,72.66880798339844,6.742072105407715,-14.518439292907715,-12.25727367401123,13.58958625793457,77.67381286621094,-22.950000762939453,-21.450000762939453,-18.900001525878906
0.608,73.85633087158203,8.734047889709473,-12.871228218078613,14.788667678833008,0.0,87.26646423339844,-24.900001525878906,-21.75,-20.400001525878906
0.612,74.62248229980469,5.899312973022461,-12.48815631866455,23.448698043823242,-0.5329249501228333,77.80704498291016,-24.30000114440918,-21.900001525878906,-19.5
0.619,75.50354766845703,1.8387469053268433,-12.334927558898926,34.773353576660156,1.1990811824798584,68.74732208251953,-24.30000114440918,-21.900001525878906,-19.5
0.629,74.7374038696289,-0.3447650372982025,-11.645397186279297,46.897396087646484,2.9310872554779053,61.41960144042969,-23.55000114440918,-23.100000381469727,-18.75
0.64,75.73339080810547,-3.179499864578247,-10.611102104187012,53.82542037963867,-7.72741174697876,49.02909469604492,-23.700000762939453,-22.950000762939453,-20.400001525878906
0.649,73.77971649169922,-2.1068975925445557,-9.691728591918945,52.093414306640625,5.462480545043945,46.897396087646484,-24.0,-21.150001525878906,-19.5
0.659,72.36235046386719,-1.2258312702178955,-10.649409294128418,54.75803756713867,6.5283308029174805,37.4379768371582,-22.80000114440918,-22.350000381469727,-20.55000114440918
0.677,70.21714782714844,0.9193734526634216,-11.530475616455078,71.01225280761719,20.650842666625977,32.24195861816406,-22.80000114440918,-22.350000381469727,-20.55000114440918
0.681,66.5013427734375,2.5665841102600098,-10.381258964538574,87.66615295410156,11.191424369812012,36.905052185058594,-22.950000762939453,-24.900001525878906,-20.400001525878906
0.689,66.73119354248047,2.5665841102600098,-10.649409294128418,94.46094512939453,21.983154296875,31.042879104614258,-24.30000114440918,-25.05000114440918,-19.80000114440918
0.699,67.07595825195312,4.175487995147705,-10.228029251098633,89.66461944580078,41.568145751953125,20.650842666625977,-24.0,-24.30000114440918,-20.100000381469727
0.709,68.56993865966797,3.7924153804779053,-9.959878921508789,102.8545150756836,35.17304611206055,22.915773391723633,-22.5,-24.30000114440918,-19.05000114440918
0.728,71.36636352539062,1.455674648284912,-8.465897560119629,110.04900360107422,41.168453216552734,15.854516983032227,-22.5,-24.30000114440918,-19.05000114440918
0.732,74.81401824951172,-2.451662540435791,-5.20978307723999,109.24961853027344,52.75957107543945,-1.1990811824798584,-22.200000762939453,-24.450000762939453,-19.650001525878906
0.739,81.21131896972656,-6.89530086517334,-2.3750481605529785,111.5145492553711,44.49923324584961,-1.8652373552322388,-22.950000762939453,-24.450000762939453,-18.450000762939453
0.749,84.69728088378906,-7.240066051483154,-0.1149216815829277,104.18682861328125,32.77488327026367,-16.920366287231445,-24.0,-25.05000114440918,-19.80000114440918
0.759,88.25984954833984,-6.89530086517334,-2.1068975925445557,86.86676788330078,35.17304611206055,-29.044410705566406,-23.700000762939453,-25.650001525878906,-19.200000762939453
0.769,88.71953582763672,-8.044517517089844,-5.899312973022461,75.94180297851562,36.771820068359375,-48.76263427734375,-23.700000762939453,-25.650001525878906,-19.200000762939453
0.779,87.80016326904297,-5.4013190269470215,-9.193734169006348,85.26799011230469,38.23736572265625,-52.89280319213867,-22.950000762939453,-26.100000381469727,-18.450000762939453
0.798,86.88079071044922,-4.405331134796143,-11.453861236572266,90.06431579589844,35.03981399536133,-66.34915924072266,-23.700000762939453,-26.100000381469727,-17.700000762939453
0.802,83.43314361572266,-1.072602391242981,-9.691728591918945,80.07197570800781,42.76722717285156,-66.48238372802734,-23.700000762939453,-26.100000381469727,-17.700000762939453
0.809,81.4028549194336,-1.1492167711257935,-9.155426979064941,91.52986145019531,29.444103240966797,-56.756507873535156,-25.650001525878906,-26.100000381469727,-16.350000381469727
0.819,81.17301177978516,0.15322890877723694,-8.427590370178223,96.72587585449219,23.715160369873047,-64.084228515625,-25.650001525878906,-26.100000381469727,-16.350000381469727
0.829,83.6629867553711,3.3710360527038574,-7.201758861541748,93.66156005859375,19.98468589782715,-69.67993927001953,-24.900001525878906,-26.100000381469727,-15.90000057220459
0.839,82.59038543701172,4.711789131164551,-7.316680431365967,101.65543365478516,4.130168437957764,-70.47932434082031,-25.200000762939453,-24.150001525878906,-17.700000762939453
0.852,83.81621551513672,4.596867084503174,-7.508216381072998,117.9096450805664,-13.58958625793457,-69.01377868652344,-24.900001525878906,-24.900001525878906,-15.600000381469727
0.859,82.70530700683594,3.1028854846954346,-7.891288757324219,117.77641296386719,-20.517610549926758,-73.67687225341797,-25.200000762939453,-26.850000381469727,-16.350000381469727
0.869,81.63269805908203,4.213795185089111,-7.814674377441406,120.17457580566406,-17.32006072998047,-79.13935852050781,-25.200000762939453,-26.850000381469727,-16.350000381469727
0.879,79.29595947265625,2.1068975925445557,-6.473921298980713,128.16845703125,-21.84992218017578,-88.59877014160156,-25.650001525878906,-24.450000762939453,-16.650001525878906
0.889,77.8019790649414,0.7661445140838623,-5.094861030578613,134.29708862304688,-39.70290756225586,-83.66921997070312,-25.200000762939453,-24.900001525878906,-17.100000381469727
0.909,77.07414245605469,-0.8427590131759644,-3.8307228088378906,133.76416015625,-48.09647750854492,-98.99080657958984,-25.80000114440918,-25.500001907348633,-16.80000114440918
0.912,75.00555419921875,-1.1875240802764893,-2.75812029838562,126.43644714355469,-46.897396087646484,-116.31086730957031,-25.80000114440918,-26.250001907348633,-18.0
0.919,73.43495178222656,-1.1109095811843872,-2.183511972427368,125.90351867675781,-57.422664642333984,-109.78253936767578,-25.80000114440918,-26.250001907348633,-18.0
0.929,73.89463806152344,-1.4939818382263184,-1.6855180263519287,108.71669006347656,-52.626338958740234,-121.10719299316406,-25.650001525878906,-26.100000381469727,-17.400001525878906
0.939,73.89463806152344,-1.9919757843017578,-0.4213795065879822,98.72434997558594,-58.355281829833984,-138.6937255859375,-25.500001907348633,-25.05000114440918,-16.5
0.949,74.04786682128906,-0.8427590131759644,-0.15322890877723694,91.79632568359375,-67.94792938232422,-132.0321502685547,-27.30000114440918,-25.80000114440918,-17.25
0.959,76.30799865722656,-0.8810662031173706,-0.8044517636299133,81.8039779663086,-75.27565002441406,-135.4961700439453,-24.900001525878906,-24.450000762939453,-15.600000381469727
0.972,77.57213592529297,-0.2298433631658554,-1.647210717201233,63.018375396728516,-74.60948944091797,-152.41653442382812,-24.900001525878906,-24.450000762939453,-15.600000381469727
0.979,77.87859344482422,1.1875240802764893,-4.060565948486328,50.36140823364258,-68.21439361572266,-160.8101043701172,-25.05000114440918,-24.750001907348633,-17.25
0.989,79.83226013183594,2.0685901641845703,-3.026270866394043,50.4946403503418,-73.27718353271484,-170.4027557373047,-25.200000762939453,-23.25,-17.100000381469727
0.999,79.10442352294922,4.443638324737549,-4.443638324737549,48.76263427734375,-77.80704498291016,-189.9877471923828,-25.200000762939453,-24.450000762939453,-16.350000381469727
1.009,78.64473724365234,8.197746276855469,-5.056553840637207,40.102603912353516,-67.01531219482422,-188.65542602539062,-25.500001907348633,-23.850000381469727,-19.05000114440918
1.029,78.10843658447266,9.615114212036133,-6.588842868804932,40.502296447753906,-73.9433364868164,-184.79173278808594,-25.500001907348633,-23.850000381469727,-19.05000114440918
1.032,78.72135162353516,11.568782806396484,-8.35097599029541,48.8958625793457,-80.60489654541016,-177.73046875,-25.200000762939453,-22.950000762939453,-18.900001525878906
1.039,78.18505096435547,13.560758590698242,-10.5344877243042,39.16998291015625,-68.88054656982422,-177.99693298339844,-24.900001525878906,-22.200000762939453,-17.100000381469727
1.049,80.36856079101562,12.947842597961426,-11.262324333190918,36.771820068359375,-64.48391723632812,-176.6646270751953,-25.200000762939453,-23.700000762939453,-17.700000762939453
1.059,82.0157699584961,13.024456977844238,-8.810662269592285,48.362937927246094,-72.61102294921875,-173.6002960205078,-25.950000762939453,-21.75,-18.450000762939453
1.069,83.50975799560547,14.403517723083496,-7.891288757324219,49.42878723144531,-74.34303283691406,-166.40582275390625,-25.950000762939453,-21.75,-18.450000762939453
1.079,86.49771881103516,15.744270324707031,-6.703764915466309,47.0306282043457,-81.13782501220703,-177.06431579589844,-25.500001907348633,-21.150001525878906,-18.30000114440918
1.093,87.53201293945312,18.54069709777832,-7.010222434997559,57.689125061035156,-86.0673828125,-160.01071166992188,-25.650001525878906,-21.0,-19.200000762939453
1.099,86.42110443115234,17.8128604888916,-8.848969459533691,48.8958625793457,-83.26952362060547,-155.34762573242188,-26.250001907348633,-21.900001525878906,-19.5
1.109,85.5783462524414,16.58702850341797,-10.994174003601074,37.57120895385742,-74.07656860351562,-153.48239135742188,-26.250001907348633,-21.900001525878906,-19.5
1.119,83.58637237548828,16.47210693359375,-13.943830490112305,36.771820068359375,-59.15467071533203,-160.8101043701172,-26.250001907348633,-21.900001525878906,-19.5
1.129,84.46743774414062,16.012420654296875,-16.05072784423828,33.4410400390625,-61.9525260925293,-117.77641296386719,-25.950000762939453,-19.80000114440918,-19.950000762939453
1.148,87.72354888916016,16.740259170532227,-16.855180740356445,22.249616622924805,-58.4885139465332,-135.62939453125,-25.05000114440918,-19.200000762939453,-19.80000114440918
1.152,93.31640625,16.548721313476562,-18.88546371459961,1.9984685182571411,-48.62940216064453,-123.77182006835938,-26.400001525878906,-18.30000114440918,-21.150001525878906
1.159,98.41127014160156,19.038692474365234,-21.950040817260742,-19.185298919677734,-41.035221099853516,-121.64012145996094,-26.400001525878906,-18.30000114440918,-21.150001525878906
1.169,97.33866119384766,22.83110809326172,-22.869415283203125,-30.776416778564453,-41.434913635253906,-94.72740936279297,-25.05000114440918,-18.150001525878906,-19.80000114440918
1.179,90.13690185546875,26.31706428527832,-23.252487182617188,-29.044410705566406,-22.649311065673828,-84.60183715820312,-26.400001525878906,-17.850000381469727,-20.400001525878906
1.189,84.54405212402344,30.454246520996094,-21.911733627319336,-9.192955017089844,-24.781009674072266,-61.552833557128906,-25.200000762939453,-18.75,-21.150001525878906
1.209,80.59840393066406,35.93217849731445,-18.88546371459961,17.32006072998047,-13.856048583984375,-17.053598403930664,-25.950000762939453,-18.30000114440918,-21.450000762939453
1.213,77.84028625488281,36.54509353637695,-17.00840950012207,34.64012145996094,-5.8621745109558105,3.9969370365142822,-25.950000762939453,-18.30000114440918,-21.450000762939453
1.219,77.8019790649414,36.315250396728516,-11.875240325927734,34.10719680786133,-3.197549819946289,13.722817420959473,-24.900001525878906,-18.30000114440918,-21.75
1.229,77.07414245605469,34.897884368896484,-8.08282470703125,46.764163970947266,-8.793261528015137,19.98468589782715,-25.05000114440918,-17.400001525878906,-20.55000114440918
1.239,78.3382797241211,26.66183090209961,-4.596867084503174,58.4885139465332,-37.03828430175781,29.84379768371582,-25.200000762939453,-18.75,-20.700000762939453
1.249,77.26567840576172,15.705963134765625,-4.63517427444458,50.62786865234375,-37.304744720458984,21.050535202026367,-25.80000114440918,-18.150001525878906,-21.600000381469727
1.268,75.42693328857422,7.163451671600342,-7.891288757324219,29.577335357666016,-39.16998291015625,22.116384506225586,-25.80000114440918,-18.150001525878906,-21.600000381469727
1.272,73.74140930175781,0.07661445438861847,-10.84094524383545,-9.72588062286377,-34.773353576660156,37.97090148925781,-26.700000762939453,-19.05000114440918,-21.75
1.279,71.44297790527344,-3.026270866394043,-11.990161895751953,-22.382848739624023,-38.90352249145508,43.69984436035156,-25.950000762939453,-18.75,-20.700000762939453
1.289,70.21714782714844,-3.5242648124694824,-12.066776275634766,-60.75344467163086,-24.381317138671875,37.70444107055664,-25.650001525878906,-18.30000114440918,-22.5
1.299,70.10222625732422,-2.75812029838562,-12.7946138381958,-90.86370086669922,-11.990811347961426,43.96630859375,-24.750001907348633,-18.150001525878906,-21.30000114440918
1.309,69.87238311767578,0.9576807022094727,-11.798625946044922,-111.11485290527344,-8.260336875915527,63.018375396728516,-24.750001907348633,-18.150001525878906,-21.30000114440918
1.329,69.9489974975586,4.558559894561768,-8.619126319885254,-133.09800720214844,-5.728943347930908,59.4211311340332,-25.05000114440918,-18.900001525878906,-22.80000114440918
1.333,71.13652038574219,6.971915245056152,-5.899312973022461,-134.03062438964844,-18.119447708129883,86.0673828125,-25.200000762939453,-17.850000381469727,-23.25
1.339,68.22517395019531,8.389283180236816,-7.469909191131592,-124.30474090576172,-23.98162269592285,80.20520782470703,-25.200000762939453,-17.850000381469727,-23.25
1.349,66.65457153320312,7.8529815673828125,-11.377246856689453,-111.91423797607422,-17.852985382080078,84.20214080810547,-25.200000762939453,-18.30000114440918,-23.25
1.359,63.704917907714844,5.822698593139648,-14.518439292907715,-110.98162078857422,-0.1332312375307083,76.60796356201172,-25.200000762939453,-18.30000114440918,-23.25
1.369,62.44078063964844,6.971915245056152,-16.625335693359375,-98.85757446289062,12.923430442810059,87.26646423339844,-25.950000762939453,-16.80000114440918,-22.950000762939453
1.388,64.24121856689453,6.856993675231934,-18.923770904541016,-79.2725830078125,13.989279747009277,101.52220153808594,-24.0,-19.650001525878906,-23.100000381469727
1.392,66.19488525390625,6.052541732788086,-17.889474868774414,-68.88054656982422,31.042879104614258,111.24808502197266,-24.750001907348633,-16.950000762939453,-22.350000381469727
1.399,71.02159881591797,5.51624059677124,-15.476119995117188,-58.754974365234375,35.17304611206055,118.97549438476562,-24.750001907348633,-16.950000762939453,-22.350000381469727
1.409,72.66880798339844,3.332728862762451,-15.169661521911621,-41.83460998535156,31.042879104614258,133.09800720214844,-24.750001907348633,-16.950000762939453,-22.350000381469727
1.419,77.49552154541016,0.49799394607543945,-15.820884704589844,-29.84379768371582,33.70750427246094,136.56201171875,-25.200000762939453,-19.80000114440918,-22.950000762939453
1.429,79.67903137207031,-3.294421434402466,-17.161638259887695,-32.108726501464844,33.57427215576172,123.10566711425781,-24.900001525878906,-18.75,-22.5
1.449,82.20730590820312,-8.810662269592285,-17.659631729125977,-36.63859176635742,44.23276901245117,125.7702865600586,-25.05000114440918,-18.150001525878906,-21.30000114440918
1.452,82.39884948730469,-12.832921028137207,-17.851167678833008,-61.552833557128906,52.89280319213867,114.97856140136719,-26.55000114440918,-17.700000762939453,-21.600000381469727
1.459,84.00775146484375,-16.395492553710938,-18.4257755279541,-71.94486999511719,51.560489654541016,124.43797302246094,-26.55000114440918,-17.700000762939453,-21.600000381469727
1.469,82.93515014648438,-16.625335693359375,-18.11931800842285,-100.9892807006836,55.82388687133789,117.50994873046875,-25.200000762939453,-18.75,-22.200000762939453
1.479,82.4754638671875,-17.161638259887695,-16.127342224121094,-117.64318084716797,51.693721771240234,136.29556274414062,-24.30000114440918,-19.650001525878906,-23.100000381469727
1.489,79.71733856201172,-15.322891235351562,-16.1656494140625,-144.55589294433594,47.696781158447266,138.6937255859375,-24.30000114440918,-19.200000762939453,-22.350000381469727
1.509,79.94718170166016,-12.7946138381958,-13.943830490112305,-170.0030517578125,55.82388687133789,127.90198516845703,-25.650001525878906,-18.75,-21.75
1.513,76.65276336669922,-9.461885452270508,-12.48815631866455,-193.18528747558594,45.56508255004883,142.5574188232422,-24.900001525878906,-19.5,-22.200000762939453
1.519,74.92893981933594,-3.5242648124694824,-12.90953540802002,-186.92343139648438,40.36906433105469,156.94639587402344,-24.900001525878906,-19.5,-22.200000762939453
1.529,74.3160171508789,0.38307225704193115,-13.21599292755127,-192.3859100341797,51.82695007324219,158.27871704101562,-24.450000762939453,-20.400001525878906,-21.600000381469727
1.539,70.94498443603516,3.907337188720703,-13.254301071166992,-191.8529815673828,57.689125061035156,160.41041564941406,-24.450000762939453,-20.25,-21.75
1.549,70.06391906738281,6.129156112670898,-15.437812805175781,-174.26646423339844,52.3598747253418,179.86216735839844,-24.450000762939453,-20.25,-21.75
1.568,68.761474609375,8.695740699768066,-16.58702850341797,-156.01377868652344,57.02296829223633,184.79173278808594,-25.650001525878906,-20.25,-21.75
1.572,69.56592559814453,8.006210327148438,-17.391481399536133,-132.83154296875,60.48698043823242,197.44869995117188,-24.150001525878906,-20.25,-22.950000762939453
1.579,70.21714782714844,9.27034854888916,-16.47210693359375,-132.0321502685547,67.41500854492188,196.51608276367188,-24.750001907348633,-20.100000381469727,-22.80000114440918
1.589,70.14053344726562,8.427590370178223,-15.169661521911621,-105.5191421508789,58.222049713134766,202.9111785888672,-25.200000762939453,-20.25,-20.400001525878906
1.599,72.43896484375,8.08282470703125,-15.207969665527344,-98.19142150878906,63.28483963012695,183.45941162109375,-25.200000762939453,-20.25,-20.400001525878906
1.609,73.20510864257812,6.320692539215088,-14.326903343200684,-90.59724426269531,64.084228515625,198.11485290527344,-25.80000114440918,-21.600000381469727,-22.350000381469727
1.629,73.6264877319336,2.4133553504943848,-14.748282432556152,-77.14088439941406,65.016845703125,209.03981018066406,-25.500001907348633,-21.600000381469727,-20.850000381469727
1.632,74.2777099609375,-0.19153612852096558,-15.322891235351562,-73.54364013671875,71.54517364501953,201.9785614013672,-25.05000114440918,-21.600000381469727,-20.55000114440918
1.639,75.3503189086914,-4.6734819412231445,-15.054739952087402,-76.07503509521484,68.88054656982422,187.98927307128906,-25.500001907348633,-22.350000381469727,-20.850000381469727
1.65,75.46524047851562,-6.971915245056152,-14.09705924987793,-67.01531219482422,64.084228515625,182.52679443359375,-25.500001907348633,-22.350000381469727,-20.850000381469727
1.659,76.11646270751953,-6.856993675231934,-13.407529830932617,-62.35221862792969,59.95405578613281,196.51608276367188,-25.80000114440918,-21.900001525878906,-20.100000381469727
1.669,76.46122741699219,-7.929595947265625,-13.10107135772705,-69.94640350341797,66.74884796142578,180.9280242919922,-25.05000114440918,-22.80000114440918,-22.05000114440918
1.688,77.68705749511719,-9.615114212036133,-13.522451400756836,-72.0781021118164,62.8851432800293,167.0719757080078,-26.700000762939453,-23.700000762939453,-20.700000762939453
1.692,76.19307708740234,-10.304644584655762,-14.556746482849121,-59.68759536743164,53.159263610839844,163.0750274658203,-24.900001525878906,-24.450000762939453,-20.400001525878906
1.699,76.34630584716797,-10.572794914245605,-16.66364288330078,-59.02143859863281,45.43185043334961,147.22052001953125,-24.900001525878906,-24.450000762939453,-20.400001525878906
1.709,76.61445617675781,-11.875240325927734,-16.242263793945312,-62.085758209228516,53.558956146240234,140.6921844482422,-26.700000762939453,-24.150001525878906,-19.950000762939453
1.719,75.15878295898438,-11.683704376220703,-14.824896812438965,-49.96171569824219,50.76110076904297,141.35833740234375,-26.55000114440918,-25.05000114440918,-21.30000114440918
1.729,77.7253646850586,-11.990161895751953,-14.748282432556152,-40.502296447753906,43.43338394165039,143.2235870361328,-26.700000762939453,-24.150001525878906,-19.950000762939453
1.749,77.49552154541016,-11.41555404663086,-12.832921028137207,-37.57120895385742,41.967838287353516,138.8269500732422,-27.000001907348633,-24.750001907348633,-19.5
1.753,77.30398559570312,-11.990161895751953,-11.41555404663086,-38.10413360595703,43.83307647705078,129.6339874267578,-27.000001907348633,-24.750001907348633,-19.5
1.759,79.25765228271484,-12.60307788848877,-11.798625946044922,-31.44257164001465,33.30780792236328,127.5022964477539,-25.950000762939453,-26.400001525878906,-20.400001525878906
1.769,79.10442352294922,-14.595053672790527,-12.679692268371582,-30.110260009765625,32.37519073486328,116.9770278930664,-25.200000762939453,-26.100000381469727,-20.400001525878906
1.779,80.1770248413086,-14.058752059936523,-12.60307788848877,-31.842266082763672,41.30168533325195,105.5191421508789,-25.05000114440918,-26.250001907348633,-19.5
1.789,81.59439086914062,-12.7946138381958,-12.7946138381958,-33.4410400390625,42.90045928955078,90.86370086669922,-25.650001525878906,-27.600000381469727,-18.900001525878906
1.809,81.97746276855469,-13.943830490112305,-13.445837020874023,-20.650842666625977,27.84532928466797,79.0061264038086,-25.650001525878906,-27.600000381469727,-18.900001525878906
1.813,83.7396011352539,-11.836933135986328,-11.30063247680664,-21.84992218017578,37.83767318725586,46.09800720214844,-24.750001907348633,-28.500001907348633,-20.100000381469727
1.819,84.8888168334961,-11.530475616455078,-11.185709953308105,-14.12251091003418,34.906585693359375,53.95865249633789,-25.200000762939453,-26.850000381469727,-19.650001525878906
1.829,85.23358154296875,-8.810662269592285,-9.84495735168457,2.131699800491333,27.17917251586914,42.101070404052734,-26.250001907348633,-27.000001907348633,-19.80000114440918
1.839,86.53602600097656,-7.010222434997559,-8.312667846679688,19.98468589782715,30.110260009765625,24.248085021972656,-26.700000762939453,-26.850000381469727,-20.700000762939453
1.849,88.41307830810547,-7.1251444816589355,-8.236053466796875,37.57120895385742,26.779478073120117,8.526799201965332,-26.700000762939453,-26.850000381469727,-20.700000762939453
1.868,88.45138549804688,-6.818686485290527,-6.090848922729492,48.8958625793457,26.379785537719727,-6.395099639892578,-26.700000762939453,-26.400001525878906,-19.650001525878906
1.872,86.765869140625,-7.508216381072998,-7.623138427734375,68.08116149902344,13.056661605834961,-24.248085021972656,-25.650001525878906,-27.600000381469727,-17.700000762939453
1.879,85.38681030273438,-11.338939666748047,-9.193734169006348,91.79632568359375,14.12251091003418,-22.51607894897461,-25.80000114440918,-27.750001907348633,-18.75
1.889,83.43314361572266,-11.41555404663086,-9.423578262329102,99.3905029296875,5.595712184906006,-33.4410400390625,-26.700000762939453,-28.350000381469727,-18.450000762939453
1.899,83.08837890625,-11.492168426513672,-10.074800491333008,122.03981018066406,-8.39356803894043,-34.24042892456055,-26.700000762939453,-28.350000381469727,-18.450000762939453
1.909,82.16899871826172,-11.875240325927734,-8.848969459533691,134.03062438964844,-13.189892768859863,-49.02909469604492,-27.900001525878906,-27.600000381469727,-18.150001525878906
1.929,81.21131896972656,-11.683704376220703,-7.240066051483154,145.2220458984375,-17.986217498779297,-62.75191116333008,-25.200000762939453,-26.100000381469727,-18.900001525878906
1.932,80.1770248413086,-12.143390655517578,-4.9799394607543945,180.5283203125,-40.9019889831543,-82.47013854980469,-26.250001907348633,-27.000001907348633,-17.25
1.939,78.79796600341797,-10.879252433776855,-0.38307225704193115,195.1837615966797,-49.56201934814453,-84.60183715820312,-26.400001525878906,-26.850000381469727,-17.400001525878906
1.949,78.79796600341797,-9.691728591918945,0.3447650372982025,202.77793884277344,-49.42878723144531,-89.7978515625,-26.400001525878906,-26.850000381469727,-17.400001525878906
1.959,79.29595947265625,-9.653421401977539,1.9536685943603516,209.1730499267578,-52.89280319213867,-108.45022583007812,-27.450000762939453,-26.400001525878906,-17.700000762939453
1.969,79.29595947265625,-9.423578262329102,3.2178070545196533,218.36599731445312,-65.54976654052734,-108.18376159667969,-26.250001907348633,-27.000001907348633,-18.0
1.988,78.64473724365234,-9.998186111450195,4.941632270812988,232.88819885253906,-82.47013854980469,-99.12403869628906,-26.400001525878906,-26.850000381469727,-16.650001525878906
1.992,76.03984832763672,-10.496180534362793,7.546523571014404,232.35528564453125,-74.47626495361328,-111.11485290527344,-25.950000762939453,-27.600000381469727,-18.150001525878906
1.999,76.4995346069336,-13.637372970581055,8.389283180236816,236.08575439453125,-85.66768646240234,-117.37671661376953,-25.950000762939453,-27.600000381469727,-18.150001525878906
2.009,78.29997253417969,-13.752294540405273,8.887276649475098,250.74119567871094,-88.06584930419922,-125.23736572265625,-26.700000762939453,-29.100000381469727,-17.100000381469727
2.019,80.06210327148438,-13.79060173034668,10.457873344421387,260.3338317871094,-96.72587585449219,-134.5635528564453,-24.900001525878906,-27.150001525878906,-17.100000381469727
2.029,85.76988220214844,-16.81687355041504,11.070788383483887,259.6676940917969,-88.865234375,-158.27871704101562,-25.05000114440918,-29.250001907348633,-17.55000114440918
2.049,88.37477111816406,-18.081010818481445,12.947842597961426,273.1240234375,-91.92955017089844,-144.68911743164062,-26.400001525878906,-27.900001525878906,-16.650001525878906
2.053,90.86474609375,-20.76251792907715,13.943830490112305,269.1271057128906,-100.72281646728516,-172.40121459960938,-26.400001525878906,-27.900001525878906,-16.650001525878906
2.059,90.71151733398438,-23.13756561279297,13.713987350463867,253.4058074951172,-104.7197494506836,-191.4532928466797,-25.200000762939453,-27.150001525878906,-18.450000762939453
2.069,90.13690185546875,-24.89969825744629,12.449849128723145,232.62173461914062,-113.24655151367188,-199.04747009277344,-25.80000114440918,-26.250001907348633,-19.80000114440918
2.079,88.71953582763672,-25.70414924621582,10.228029251098633,216.6339874267578,-125.37059783935547,-195.1837615966797,-25.200000762939453,-28.350000381469727,-19.200000762939453
2.089,87.57032012939453,-25.244462966918945,6.588842868804932,190.9203643798828,-121.90658569335938,-205.5758056640625,-24.900001525878906,-27.150001525878906,-18.150001525878906
2.109,85.38681030273438,-21.911733627319336,4.520252704620361,162.6753387451172,-114.57886505126953,-216.50076293945312,-24.900001525878906,-27.150001525878906,-18.150001525878906
2.113,82.36053466796875,-20.800825119018555,2.4133553504943848,146.9540557861328,-124.30474090576172,-202.64471435546875,-25.05000114440918,-26.55000114440918,-18.75
2.119,79.6407241821289,-17.161638259887695,1.8770540952682495,141.89126586914062,-124.03828430175781,-204.7764129638672,-24.750001907348633,-26.55000114440918,-19.80000114440918
2.129,78.72135162353516,-16.242263793945312,2.030282974243164,129.2342987060547,-116.44409942626953,-220.23123168945312,-25.200000762939453,-26.100000381469727,-18.150001525878906
2.139,76.03984832763672,-13.867216110229492,2.8347349166870117,117.77641296386719,-120.30780792236328,-208.77334594726562,-24.30000114440918,-25.500001907348633,-19.5
2.149,73.77971649169922,-13.943830490112305,2.719813108444214,124.97090148925781,-131.7657012939453,-208.64012145996094,-24.30000114440918,-25.500001907348633,-19.5
2.169,74.00955963134766,-12.526463508605957,2.2601263523101807,118.30934143066406,-128.96783447265625,-203.44410705566406,-25.650001525878906,-23.25,-21.450000762939453
2.172,72.55388641357422,-11.377246856689453,1.5705963373184204,113.64624786376953,-124.17151641845703,-207.97396850585938,-26.700000762939453,-24.450000762939453,-21.75
2.179,73.12849426269531,-9.385271072387695,-0.5363011956214905,100.85604858398438,-114.3124008178711,-224.62786865234375,-24.450000762939453,-23.700000762939453,-21.450000762939453
2.189,72.66880798339844,-8.389283180236816,-0.26815059781074524,106.85145568847656,-112.31393432617188,-207.70750427246094,-23.700000762939453,-24.150001525878906,-21.450000762939453
2.2,74.50755310058594,-7.201758861541748,-0.4596867263317108,100.18988800048828,-104.5865249633789,-208.24041748046875,-23.700000762939453,-24.150001525878906,-21.450000762939453
2.209,75.19709014892578,-5.20978307723999,-0.8810662031173706,96.8591079711914,-104.05359649658203,-213.70291137695312,-23.700000762939453,-22.5,-23.25
2.229,75.58016204833984,-2.183511972427368,-0.4213795065879822,100.58958435058594,-108.983154296875,-203.8437957763672,-24.900001525878906,-22.950000762939453,-22.200000762939453
2.233,76.4995346069336,-0.7661445140838623,-1.1492167711257935,85.26799011230469,-98.72434997558594,-194.78407287597656,-24.450000762939453,-22.5,-22.5
2.239,76.23138427734375,0.15322890877723694,-6.818686485290527,90.19754791259766,-94.32771301269531,-194.117919921875,-24.450000762939453,-22.5,-22.5
2.249,75.42693328857422,0.4596867263317108,-10.917559623718262,83.5359878540039,-82.86982727050781,-186.3905029296875,-24.450000762939453,-22.5,-22.5
2.259,76.46122741699219,-0.4596867263317108,-12.29662036895752,85.4012222290039,-82.86982727050781,-179.72894287109375,-23.700000762939453,-20.25,-22.5
2.269,76.34630584716797,-1.5322890281677246,-12.066776275634766,76.4747314453125,-77.80704498291016,-167.87135314941406,-23.55000114440918,-19.650001525878906,-24.150001525878906
2.288,75.9249267578125,-2.6815059185028076,-9.232041358947754,50.62786865234375,-75.5421142578125,-164.5405731201172,-24.150001525878906,-21.450000762939453,-23.25
2.292,73.74140930175781,0.5746083855628967,-10.342951774597168,26.113323211669922,-77.14088439941406,-142.02450561523438,-24.150001525878906,-21.450000762939453,-23.25
2.299,69.06793212890625,4.290409564971924,-12.373234748840332,4.263399600982666,-81.13782501220703,-131.89892578125,-24.150001525878906,-21.450000762939453,-23.25
2.309,65.73519897460938,7.240066051483154,-13.752294540405273,-14.92189884185791,-64.61714935302734,-124.43797302246094,-22.950000762939453,-17.850000381469727,-25.500001907348633
2.319,66.61626434326172,9.232041358947754,-14.595053672790527,-30.776416778564453,-56.62327575683594,-106.71822357177734,-22.05000114440918,-19.200000762939453,-25.350000381469727
2.329,68.761474609375,12.181697845458984,-12.105083465576172,-30.24349021911621,-58.754974365234375,-91.3966293334961,-21.0,-18.900001525878906,-25.350000381469727
2.349,73.12849426269531,16.47210693359375,-11.60708999633789,-29.444103240966797,-66.08269500732422,-74.60948944091797,-21.0,-18.900001525878906,-25.350000381469727
2.353,76.69107055664062,19.460071563720703,-12.181697845458984,-31.176109313964844,-58.4885139465332,-53.558956146240234,-20.400001525878906,-17.55000114440918,-29.250001907348633
2.359,79.75564575195312,23.3291015625,-14.403517723083496,-23.848390579223633,-56.756507873535156,-49.56201934814453,-20.400001525878906,-17.55000114440918,-29.250001907348633
2.369,80.52178955078125,24.78477668762207,-14.403517723083496,-21.583459854125977,-53.42572784423828,-46.231239318847656,-21.150001525878906,-17.850000381469727,-27.30000114440918
2.379,82.32222747802734,24.823083877563477,-17.42978858947754,-17.453292846679688,-37.4379768371582,-33.57427215576172,-20.55000114440918,-17.700000762939453,-27.450000762939453
2.389,82.74361419677734,27.504589080810547,-22.103269577026367,-12.656967163085938,-8.39356803894043,-6.261868000030518,-20.55000114440918,-17.700000762939453,-27.450000762939453
2.409,83.1266860961914,28.92195701599121,-26.240449905395508,-1.9984685182571411,10.791729927062988,39.03675079345703,-20.700000762939453,-16.350000381469727,-27.30000114440918
2.413,84.58235931396484,34.9744987487793,-21.720197677612305,8.926492691040039,19.31852912902832,83.80245208740234,-21.0,-17.400001525878906,-28.650001525878906
2.419,92.47364807128906,36.123714447021484,-15.054739952087402,19.052066802978516,29.7105655670166,86.0673828125,-21.0,-17.400001525878906,-28.650001525878906
2.429,95.53822326660156,31.948226928710938,-16.127342224121094,43.56661605834961,23.98162269592285,101.9218978881836,-19.650001525878906,-17.850000381469727,-26.250001907348633
2.439,99.59879302978516,23.9420166015625,-17.468095779418945,51.160797119140625,35.57273864746094,116.57733154296875,-19.650001525878906,-17.850000381469727,-26.250001907348633
2.449,104.27227020263672,18.617311477661133,-19.536685943603516,34.50688934326172,47.430320739746094,131.63246154785156,-18.75,-18.900001525878906,-28.650001525878906
2.469,109.36713409423828,14.250288963317871,-21.14558982849121,17.719755172729492,52.89280319213867,142.5574188232422,-18.75,-18.150001525878906,-28.200000762939453
2.473,112.66155242919922,10.228029251098633,-16.81687355041504,16.387441635131836,46.231239318847656,170.66921997070312,-19.200000762939453,-19.5,-29.250001907348633
2.479,117.44995880126953,4.213795185089111,-17.851167678833008,11.191424369812012,47.0306282043457,174.0,-19.200000762939453,-19.5,-29.250001907348633
2.489,116.49227905273438,-0.19153612852096558,-17.276559829711914,4.929555892944336,52.89280319213867,171.46859741210938,-19.200000762939453,-19.5,-29.250001907348633
2.499,114.38538360595703,-9.232041358947754,-17.8128604888916,5.329249382019043,46.231239318847656,180.79478454589844,-18.900001525878906,-22.200000762939453,-27.30000114440918
2.509,110.55465698242188,-18.4257755279541,-19.574993133544922,-7.72741174697876,51.027565002441406,160.8101043701172,-19.650001525878906,-21.450000762939453,-28.500001907348633
2.529,105.57471466064453,-29.266721725463867,-17.276559829711914,-43.69984436035156,54.89126968383789,160.8101043701172,-18.75,-20.850000381469727,-27.900001525878906
2.533,99.2923355102539,-34.897884368896484,-18.081010818481445,-95.79325866699219,58.4885139465332,150.95098876953125,-18.75,-20.850000381469727,-27.900001525878906
2.539,90.94136047363281,-39.4947509765625,-16.395492553710938,-124.43797302246094,58.222049713134766,163.6079559326172,-18.30000114440918,-22.80000114440918,-28.650001525878906
2.549,85.5017318725586,-39.87782287597656,-17.50640296936035,-162.00918579101562,71.41194152832031,170.4027557373047,-18.150001525878906,-22.950000762939453,-26.55000114440918
2.559,80.06210327148438,-37.96246337890625,-15.591041564941406,-189.72128295898438,72.34455871582031,159.8774871826172,-19.650001525878906,-23.700000762939453,-27.000001907348633
2.569,74.08617401123047,-34.51481246948242,-13.560758590698242,-193.98468017578125,71.67840576171875,164.94027709960938,-19.200000762939453,-24.450000762939453,-28.500001907348633
2.589,70.48529815673828,-28.998571395874023,-12.334927558898926,-194.91729736328125,68.61408996582031,176.53138732910156,-19.200000762939453,-24.450000762939453,-28.500001907348633
2.593,68.64655303955078,-26.85336685180664,-10.917559623718262,-188.78866577148438,69.01377868652344,172.93414306640625,-18.75,-22.80000114440918,-27.900001525878906
2.599,70.44699096679688,-24.708162307739258,-9.385271072387695,-186.25726318359375,75.8085708618164,173.2006072998047,-19.5,-23.100000381469727,-25.650001525878906
2.609,71.8643569946289,-24.631547927856445,-9.500192642211914,-175.33230590820312,71.14547729492188,166.00611877441406,-18.450000762939453,-21.75,-25.200000762939453
2.619,74.6990966796875,-25.435998916625977,-10.879252433776855,-167.6049041748047,72.21133422851562,167.0719757080078,-20.25,-22.350000381469727,-26.850000381469727
2.629,78.03182220458984,-26.43198585510254,-12.679692268371582,-171.06890869140625,82.07044219970703,159.74424743652344,-20.25,-22.350000381469727,-26.850000381469727
2.649,79.06611633300781,-27.121517181396484,-15.361198425292969,-163.20826721191406,77.14088439941406,153.34915161132812,-19.5,-20.850000381469727,-27.150001525878906
2.653,82.16899871826172,-27.542896270751953,-14.556746482849121,-166.1393585205078,77.54058074951172,180.79478454589844,-19.80000114440918,-22.80000114440918,-26.850000381469727
2.659,85.23358154296875,-27.236438751220703,-15.284584045410156,-193.85145568847656,81.00459289550781,141.0918731689453,-19.950000762939453,-22.200000762939453,-26.55000114440918
2.669,86.42110443115234,-26.393678665161133,-15.169661521911621,-200.646240234375,73.14395141601562,159.47779846191406,-19.200000762939453,-22.950000762939453,-25.80000114440918
2.679,85.76988220214844,-23.482330322265625,-14.020444869995117,-219.69830322265625,73.81010437011719,163.87442016601562,-19.200000762939453,-22.950000762939453,-25.80000114440918
2.689,84.314208984375,-21.911733627319336,-14.173673629760742,-234.8866729736328,66.21592712402344,161.7427215576172,-21.30000114440918,-21.900001525878906,-25.350000381469727
2.709,83.7012939453125,-16.931795120239258,-14.939818382263184,-251.94027709960938,74.74272155761719,161.2097930908203,-21.30000114440918,-23.55000114440918,-25.350000381469727
2.713,81.09639739990234,-14.403517723083496,-13.905523300170898,-254.33843994140625,72.21133422851562,174.1332244873047,-20.400001525878906,-22.5,-24.750001907348633
2.719,78.52981567382812,-7.6997528076171875,-11.492168426513672,-250.0750274658203,63.81776428222656,178.92955017089844,-21.450000762939453,-20.55000114440918,-24.750001907348633
2.729,78.4148941040039,-4.941632270812988,-10.5344877243042,-251.27410888671875,67.28177642822266,187.1898956298828,-21.450000762939453,-20.55000114440918,-24.750001907348633
2.739,75.84831237792969,-0.8044517636299133,-10.228029251098633,-236.61868286132812,60.48698043823242,188.2557373046875,-20.55000114440918,-21.150001525878906,-24.600000381469727
2.749,71.59620666503906,2.2218191623687744,-10.5344877243042,-212.9035186767578,49.56201934814453,195.1837615966797,-19.950000762939453,-22.5,-24.0
2.769,68.7231674194336,4.6734819412231445,-11.990161895751953,-186.12403869628906,46.764163970947266,197.71514892578125,-20.700000762939453,-20.55000114440918,-25.200000762939453
2.773,65.73519897460938,5.363011837005615,-11.60708999633789,-166.40582275390625,50.09494400024414,182.6600341796875,-21.150001525878906,-21.75,-24.450000762939453
2.779,58.76328659057617,3.7924153804779053,-11.03248119354248,-148.8192901611328,40.635528564453125,193.3185272216797,-21.150001525878906,-21.75,-24.450000762939453
2.789,56.120086669921875,3.2178070545196533,-10.687716484069824,-135.4961700439453,39.9693717956543,196.51608276367188,-20.55000114440918,-23.100000381469727,-24.150001525878906
2.799,51.82967758178711,0.6512228846549988,-10.304644584655762,-128.83460998535156,48.62940216064453,199.84686279296875,-22.05000114440918,-21.150001525878906,-24.150001525878906
2.809,47.615882873535156,-0.49799394607543945,-10.036493301391602,-114.04593658447266,56.22358322143555,190.5206756591797,-21.150001525878906,-21.0,-24.750001907348633
2.829,43.9766960144043,-1.9536685943603516,-10.228029251098633,-106.4517593383789,47.830013275146484,197.71514892578125,-20.25,-23.100000381469727,-23.850000381469727
2.832,42.1379508972168,-3.5242648124694824,-7.891288757324219,-101.65543365478516,56.22358322143555,201.71209716796875,-20.25,-23.100000381469727,-23.850000381469727
2.839,42.90409469604492,-5.056553840637207,-5.094861030578613,-92.06278228759766,53.29249572753906,198.6477813720703,-21.75,-22.350000381469727,-23.850000381469727
2.849,44.12992477416992,-5.861005783081055,-4.903325080871582,-78.47319793701172,49.29555892944336,207.30780029296875,-21.0,-22.80000114440918,-22.350000381469727
2.859,44.66622543334961,-9.155426979064941,-6.627150535583496,-78.87289428710938,38.50382614135742,199.98008728027344,-20.700000762939453,-23.25,-23.25
2.869,46.88804626464844,-12.48815631866455,-3.8307228088378906,-85.00152587890625,31.176109313964844,180.79478454589844,-21.75,-24.30000114440918,-24.150001525878906
2.889,49.416324615478516,-15.782577514648438,-2.145204782485962,-86.86676788330078,22.382848739624023,178.92955017089844,-21.75,-24.30000114440918,-24.150001525878906
2.892,51.21676254272461,-19.68991470336914,-6.129156112670898,-99.3905029296875,19.584991455078125,159.3445587158203,-21.0,-25.500001907348633,-23.850000381469727
2.899,53.32366180419922,-22.869415283203125,-8.121131896972656,-104.7197494506836,11.457886695861816,161.2097930908203,-20.400001525878906,-24.450000762939453,-25.200000762939453
2.909,55.0474853515625,-23.558944702148438,-9.576807022094727,-134.96324157714844,30.110260009765625,157.4793243408203,-20.55000114440918,-24.30000114440918,-24.150001525878906
2.919,57.42253494262695,-24.13355255126953,-10.457873344421387,-154.54823303222656,36.63859176635742,150.151611328125,-19.650001525878906,-24.900001525878906,-24.750001907348633
2.929,60.41049575805664,-23.558944702148438,-14.020444869995117,-170.93568420410156,36.771820068359375,152.41653442382812,-19.650001525878906,-24.900001525878906,-24.750001907348633
2.949,62.172630310058594,-25.052927017211914,-16.1656494140625,-182.12710571289062,58.355281829833984,148.68606567382812,-21.0,-25.05000114440918,-24.150001525878906
2.952,65.46704864501953,-23.3291015625,-20.570980072021484,-183.5926513671875,81.40428924560547,129.10107421875,-21.0,-23.850000381469727,-23.850000381469727
2.959,68.34009552001953,-21.222204208374023,-24.018630981445312,-172.134765625,74.20980072021484,120.04134368896484,-18.30000114440918,-23.850000381469727,-24.150001525878906
2.969,71.05990600585938,-20.034679412841797,-24.59324073791504,-143.2235870361328,83.00305938720703,115.51148223876953,-19.5,-26.250001907348633,-23.100000381469727
2.979,77.7253646850586,-16.81687355041504,-23.3291015625,-124.8376693725586,92.19601440429688,90.59724426269531,-19.5,-26.250001907348633,-23.100000381469727
2.989,83.39483642578125,-12.832921028137207,-18.4257755279541,-90.86370086669922,84.60183715820312,73.54364013671875,-21.30000114440918,-24.30000114440918,-25.650001525878906
3.009,88.48969268798828,-14.748282432556152,-16.66364288330078,-64.3506851196289,66.34915924072266,88.33231353759766,-19.950000762939453,-24.900001525878906,-25.200000762939453
3.013,89.94536590576172,-18.157625198364258,-15.054739952087402,-40.502296447753906,44.23276901245117,66.08269500732422,-20.400001525878906,-25.200000762939453,-24.0
3.019,89.8687515258789,-25.51261329650879,-19.38345718383789,-43.69984436035156,51.693721771240234,42.101070404052734,-21.0,-23.850000381469727,-25.350000381469727
3.029,88.18323516845703,-27.964275360107422,-20.992361068725586,-30.110260009765625,46.231239318847656,42.36753463745117,-21.0,-23.850000381469727,-25.350000381469727
3.039,86.07633972167969,-29.611486434936523,-23.558944702148438,-20.91730499267578,40.23583221435547,31.042879104614258,-19.950000762939453,-24.450000762939453,-22.950000762939453
3.049,84.8888168334961,-28.883649826049805,-23.405715942382812,-23.04900360107422,53.82542037963867,13.189892768859863,-20.55000114440918,-23.100000381469727,-23.850000381469727
3.069,85.61665344238281,-28.8453426361084,-23.02264404296875,-7.9938740730285645,61.28636932373047,11.591117858886719,-21.0,-24.30000114440918,-23.850000381469727
3.073,86.61264038085938,-27.236438751220703,-22.409727096557617,29.177640914916992,52.89280319213867,-11.058192253112793,-20.400001525878906,-23.25,-23.25
3.079,88.83445739746094,-26.54690933227539,-21.183897018432617,45.69831466674805,55.55742645263672,-28.77794647216797,-20.400001525878906,-23.25,-23.25
3.089,92.39703369140625,-27.15982437133789,-18.77054214477539,80.20520782470703,52.493106842041016,-35.03981399536133,-21.450000762939453,-26.100000381469727,-23.25
3.099,96.49590301513672,-31.373619079589844,-15.935806274414062,103.52066802978516,52.093414306640625,-60.62021255493164,-21.150001525878906,-23.700000762939453,-23.25
3.109,101.7439956665039,-37.00477981567383,-14.824896812438965,130.96630859375,38.37059783935547,-76.87442779541016,-21.150001525878906,-25.200000762939453,-21.450000762939453
3.129,105.91948699951172,-41.25688552856445,-13.752294540405273,138.8269500732422,46.897396087646484,-112.31393432617188,-19.650001525878906,-25.200000762939453,-22.5
3.133,109.55867004394531,-41.448421478271484,-14.135366439819336,158.4119415283203,47.0306282043457,-141.89126586914062,-21.30000114440918,-24.30000114440918,-21.30000114440918
3.139,111.47402954101562,-37.502777099609375,-11.798625946044922,165.73965454101562,40.102603912353516,-145.48851013183594,-21.30000114440918,-24.30000114440918,-21.30000114440918
3.149,110.7461929321289,-34.82126998901367,-9.921571731567383,180.79478454589844,44.49923324584961,-170.13629150390625,-22.200000762939453,-25.200000762939453,-21.150001525878906
3.159,108.44776153564453,-29.611486434936523,-5.861005783081055,207.30780029296875,36.372127532958984,-167.73812866210938,-21.150001525878906,-26.100000381469727,-20.700000762939453
3.169,103.85089111328125,-25.014619827270508,-3.44765043258667,226.89279174804688,17.719755172729492,-168.9372100830078,-22.650001525878906,-24.450000762939453,-20.400001525878906
3.189,96.22775268554688,-22.218191146850586,-2.3367409706115723,247.14395141601562,6.5283308029174805,-164.94027709960938,-22.650001525878906,-24.450000762939453,-20.400001525878906
3.193,89.1792221069336,-22.141576766967773,-0.26815059781074524,250.87442016601562,1.0658499002456665,-156.41346740722656,-22.05000114440918,-25.500001907348633,-21.30000114440918
3.199,81.74761962890625,-19.99637222290039,3.44765043258667,256.7366027832031,-12.523736000061035,-159.8774871826172,-22.05000114440918,-25.500001907348633,-21.30000114440918
3.209,81.36454772949219,-20.30282974243164,5.631162166595459,269.2603454589844,-33.57427215576172,-136.69525146484375,-22.950000762939453,-24.150001525878906,-18.900001525878906
3.219,79.6407241821289,-21.107282638549805,8.542511940002441,274.3231201171875,-45.43185043334961,-134.29708862304688,-23.55000114440918,-25.500001907348633,-20.100000381469727
3.229,81.441162109375,-21.37543296813965,11.951854705810547,285.64776611328125,-57.689125061035156,-147.62020874023438,-23.55000114440918,-25.500001907348633,-20.100000381469727
3.249,85.84649658203125,-21.950040817260742,15.514427185058594,310.56201171875,-87.79938507080078,-145.6217498779297,-23.700000762939453,-25.650001525878906,-18.900001525878906
3.252,89.40906524658203,-21.605276107788086,17.1999454498291,320.6875915527344,-96.32618713378906,-174.39968872070312,-23.55000114440918,-26.55000114440918,-19.80000114440918
3.259,90.13690185546875,-23.099258422851562,18.387468338012695,330.679931640625,-106.4517593383789,-177.99693298339844,-23.55000114440918,-26.55000114440918,-19.80000114440918
3.269,91.20951080322266,-24.938005447387695,18.54069709777832,325.4839172363281,-113.64624786376953,-190.25421142578125,-23.700000762939453,-26.100000381469727,-18.150001525878906
3.279,92.16719055175781,-28.807035446166992,17.544710159301758,310.9617004394531,-130.1669158935547,-207.5742645263672,-23.700000762939453,-26.100000381469727,-18.150001525878906
3.289,90.78813171386719,-32.75267791748047,15.705963134765625,273.25726318359375,-123.63858795166016,-217.96630859375,-23.25,-26.250001907348633,-19.05000114440918
3.309,87.87677764892578,-35.85556411743164,12.717999458312988,237.81776428222656,-139.7595672607422,-231.4226531982422,-24.150001525878906,-27.600000381469727,-18.900001525878906
3.312,85.42511749267578,-37.42616271972656,9.730035781860352,187.05665588378906,-138.8269500732422,-228.35833740234375,-24.450000762939453,-24.900001525878906,-19.950000762939453
3.319,80.98147583007812,-35.31926345825195,5.094861030578613,154.14854431152344,-139.2266387939453,-235.0198974609375,-24.450000762939453,-24.900001525878906,-19.950000762939453
3.329,78.87458038330078,-32.292991638183594,2.5282769203186035,113.11331939697266,-133.49769592285156,-245.545166015625,-24.450000762939453,-24.900001525878906,-19.950000762939453
3.339,76.03984832763672,-25.51261329650879,0.7661445140838623,85.66768646240234,-130.69984436035156,-249.80856323242188,-23.400001525878906,-26.100000381469727,-20.700000762939453
3.349,72.4772720336914,-20.034679412841797,-0.7661445140838623,79.2725830078125,-144.82235717773438,-235.4196014404297,-24.450000762939453,-24.450000762939453,-19.200000762939453
3.369,68.761474609375,-13.330915451049805,0.1149216815829277,63.684532165527344,-136.82847595214844,-238.88360595703125,-24.0,-25.500001907348633,-20.100000381469727
3.373,64.58598327636719,-6.971915245056152,-2.183511972427368,74.60948944091797,-133.76416015625,-237.41806030273438,-23.700000762939453,-23.25,-19.650001525878906
3.379,59.26128005981445,0.2298433631658554,-4.367023944854736,84.73506927490234,-131.36599731445312,-224.76109313964844,-23.700000762939453,-23.25,-19.650001525878906
3.389,57.46084213256836,1.37906014919281,-4.060565948486328,98.85757446289062,-131.36599731445312,-218.23277282714844,-23.400001525878906,-22.200000762939453,-20.700000762939453
3.399,55.0474853515625,3.9839515686035156,-3.3710360527038574,120.30780792236328,-132.43185424804688,-212.37059020996094,-24.450000762939453,-21.75,-21.450000762939453
3.409,52.595821380615234,5.631162166595459,-2.604891538619995,130.1669158935547,-126.30321502685547,-208.64012145996094,-23.700000762939453,-21.75,-21.75
3.429,51.52322006225586,5.439626216888428,-1.2641384601593018,148.28636169433594,-140.02603149414062,-198.38131713867188,-23.700000762939453,-21.75,-21.75
3.433,49.76108932495117,6.550535678863525,0.5363011956214905,170.53598022460938,-148.55282592773438,-186.12403869628906,-23.400001525878906,-22.200000762939453,-23.25
3.439,50.48892593383789,5.286397457122803,3.141192674636841,172.00152587890625,-144.95558166503906,-190.65390014648438,-24.750001907348633,-20.400001525878906,-24.150001525878906
3.449,49.9143180847168,4.137180328369141,3.7158010005950928,186.79019165039062,-158.9448699951172,-184.39202880859375,-23.400001525878906,-21.450000762939453,-23.25
3.459,50.25908279418945,0.8810662031173706,3.026270866394043,192.51913452148438,-154.0153045654297,-183.7258758544922,-23.400001525878906,-21.450000762939453,-23.25
3.469,50.335697174072266,0.3064578175544739,4.32871675491333,197.31546020507812,-158.9448699951172,-191.8529815673828,-23.400001525878906,-21.450000762939453,-23.25
3.489,51.21676254272461,-3.7158010005950928,5.094861030578613,191.4532928466797,-157.87901306152344,-188.52220153808594,-21.450000762939453,-21.75,-26.250001907348633
3.492,51.40829849243164,-8.695740699768066,3.9456443786621094,156.01377868652344,-160.01071166992188,-185.85757446289062,-22.200000762939453,-21.75,-25.80000114440918
3.499,53.859962463378906,-14.09705924987793,1.1492167711257935,137.22817993164062,-166.1393585205078,-180.26187133789062,-22.200000762939453,-20.25,-25.80000114440918
3.509,55.43055725097656,-16.395492553710938,0.689530074596405,90.06431579589844,-156.5467071533203,-194.91729736328125,-22.200000762939453,-20.25,-25.80000114440918
3.519,58.3419075012207,-16.510414123535156,0.9193734526634216,51.29402542114258,-160.8101043701172,-207.0413360595703,-21.0,-20.400001525878906,-28.200000762939453
3.529,59.759273529052734,-15.897499084472656,0.038307227194309235,15.188361167907715,-159.3445587158203,-199.98008728027344,-21.75,-20.850000381469727,-28.650001525878906
3.549,62.8238525390625,-13.330915451049805,-2.9879636764526367,-42.36753463745117,-148.28636169433594,-210.63858032226562,-21.30000114440918,-18.450000762939453,-28.650001525878906
3.552,64.31783294677734,-7.4316020011901855,-6.971915245056152,-81.53751373291016,-130.69984436035156,-196.78253173828125,-20.25,-18.900001525878906,-28.650001525878906
3.559,66.99934387207031,1.4939818382263184,-10.879252433776855,-92.99540710449219,-126.7029037475586,-191.8529815673828,-20.25,-18.900001525878906,-28.650001525878906
3.569,68.49332427978516,7.469909191131592,-12.066776275634766,-106.98468017578125,-112.31393432617188,-173.0673828125,-20.55000114440918,-18.450000762939453,-29.400001525878906
3.579,68.7231674194336,15.322891235351562,-14.36521053314209,-117.37671661376953,-91.66309356689453,-146.28790283203125,-19.5,-16.5,-30.450000762939453
3.589,70.10222625732422,24.13355255126953,-19.421764373779297,-94.59417724609375,-69.28024291992188,-132.9647674560547,-19.80000114440918,-16.5,-31.200000762939453
3.609,72.28573608398438,29.266721725463867,-22.524648666381836,-75.8085708618164,-39.70290756225586,-104.18682861328125,-19.950000762939453,-15.600000381469727,-31.350000381469727
3.613,76.15476989746094,34.3615837097168,-20.64759635925293,-34.50688934326172,-20.784072875976562,-92.86217498779297,-19.950000762939453,-15.600000381469727,-31.350000381469727
3.619,81.82423400878906,34.70634841918945,-19.536685943603516,-10.791729927062988,-18.78560447692871,-83.13629150390625,-17.55000114440918,-15.450000762939453,-31.950000762939453
3.629,83.35652923583984,33.32728576660156,-20.072986602783203,21.983154296875,-24.11485481262207,-56.09035110473633,-20.400001525878906,-15.600000381469727,-31.350000381469727
3.639,87.72354888916016,30.14778709411621,-26.393678665161133,28.911178588867188,-2.2649309635162354,-29.577335357666016,-19.5,-13.800000190734863,-31.950000762939453
3.649,85.99972534179688,30.26270866394043,-31.10546875,24.248085021972656,31.709033966064453,10.125574111938477,-18.75,-13.800000190734863,-32.25
3.669,87.60862731933594,31.565155029296875,-34.20835494995117,23.581928253173828,52.89280319213867,46.231239318847656,-18.75,-13.800000190734863,-32.25
3.673,92.81841278076172,32.02484130859375,-24.401702880859375,36.63859176635742,39.70290756225586,90.33078002929688,-19.05000114440918,-14.550000190734863,-32.25
3.679,104.1573486328125,26.087221145629883,-20.76251792907715,43.83307647705078,41.168453216552734,94.46094512939453,-18.75,-15.750000953674316,-33.0
3.689,105.45979309082031,22.218191146850586,-22.448034286499023,37.4379768371582,24.51454734802246,109.11638641357422,-19.650001525878906,-15.90000057220459,-31.80000114440918
3.699,106.83885955810547,14.556746482849121,-23.290794372558594,35.705970764160156,16.12097930908203,127.23583221435547,-18.75,-17.400001525878906,-32.25
3.709,106.53240203857422,9.346963882446289,-28.002582550048828,5.595712184906006,22.249616622924805,146.42112731933594,-18.75,-17.400001525878906,-32.25
3.729,108.52437591552734,4.558559894561768,-28.653806686401367,-20.650842666625977,49.82848358154297,159.61102294921875,-19.5,-17.700000762939453,-33.0
3.732,115.53459930419922,0.727837324142456,-27.619510650634766,-46.231239318847656,53.69218826293945,175.9984588623047,-20.55000114440918,-19.200000762939453,-33.0
3.739,119.59516143798828,-3.485957622528076,-23.290794372558594,-53.82542037963867,49.69525146484375,191.32005310058594,-19.5,-18.150001525878906,-33.75
3.749,118.13948822021484,-5.746084213256836,-21.183897018432617,-70.3460922241211,61.15313720703125,177.86370849609375,-18.900001525878906,-20.25,-32.55000305175781
3.759,113.23616027832031,-11.224017143249512,-19.766529083251953,-74.74272155761719,58.754974365234375,174.66615295410156,-18.900001525878906,-20.25,-32.55000305175781
3.769,106.95378112792969,-14.020444869995117,-19.651607513427734,-83.40275573730469,66.34915924072266,187.05665588378906,-21.0,-20.100000381469727,-34.20000076293945
3.788,98.18142700195312,-18.272546768188477,-18.34916114807129,-92.46247863769531,72.21133422851562,174.39968872070312,-19.80000114440918,-19.200000762939453,-32.70000076293945
3.792,87.87677764892578,-22.333112716674805,-19.99637222290039,-119.7748794555664,88.19908142089844,168.27105712890625,-19.650001525878906,-19.5,-32.85000228881836
3.799,74.85232543945312,-27.619510650634766,-21.183897018432617,-128.03521728515625,91.92955017089844,170.13629150390625,-19.80000114440918,-20.100000381469727,-32.70000076293945
3.809,69.64253997802734,-28.807035446166992,-19.49837875366211,-143.88973999023438,98.59111785888672,169.8698272705078,-19.80000114440918,-20.100000381469727,-32.70000076293945
3.819,66.19488525390625,-30.79901123046875,-17.774553298950195,-177.19754028320312,110.44869232177734,176.6646270751953,-20.400001525878906,-19.05000114440918,-32.85000228881836
3.829,65.54366302490234,-31.22039031982422,-16.1656494140625,-198.781005859375,114.57886505126953,181.46095275878906,-21.450000762939453,-20.25,-32.55000305175781
3.849,67.88040924072266,-29.573179244995117,-13.330915451049805,-214.3690643310547,100.9892807006836,179.72894287109375,-19.80000114440918,-18.900001525878906,-32.70000076293945
3.852,72.20912170410156,-28.61549949645996,-11.990161895751953,-239.016845703125,104.85298156738281,179.4624786376953,-20.55000114440918,-20.400001525878906,-31.950000762939453
3.859,79.06611633300781,-23.405715942382812,-9.346963882446289,-241.9479217529297,104.18682861328125,174.1332244873047,-20.55000114440918,-20.400001525878906,-31.950000762939453
3.869,79.79395294189453,-20.724210739135742,-8.734047889709473,-232.88819885253906,92.59571075439453,184.39202880859375,-21.75,-18.900001525878906,-31.500001907348633
3.879,82.97345733642578,-15.744270324707031,-11.72201156616211,-228.6248016357422,93.52832794189453,186.3905029296875,-21.0,-18.900001525878906,-30.900001525878906
3.889,83.54806518554688,-13.943830490112305,-14.211980819702148,-227.6921844482422,108.3169937133789,189.0551300048828,-20.400001525878906,-18.75,-30.30000114440918
3.909,86.68925476074219,-12.947842597961426,-15.974113464355469,-217.69984436035156,108.58345794677734,189.32159423828125,-21.450000762939453,-19.05000114440918,-30.600000381469727
3.912,89.71552276611328,-13.10107135772705,-18.081010818481445,-235.0198974609375,115.51148223876953,177.73046875,-21.450000762939453,-19.05000114440918,-30.600000381469727
3.919,91.70750427246094,-14.36521053314209,-18.579004287719727,-235.4196014404297,108.050537109375,183.85910034179688,-22.200000762939453,-18.75,-31.350000381469727
3.929,90.8264389038086,-14.709975242614746,-18.808849334716797,-256.0704345703125,113.91270446777344,184.92495727539062,-23.400001525878906,-15.90000057220459,-30.600000381469727
3.939,90.48167419433594,-12.947842597961426,-17.851167678833008,-266.595703125,109.64930725097656,182.2603302001953,-23.25,-18.450000762939453,-28.950000762939453
3.949,90.32844543457031,-9.998186111450195,-16.433799743652344,-266.72894287109375,93.66156005859375,193.05206298828125,-21.75,-17.400001525878906,-29.700000762939453
3.969,87.18724822998047,-4.6734819412231445,-13.254301071166992,-277.387451171875,83.5359878540039,194.6508331298828,-21.75,-17.400001525878906,-29.700000762939453
3.972,83.43314361572266,0.727837324142456,-10.228029251098633,-257.9356689453125,68.4808578491211,207.0413360595703,-22.5,-16.950000762939453,-28.650001525878906
3.979,74.16278839111328,7.469909191131592,-10.189722061157227,-253.00611877441406,58.888206481933594,222.4961700439453,-22.05000114440918,-15.450000762939453,-27.450000762939453
3.989,70.06391906738281,10.457873344421387,-10.496180534362793,-215.56814575195312,48.22970962524414,221.69677734375,-22.650001525878906,-17.100000381469727,-27.30000114440918
3.999,64.12629699707031,15.782577514648438,-9.193734169006348,-182.12710571289062,46.09800720214844,223.0290985107422,-22.80000114440918,-15.450000762939453,-28.200000762939453
4.009,57.84391403198242,17.697938919067383,-8.772355079650879,-142.5574188232422,38.23736572265625,234.62020874023438,-22.80000114440918,-15.450000762939453,-28.200000762939453
4.029,55.200714111328125,17.1999454498291,-10.15141487121582,-85.80091857910156,26.379785537719727,253.00611877441406,-21.150001525878906,-15.90000057220459,-27.000001907348633
4.032,51.40829849243164,12.7946138381958,-10.074800491333008,-48.62940216064453,17.719755172729492,263.1316833496094,-22.05000114440918,-16.5,-27.450000762939453
4.039,48.26710510253906,8.121131896972656,-10.994174003601074,-33.84073257446289,26.912710189819336,250.74119567871094,-21.30000114440918,-17.700000762939453,-26.850000381469727
4.049,45.96867370605469,6.512228488922119,-11.836933135986328,-6.5283308029174805,27.31240463256836,253.1393585205078,-22.650001525878906,-17.850000381469727,-26.55000114440918
4.059,42.90409469604492,1.4939818382263184,-10.649409294128418,6.261868000030518,31.842266082763672,245.14547729492188,-22.650001525878906,-17.850000381469727,-26.55000114440918
4.069,43.478702545166016,-1.072602391242981,-9.002198219299316,8.260336875915527,39.30321502685547,234.4869842529297,-23.400001525878906,-18.75,-26.250001907348633
4.088,45.85375213623047,-4.022258758544922,-6.665457725524902,8.793261528015137,45.56508255004883,227.29249572753906,-21.30000114440918,-18.150001525878906,-27.150001525878906
4.092,46.96466064453125,-9.385271072387695,-6.3973069190979,-9.059723854064941,36.372127532958984,231.4226531982422,-22.650001525878906,-19.05000114440918,-25.80000114440918
4.099,49.37801742553711,-13.867216110229492,-4.8267107009887695,-29.577335357666016,36.10566711425781,218.36599731445312,-22.200000762939453,-19.05000114440918,-26.250001907348633
4.109,50.5655403137207,-14.939818382263184,-3.907337188720703,-53.95865249633789,30.37672233581543,201.9785614013672,-22.200000762939453,-19.05000114440918,-26.250001907348633
4.119,51.369991302490234,-17.92778205871582,-1.4173674583435059,-73.9433364868164,19.45176124572754,203.97702026367188,-22.5,-23.100000381469727,-26.400001525878906
4.129,50.757076263427734,-21.030668258666992,-1.2641384601593018,-93.2618637084961,12.390504837036133,188.1225128173828,-22.650001525878906,-22.200000762939453,-25.80000114440918
4.149,51.63814163208008,-21.950040817260742,-2.451662540435791,-112.31393432617188,10.92496109008789,163.4747314453125,-22.650001525878906,-22.5,-27.000001907348633
4.153,52.71074295043945,-20.83913230895996,-2.8347349166870117,-125.37059783935547,11.457886695861816,145.88819885253906,-21.450000762939453,-23.25,-26.250001907348633
4.159,53.361968994140625,-21.528661727905273,-7.201758861541748,-125.63705444335938,1.8652373552322388,144.55589294433594,-21.450000762939453,-23.25,-26.250001907348633
4.169,53.974884033203125,-21.14558982849121,-11.836933135986328,-135.4961700439453,18.119447708129883,125.63705444335938,-22.650001525878906,-22.200000762939453,-26.55000114440918
4.179,54.35795593261719,-19.919757843017578,-14.058752059936523,-136.56201171875,35.57273864746094,123.9050521850586,-22.05000114440918,-21.900001525878906,-26.400001525878906
4.189,57.03946304321289,-20.379444122314453,-17.583017349243164,-116.57733154296875,34.24042892456055,121.3736572265625,-21.30000114440918,-21.600000381469727,-25.650001525878906
4.209,59.146358489990234,-20.226215362548828,-17.50640296936035,-126.43644714355469,49.02909469604492,91.79632568359375,-21.450000762939453,-22.950000762939453,-26.55000114440918
4.213,62.977081298828125,-17.62132453918457,-14.36521053314209,-119.90811157226562,42.36753463745117,90.06431579589844,-22.650001525878906,-22.5,-26.250001907348633
4.219,71.90266418457031,-16.81687355041504,-16.35718536376953,-107.78407287597656,34.10719680786133,77.80704498291016,-22.650001525878906,-22.5,-26.250001907348633
4.229,75.42693328857422,-17.8128604888916,-17.889474868774414,-90.33078002929688,27.31240463256836,84.20214080810547,-23.25,-23.100000381469727,-26.400001525878906
4.239,77.95520782470703,-23.903709411621094,-21.413740158081055,-76.74119567871094,31.575803756713867,48.76263427734375,-22.80000114440918,-21.900001525878906,-26.850000381469727
4.249,82.16899871826172,-26.087221145629883,-23.367408752441406,-78.87289428710938,49.82848358154297,35.839202880859375,-22.950000762939453,-21.450000762939453,-28.05000114440918
4.269,88.83445739746094,-31.948226928710938,-26.700138092041016,-68.88054656982422,45.96477508544922,30.776416778564453,-22.950000762939453,-21.450000762939453,-28.05000114440918
4.273,95.30838012695312,-31.143775939941406,-24.24847412109375,-57.822357177734375,43.43338394165039,0.7993874549865723,-22.05000114440918,-21.900001525878906,-27.900001525878906
4.279,102.51013946533203,-23.673866271972656,-23.865402221679688,-38.63705825805664,47.56355285644531,-18.652372360229492,-22.05000114440918,-21.900001525878906,-27.900001525878906
4.289,105.11502838134766,-18.617311477661133,-23.482330322265625,3.4640121459960938,45.03215789794922,-23.315465927124023,-21.900001525878906,-22.200000762939453,-28.80000114440918
4.299,107.94976806640625,-10.342951774597168,-23.597251892089844,54.89126968383789,36.63859176635742,-24.51454734802246,-22.80000114440918,-21.150001525878906,-27.450000762939453
4.309,106.87716674804688,-8.925583839416504,-23.9420166015625,110.848388671875,36.372127532958984,-28.111791610717773,-22.80000114440918,-21.150001525878906,-27.450000762939453
4.329,109.13729095458984,-15.782577514648438,-21.6818904876709,151.6171417236328,36.372127532958984,-47.297088623046875,-22.80000114440918,-20.850000381469727,-27.900001525878906
4.332,110.51634979248047,-26.278757095336914,-18.923770904541016,200.91270446777344,39.9693717956543,-71.54517364501953,-22.05000114440918,-20.100000381469727,-27.900001525878906
4.339,110.7078857421875,-40.873809814453125,-16.35718536376953,219.0321502685547,25.980091094970703,-76.4747314453125,-22.650001525878906,-21.450000762939453,-27.000001907348633
4.349,111.05265045166016,-46.313438415527344,-14.36521053314209,213.70291137695312,35.839202880859375,-100.9892807006836,-22.650001525878906,-21.450000762939453,-27.000001907348633
4.359,108.60099029541016,-49.18648147583008,-12.411541938781738,211.9709014892578,29.977027893066406,-119.37519073486328,-22.650001525878906,-21.450000762939453,-27.000001907348633
4.369,106.41748046875,-47.19450378417969,-10.266336441040039,221.16384887695312,16.520673751831055,-133.49769592285156,-21.150001525878906,-21.450000762939453,-28.05000114440918
4.389,101.6673812866211,-42.559329986572266,-9.730035781860352,224.09494018554688,15.188361167907715,-154.814697265625,-22.80000114440918,-20.400001525878906,-27.900001525878906
4.393,94.38900756835938,-35.28095626831055,-6.129156112670898,248.60948181152344,-2.131699800491333,-153.7488555908203,-22.05000114440918,-22.350000381469727,-27.450000762939453
4.399,85.5017318725586,-28.040889739990234,-2.604891538619995,272.4578857421875,-20.38437843322754,-164.80703735351562,-22.05000114440918,-22.350000381469727,-27.450000762939453
4.409,81.90084838867188,-24.89969825744629,0.07661445438861847,293.7748718261719,-41.967838287353516,-165.3399658203125,-21.900001525878906,-24.450000762939453,-28.80000114440918
4.419,77.53382873535156,-23.558944702148438,4.405331134796143,309.8958435058594,-55.69065856933594,-162.27565002441406,-22.950000762939453,-23.25,-28.05000114440918
4.429,73.39664459228516,-24.018630981445312,8.197746276855469,324.8177490234375,-70.47932434082031,-170.66921997070312,-22.80000114440918,-22.350000381469727,-28.950000762939453
4.449,72.36235046386719,-25.321077346801758,11.1474027633667,343.0704345703125,-89.13169860839844,-164.27410888671875,-20.700000762939453,-24.150001525878906,-29.250001907348633
4.453,74.2777099609375,-28.577192306518555,13.828908920288086,344.4027404785156,-89.7978515625,-191.4532928466797,-20.700000762939453,-24.150001525878906,-29.250001907348633
4.459,79.52580261230469,-31.83330535888672,17.62132453918457,348.3996887207031,-98.19142150878906,-200.77947998046875,-19.200000762939453,-26.100000381469727,-28.500001907348633
4.469,83.96944427490234,-33.365596771240234,20.877439498901367,356.1271057128906,-122.43950653076172,-215.43490600585938,-20.700000762939453,-25.650001525878906,-28.80000114440918
4.479,87.49370574951172,-36.16202163696289,21.6818904876709,336.8085632324219,-131.0995330810547,-237.41806030273438,-20.700000762939453,-26.850000381469727,-29.55000114440918
4.489,92.20549774169922,-38.307228088378906,21.56696891784668,299.1041259765625,-132.9647674560547,-267.9280090332031,-20.700000762939453,-26.850000381469727,-29.55000114440918
4.51,92.58856964111328,-41.946414947509766,19.230228424072266,273.6569519042969,-136.82847595214844,-241.68145751953125,-20.700000762939453,-26.850000381469727,-29.55000114440918
4.514,94.27408599853516,-43.13393783569336,14.97812557220459,204.50994873046875,-134.96324157714844,-292.1761169433594,-18.900001525878906,-28.350000381469727,-29.850000381469727
4.519,94.12085723876953,-46.313438415527344,7.201758861541748,195.1837615966797,-146.28790283203125,-290.8437805175781,-19.200000762939453,-27.600000381469727,-28.500001907348633
4.529,92.51195526123047,-45.585601806640625,5.439626216888428,142.5574188232422,-142.02450561523438,-305.2327575683594,-19.200000762939453,-27.600000381469727,-28.80000114440918
4.539,91.13289642333984,-43.478702545166016,2.4133553504943848,101.52220153808594,-140.5589599609375,-318.15618896484375,-19.200000762939453,-27.600000381469727,-28.80000114440918
4.549,89.40906524658203,-38.99675750732422,0.4213795065879822,72.0781021118164,-155.88055419921875,-323.6186828613281,-18.900001525878906,-29.55000114440918,-29.55000114440918
4.568,85.46342468261719,-32.82929229736328,-0.8810662031173706,39.30321502685547,-149.21897888183594,-330.679931640625,-20.25,-28.200000762939453,-27.900001525878906
4.572,83.08837890625,-23.482330322265625,-2.7964274883270264,3.0643184185028076,-152.28330993652344,-328.68145751953125,-18.150001525878906,-27.150001525878906,-29.250001907348633
4.579,76.46122741699219,-10.113107681274414,-4.750096321105957,3.3307809829711914,-161.2097930908203,-300.16998291015625,-18.900001525878906,-26.100000381469727,-29.850000381469727
4.589,72.74542236328125,-3.907337188720703,-6.3973069190979,-9.459418296813965,-149.3522186279297,-286.3139343261719,-18.900001525878906,-26.100000381469727,-29.850000381469727
4.599,68.34009552001953,3.141192674636841,-8.389283180236816,-1.0658499002456665,-141.35833740234375,-244.74578857421875,-19.80000114440918,-25.05000114440918,-29.400001525878906
4.609,63.55168914794922,10.074800491333008,-9.921571731567383,15.854516983032227,-135.4961700439453,-233.9540557861328,-17.700000762939453,-23.25,-28.500001907348633
4.629,59.452816009521484,14.326903343200684,-11.760318756103516,42.36753463745117,-127.63552856445312,-211.30474853515625,-18.75,-23.100000381469727,-28.200000762939453
4.632,56.886234283447266,15.974113464355469,-12.02846908569336,82.7365951538086,-108.983154296875,-200.646240234375,-18.30000114440918,-23.850000381469727,-29.400001525878906
4.639,52.94058609008789,13.560758590698242,-11.30063247680664,108.983154296875,-102.18836212158203,-191.4532928466797,-18.30000114440918,-23.850000381469727,-29.400001525878906
4.649,51.676448822021484,11.798625946044922,-9.040505409240723,146.0214385986328,-106.85145568847656,-175.46554565429688,-18.30000114440918,-22.350000381469727,-30.450000762939453
4.659,50.83369064331055,8.542511940002441,-6.01423454284668,171.06890869140625,-114.71209716796875,-180.66156005859375,-18.30000114440918,-24.30000114440918,-28.200000762939453
4.669,50.029239654541016,4.213795185089111,-3.2178070545196533,182.92648315429688,-123.2388916015625,-179.19601440429688,-16.80000114440918,-24.750001907348633,-30.900001525878906
4.688,49.60786056518555,0.4596867263317108,-1.4173674583435059,169.8698272705078,-126.03675079345703,-182.2603302001953,-17.400001525878906,-24.150001525878906,-28.500001907348633
4.692,48.72679138183594,-2.6815059185028076,1.1492167711257935,155.34762573242188,-138.8269500732422,-173.33384704589844,-17.400001525878906,-24.150001525878906,-28.500001907348633
4.699,47.04127502441406,-7.1251444816589355,-0.1149216815829277,140.6921844482422,-142.95712280273438,-177.86370849609375,-16.5,-25.05000114440918,-30.450000762939453
4.709,48.152183532714844,-6.89530086517334,-0.727837324142456,118.8422622680664,-150.2848358154297,-170.13629150390625,-17.700000762939453,-24.900001525878906,-28.500001907348633
4.719,47.2711181640625,-9.27034854888916,-1.072602391242981,103.7871322631836,-158.4119415283203,-161.7427215576172,-17.400001525878906,-26.850000381469727,-29.55000114440918
4.729,48.30541229248047,-7.661445617675781,-1.6855180263519287,71.41194152832031,-153.21592712402344,-160.94332885742188,-15.450000762939453,-25.650001525878906,-28.80000114440918
4.749,48.11387634277344,-9.423578262329102,-2.604891538619995,33.84073257446289,-152.41653442382812,-165.73965454101562,-15.450000762939453,-25.650001525878906,-28.80000114440918
4.753,51.10184097290039,-7.163451671600342,-2.451662540435791,-9.992342948913574,-155.34762573242188,-170.26951599121094,-16.05000114440918,-25.05000114440918,-30.900001525878906
4.759,52.25105667114258,-4.290409564971924,-4.367023944854736,-18.385910034179688,-152.1500701904297,-173.0673828125,-16.05000114440918,-26.250001907348633,-31.500001907348633
4.769,53.208740234375,-0.727837324142456,-8.580819129943848,-46.63093185424805,-139.6263427734375,-168.27105712890625,-16.950000762939453,-25.650001525878906,-29.850000381469727
4.779,55.085792541503906,1.3024457693099976,-10.381258964538574,-78.3399658203125,-122.43950653076172,-168.80397033691406,-15.15000057220459,-25.200000762939453,-30.600000381469727
4.789,58.87820816040039,5.286397457122803,-10.189722061157227,-88.46553802490234,-116.0444107055664,-161.07656860351562,-15.15000057220459,-25.200000762939453,-30.600000381469727
4.809,61.942787170410156,9.385271072387695,-11.836933135986328,-108.3169937133789,-98.72434997558594,-156.5467071533203,-16.5,-23.55000114440918,-30.450000762939453
4.812,64.6242904663086,16.548721313476562,-15.667655944824219,-110.04900360107422,-88.73200225830078,-133.6309356689453,-13.65000057220459,-24.150001525878906,-30.30000114440918
4.819,68.53163146972656,23.21417999267578,-18.579004287719727,-113.24655151367188,-71.14547729492188,-119.24195861816406,-15.000000953674316,-21.600000381469727,-33.45000076293945
4.829,70.33206939697266,26.776752471923828,-22.869415283203125,-97.5252685546875,-49.69525146484375,-94.19448852539062,-16.200000762939453,-22.5,-30.30000114440918
4.839,72.82203674316406,32.63775634765625,-28.500577926635742,-86.46707153320312,-9.459418296813965,-72.34455871582031,-16.200000762939453,-22.5,-30.30000114440918
4.849,74.43093872070312,38.115692138671875,-32.331298828125,-63.018375396728516,19.185298919677734,-44.23276901245117,-16.5,-20.100000381469727,-33.75
4.869,75.15878295898438,44.5896110534668,-31.373619079589844,-13.189892768859863,34.24042892456055,-7.327718257904053,-15.750000953674316,-22.80000114440918,-31.950000762939453
4.872,80.48348236083984,46.619895935058594,-27.044902801513672,40.635528564453125,39.9693717956543,10.125574111938477,-16.200000762939453,-22.200000762939453,-33.30000305175781
4.879,88.37477111816406,39.149986267089844,-21.98834800720215,64.48391723632812,31.975496292114258,10.791729927062988,-16.650001525878906,-21.0,-33.30000305175781
4.889,89.10260772705078,31.986534118652344,-22.409727096557617,66.74884796142578,25.846860885620117,33.04134750366211,-16.650001525878906,-21.0,-33.30000305175781
4.899,90.32844543457031,27.27474594116211,-31.258697509765625,47.9632453918457,44.09954071044922,58.222049713134766,-17.55000114440918,-23.55000114440918,-33.0
4.909,88.5663070678711,24.24847412109375,-35.28095626831055,12.656967163085938,63.018375396728516,98.59111785888672,-17.25,-23.55000114440918,-30.450000762939453
4.929,93.58455657958984,23.290794372558594,-31.7183837890625,-16.78713607788086,63.551300048828125,122.83920288085938,-16.950000762939453,-24.900001525878906,-31.80000114440918
4.933,99.10079956054688,22.7161865234375,-30.301015853881836,-26.912710189819336,62.085758209228516,139.09341430664062,-18.900001525878906,-24.900001525878906,-29.850000381469727
4.939,107.0303955078125,19.80483627319336,-26.85336685180664,-19.584991455078125,63.684532165527344,152.28330993652344,-18.900001525878906,-24.900001525878906,-29.850000381469727
4.949,112.01033020019531,21.0689754486084,-25.39769172668457,-30.37672233581543,64.88361358642578,154.6814727783203,-18.75,-25.80000114440918,-29.400001525878906
4.959,114.92168426513672,17.8128604888916,-25.09123420715332,-41.035221099853516,63.81776428222656,172.53445434570312,-18.30000114440918,-24.750001907348633,-30.900001525878906
4.969,114.99829864501953,15.399505615234375,-26.700138092041016,-49.69525146484375,70.61255645751953,195.84991455078125,-18.30000114440918,-25.05000114440918,-30.150001525878906
4.988,114.19384765625,11.377246856689453,-30.952239990234375,-58.222049713134766,85.53445434570312,200.646240234375,-19.5,-25.05000114440918,-28.950000762939453
4.992,113.96400451660156,6.090848922729492,-26.048913955688477,-55.4241943359375,87.66615295410156,210.37213134765625,-19.5,-25.05000114440918,-28.950000762939453
4.999,110.36312103271484,-1.647210717201233,-20.494365692138672,-52.226646423339844,84.60183715820312,199.44715881347656,-18.75,-25.05000114440918,-28.200000762939453
5.009,104.08073425292969,-3.9839515686035156,-19.038692474365234,-67.01531219482422,93.2618637084961,180.12863159179688,-18.75,-26.250001907348633,-27.150001525878906
5.019,95.04022979736328,-10.228029251098633,-18.04270362854004,-76.4747314453125,91.79632568359375,192.51913452148438,-19.5,-26.55000114440918,-26.100000381469727
5.029,87.22555541992188,-14.441824913024902,-19.115306854248047,-87.79938507080078,95.39356231689453,192.25267028808594,-19.950000762939453,-26.400001525878906,-28.05000114440918
5.049,79.6407241821289,-19.07699966430664,-20.532672882080078,-103.38744354248047,92.72894287109375,196.24961853027344,-19.950000762939453,-26.400001525878906,-28.05000114440918
5.053,75.42693328857422,-21.796812057495117,-19.766529083251953,-116.9770278930664,103.52066802978516,197.848388671875,-20.25,-26.250001907348633,-25.650001525878906
5.059,72.59219360351562,-26.54690933227539,-19.843143463134766,-127.63552856445312,111.11485290527344,193.98468017578125,-20.25,-26.250001907348633,-25.650001525878906
5.069,72.28573608398438,-26.508602142333984,-18.808849334716797,-138.56048583984375,112.71363067626953,191.32005310058594,-19.950000762939453,-27.600000381469727,-25.500001907348633
5.079,75.84831237792969,-27.236438751220703,-15.897499084472656,-150.41806030273438,103.7871322631836,194.38436889648438,-21.0,-26.55000114440918,-23.55000114440918
5.089,78.9511947631836,-27.46628189086914,-13.254301071166992,-160.6768798828125,104.18682861328125,175.9984588623047,-21.0,-26.55000114440918,-23.55000114440918
5.109,80.2536392211914,-26.508602142333984,-10.84094524383545,-157.4793243408203,98.59111785888672,177.86370849609375,-21.30000114440918,-26.55000114440918,-25.650001525878906
5.112,80.98147583007812,-23.980323791503906,-10.72602367401123,-155.88055419921875,90.86370086669922,181.19448852539062,-20.700000762939453,-25.650001525878906,-25.200000762939453
5.119,80.52178955078125,-25.244462966918945,-11.60708999633789,-157.21286010742188,92.06278228759766,173.86676025390625,-20.700000762939453,-25.650001525878906,-25.200000762939453
5.129,80.67501831054688,-24.478317260742188,-12.832921028137207,-169.8698272705078,99.3905029296875,172.80091857910156,-21.75,-27.450000762939453,-24.900001525878906
5.139,81.441162109375,-24.708162307739258,-13.560758590698242,-177.33078002929688,90.73047637939453,175.865234375,-21.75,-27.450000762939453,-24.900001525878906
5.149,81.01978302001953,-23.82709503173828,-14.058752059936523,-188.92189025878906,93.12863159179688,178.79632568359375,-21.30000114440918,-26.55000114440918,-23.850000381469727
5.169,80.48348236083984,-23.02264404296875,-13.982137680053711,-218.49923706054688,102.05513000488281,175.33230590820312,-20.700000762939453,-26.100000381469727,-24.750001907348633
5.172,79.67903137207031,-21.490354537963867,-11.91354751586914,-244.4793243408203,101.12251281738281,192.7855987548828,-22.80000114440918,-23.850000381469727,-22.80000114440918
5.179,80.06210327148438,-19.153614044189453,-10.72602367401123,-251.4073486328125,97.7917251586914,187.85604858398438,-22.80000114440918,-23.850000381469727,-22.80000114440918
5.189,79.6407241821289,-13.10107135772705,-9.730035781860352,-262.4655456542969,91.66309356689453,196.24961853027344,-22.80000114440918,-23.850000381469727,-22.80000114440918
5.199,77.41890716552734,-7.1251444816589355,-8.465897560119629,-266.3292541503906,85.93415069580078,195.45022583007812,-22.650001525878906,-25.200000762939453,-22.200000762939453
5.209,74.6607894897461,-3.5625722408294678,-9.653421401977539,-255.67074584960938,76.07503509521484,212.63705444335938,-23.700000762939453,-26.400001525878906,-22.5
5.229,70.48529815673828,0.038307227194309235,-7.201758861541748,-238.48391723632812,57.289432525634766,214.90199279785156,-22.5,-24.30000114440918,-22.350000381469727
5.233,66.5013427734375,3.8307228088378906,-9.998186111450195,-217.1669158935547,70.07962799072266,224.62786865234375,-24.150001525878906,-23.700000762939453,-22.200000762939453
5.239,59.950809478759766,9.423578262329102,-9.53849983215332,-196.78253173828125,66.882080078125,234.62020874023438,-24.150001525878906,-23.700000762939453,-22.200000762939453
5.249,57.0777702331543,8.96389102935791,-8.35097599029541,-147.22052001953125,52.493106842041016,246.74424743652344,-20.700000762939453,-25.200000762939453,-20.700000762939453
5.259,54.472877502441406,9.232041358947754,-8.427590370178223,-112.84685516357422,50.09494400024414,251.14088439941406,-22.80000114440918,-25.500001907348633,-21.600000381469727
5.269,52.55751419067383,8.274360656738281,-7.7763671875,-85.4012222290039,52.3598747253418,248.87594604492188,-23.25,-26.250001907348633,-22.5
5.289,50.5655403137207,5.669469833374023,-7.163451671600342,-53.69218826293945,31.575803756713867,255.53750610351562,-23.25,-26.250001907348633,-21.30000114440918
5.292,49.79939651489258,-1.8387469053268433,-7.010222434997559,-44.76569747924805,29.177640914916992,242.08116149902344,-21.30000114440918,-26.250001907348633,-22.05000114440918
5.299,50.757076263427734,-5.2480902671813965,-3.7924153804779053,-51.29402542114258,37.70444107055664,231.68911743164062,-23.55000114440918,-27.450000762939453,-22.05000114440918
5.309,50.60384750366211,-5.056553840637207,-3.141192674636841,-55.69065856933594,33.17457962036133,227.6921844482422,-21.450000762939453,-26.400001525878906,-20.400001525878906
5.319,49.18648147583008,-8.427590370178223,-1.5705963373184204,-61.01990509033203,20.650842666625977,216.2342987060547,-22.05000114440918,-27.450000762939453,-21.30000114440918
5.329,48.42033386230469,-11.798625946044922,-2.873042106628418,-83.00305938720703,22.249616622924805,220.76416015625,-22.05000114440918,-27.450000762939453,-21.30000114440918
5.349,48.42033386230469,-13.713987350463867,-2.183511972427368,-107.3843765258789,22.51607894897461,210.63858032226562,-22.650001525878906,-26.850000381469727,-21.450000762939453
5.352,49.3014030456543,-15.093047142028809,-4.022258758544922,-132.16539001464844,18.91883659362793,203.44410705566406,-21.30000114440918,-30.150001525878906,-20.100000381469727
5.359,51.867984771728516,-17.238252639770508,-3.6391866207122803,-138.96017456054688,14.522205352783203,201.31239318847656,-21.900001525878906,-28.80000114440918,-21.150001525878906
5.369,54.54949188232422,-19.268535614013672,-3.1028854846954346,-178.92955017089844,16.920366287231445,180.5283203125,-21.450000762939453,-30.600000381469727,-21.150001525878906
5.379,56.541465759277344,-19.68991470336914,-5.094861030578613,-192.65237426757812,6.261868000030518,170.93568420410156,-21.450000762939453,-30.600000381469727,-21.150001525878906
5.389,59.29958724975586,-17.966089248657227,-8.734047889709473,-206.37518310546875,14.655436515808105,172.134765625,-21.900001525878906,-28.80000114440918,-21.450000762939453
5.409,61.138336181640625,-16.931795120239258,-13.10107135772705,-215.3016815185547,33.4410400390625,153.0826873779297,-21.75,-29.700000762939453,-22.350000381469727
5.413,59.950809478759766,-12.679692268371582,-16.625335693359375,-183.1929473876953,38.10413360595703,138.42726135253906,-21.150001525878906,-30.600000381469727,-22.5
5.419,61.36817932128906,-11.72201156616211,-18.157625198364258,-163.6079559326172,46.764163970947266,118.44257354736328,-21.75,-29.250001907348633,-20.850000381469727
5.429,62.364166259765625,-13.292608261108398,-19.000385284423828,-144.82235717773438,39.9693717956543,107.25114440917969,-21.75,-29.250001907348633,-20.850000381469727
5.439,68.41670989990234,-11.568782806396484,-12.871228218078613,-123.37212371826172,43.30015182495117,94.9938735961914,-20.400001525878906,-29.100000381469727,-22.950000762939453
5.449,73.20510864257812,-11.41555404663086,-12.02846908569336,-100.85604858398438,44.76569747924805,89.13169860839844,-19.80000114440918,-28.950000762939453,-22.80000114440918
5.469,78.26166534423828,-14.211980819702148,-15.935806274414062,-72.74425506591797,32.108726501464844,76.07503509521484,-22.200000762939453,-27.900001525878906,-21.450000762939453
5.473,81.70931243896484,-19.613300323486328,-16.931795120239258,-60.22052001953125,40.76875686645508,51.4272575378418,-19.950000762939453,-28.350000381469727,-23.25
5.479,84.69728088378906,-29.22841453552246,-22.448034286499023,-62.618682861328125,51.960182189941406,41.967838287353516,-19.950000762939453,-28.350000381469727,-23.25
5.489,86.1529541015625,-31.41192626953125,-25.321077346801758,-68.61408996582031,47.9632453918457,27.578866958618164,-20.700000762939453,-29.100000381469727,-21.450000762939453
5.499,88.75784301757812,-31.450233459472656,-25.89568519592285,-83.40275573730469,66.34915924072266,-0.7993874549865723,-20.55000114440918,-29.250001907348633,-22.80000114440918
5.509,91.5159683227539,-28.040889739990234,-23.9420166015625,-78.60643005371094,61.81929397583008,-5.595712184906006,-22.05000114440918,-28.200000762939453,-22.05000114440918
5.529,91.86073303222656,-22.562957763671875,-23.903709411621094,-69.67993927001953,62.75191116333008,-11.191424369812012,-20.700000762939453,-29.100000381469727,-22.5
5.532,94.00593566894531,-18.157625198364258,-24.9763126373291,-26.513015747070312,60.62021255493164,-31.842266082763672,-20.700000762939453,-29.100000381469727,-22.5
5.539,94.46562194824219,-10.879252433776855,-25.28277015686035,4.663093090057373,50.36140823364258,-32.108726501464844,-21.150001525878906,-28.350000381469727,-22.200000762939453
5.549,96.91728210449219,-9.308655738830566,-23.3291015625,49.29555892944336,54.4915771484375,-41.30168533325195,-20.25,-29.700000762939453,-20.850000381469727
5.559,99.2157211303711,-11.836933135986328,-21.56696891784668,103.52066802978516,51.82695007324219,-51.693721771240234,-21.0,-28.950000762939453,-22.350000381469727
5.569,102.43352508544922,-16.625335693359375,-19.613300323486328,159.74424743652344,41.83460998535156,-55.69065856933594,-21.30000114440918,-29.250001907348633,-21.30000114440918
5.589,106.49409484863281,-23.13756561279297,-15.782577514648438,188.2557373046875,40.502296447753906,-86.60030364990234,-21.30000114440918,-29.250001907348633,-21.30000114440918
5.592,108.02638244628906,-30.14778709411621,-12.832921028137207,223.69525146484375,26.246553421020508,-104.85298156738281,-18.450000762939453,-29.100000381469727,-21.450000762939453
5.599,110.24819946289062,-37.694313049316406,-11.492168426513672,227.6921844482422,24.64777946472168,-118.70903015136719,-19.80000114440918,-30.150001525878906,-19.5
5.609,108.63929748535156,-41.10365295410156,-9.53849983215332,227.29249572753906,22.649311065673828,-152.949462890625,-21.30000114440918,-29.700000762939453,-19.05000114440918
5.619,108.02638244628906,-46.198516845703125,-6.665457725524902,225.56048583984375,16.12097930908203,-161.2097930908203,-21.30000114440918,-30.900001525878906,-17.55000114440918
5.629,105.22994995117188,-46.23682403564453,-5.286397457122803,216.50076293945312,8.660030364990234,-186.65696716308594,-21.30000114440918,-30.900001525878906,-17.55000114440918
5.649,102.05045318603516,-44.89606857299805,-2.7964274883270264,226.2266387939453,-16.78713607788086,-178.39662170410156,-23.400001525878906,-33.0,-17.700000762939453
5.653,97.53019714355469,-40.91211700439453,1.1875240802764893,215.7013702392578,-34.906585693359375,-204.50994873046875,-21.75,-31.200000762939453,-18.75
5.659,89.40906524658203,-36.66001510620117,3.9839515686035156,208.64012145996094,-46.231239318847656,-201.31239318847656,-22.650001525878906,-33.75,-17.100000381469727
5.67,83.85452270507812,-33.59543991088867,5.2480902671813965,209.03981018066406,-55.02450180053711,-184.92495727539062,-23.400001525878906,-32.25,-17.100000381469727
5.679,79.18103790283203,-28.500577926635742,6.3973069190979,210.77182006835938,-75.67534637451172,-206.1087188720703,-23.400001525878906,-32.25,-17.100000381469727
5.689,76.99752807617188,-25.742456436157227,7.4316020011901855,209.83920288085938,-75.67534637451172,-194.51760864257812,-23.55000114440918,-32.85000228881836,-17.25
5.709,77.763671875,-22.026655197143555,6.971915245056152,225.69371032714844,-87.39968872070312,-188.92189025878906,-24.30000114440918,-33.150001525878906,-14.250000953674316
5.712,80.56009674072266,-19.038692474365234,7.010222434997559,245.81163024902344,-90.73047637939453,-215.96783447265625,-24.150001525878906,-32.25,-14.850000381469727
5.719,86.68925476074219,-18.23423957824707,7.546523571014404,241.68145751953125,-86.73353576660156,-235.0198974609375,-24.0,-33.900001525878906,-13.950000762939453
5.729,90.55828857421875,-18.693927764892578,7.4316020011901855,253.53904724121094,-97.92495727539062,-245.9448699951172,-24.0,-33.900001525878906,-13.950000762939453
5.739,93.12487030029297,-18.23423957824707,9.385271072387695,256.0704345703125,-107.78407287597656,-245.9448699951172,-25.80000114440918,-31.650001525878906,-13.950000762939453
5.749,95.76806640625,-19.306842803955078,8.236053466796875,247.41041564941406,-118.30934143066406,-252.73965454101562,-25.950000762939453,-31.05000114440918,-13.050000190734863
5.769,96.9555892944336,-21.911733627319336,6.320692539215088,222.36293029785156,-113.91270446777344,-264.3307800292969,-27.000001907348633,-32.85000228881836,-13.500000953674316
5.772,93.73778533935547,-22.141576766967773,5.439626216888428,200.646240234375,-121.90658569335938,-263.7978515625,-27.30000114440918,-32.400001525878906,-12.0
5.779,89.67721557617188,-22.7161865234375,3.485957622528076,189.45481872558594,-127.76875305175781,-255.0045928955078,-27.30000114440918,-32.400001525878906,-12.0
5.789,88.48969268798828,-21.911733627319336,1.1875240802764893,161.34303283691406,-121.3736572265625,-274.5895690917969,-25.950000762939453,-30.600000381469727,-12.300000190734863
5.799,85.34850311279297,-21.337125778198242,-0.8427590131759644,138.02755737304688,-124.57120513916016,-286.4471740722656,-28.500001907348633,-30.150001525878906,-12.450000762939453
5.809,82.5137710571289,-17.31486701965332,-0.4213795065879822,124.8376693725586,-136.0290985107422,-279.252685546875,-27.450000762939453,-30.30000114440918,-13.350000381469727
5.829,80.1770248413086,-13.254301071166992,-0.9576807022094727,102.98774719238281,-133.6309356689453,-273.7901916503906,-29.400001525878906,-28.350000381469727,-12.600000381469727
5.832,75.81000518798828,-8.887276649475098,-0.727837324142456,88.19908142089844,-135.76263427734375,-264.73046875,-29.400001525878906,-28.350000381469727,-12.600000381469727
5.839,73.54987335205078,-1.9536685943603516,-0.8044517636299133,75.14241790771484,-133.76416015625,-262.5987548828125,-30.750001907348633,-26.55000114440918,-13.200000762939453
5.849,69.87238311767578,1.2641384601593018,-1.4939818382263184,76.74119567871094,-137.22817993164062,-238.48391723632812,-28.80000114440918,-28.500001907348633,-12.450000762939453
5.859,64.43275451660156,4.443638324737549,-6.665457725524902,72.47779083251953,-118.97549438476562,-234.4869842529297,-33.0,-27.000001907348633,-14.250000953674316
5.869,58.49513626098633,7.2783732414245605,-11.185709953308105,89.93108367919922,-102.72128295898438,-232.48851013183594,-33.0,-27.000001907348633,-14.250000953674316
5.888,54.396263122558594,8.389283180236816,-10.15141487121582,118.8422622680664,-100.45635223388672,-210.90504455566406,-33.0,-27.000001907348633,-14.250000953674316
5.892,50.83369064331055,8.96389102935791,-10.381258964538574,140.42572021484375,-84.4686050415039,-215.56814575195312,-31.80000114440918,-25.05000114440918,-15.450000762939453
5.899,47.96064758300781,8.312667846679688,-8.274360656738281,161.7427215576172,-80.73812866210938,-211.1715087890625,-30.150001525878906,-25.200000762939453,-14.40000057220459
5.909,47.117889404296875,6.665457725524902,-5.439626216888428,182.6600341796875,-95.66002655029297,-209.4394989013672,-31.200000762939453,-24.150001525878906,-15.15000057220459
5.919,47.2711181640625,4.6734819412231445,-1.7621324062347412,179.32923889160156,-112.04747009277344,-193.7182159423828,-31.200000762939453,-24.150001525878906,-15.15000057220459
5.929,48.956634521484375,0.9959878921508789,0.6129156351089478,164.67381286621094,-122.57273864746094,-207.4410400390625,-31.200000762939453,-24.150001525878906,-15.15000057220459
5.949,48.458641052246094,-2.183511972427368,1.5705963373184204,137.76109313964844,-128.03521728515625,-198.11485290527344,-32.55000305175781,-21.900001525878906,-15.000000953674316
5.953,47.76911163330078,-5.899312973022461,2.3750481605529785,116.31086730957031,-154.28176879882812,-188.92189025878906,-32.400001525878906,-21.450000762939453,-14.100000381469727
5.959,48.19049072265625,-6.742072105407715,0.9576807022094727,102.98774719238281,-154.0153045654297,-196.51608276367188,-32.400001525878906,-21.450000762939453,-14.100000381469727
5.969,48.343719482421875,-6.818686485290527,-0.6129156351089478,70.07962799072266,-148.28636169433594,-197.848388671875,-32.400001525878906,-21.450000762939453,-14.100000381469727
5.979,48.07556915283203,-5.70777702331543,-1.647210717201233,42.500762939453125,-150.151611328125,-207.0413360595703,-32.400001525878906,-21.450000762939453,-14.100000381469727
5.989,49.224788665771484,-3.869029998779297,-4.941632270812988,29.177640914916992,-147.0872802734375,-190.25421142578125,-33.0,-19.650001525878906,-16.05000114440918
6.009,51.1401481628418,-0.727837324142456,-7.814674377441406,-4.263399600982666,-132.9647674560547,-209.3062744140625,-33.75,-20.100000381469727,-15.750000953674316
6.012,53.74504089355469,2.6815059185028076,-10.266336441040039,-18.119447708129883,-117.9096450805664,-195.050537109375,-32.25,-18.150001525878906,-14.250000953674316
6.019,57.57576370239258,7.163451671600342,-8.619126319885254,-17.32006072998047,-124.03828430175781,-178.39662170410156,-32.25,-18.150001525878906,-14.250000953674316
6.03,60.02742385864258,9.461885452270508,-8.35097599029541,-18.119447708129883,-126.43644714355469,-182.92648315429688,-34.650001525878906,-17.55000114440918,-16.650001525878906
6.039,62.249244689941406,14.633360862731934,-7.891288757324219,-15.188361167907715,-125.90351867675781,-161.87594604492188,-31.200000762939453,-16.350000381469727,-15.90000057220459
6.049,63.436767578125,20.915746688842773,-12.02846908569336,-21.716691970825195,-105.65237426757812,-155.08116149902344,-32.400001525878906,-15.90000057220459,-16.650001525878906
6.069,64.77751922607422,23.060951232910156,-17.161638259887695,-27.978559494018555,-86.3338394165039,-127.36906433105469,-32.400001525878906,-15.600000381469727,-15.90000057220459
6.073,67.72718048095703,26.393678665161133,-21.75850486755371,-26.379785537719727,-55.15773391723633,-111.91423797607422,-30.750001907348633,-15.450000762939453,-17.25
6.079,70.33206939697266,28.347347259521484,-24.05693817138672,-24.248085021972656,-36.10566711425781,-94.46094512939453,-30.750001907348633,-15.450000762939453,-17.25
6.089,72.09420013427734,29.15180015563965,-26.087221145629883,7.194486618041992,-19.45176124572754,-67.814697265625,-31.500001907348633,-13.800000190734863,-16.80000114440918
6.099,74.7374038696289,30.79901123046875,-28.8453426361084,20.517610549926758,11.058192253112793,-59.287899017333984,-31.80000114440918,-13.800000190734863,-16.5
6.109,76.00154113769531,33.82528305053711,-31.22039031982422,43.96630859375,29.84379768371582,-32.24195861816406,-31.950000762939453,-12.90000057220459,-16.350000381469727
6.129,79.14273071289062,35.54910659790039,-29.688100814819336,60.35375213623047,38.63705825805664,-9.059723854064941,-31.950000762939453,-12.90000057220459,-16.350000381469727
6.132,80.8282470703125,35.89387130737305,-24.746469497680664,81.8039779663086,27.578866958618164,19.98468589782715,-30.150001525878906,-12.450000762939453,-15.15000057220459
6.139,83.20330047607422,29.611486434936523,-24.89969825744629,82.86982727050781,34.50688934326172,45.96477508544922,-30.150001525878906,-12.450000762939453,-15.15000057220459
6.149,83.54806518554688,25.780763626098633,-26.31706428527832,60.75344467163086,53.69218826293945,59.4211311340332,-31.80000114440918,-12.750000953674316,-15.750000953674316
6.159,84.8888168334961,20.83913230895996,-29.496564865112305,32.77488327026367,70.87902069091797,85.4012222290039,-31.500001907348633,-13.500000953674316,-15.450000762939453
6.169,86.8041763305664,21.183897018432617,-31.948226928710938,0.5329249501228333,76.34149932861328,122.83920288085938,-31.500001907348633,-13.500000953674316,-15.450000762939453
6.188,92.55026245117188,22.06496238708496,-25.780763626098633,-32.64165496826172,86.86676788330078,140.42572021484375,-30.750001907348633,-14.250000953674316,-13.500000953674316
6.192,100.67139434814453,21.605276107788086,-25.129541397094727,-28.911178588867188,77.00765228271484,151.88360595703125,-31.200000762939453,-14.40000057220459,-13.350000381469727
6.199,111.55064392089844,21.183897018432617,-25.780763626098633,-30.37672233581543,85.26799011230469,159.21133422851562,-31.200000762939453,-14.40000057220459,-13.350000381469727
6.209,115.22814178466797,20.532672882080078,-25.81907081604004,-40.102603912353516,88.865234375,180.79478454589844,-32.25,-13.800000190734863,-12.450000762939453
6.219,116.0708999633789,20.609289169311523,-27.46628189086914,-39.9693717956543,101.12251281738281,192.51913452148438,-32.25,-13.800000190734863,-12.450000762939453
6.229,113.31277465820312,15.169661521911621,-28.309040069580078,-30.90964698791504,112.84685516357422,207.97396850585938,-30.900001525878906,-15.15000057220459,-13.350000381469727
6.249,110.7461929321289,8.925583839416504,-29.266721725463867,-28.77794647216797,126.16998291015625,218.23277282714844,-31.500001907348633,-15.750000953674316,-12.450000762939453
6.252,107.71992492675781,-0.07661445438861847,-28.347347259521484,-21.050535202026367,129.2342987060547,209.83920288085938,-32.55000305175781,-16.200000762939453,-11.700000762939453
6.259,104.61703491210938,-11.683704376220703,-16.089035034179688,-33.4410400390625,129.2342987060547,203.44410705566406,-32.55000305175781,-16.200000762939453,-11.700000762939453
6.269,104.08073425292969,-16.089035034179688,-10.266336441040039,-44.49923324584961,109.24961853027344,208.90658569335938,-33.30000305175781,-17.700000762939453,-10.950000762939453
6.279,98.14311981201172,-21.835119247436523,-8.465897560119629,-81.27105712890625,89.13169860839844,207.4410400390625,-33.75,-18.150001525878906,-10.65000057220459
6.289,89.94536590576172,-24.210166931152344,-7.661445617675781,-118.17610931396484,87.66615295410156,197.9816131591797,-34.05000305175781,-19.650001525878906,-11.700000762939453
6.309,78.49150848388672,-26.12552833557129,-10.036493301391602,-149.3522186279297,76.60796356201172,197.71514892578125,-33.150001525878906,-19.5,-12.300000190734863
6.313,73.0135726928711,-25.20615577697754,-12.679692268371582,-166.00611877441406,67.41500854492188,214.23582458496094,-33.150001525878906,-19.5,-12.300000190734863
6.319,68.45501708984375,-22.026655197143555,-15.322891235351562,-183.85910034179688,79.80551147460938,212.23736572265625,-35.25,-20.100000381469727,-11.40000057220459
6.329,69.25946807861328,-21.337125778198242,-15.974113464355469,-193.05206298828125,83.66921997070312,211.9709014892578,-34.80000305175781,-21.150001525878906,-11.700000762939453
6.339,71.67282104492188,-21.643583297729492,-14.211980819702148,-185.85757446289062,86.46707153320312,223.4287872314453,-34.650001525878906,-21.0,-13.050000190734863
6.349,72.32404327392578,-22.639572143554688,-12.947842597961426,-191.18682861328125,99.25727081298828,214.90199279785156,-35.70000076293945,-21.450000762939453,-11.100000381469727
6.368,74.7374038696289,-23.02264404296875,-13.139378547668457,-195.71669006347656,117.9096450805664,198.6477813720703,-35.70000076293945,-21.450000762939453,-11.100000381469727
6.372,78.26166534423828,-22.218191146850586,-12.181697845458984,-191.71975708007812,116.84379577636719,210.2388916015625,-36.150001525878906,-22.950000762939453,-10.350000381469727
6.379,85.61665344238281,-22.17988395690918,-12.02846908569336,-201.4456329345703,127.63552856445312,208.10719299316406,-34.650001525878906,-23.25,-10.350000381469727
6.389,89.29414367675781,-21.643583297729492,-12.334927558898926,-212.77027893066406,124.97090148925781,202.9111785888672,-34.20000076293945,-25.650001525878906,-10.800000190734863
6.399,92.35872650146484,-22.639572143554688,-12.258312225341797,-207.70750427246094,107.11791229248047,209.03981018066406,-37.20000076293945,-24.450000762939453,-10.800000190734863
6.409,92.55026245117188,-22.256498336791992,-13.21599292755127,-212.63705444335938,101.78866577148438,203.71055603027344,-37.20000076293945,-24.450000762939453,-10.800000190734863
6.429,91.78411865234375,-23.02264404296875,-14.595053672790527,-231.55589294433594,104.5865249633789,199.18069458007812,-35.55000305175781,-25.80000114440918,-11.700000762939453
6.432,90.21351623535156,-20.83913230895996,-13.254301071166992,-251.80703735351562,89.26493072509766,191.8529815673828,-37.20000076293945,-25.650001525878906,-10.800000190734863
6.439,88.06831359863281,-17.238252639770508,-11.875240325927734,-258.3353576660156,89.26493072509766,206.6416473388672,-36.900001525878906,-26.850000381469727,-11.550000190734863
6.449,86.95740509033203,-11.60708999633789,-9.615114212036133,-269.52679443359375,83.26952362060547,199.18069458007812,-36.150001525878906,-26.850000381469727,-11.850000381469727
6.459,82.20730590820312,-5.631162166595459,-7.546523571014404,-268.4609375,80.07197570800781,191.71975708007812,-36.150001525878906,-26.850000381469727,-11.850000381469727
6.469,76.34630584716797,-0.3064578175544739,-7.163451671600342,-259.5344543457031,71.2787094116211,210.63858032226562,-36.75,-28.200000762939453,-12.750000953674316
6.488,72.28573608398438,6.205770969390869,-7.929595947265625,-227.42572021484375,63.28483963012695,217.69984436035156,-36.900001525878906,-26.850000381469727,-13.350000381469727
6.492,66.30980682373047,11.070788383483887,-7.010222434997559,-191.4532928466797,59.82082748413086,231.02296447753906,-36.150001525878906,-28.350000381469727,-13.65000057220459
6.499,60.52541732788086,11.377246856689453,-8.044517517089844,-164.4073486328125,57.15620040893555,230.3568115234375,-34.95000076293945,-29.55000114440918,-12.600000381469727
6.509,57.38422775268555,12.411541938781738,-9.423578262329102,-128.56814575195312,46.897396087646484,239.949462890625,-34.95000076293945,-29.55000114440918,-12.600000381469727
6.519,54.166419982910156,10.342951774597168,-10.649409294128418,-88.46553802490234,41.568145751953125,232.88819885253906,-36.75,-29.250001907348633,-13.200000762939453
6.529,51.982906341552734,8.159439086914062,-8.96389102935791,-71.54517364501953,40.9019889831543,237.2848358154297,-35.70000076293945,-29.850000381469727,-13.050000190734863
6.549,50.029239654541016,6.090848922729492,-8.772355079650879,-47.696781158447266,39.569679260253906,228.35833740234375,-34.5,-32.85000228881836,-12.750000953674316
6.552,47.922340393066406,2.2218191623687744,-8.197746276855469,-25.980091094970703,30.643184661865234,225.56048583984375,-35.70000076293945,-33.45000076293945,-13.65000057220459
6.559,47.615882873535156,-2.873042106628418,-5.975927352905273,-16.65390396118164,22.382848739624023,228.35833740234375,-35.70000076293945,-33.45000076293945,-13.65000057220459
6.569,46.35174560546875,-3.9839515686035156,-7.201758861541748,-13.323123931884766,26.779478073120117,218.63246154785156,-33.75,-32.85000228881836,-13.200000762939453
6.579,45.31745147705078,-6.090848922729492,-7.010222434997559,-18.78560447692871,34.24042892456055,213.30320739746094,-33.150001525878906,-34.95000076293945,-13.65000057220459
6.589,46.42835998535156,-9.959878921508789,-7.048529624938965,-25.04747200012207,27.045940399169922,215.43490600585938,-33.75,-35.55000305175781,-12.750000953674316
6.609,48.61186981201172,-11.185709953308105,-4.903325080871582,-51.4272575378418,34.373661041259766,190.1209716796875,-34.05000305175781,-35.55000305175781,-13.950000762939453
6.613,49.9526252746582,-15.782577514648438,-5.171475887298584,-71.01225280761719,29.577335357666016,189.85450744628906,-34.05000305175781,-35.55000305175781,-13.950000762939453
6.619,49.99093246459961,-17.468095779418945,-4.865017890930176,-84.4686050415039,29.84379768371582,183.7258758544922,-33.150001525878906,-36.45000076293945,-13.350000381469727
6.629,52.02121353149414,-15.24627685546875,-2.2601263523101807,-102.8545150756836,15.188361167907715,180.79478454589844,-34.20000076293945,-37.20000076293945,-13.050000190734863
6.639,53.63011932373047,-15.361198425292969,-2.6431987285614014,-122.3062744140625,19.584991455078125,160.2771759033203,-33.150001525878906,-37.95000076293945,-13.350000381469727
6.649,57.53745651245117,-13.369222640991211,-1.6855180263519287,-134.5635528564453,12.656967163085938,155.48085021972656,-33.30000305175781,-39.0,-13.500000953674316
6.669,60.985107421875,-12.02846908569336,-1.7621324062347412,-132.0321502685547,3.597243309020996,147.8866729736328,-33.30000305175781,-39.0,-13.500000953674316
6.673,61.329872131347656,-11.91354751586914,-4.252102375030518,-131.0995330810547,9.326186180114746,132.43185424804688,-33.0,-38.55000305175781,-14.700000762939453
6.68,60.563724517822266,-13.675680160522461,-14.480132102966309,-120.70750427246094,31.975496292114258,113.64624786376953,-31.500001907348633,-40.20000076293945,-15.450000762939453
6.689,59.68265914916992,-16.318878173828125,-19.881450653076172,-99.65696716308594,47.297088623046875,109.51607513427734,-31.500001907348633,-39.0,-15.450000762939453
6.699,61.023414611816406,-20.609289169311523,-21.98834800720215,-78.20673370361328,52.89280319213867,84.73506927490234,-30.150001525878906,-39.900001525878906,-14.100000381469727
6.709,66.07996368408203,-21.337125778198242,-21.14558982849121,-79.80551147460938,63.684532165527344,41.83460998535156,-30.150001525878906,-39.900001525878906,-14.100000381469727
6.729,71.97927856445312,-20.264522552490234,-19.421764373779297,-63.81776428222656,64.88361358642578,31.709033966064453,-32.400001525878906,-39.150001525878906,-14.100000381469727
6.732,81.36454772949219,-18.310853958129883,-16.81687355041504,-37.97090148925781,55.69065856933594,23.848390579223633,-32.400001525878906,-40.35000228881836,-12.600000381469727
6.739,86.1529541015625,-13.254301071166992,-15.399505615234375,-23.04900360107422,49.02909469604492,8.926492691040039,-31.05000114440918,-40.5,-14.700000762939453
6.749,88.94937896728516,-9.883264541625977,-14.97812557220459,-3.7304747104644775,43.96630859375,2.6646246910095215,-32.25,-40.95000076293945,-15.750000953674316
6.759,93.43132781982422,-10.304644584655762,-17.583017349243164,13.856048583984375,47.56355285644531,-17.719755172729492,-32.25,-40.95000076293945,-15.750000953674316
6.769,95.92129516601562,-13.599065780639648,-19.68991470336914,34.24042892456055,55.55742645263672,-16.387441635131836,-32.55000305175781,-39.30000305175781,-13.200000762939453
6.788,98.41127014160156,-18.081010818481445,-21.030668258666992,51.693721771240234,58.222049713134766,-38.37059783935547,-33.150001525878906,-41.10000228881836,-13.350000381469727
6.792,100.21170806884766,-21.720197677612305,-20.877439498901367,81.13782501220703,46.497703552246094,-52.626338958740234,-32.55000305175781,-39.75,-12.750000953674316
6.799,105.26825714111328,-22.218191146850586,-17.1999454498291,94.59417724609375,39.569679260253906,-62.085758209228516,-34.80000305175781,-41.70000076293945,-12.750000953674316
6.809,107.41346740722656,-22.333112716674805,-14.595053672790527,105.65237426757812,36.10566711425781,-78.20673370361328,-34.80000305175781,-41.70000076293945,-12.750000953674316
6.819,107.29854583740234,-22.754493713378906,-12.411541938781738,138.16079711914062,34.10719680786133,-80.8713607788086,-33.75,-39.30000305175781,-11.700000762939453
6.829,105.91948699951172,-24.018630981445312,-14.09705924987793,179.0627899169922,29.577335357666016,-100.58958435058594,-34.650001525878906,-40.650001525878906,-10.350000381469727
6.849,103.69766235351562,-26.738445281982422,-13.024456977844238,209.70596313476562,33.57427215576172,-114.57886505126953,-35.400001525878906,-39.60000228881836,-11.850000381469727
6.853,104.8085708618164,-28.73042106628418,-12.90953540802002,242.48085021972656,42.23430252075195,-158.545166015625,-37.05000305175781,-40.95000076293945,-8.700000762939453
6.859,108.79252624511719,-31.10546875,-5.899312973022461,263.2649230957031,42.36753463745117,-161.07656860351562,-37.05000305175781,-40.95000076293945,-8.700000762939453
6.869,112.5083236694336,-33.05913543701172,-1.9919757843017578,279.252685546875,24.51454734802246,-174.53292846679688,-37.80000305175781,-39.75,-7.650000095367432
6.879,116.14751434326172,-33.13574981689453,4.596867084503174,284.71514892578125,8.660030364990234,-188.1225128173828,-38.25,-40.20000076293945,-8.40000057220459
6.889,116.0325927734375,-32.9442138671875,9.002198219299316,280.98468017578125,-12.523736000061035,-203.3108673095703,-37.95000076293945,-38.85000228881836,-9.75
6.909,110.6695785522461,-32.02484130859375,10.572794914245605,286.58038330078125,-31.042879104614258,-196.38284301757812,-40.05000305175781,-39.0,-9.15000057220459
6.913,103.96581268310547,-30.530860900878906,10.72602367401123,274.7228088378906,-43.16691970825195,-204.11026000976562,-39.45000076293945,-37.20000076293945,-7.500000476837158
6.919,93.23979187011719,-29.266721725463867,11.72201156616211,275.9219055175781,-56.09035110473633,-205.04287719726562,-39.45000076293945,-37.20000076293945,-7.500000476837158
6.929,87.07232666015625,-27.734432220458984,13.330915451049805,280.185302734375,-66.08269500732422,-206.5084228515625,-39.30000305175781,-36.60000228881836,-6.600000381469727
6.939,81.74761962890625,-24.89969825744629,13.752294540405273,283.78253173828125,-80.47166442871094,-206.1087188720703,-39.900001525878906,-36.45000076293945,-8.550000190734863
6.949,78.49150848388672,-21.911733627319336,16.05072784423828,287.3797912597656,-90.19754791259766,-202.9111785888672,-40.650001525878906,-35.70000076293945,-7.500000476837158
6.969,79.25765228271484,-20.072986602783203,18.464082717895508,296.5727233886719,-88.99846649169922,-224.76109313964844,-40.650001525878906,-35.70000076293945,-7.500000476837158
