time,accel_x,accel_y,accel_z,gyro_x,gyro_y,gyro_z,mag_x,mag_y,mag_z
0.0,0.5335994362831116,-9.049654960632324,-3.7459635734558105,-0.10293079167604446,-0.19303342700004578,0.07147122919559479,-42.76527404785156,41.099090576171875,-22.420345306396484
0.009,0.41994035243988037,-8.809176445007324,-4.003191947937012,-0.0887281745672226,-0.13240504264831543,0.06704245507717133,-42.502193450927734,40.879859924316406,-22.434959411621094
0.019,0.4091726541519165,-8.365307807922363,-4.1730828285217285,-0.022449297830462456,-0.08261951804161072,0.08567384630441666,-42.53142547607422,40.70447540283203,-21.967260360717773
0.039,-0.02751745842397213,-8.566305160522461,-3.909872055053711,0.04566217586398125,0.0013744467869400978,0.056810468435287476,-42.706809997558594,40.83601379394531,-21.20724868774414
0.042,0.5479563474655151,-9.121438980102539,-3.645465135574341,0.13225232064723969,0.18020524084568024,0.019853120669722557,-42.882198333740234,41.11370849609375,-21.455713272094727
0.05,0.7597211599349976,-9.559326171875,-3.180061101913452,0.11392636597156525,0.21013763546943665,0.012522736564278603,-42.692195892333984,41.47909927368164,-21.908798217773438
0.06,0.8219345808029175,-9.638289451599121,-3.418147087097168,0.06230825185775757,0.24266621470451355,0.015882495790719986,-42.619117736816406,40.952938079833984,-21.952646255493164
0.07,0.9762716293334961,-9.650253295898438,-3.1645078659057617,-0.005192354787141085,0.1823432743549347,-0.04520402476191521,-42.76527404785156,40.80678176879883,-21.4703311920166
0.08,1.4895319938659668,-9.378667831420898,-3.607180118560791,-0.0907134935259819,0.11163561791181564,-0.06841690838336945,-42.896812438964844,40.9237060546875,-21.528793334960938
0.099,1.0085747241973877,-9.422935485839844,-3.4504499435424805,-0.1537853181362152,0.019547687843441963,-0.08200865983963013,-42.443729400634766,40.82139587402344,-21.718795776367188
0.103,0.9463613033294678,-9.09272575378418,-3.810570001602173,-0.17623461782932281,-0.001527163083665073,-0.12034045159816742,-43.072200775146484,40.73370361328125,-21.733409881591797
0.11,0.727418065071106,-8.872586250305176,-3.816551923751831,-0.15332716703414917,-0.005345070734620094,-0.09224064648151398,-42.75065612792969,40.6021614074707,-21.411867141723633
0.12,0.12681959569454193,-8.48016357421875,-3.9828531742095947,-0.10506881773471832,0.051770828664302826,-0.09056076407432556,-42.64834976196289,40.6021614074707,-21.748027801513672
0.13,0.44267216324806213,-8.447859764099121,-3.9290146827697754,-0.01618792861700058,0.1336267739534378,-0.12079859524965286,-42.999122619628906,40.309852600097656,-22.011106491088867
0.14,0.7728817462921143,-8.708678245544434,-3.73758864402771,0.0731511116027832,0.1875356286764145,-0.09926559776067734,-43.13066482543945,40.762935638427734,-21.718795776367188
0.159,0.906879723072052,-8.95992374420166,-3.61435866355896,0.1137736514210701,0.16768251359462738,-0.10155634582042694,-43.23297119140625,40.70447540283203,-21.64571762084961
0.163,1.1234301328659058,-9.111868858337402,-3.418147087097168,0.13255774974822998,0.12263119220733643,-0.1160643994808197,-43.247589111328125,40.73370361328125,-21.66033363342285
0.17,1.2837493419647217,-9.266205787658691,-3.267399311065674,0.11911872029304504,0.06551529467105865,-0.13668109476566315,-43.3206672668457,40.879859924316406,-21.28032684326172
0.18,1.3148560523986816,-9.316454887390137,-3.263810157775879,0.06811147183179855,-0.031612277030944824,-0.1716531366109848,-43.27682113647461,40.2221565246582,-22.288803100585938
0.19,1.234696388244629,-9.382257461547852,-3.218346357345581,0.008399397134780884,-0.12110403180122375,-0.15577064454555511,-43.466819763183594,40.777549743652344,-21.689563751220703
0.2,0.8279166221618652,-9.358328819274902,-3.4085757732391357,-0.041233401745557785,-0.16310101747512817,-0.152105450630188,-43.30604934692383,40.44139099121094,-21.616485595703125
0.219,0.5407779216766357,-9.09272575378418,-3.634697675704956,-0.08429940044879913,-0.18555031716823578,-0.156686931848526,-43.34989929199219,40.47062301635742,-22.128032684326172
0.223,0.4091726541519165,-8.788837432861328,-3.610769271850586,-0.08139779418706894,-0.14065171778202057,-0.17150041460990906,-43.7006721496582,40.543701171875,-22.142648696899414
0.23,0.4905286133289337,-8.845067977905273,-3.5736804008483887,-0.0757472887635231,-0.1160643994808197,-0.16279558837413788,-43.29143524169922,40.6021614074707,-21.28032684326172
0.24,0.22013966739177704,-8.927620887756348,-3.751945734024048,-0.054825153201818466,-0.007788531482219696,-0.12538009881973267,-43.247589111328125,40.47062301635742,-20.62262535095215
0.25,0.32183465361595154,-8.574679374694824,-3.9804604053497314,0.0012217304902151227,0.08628471195697784,-0.11453723162412643,-43.437591552734375,40.572933197021484,-21.075708389282227
0.26,0.45942193269729614,-8.468198776245117,-3.783052444458008,0.06536258012056351,0.14523321390151978,-0.09941831976175308,-43.61297607421875,40.207542419433594,-21.19263458251953
0.279,0.4666004180908203,-8.665606498718262,-3.5186455249786377,0.1212567538022995,0.17592918872833252,-0.09804386645555496,-43.55451583862305,40.002925872802734,-21.57263946533203
0.283,0.7369893193244934,-9.262616157531738,-3.2817561626434326,0.1319468915462494,0.2079996019601822,-0.10201448947191238,-43.7445182800293,40.2660026550293,-21.26571273803711
0.29,0.9655039310455322,-9.425328254699707,-3.235095977783203,0.09926559776067734,0.18035796284675598,-0.11331550031900406,-43.61297607421875,40.309852600097656,-21.28032684326172
0.3,1.2741780281066895,-9.488738059997559,-3.321237564086914,0.04138611629605293,0.08735372871160507,-0.11285734921693802,-43.89067459106445,39.98830795288086,-22.025724411010742
0.31,1.0923235416412354,-9.395418167114258,-3.373879909515381,-0.02535090781748295,-0.012064589187502861,-0.12736541032791138,-43.876060485839844,40.17831039428711,-21.441099166870117
0.32,0.9224331378936768,-9.248259544372559,-3.528217077255249,-0.09819658100605011,-0.09911288321018219,-0.16982053220272064,-44.10990905761719,40.339080810546875,-21.221864700317383
0.339,0.8003991842269897,-9.1716890335083,-3.671786069869995,-0.16081027686595917,-0.14523321390151978,-0.2018909603357315,-43.56913375854492,40.10523223876953,-21.10494041442871
0.342,0.5024927258491516,-8.999405860900879,-3.7782669067382812,-0.16050483286380768,-0.11911872029304504,-0.2041817009449005,-44.48991394042969,40.29523468017578,-21.19263458251953
0.35,0.4019941985607147,-8.935996055603027,-3.8285160064697266,-0.15103644132614136,-0.06948591768741608,-0.20922134816646576,-43.7006721496582,39.8859977722168,-21.10494041442871
0.36,0.48693937063217163,-8.9850492477417,-3.920639753341675,-0.13484850525856018,-0.003817907767370343,-0.20433442294597626,-43.93452072143555,40.38292694091797,-21.20724868774414
0.37,0.6005984544754028,-8.72782039642334,-3.9768712520599365,-0.08643742650747299,0.036041051149368286,-0.19486600160598755,-44.13914108276367,40.19292449951172,-20.62262535095215
0.38,0.5204389095306396,-8.569893836975098,-3.8524441719055176,-0.02382374368607998,0.07635815441608429,-0.17821994423866272,-44.38760757446289,39.900611877441406,-20.92955207824707
0.399,0.4785645008087158,-8.772088050842285,-3.6885359287261963,0.02977968007326126,0.12858712673187256,-0.17348572611808777,-44.3437614440918,40.03215408325195,-21.353404998779297
0.403,0.680757999420166,-8.95274543762207,-3.678964614868164,0.07391469925642014,0.16829337179660797,-0.17623461782932281,-44.79684066772461,39.959075927734375,-21.324174880981445
0.41,0.8578268885612488,-8.993423461914062,-3.5605199337005615,0.10231993347406387,0.14752395451068878,-0.18341228365898132,-44.79684066772461,40.2221565246582,-20.578777313232422
0.42,0.9930213689804077,-9.275776863098145,-3.4169507026672363,0.10506881773471832,0.1333213448524475,-0.18066339194774628,-44.69453430175781,39.35983657836914,-21.689563751220703
0.43,1.2418749332427979,-9.501898765563965,-3.5676984786987305,0.07788532227277756,0.10277807712554932,-0.1592831164598465,-45.35223388671875,40.002925872802734,-21.777257919311523
0.44,1.4488540887832642,-9.492326736450195,-3.6921253204345703,0.0529925599694252,0.04138611629605293,-0.13698652386665344,-44.606842041015625,39.900611877441406,-21.967260360717773
0.459,1.3674980401992798,-9.163313865661621,-3.7316067218780518,-0.023365594446659088,-0.15012012422084808,-0.10903944075107574,-44.65068435668945,39.374454498291016,-22.054954528808594
0.462,1.310070276260376,-9.059226036071777,-3.7746775150299072,-0.02672535367310047,-0.1976149082183838,-0.11071932315826416,-44.31452941894531,40.06138610839844,-22.318035125732422
0.47,1.0516455173492432,-8.973084449768066,-3.7184462547302246,-0.024892758578062057,-0.23839014768600464,-0.09758572280406952,-44.811458587646484,39.98830795288086,-21.601871490478516
0.48,0.6496513485908508,-8.815157890319824,-3.785445213317871,-0.008704829961061478,-0.23609942197799683,-0.07238753139972687,-44.7822265625,39.35983657836914,-21.411867141723633
0.49,0.3696911036968231,-8.742177963256836,-3.765106201171875,0.031612277030944824,-0.19120082259178162,-0.0656680166721344,-44.70914840698242,39.85676574707031,-21.894182205200195
0.5,0.44745784997940063,-8.901299476623535,-3.5509486198425293,0.07360926270484924,-0.12034045159816742,-0.06123923882842064,-44.29991149902344,40.002925872802734,-21.8503360748291
0.518,0.6089733242988586,-9.31765079498291,-3.451646566390991,0.06811147183179855,-0.06719517707824707,-0.04138611629605293,-44.431453704833984,39.783687591552734,-21.66033363342285
0.521,0.6640082597732544,-9.251848220825195,-3.497110366821289,0.0630718320608139,-0.05574145168066025,-0.04596760869026184,-44.86991882324219,39.959075927734375,-20.856473922729492
0.53,0.7716853022575378,-9.232706069946289,-3.542573928833008,0.05375614017248154,-0.04108068719506264,-0.048258356750011444,-44.10990905761719,40.29523468017578,-21.236480712890625
0.54,1.0001999139785767,-9.261420249938965,-3.616751194000244,0.04718933627009392,-0.04505131021142006,-0.05619960278272629,-44.27068328857422,39.65214920043945,-22.1718807220459
0.55,0.873380184173584,-9.263812065124512,-3.7435710430145264,0.012522736564278603,-0.08979719132184982,-0.04092797264456749,-44.621456146240234,39.81291961669922,-20.91493797302246
0.56,0.4809573292732239,-8.717052459716797,-3.9385857582092285,0.030543262138962746,-0.08017606288194656,-0.0529925599694252,-44.621456146240234,39.929847717285156,-21.864952087402344
0.579,0.5515456199645996,-8.864211082458496,-3.638286828994751,0.10644327104091644,-0.024434609338641167,-0.06887505203485489,-44.562992095947266,40.134464263916016,-21.952646255493164
0.583,0.5946164131164551,-8.998208999633789,-3.5844480991363525,0.10903944075107574,-0.022449297830462456,-0.06948591768741608,-44.606842041015625,39.959075927734375,-21.4703311920166
0.59,0.5838487148284912,-9.30927562713623,-3.5126636028289795,0.1007927656173706,-0.01618792861700058,-0.06872233748435974,-44.28529739379883,39.98830795288086,-20.885705947875977
0.6,0.5204389095306396,-9.081957817077637,-3.6263227462768555,0.08979719132184982,-0.01878410577774048,-0.058337628841400146,-44.50453186035156,39.783687591552734,-21.163402557373047
0.61,0.4462614059448242,-8.973084449768066,-3.4265217781066895,0.09773843735456467,-0.016340645030140877,-0.06001751124858856,-45.366851806640625,40.17831039428711,-21.66033363342285
0.62,0.1902294009923935,-9.151350021362305,-3.2889344692230225,0.09437867254018784,-0.0010690141934901476,-0.06200282275676727,-45.32300567626953,40.002925872802734,-21.82110595703125
0.633,0.21655045449733734,-9.133403778076172,-3.332005262374878,0.10018189251422882,0.030085112899541855,-0.08216137439012527,-44.548377990722656,40.38292694091797,-21.806488037109375
0.64,0.3840480148792267,-9.090332984924316,-3.345165967941284,0.10797043144702911,0.02932153083384037,-0.09605855494737625,-44.72376251220703,39.87138366699219,-21.894182205200195
0.65,0.41036906838417053,-9.025726318359375,-3.2997024059295654,0.10766499489545822,0.0010690141934901476,-0.08918632566928864,-44.59222412109375,39.91522979736328,-22.025724411010742
0.66,0.49172505736351013,-9.041280746459961,-3.3379874229431152,0.1111774668097496,-0.021380282938480377,-0.08307767659425735,-44.79684066772461,40.017539978027344,-21.967260360717773
0.67,0.48693937063217163,-9.154938697814941,-3.3846476078033447,0.13439035415649414,-0.0328340083360672,-0.06291911751031876,-44.562992095947266,39.65214920043945,-21.616485595703125
0.68,0.11246266216039658,-9.254240989685059,-3.603590726852417,0.14233160018920898,-0.0377209298312664,-0.03344487026333809,-45.118385314941406,39.82753372192383,-21.674949645996094
0.696,-0.1339980661869049,-9.116654396057129,-3.702892780303955,0.16432274878025055,-0.011759155429899693,-0.027641652151942253,-44.97222900390625,40.134464263916016,-21.587255477905273
0.7,-0.23569302260875702,-9.081957817077637,-3.5605199337005615,0.18280142545700073,0.02367102913558483,-0.0029016099870204926,-44.95761489868164,40.07600402832031,-21.864952087402344
0.71,-0.5312066078186035,-9.016155242919922,-3.3678977489471436,0.2171625941991806,0.12476921826601028,0.0630718320608139,-45.0599250793457,40.23677444458008,-21.54340934753418
0.72,-0.8518447875976562,-8.822336196899414,-3.290131092071533,0.2612975835800171,0.256868839263916,0.11392636597156525,-44.70914840698242,40.134464263916016,-22.259572982788086
0.73,-0.8279166221618652,-8.644071578979492,-3.2781667709350586,0.32162055373191833,0.4063781201839447,0.16890422999858856,-44.72376251220703,40.207542419433594,-21.92341423034668
0.748,-0.5096712112426758,-8.72064208984375,-3.071187734603882,0.3715587854385376,0.5184718370437622,0.22143864631652832,-44.97222900390625,40.36831283569336,-22.288803100585938
0.752,-0.2069791555404663,-8.910871505737305,-2.882154941558838,0.389426589012146,0.5795583724975586,0.30054569244384766,-44.95761489868164,40.82139587402344,-23.048816680908203
0.76,-0.1459621787071228,-8.943174362182617,-2.8737800121307373,0.3689625859260559,0.5577199459075928,0.3275764584541321,-44.75299835205078,40.38292694091797,-23.048816680908203
0.77,-0.019142581149935722,-8.798408508300781,-2.9754748344421387,0.3572034239768982,0.5167919993400574,0.3459024429321289,-45.162235260009766,40.36831283569336,-23.2095890045166
0.78,0.23330020904541016,-8.803194046020508,-3.0209386348724365,0.3298672139644623,0.4424191415309906,0.36392295360565186,-44.32914352416992,40.73370361328125,-23.2095890045166
0.79,0.47976091504096985,-8.606983184814453,-3.2506494522094727,0.3017674386501312,0.36071592569351196,0.394618958234787,-44.79684066772461,41.61064147949219,-23.326513290405273
0.809,0.7621140480041504,-8.428717613220215,-3.298506021499634,0.2996293902397156,0.2805398404598236,0.4331034719944,-44.97222900390625,41.11370849609375,-23.604209899902344
0.813,1.0767701864242554,-8.054241180419922,-3.400200843811035,0.2987130880355835,0.1215621829032898,0.4948008358478546,-44.431453704833984,41.888336181640625,-23.735750198364258
0.82,1.0995019674301147,-7.820940971374512,-3.387040376663208,0.31001412868499756,0.030695976689457893,0.530536413192749,-44.007598876953125,41.40602111816406,-24.378835678100586
0.83,0.9882357120513916,-7.562515735626221,-3.2614171504974365,0.3188716471195221,-0.09987646341323853,0.5514585971832275,-44.3437614440918,42.049110412597656,-23.94036865234375
0.84,0.8171489238739014,-7.534998416900635,-3.150151014328003,0.318566232919693,-0.2099849283695221,0.5566509366035461,-44.256065368652344,41.712947845458984,-24.276527404785156
0.85,0.6257230639457703,-7.484748840332031,-3.0927231311798096,0.3263547420501709,-0.26022857427597046,0.5685628056526184,-44.03683090209961,42.03449249267578,-24.49576187133789
0.869,0.6855436563491821,-7.783851623535156,-3.10109806060791,0.35475999116897583,-0.17379117012023926,0.6027712821960449,-43.75913619995117,41.49371337890625,-23.648056030273438
0.873,0.9080761671066284,-8.458627700805664,-3.2650065422058105,0.3510947823524475,-0.09483683109283447,0.6707300543785095,-43.10143280029297,42.22449493408203,-24.11575698852539
0.88,0.8386843204498291,-8.731410026550293,-3.4851462841033936,0.36850446462631226,-0.014355332590639591,0.7199047207832336,-43.10143280029297,42.253726959228516,-24.071908950805664
0.89,1.1569297313690186,-9.144170761108398,-3.6801609992980957,0.38957932591438293,0.1010981947183609,0.7860308289527893,-42.999122619628906,43.072200775146484,-24.174217224121094
0.9,1.2406784296035767,-9.132206916809082,-3.9625141620635986,0.41523563861846924,0.18478672206401825,0.8901833295822144,-42.58988571166992,42.882198333740234,-24.276527404785156
0.91,1.3962119817733765,-9.20279598236084,-4.202992916107178,0.45662176609039307,0.23029619455337524,0.959669291973114,-42.516807556152344,43.7445182800293,-24.59807014465332
0.929,2.7050859928131104,-9.938589096069336,-4.0319061279296875,0.4596760869026184,0.1333213448524475,0.9669996500015259,-41.81526184082031,43.379127502441406,-24.612686157226562
0.933,3.2793633937835693,-10.989038467407227,-3.6047871112823486,0.3510947823524475,-0.09300423413515091,1.0027352571487427,-41.27448272705078,43.89067459106445,-24.641918182373047
0.94,3.232703447341919,-11.048858642578125,-3.8979079723358154,0.24297165870666504,-0.23182335495948792,1.018770456314087,-41.318328857421875,43.6422119140625,-25.22654151916504
0.95,3.13938307762146,-10.510473251342773,-4.175475120544434,0.1667662113904953,-0.3439171314239502,1.0073168277740479,-40.8652458190918,43.802982330322266,-25.460391998291016
0.96,2.8354947566986084,-10.173084259033203,-4.29033088684082,0.09437867254018784,-0.2997821271419525,1.0074695348739624,-40.514469146728516,44.007598876953125,-24.919614791870117
0.97,2.688336133956909,-9.949356079101562,-4.634897232055664,0.08231408894062042,-0.1261436641216278,1.0144944190979004,-40.29523468017578,44.4022216796875,-24.788074493408203
0.989,2.851048231124878,-9.701699256896973,-4.686342716217041,0.1235474944114685,0.09605855494737625,1.0204503536224365,-39.564453125,44.66530227661133,-25.533470153808594
0.993,3.5676984786987305,-9.369096755981445,-5.176871299743652,0.18707747757434845,0.36529740691185,0.9013316631317139,-39.54983901977539,44.86991882324219,-25.32884979248047
1.0,4.130012035369873,-9.445667266845703,-5.4209394454956055,0.237321138381958,0.41661009192466736,0.8361217975616455,-39.54983901977539,44.48991394042969,-25.31423568725586
1.01,4.875375747680664,-9.377471923828125,-5.641078948974609,0.22647827863693237,0.45646902918815613,0.6896668672561646,-39.27214050292969,45.08915710449219,-25.445777893066406
1.02,5.712863922119141,-9.268598556518555,-5.344368934631348,0.20983220636844635,0.3568980097770691,0.4893030524253845,-39.27214050292969,44.89915466308594,-25.533470153808594
1.03,6.199802875518799,-10.015158653259277,-4.7126641273498535,0.10033462196588516,0.14798210561275482,0.3136793076992035,-39.228294372558594,45.498390197753906,-26.293479919433594
1.05,5.653043270111084,-10.246066093444824,-4.752145767211914,-0.08429940044879913,-0.10491610318422318,0.10720684379339218,-38.833675384521484,45.33761978149414,-25.665008544921875
1.054,5.131407737731934,-9.477970123291016,-5.036891460418701,-0.31062498688697815,-0.39538252353668213,-0.2428189367055893,-38.93598175048828,45.41069793701172,-25.621164321899414
1.06,4.878964900970459,-9.401399612426758,-4.916053771972656,-0.40393462777137756,-0.4726569652557373,-0.3906483054161072,-38.5267448425293,44.75299835205078,-25.577316284179688
1.07,4.198206901550293,-9.052047729492188,-5.278566360473633,-0.4758639931678772,-0.48029276728630066,-0.5717698335647583,-39.08213806152344,45.35223388671875,-24.934228897094727
1.08,3.542573928833008,-8.682356834411621,-5.278566360473633,-0.45662176609039307,-0.3646865487098694,-0.7008151412010193,-38.92136764526367,44.28529739379883,-24.75884246826172
1.09,3.047259569168091,-8.85942554473877,-5.170889377593994,-0.43050727248191833,-0.16829337179660797,-0.7919867634773254,-39.228294372558594,44.97222900390625,-24.729610443115234
1.109,3.401397228240967,-8.907281875610352,-5.108675956726074,-0.4059199392795563,0.10094548016786575,-1.0225883722305298,-39.35983657836914,44.19760513305664,-24.057292938232422
1.112,4.156332969665527,-9.507880210876465,-4.797609329223633,-0.4343251883983612,0.13316862285137177,-1.0523680448532104,-39.73984146118164,44.24144744873047,-24.422683715820312
1.12,4.497309684753418,-9.704092025756836,-4.851447582244873,-0.47372597455978394,0.12721268832683563,-1.1009318828582764,-39.91522979736328,44.19760513305664,-24.49576187133789
1.13,4.625326156616211,-10.284351348876953,-4.336990833282471,-0.5624541640281677,0.06001751124858856,-1.2024881839752197,-40.6021614074707,44.4022216796875,-24.56884002685547
1.14,4.73300313949585,-10.454241752624512,-4.505684852600098,-0.7283040285110474,-0.03940080478787422,-1.3038917779922485,-41.28909683227539,43.61297607421875,-24.071908950805664
1.15,4.645665168762207,-10.077371597290039,-4.791627407073975,-0.8538368940353394,-0.16844607889652252,-1.4022411108016968,-41.74217987060547,43.84682846069336,-23.428821563720703
1.169,4.130012035369873,-9.773483276367188,-4.8777689933776855,-0.9311113357543945,-0.22647827863693237,-1.4677565097808838,-42.29757308959961,42.268341064453125,-23.238819122314453
1.173,3.5736804008483887,-9.754341125488281,-4.95074987411499,-0.963792622089386,-0.14233160018920898,-1.534340739250183,-42.79450607299805,42.20988082885742,-23.00497055053711
1.18,3.311666488647461,-9.665806770324707,-5.0572309494018555,-0.9500481486320496,-0.07024950534105301,-1.5706872940063477,-42.85296630859375,41.946800231933594,-22.94650650024414
1.19,3.2267210483551025,-9.558130264282227,-5.083551406860352,-0.8910996913909912,0.056810468435287476,-1.6201673746109009,-43.51066970825195,41.6252555847168,-22.698041915893555
1.2,3.328416109085083,-9.81535816192627,-4.954339027404785,-0.8309293985366821,0.1722639948129654,-1.6504051685333252,-44.431453704833984,40.967552185058594,-22.09880256652832
1.21,3.5748770236968994,-9.980463027954102,-4.884947299957275,-0.8064948320388794,0.21273382008075714,-1.6951509714126587,-44.88453674316406,40.499855041503906,-22.011106491088867
1.228,3.69930362701416,-10.418349266052246,-4.3441691398620605,-0.8428412675857544,0.12263119220733643,-1.758986473083496,-45.3814697265625,39.60830307006836,-22.785736083984375
1.232,3.7052857875823975,-10.448260307312012,-4.325026512145996,-0.873842716217041,0.09789115190505981,-1.77670156955719,-46.170711517333984,39.8421516418457,-22.361881256103516
1.24,3.6023943424224854,-10.405189514160156,-4.364508152008057,-0.9166033267974854,0.038026362657547,-1.7896825075149536,-46.88687515258789,38.804443359375,-22.508039474487305
1.25,3.119044303894043,-10.284351348876953,-4.110869407653809,-0.9711230397224426,-0.043218713253736496,-1.8339701890945435,-46.78456497192383,38.833675384521484,-21.4703311920166
1.26,3.0077779293060303,-10.130014419555664,-4.1659040451049805,-1.0340421199798584,-0.08567384630441666,-1.8855881690979004,-47.25226593017578,38.05904769897461,-21.791873931884766
1.27,3.040081262588501,-10.04148006439209,-4.169493198394775,-1.0633636713027954,-0.08796459436416626,-1.8810067176818848,-47.99766159057617,37.18210983276367,-21.55802345275879
1.289,2.80558443069458,-9.962516784667969,-4.302295207977295,-1.0680978298187256,-0.011759155429899693,-1.839620590209961,-49.15229415893555,36.33440399169922,-20.447237014770508
1.292,2.5770697593688965,-9.28893756866455,-4.31306266784668,-1.042594313621521,0.014966198243200779,-1.8254181146621704,-49.12306213378906,36.451332092285156,-20.37415885925293
1.3,2.413161516189575,-9.0843505859375,-4.1347975730896,-0.9983065128326416,0.05971207842230797,-1.8054121732711792,-49.590763092041016,35.179771423339844,-20.62262535095215
1.31,2.438286066055298,-9.122635841369629,-4.030709743499756,-0.9523388743400574,0.10705412924289703,-1.7878497838974,-50.11692810058594,34.52206802368164,-20.681087493896484
1.32,2.7349960803985596,-9.059226036071777,-3.882354736328125,-0.912021815776825,0.10506881773471832,-1.7603609561920166,-50.365386962890625,33.922828674316406,-20.856473922729492
1.33,2.84386944770813,-8.97547721862793,-3.8045878410339355,-0.9140071272850037,0.04337143152952194,-1.7214181423187256,-50.760013580322266,33.48435974121094,-20.505699157714844
1.35,2.6225335597991943,-8.714659690856934,-3.6921253204345703,-0.9054549932479858,-0.10674870014190674,-1.638798713684082,-51.593101501464844,32.08126449584961,-20.388774871826172
1.354,2.506481647491455,-8.833104133605957,-3.6406795978546143,-0.9133962988853455,-0.16096298396587372,-1.6212363243103027,-51.7977180480957,31.935108184814453,-19.964923858642578
1.36,2.331805467605591,-8.848657608032227,-3.5365920066833496,-0.9283624291419983,-0.2119702398777008,-1.6006195545196533,-52.0169563293457,31.905874252319336,-19.36568260192871
1.37,2.0063817501068115,-8.773283958435059,-3.3403801918029785,-0.9482155442237854,-0.2929098606109619,-1.5552629232406616,-52.338497161865234,30.824321746826172,-19.52645492553711
1.38,1.9501503705978394,-8.758926391601562,-3.3164520263671875,-0.9549350738525391,-0.30711251497268677,-1.4915802478790283,-52.294654846191406,29.830459594726562,-19.409530639648438
1.39,1.9118653535842896,-8.47776985168457,-3.638286828994751,-0.9576839804649353,-0.3246748745441437,-1.3990341424942017,-52.60157775878906,29.684301376342773,-19.044137954711914
1.405,1.588834285736084,-7.672585487365723,-3.8333017826080322,-0.8645269870758057,-0.3168863356113434,-1.218828797340393,-53.127742767333984,28.982751846313477,-18.78105926513672
1.41,1.4620145559310913,-7.488338470458984,-3.7938201427459717,-0.8144360780715942,-0.29245173931121826,-1.1511754989624023,-53.06927490234375,28.471206665039062,-18.839519500732422
1.42,1.219143033027649,-7.314858913421631,-3.6670005321502686,-0.712574303150177,-0.22632557153701782,-1.0236574411392212,-53.5369758605957,27.886581420898438,-18.766441345214844
1.43,1.1114661693572998,-7.21316385269165,-3.7663025856018066,-0.5904012322425842,-0.12049316614866257,-0.8620835542678833,-53.17158508300781,27.945045471191406,-18.868751525878906
1.44,1.1892328262329102,-6.835097789764404,-3.943371534347534,-0.4735732972621918,-0.06536258012056351,-0.7321219444274902,-53.56621170043945,27.199649810791016,-18.152587890625
1.45,1.0719845294952393,-6.87697172164917,-3.6837503910064697,-0.36163219809532166,-0.038026362657547,-0.6068946123123169,-53.58082580566406,27.185035705566406,-18.123355865478516
1.469,1.042074203491211,-7.946564197540283,-3.126222848892212,-0.25854870676994324,-0.051923543214797974,-0.38606685400009155,-53.97544479370117,26.205787658691406,-18.488744735717773
1.472,1.0887342691421509,-8.169095993041992,-3.07716965675354,-0.256868839263916,-0.05925392732024193,-0.32192596793174744,-53.843902587890625,26.103479385375977,-18.269512176513672
1.48,1.1078768968582153,-8.746962547302246,-3.317648410797119,-0.2402227520942688,-0.08536841720342636,-0.21365012228488922,-53.30312728881836,26.147327423095703,-19.029523849487305
1.49,1.5792629718780518,-9.183652877807617,-3.6945178508758545,-0.19624045491218567,-0.14508049190044403,-0.06123923882842064,-52.96696853637695,26.103479385375977,-18.985675811767578
1.5,1.727617859840393,-9.074779510498047,-3.8847475051879883,-0.14095714688301086,-0.26740625500679016,0.09636398404836655,-53.113128662109375,26.088863372802734,-19.482608795166016
1.518,1.5960125923156738,-8.609375,-3.985246181488037,-0.0705549344420433,-0.39187002182006836,0.24419337511062622,-53.36158752441406,26.351943969726562,-18.34259033203125
1.522,1.3710873126983643,-7.612764835357666,-4.053441524505615,0.051770828664302826,-0.4767802953720093,0.408974289894104,-53.0985107421875,26.191171646118164,-18.313358306884766
1.53,1.2789636850357056,-7.073184013366699,-4.192224979400635,0.1543961763381958,-0.5345070958137512,0.5161811113357544,-53.40544128417969,26.585792541503906,-18.06489372253418
1.54,0.9140582084655762,-6.863811492919922,-4.426721572875977,0.25824329257011414,-0.5878050327301025,0.616973876953125,-53.04004669189453,26.454252243041992,-18.298744201660156
1.55,0.42352959513664246,-7.4979095458984375,-4.187439441680908,0.33139437437057495,-0.6342307925224304,0.7000515460968018,-52.85004425048828,26.96579933166504,-18.152587890625
1.56,-0.0849451944231987,-8.297112464904785,-4.063012599945068,0.34437528252601624,-0.6507241725921631,0.7530441284179688,-52.8208122253418,27.375036239624023,-18.3718204498291
1.57,-0.14356935024261475,-8.883354187011719,-4.030709743499756,0.33719760179519653,-0.634994387626648,0.8086328506469727,-52.294654846191406,27.828121185302734,-18.06489372253418
1.585,-0.45463627576828003,-8.85942554473877,-4.5391845703125,0.2565633952617645,-0.5549710988998413,0.9239336848258972,-51.4615592956543,27.97427749633789,-17.88950538635254
1.59,-0.3002992272377014,-8.561518669128418,-4.6157546043396,0.2730567753314972,-0.4954116940498352,0.9634872078895569,-51.22771453857422,28.222742080688477,-18.123355865478516
1.6,-0.14356935024261475,-8.408378601074219,-4.609772682189941,0.3248275816440582,-0.3839287757873535,1.0839803218841553,-51.05232620239258,28.310436248779297,-17.50950050354004
1.61,-0.12203395366668701,-8.072187423706055,-4.749752521514893,0.39125916361808777,-0.23258693516254425,1.226770043373108,-51.24232864379883,28.52967071533203,-17.34872817993164
1.62,-0.6317051649093628,-7.678567886352539,-4.260420799255371,0.48258352279663086,-0.08216137439012527,1.3432925939559937,-50.336158752441406,29.698917388916016,-17.71411895751953
1.638,-1.0444670915603638,-7.29810905456543,-4.169493198394775,0.599564254283905,0.16004669666290283,1.4025466442108154,-50.350772857666016,29.655071258544922,-17.9918155670166
1.643,-0.23688943684101105,-8.01834774017334,-3.576073169708252,0.6933320164680481,0.3243694305419922,1.4217888116836548,-50.233848571777344,30.137386322021484,-18.44489860534668
1.65,0.0323031060397625,-8.426324844360352,-3.4648072719573975,0.6792821288108826,0.33276882767677307,1.4211779832839966,-50.42385482788086,31.335866928100586,-18.225666046142578
1.66,0.1746760457754135,-8.49571704864502,-3.651447057723999,0.6569855809211731,0.289702832698822,1.4208725690841675,-49.853843688964844,31.6281795501709,-19.044137954711914
1.67,0.017946168780326843,-8.822336196899414,-3.5856447219848633,0.6342307925224304,0.21945331990718842,1.3881912231445312,-49.839229583740234,32.373573303222656,-19.409530639648438
1.68,-0.09930214285850525,-9.359525680541992,-3.6921253204345703,0.5787947773933411,0.1572977900505066,1.3231340646743774,-49.576148986816406,32.607425689697266,-20.154926300048828
1.698,0.07537391036748886,-9.688538551330566,-3.8979079723358154,0.528245747089386,0.14156801998615265,1.2644909620285034,-49.15229415893555,33.440513610839844,-18.5325927734375
1.703,0.7082754373550415,-9.702895164489746,-3.9912281036376953,0.4946480989456177,0.04413501173257828,1.2589932680130005,-48.72844314575195,33.77667236328125,-19.33645248413086
1.71,0.5168496966362,-9.734002113342285,-3.8153557777404785,0.49357911944389343,-0.04764748737215996,1.2855658531188965,-48.5384407043457,34.2882194519043,-19.33645248413086
1.72,-0.0813559740781784,-9.571290016174316,-3.706482172012329,0.4957171380519867,-0.16050483286380768,1.2814425230026245,-48.18766403198242,34.59514617919922,-19.33645248413086
1.73,-0.6305087208747864,-9.562914848327637,-3.7734811305999756,0.526413083076477,-0.1699732542037964,1.2889256477355957,-47.909969329833984,35.2674674987793,-20.476469039916992
1.74,-1.1988041400909424,-9.835697174072266,-3.513859748840332,0.5832235813140869,-0.1472185254096985,1.3002265691757202,-48.085357666015625,35.61824035644531,-20.140310287475586
1.759,-1.86520516872406,-10.04865837097168,-3.479163885116577,0.6412557363510132,-0.03878994286060333,1.2652546167373657,-46.930721282958984,35.95439910888672,-20.608009338378906
1.763,-1.1521440744400024,-9.993623733520508,-3.662214994430542,0.7266241908073425,0.12278390675783157,1.204931616783142,-46.755332946777344,36.115169525146484,-19.687227249145508
1.77,-0.7465606331825256,-10.074979782104492,-3.641875982284546,0.7799221873283386,0.20402897894382477,1.2231049537658691,-47.281497955322266,36.845951080322266,-20.65185546875
1.78,-0.3074776828289032,-9.780662536621094,-3.7950165271759033,0.84574294090271,0.2588541507720947,1.245248794555664,-46.49225616455078,37.86904525756836,-20.37415885925293
1.79,0.10049854964017868,-9.637092590332031,-3.7459635734558105,0.9330966472625732,0.25732696056365967,1.2498302459716797,-46.24378967285156,38.205204010009766,-21.864952087402344
1.8,0.6329016089439392,-9.327221870422363,-3.6394829750061035,0.9995282292366028,0.2249511182308197,1.264796495437622,-45.84916687011719,38.263668060302734,-21.718795776367188
1.819,0.9762716293334961,-9.182456970214844,-3.710071325302124,1.0296133756637573,0.10476338863372803,1.2556334733963013,-45.68839645385742,39.1844482421875,-21.981876373291016
1.823,1.2430713176727295,-8.903693199157715,-3.836890935897827,1.0387763977050781,-0.14278973639011383,1.2486085891723633,-44.986846923828125,39.374454498291016,-21.36802101135254
1.83,0.8925228118896484,-8.781658172607422,-3.5497522354125977,1.0320568084716797,-0.2122756689786911,1.260367751121521,-44.72376251220703,39.35983657836914,-21.83572006225586
1.84,0.3768695592880249,-8.760123252868652,-3.2614171504974365,0.9781479835510254,-0.337044894695282,1.2153164148330688,-44.066062927246094,40.41215896606445,-22.09880256652832
1.85,0.1615155190229416,-8.606983184814453,-3.2829525470733643,0.9434813261032104,-0.35155293345451355,1.197601318359375,-43.71529006958008,40.80678176879883,-22.712656021118164
1.86,-0.12681959569454193,-8.414360046386719,-3.345165967941284,0.9210320711135864,-0.2973386347293854,1.2125674486160278,-43.3206672668457,40.9237060546875,-23.048816680908203
1.879,-0.15912269055843353,-8.276773452758789,-3.4851462841033936,0.9201157689094543,-0.18677204847335815,1.2174543142318726,-42.98450469970703,41.74217987060547,-22.610347747802734
1.883,-0.09810572117567062,-8.155935287475586,-3.645465135574341,0.9346237778663635,-0.0429132841527462,1.2266173362731934,-42.39988327026367,41.65448760986328,-22.74188804626465
1.89,-0.11844471842050552,-8.110472679138184,-3.7399816513061523,0.9644034504890442,0.026572639122605324,1.2263119220733643,-42.01987838745117,42.516807556152344,-23.341127395629883
1.9,-0.12442676723003387,-8.227720260620117,-3.610769271850586,1.0042624473571777,0.12140946835279465,1.211498498916626,-41.66910171508789,42.268341064453125,-23.881906509399414
1.91,0.33379876613616943,-8.360522270202637,-3.840480089187622,1.0432051420211792,0.1869247555732727,1.1798862218856812,-41.11370849609375,42.79450607299805,-24.2911434173584
1.92,0.698704183101654,-8.249256134033203,-3.862015724182129,1.0778716802597046,0.21762074530124664,1.1704177856445312,-41.142940521240234,43.33528137207031,-23.896520614624023
1.939,0.8721838593482971,-8.23011302947998,-3.7974092960357666,1.1076513528823853,0.20265454053878784,1.1520918607711792,-39.75445556640625,44.182987213134766,-25.31423568725586
1.943,0.9415756464004517,-8.5160551071167,-3.62153697013855,1.134682059288025,0.18219056725502014,1.1359038352966309,-40.09061813354492,44.59222412109375,-26.103479385375977
1.95,0.9092725515365601,-8.880961418151855,-3.4995031356811523,1.1249083280563354,0.14126259088516235,1.1223121881484985,-40.07600402832031,44.50453186035156,-24.934228897094727
1.96,1.0109676122665405,-9.18006420135498,-3.562912940979004,1.0746647119522095,0.06444628536701202,1.0838276147842407,-39.1844482421875,45.08915710449219,-26.351943969726562
1.97,0.9511469602584839,-9.388238906860352,-3.6945178508758545,1.0235047340393066,-0.01924225501716137,1.0595457553863525,-39.05290985107422,45.39608383178711,-26.79041290283203
1.98,0.6975077390670776,-9.554540634155273,-3.7256245613098145,0.9673051238059998,-0.06887505203485489,1.05099356174469,-38.90675354003906,46.1414794921875,-26.805028915405273
2.0,0.5886343717575073,-9.716055870056152,-3.775874137878418,0.8894197344779968,-0.09392052888870239,1.025948166847229,-38.05904769897461,46.98918533325195,-27.404266357421875
2.004,0.0131605239585042,-9.513862609863281,-3.912264823913574,0.8136724829673767,-0.021991148591041565,1.040150761604309,-37.92750549316406,45.84916687011719,-27.915815353393555
2.01,-0.4833501875400543,-9.09152889251709,-4.005584716796875,0.8130615949630737,0.04734205827116966,1.0361801385879517,-37.69365692138672,46.53609848022461,-27.915815353393555
2.02,-0.5551348328590393,-8.738588333129883,-3.864408493041992,0.8445212244987488,0.2483167201280594,1.0128145217895508,-36.97748947143555,46.521484375,-28.412744522094727
2.03,-0.26440688967704773,-8.794819831848145,-3.7112677097320557,0.8669705390930176,0.4395175576210022,0.9989173412322998,-37.035953521728516,47.07687759399414,-28.60274887084961
2.04,0.09571290761232376,-8.85224723815918,-3.7806599140167236,0.8814785480499268,0.5748242139816284,0.9906706809997559,-36.24671173095703,47.310726165771484,-28.968137741088867
2.059,0.3278166949748993,-8.888139724731445,-3.9493536949157715,0.9216429591178894,0.6855435371398926,0.9822712540626526,-36.20286560058594,47.44226837158203,-30.122772216796875
2.063,0.519242525100708,-9.43489933013916,-3.7399816513061523,0.9234755635261536,0.7089090943336487,0.9805914163589478,-35.39900588989258,47.77842712402344,-30.049694061279297
2.07,0.48693937063217163,-9.70528793334961,-3.7495527267456055,0.9109527468681335,0.6824891567230225,0.9651670455932617,-35.910552978515625,48.30459213256836,-29.81584358215332
2.08,0.5096712112426758,-9.913464546203613,-3.8285160064697266,0.8907942175865173,0.6484334468841553,0.9427177309989929,-35.88132095336914,48.23151397705078,-30.795087814331055
2.09,0.698704183101654,-9.993623733520508,-3.8009984493255615,0.8643743395805359,0.5896376371383667,0.9254608750343323,-35.2674674987793,48.90382766723633,-31.04355239868164
2.1,0.7322037220001221,-9.981658935546875,-3.8668015003204346,0.8263479471206665,0.4859433174133301,0.9034696817398071,-35.13592529296875,48.62613296508789,-31.701257705688477
2.119,0.7668996453285217,-9.885946273803711,-4.061816215515137,0.7619016766548157,0.33108893036842346,0.8361217975616455,-34.85823059082031,49.283836364746094,-31.847414016723633
2.122,0.784845769405365,-9.872785568237305,-4.051048755645752,0.7557929754257202,0.31184670329093933,0.8269587755203247,-34.50745391845703,49.56153106689453,-32.02280044555664
2.13,0.745364248752594,-10.009177207946777,-3.9326038360595703,0.7357872128486633,0.2457205355167389,0.7916813492774963,-34.50745391845703,49.80999755859375,-32.76819610595703
2.14,0.5060819387435913,-10.198209762573242,-3.8739798069000244,0.697149932384491,0.1696678102016449,0.739757776260376,-33.71821212768555,49.86845779418945,-33.002044677734375
2.15,0.3278166949748993,-10.331010818481445,-4.19581413269043,0.6374378800392151,0.12507465481758118,0.6525567770004272,-33.46974563598633,49.663841247558594,-32.51972961425781
2.16,0.6903292536735535,-10.370492935180664,-4.427917957305908,0.611934244632721,0.12767083942890167,0.6218608021736145,-33.32358932495117,49.97077178955078,-32.88512420654297
2.179,0.8207381367683411,-10.466205596923828,-4.671986103057861,0.5803219676017761,0.19288070499897003,0.6698136925697327,-33.060508728027344,50.13154220581055,-33.38205337524414
2.182,0.7860422134399414,-10.461421012878418,-5.047659397125244,0.5816964507102966,0.20494529604911804,0.6792821288108826,-32.490501403808594,49.82461166381836,-33.995906829833984
2.19,0.727418065071106,-10.560722351074219,-4.967499732971191,0.5884159207344055,0.2396118938922882,0.7082982659339905,-32.75358200073242,50.30692672729492,-33.820518493652344
2.2,0.3696911036968231,-10.686345100402832,-4.937589645385742,0.5798638463020325,0.3176499307155609,0.7310529351234436,-32.680503845214844,50.11692810058594,-34.37591552734375
2.21,0.10648059844970703,-10.834700584411621,-4.898108005523682,0.5711589455604553,0.4265366494655609,0.7257079482078552,-31.408945083618164,50.29231262207031,-34.682838439941406
2.22,0.25722840428352356,-10.85623550415039,-4.725824356079102,0.5468770861625671,0.526107668876648,0.7066183686256409,-32.417423248291016,50.71616744995117,-35.7059326171875
2.239,0.2883351147174835,-10.468598365783691,-4.850251197814941,0.44348815083503723,0.6548475623130798,0.5907067060470581,-31.365097045898438,51.12540054321289,-36.655948638916016
2.243,0.3888336718082428,-10.370492935180664,-4.955535411834717,0.4335615932941437,0.6867652535438538,0.5477933883666992,-31.920490264892578,50.45308303833008,-36.93364715576172
2.25,0.8219345808029175,-10.139585494995117,-5.2043890953063965,0.4349360466003418,0.7118107080459595,0.49785515666007996,-31.248172760009766,50.68693161010742,-36.26132583618164
2.26,1.5529417991638184,-10.320243835449219,-5.654239654541016,0.4729623794555664,0.70692378282547,0.4715879559516907,-30.707395553588867,50.87693786621094,-36.14440155029297
2.27,1.7970097064971924,-10.846664428710938,-5.761916637420654,0.5158756971359253,0.6269004344940186,0.46074509620666504,-30.970474243164062,51.0815544128418,-36.61210250854492
2.28,2.0542380809783936,-11.101499557495117,-5.881557941436768,0.5384777188301086,0.46822819113731384,0.4202752709388733,-30.53200912475586,51.344635009765625,-36.90441131591797
2.299,2.1607186794281006,-11.749955177307129,-5.192424774169922,0.5065600275993347,0.08750644326210022,0.3378084599971771,-30.91201400756836,51.03771209716797,-37.56211853027344
2.303,2.0518453121185303,-11.979666709899902,-4.742574214935303,0.48029276728630066,0.01878410577774048,0.3237585723400116,-30.678165435791016,51.31540298461914,-37.81058120727539
2.31,1.7898313999176025,-12.323036193847656,-3.957728624343872,0.3897320032119751,-0.06688974052667618,0.28466320037841797,-30.765857696533203,51.54925537109375,-37.16749572753906
2.32,1.2646067142486572,-12.575479507446289,-3.111865520477295,0.18417586386203766,-0.11667525768280029,0.21135936677455902,-30.63431739807129,51.22771453857422,-37.8251953125
2.33,0.7262216210365295,-12.184252738952637,-2.9766714572906494,-0.09193521738052368,-0.07406741380691528,0.11178833991289139,-30.195850372314453,51.695411682128906,-37.41596221923828
2.34,0.5862414836883545,-10.917252540588379,-4.089333534240723,-0.30940327048301697,0.047800205647945404,-0.02076941914856434,-29.640457153320312,51.12540054321289,-37.81058120727539
2.358,1.3734800815582275,-9.262616157531738,-4.7605204582214355,-0.37568211555480957,0.1420261561870575,-0.31673359870910645,-30.064308166503906,51.4177131652832,-38.029815673828125
2.361,1.4715858697891235,-9.245866775512695,-4.800002098083496,-0.37919458746910095,0.13897183537483215,-0.3474296033382416,-29.523530960083008,50.89155578613281,-37.635196685791016
2.37,1.6689937114715576,-9.19442081451416,-4.851447582244873,-0.37339136004447937,0.08918632566928864,-0.47968190908432007,-29.698917388916016,51.3592529296875,-37.708274841308594
2.38,1.8221343755722046,-9.29491901397705,-4.886143684387207,-0.35964691638946533,0.03527746722102165,-0.6090326309204102,-30.181232452392578,51.27155685424805,-38.278282165527344
2.39,1.9692928791046143,-9.479166984558105,-4.742574214935303,-0.3634648323059082,-0.052228979766368866,-0.7238752841949463,-30.73662757873535,51.213096618652344,-38.64366912841797
2.408,1.9166508913040161,-9.723234176635742,-4.59302282333374,-0.4054618179798126,-0.20555615425109863,-0.8527678847312927,-31.306636810302734,50.745399475097656,-37.37211227416992
2.412,1.3866406679153442,-10.107282638549805,-3.7914273738861084,-0.5170974135398865,-0.3202460706233978,-0.9673051238059998,-31.803565979003906,51.65156173706055,-38.029815673828125
2.42,0.6891329288482666,-10.50568675994873,-3.2243285179138184,-0.6136141419410706,-0.37033703923225403,-1.063821792602539,-31.81818199157715,51.154632568359375,-37.8251953125
2.43,0.15194423496723175,-10.643274307250977,-2.9730820655822754,-0.7910704612731934,-0.37079522013664246,-1.2678508758544922,-32.242034912109375,51.344635009765625,-36.69979476928711
2.44,0.6245266795158386,-10.443473815917969,-3.153740167617798,-0.945772111415863,-0.32268956303596497,-1.4314099550247192,-32.9289665222168,51.00847625732422,-36.56825256347656
2.45,1.1353943347930908,-10.319046974182129,-3.324826955795288,-1.078940749168396,-0.31154128909111023,-1.525635838508606,-33.572052001953125,50.92078399658203,-36.37825393676758
2.46,1.2478569746017456,-10.350153923034668,-3.6083762645721436,-1.1927144527435303,-0.35124751925468445,-1.623374342918396,-34.44898986816406,50.146156311035156,-35.545162200927734
2.475,1.3016955852508545,-10.730612754821777,-3.6119656562805176,-1.2962559461593628,-0.3825543522834778,-1.7412713766098022,-35.369773864746094,50.0584602355957,-34.551300048828125
2.48,1.454836130142212,-10.926823616027832,-3.544966459274292,-1.3135130405426025,-0.398589551448822,-1.7776178121566772,-35.06284713745117,50.24846649169922,-35.22361755371094
2.49,1.5996018648147583,-11.425727844238281,-3.2889344692230225,-1.3350459337234497,-0.4465424716472626,-1.818698525428772,-36.14440155029297,50.45308303833008,-34.46360778808594
2.5,1.270588755607605,-12.09093189239502,-3.0137598514556885,-1.389260172843933,-0.5296201705932617,-1.8602373600006104,-36.7436408996582,50.02922821044922,-34.712074279785156
2.51,0.6855436563491821,-12.16271686553955,-3.008974552154541,-1.4535537958145142,-0.5885686278343201,-1.9365954399108887,-36.99210739135742,49.19614028930664,-33.70359420776367
2.528,0.44267216324806213,-12.09093189239502,-2.7457637786865234,-1.4703526496887207,-0.5859724879264832,-2.0303633213043213,-37.7228889465332,49.31306457519531,-33.46974563598633
2.532,0.8159525394439697,-12.241680145263672,-2.575873613357544,-1.5053246021270752,-0.6162103414535522,-2.1230621337890625,-39.155216217041016,49.07921600341797,-32.27126693725586
2.54,0.9571290016174316,-12.374482154846191,-2.6392831802368164,-1.5360206365585327,-0.6467536091804504,-2.149634838104248,-39.05290985107422,48.74305725097656,-31.978952407836914
2.55,1.0707881450653076,-12.53001594543457,-2.6847469806671143,-1.5809192657470703,-0.7197519540786743,-2.1815524101257324,-40.36831283569336,48.50920867919922,-30.985092163085938
2.56,1.0444670915603638,-12.53480052947998,-2.489731788635254,-1.6409367322921753,-0.858418345451355,-2.2382102012634277,-41.084476470947266,47.98304748535156,-30.89739990234375
2.57,0.39122650027275085,-12.629317283630371,-2.4885356426239014,-1.6806429624557495,-0.8950702548027039,-2.266462802886963,-41.873722076416016,47.51534652709961,-30.707395553588867
2.58,0.2967100143432617,-12.681960105895996,-2.451446771621704,-1.6975945234298706,-0.8538368940353394,-2.314110040664673,-42.79450607299805,46.667640686035156,-28.851213455200195
2.592,0.08733802288770676,-12.899706840515137,-2.1607186794281006,-1.7229453325271606,-0.7703010439872742,-2.3011293411254883,-43.48143768310547,46.40456008911133,-28.383514404296875
2.6,-0.3254238963127136,-12.759726524353027,-2.169093608856201,-1.7641788721084595,-0.6881397366523743,-2.26936411857605,-44.21221923828125,45.57147216796875,-27.696578979492188
2.61,-0.8566304445266724,-12.248858451843262,-2.128415822982788,-1.7759380340576172,-0.46792274713516235,-2.2728769779205322,-45.27915573120117,45.176849365234375,-26.834259033203125
2.62,-0.8805586695671082,-11.832507133483887,-2.053041696548462,-1.778228759765625,-0.2970332205295563,-2.2970058917999268,-45.615318298339844,44.38760757446289,-25.548086166381836
2.63,-0.97148597240448,-11.563315391540527,-2.1738791465759277,-1.7475327253341675,-0.1007927656173706,-2.303114652633667,-47.04764938354492,44.19760513305664,-25.533470153808594
2.649,-0.8398807048797607,-11.162517547607422,-1.9992032051086426,-1.686140775680542,0.08445211499929428,-2.3122775554656982,-47.76381301879883,42.79450607299805,-24.934228897094727
2.653,-0.6484549045562744,-11.124231338500977,-1.5960125923156738,-1.640325903892517,0.3127630054950714,-2.3322834968566895,-49.605377197265625,42.37065124511719,-24.159603118896484
2.66,-0.6209374666213989,-11.193623542785645,-1.451246976852417,-1.6435329914093018,0.42791110277175903,-2.3235788345336914,-49.56153106689453,41.56679153442383,-24.349605560302734
2.67,-0.41036906838417053,-10.861021041870117,-1.8508483171463013,-1.647045373916626,0.545655369758606,-2.3217458724975586,-50.555397033691406,40.80678176879883,-23.180356979370117
2.68,0.1627119481563568,-10.518848419189453,-2.306680917739868,-1.608255386352539,0.5994114875793457,-2.3189971446990967,-51.82695388793945,39.4621467590332,-23.414207458496094
2.69,0.6340979933738708,-10.186245918273926,-2.5292134284973145,-1.5471688508987427,0.5739078521728516,-2.292271614074707,-52.83543014526367,39.213680267333984,-22.975738525390625
2.709,0.8279166221618652,-9.930213928222656,-2.495713949203491,-1.4503467082977295,0.5109887719154358,-2.247525691986084,-54.13621520996094,38.219818115234375,-22.44957733154297
2.713,0.5252245664596558,-9.994819641113281,-1.891526222229004,-1.3312280178070068,0.4346306025981903,-2.1655170917510986,-54.13621520996094,37.299034118652344,-21.528793334960938
2.72,0.47617167234420776,-9.9469633102417,-1.8089739084243774,-1.2938125133514404,0.41401392221450806,-2.1279489994049072,-54.881614685058594,36.55363845825195,-22.04033851623535
2.73,0.5395814776420593,-9.635896682739258,-1.8783657550811768,-1.2551753520965576,0.3793473243713379,-2.0694587230682373,-55.84624481201172,36.04209518432617,-22.1718807220459
2.74,0.5132604241371155,-9.232706069946289,-1.8460626602172852,-1.2278391122817993,0.31810805201530457,-2.00699782371521,-56.606258392333984,34.84361267089844,-22.420345306396484
2.75,0.5335994362831116,-8.981459617614746,-1.813759446144104,-1.2122620344161987,0.24266621470451355,-1.9530888795852661,-57.35165023803711,34.741302490234375,-21.996492385864258
2.769,0.3397807776927948,-8.614161491394043,-1.9334007501602173,-1.2157745361328125,0.18035796284675598,-1.8787161111831665,-58.053199768066406,33.67436599731445,-22.639577865600586
2.773,0.24526430666446686,-7.763513088226318,-2.2995026111602783,-1.1615601778030396,0.10705412924289703,-1.8037323951721191,-58.447818756103516,32.446651458740234,-21.09032440185547
2.78,0.2787638306617737,-7.477570533752441,-2.3988046646118164,-1.1273517608642578,0.08414668589830399,-1.7450892925262451,-59.251678466796875,31.71587371826172,-21.031862258911133
2.79,0.47138604521751404,-7.171289443969727,-2.7565317153930664,-1.0766500234603882,0.07696902006864548,-1.6685783863067627,-59.57322692871094,31.277402877807617,-20.754165649414062
2.8,0.6915256977081299,-6.8614182472229,-2.981456995010376,-0.988379955291748,0.06643159687519073,-1.5570954084396362,-59.61707305908203,30.663549423217773,-20.73954963684082
2.81,0.48813581466674805,-6.519245147705078,-2.9623141288757324,-0.8802568316459656,0.06139195337891579,-1.4439326524734497,-59.80707550048828,29.698917388916016,-20.491085052490234
2.83,0.24885353446006775,-6.351747512817383,-2.761317014694214,-0.7160868048667908,0.11209376901388168,-1.2956451177597046,-60.75708770751953,28.456592559814453,-20.213388442993164
2.834,0.3158525824546814,-6.616154670715332,-2.3078773021698,-0.5539020299911499,0.21074850857257843,-1.102611780166626,-61.13709259033203,27.915815353393555,-20.82724380493164
2.84,0.48813581466674805,-6.820741176605225,-2.3772692680358887,-0.5274821519851685,0.2347249537706375,-1.0322095155715942,-60.94709014892578,28.018123626708984,-20.71031951904297
2.85,0.8291130065917969,-6.716652870178223,-2.761317014694214,-0.48655417561531067,0.2408336102962494,-0.8950702548027039,-61.86787414550781,27.316574096679688,-20.8126277923584
2.86,1.0911270380020142,-6.308676719665527,-3.0831520557403564,-0.43997567892074585,0.18646661937236786,-0.7780895829200745,-61.926334381103516,26.702720642089844,-20.46185302734375
2.87,1.3184452056884766,-6.092126369476318,-3.2578277587890625,-0.35903605818748474,0.09483683109283447,-0.6188065409660339,-61.940948486328125,26.4104061126709,-21.178016662597656
2.889,1.5553346872329712,-5.97727108001709,-3.3607192039489746,-0.3010038435459137,-0.0027488935738801956,-0.4752531349658966,-61.940948486328125,26.54194450378418,-20.315698623657227
2.893,1.4871392250061035,-5.8337016105651855,-3.6705896854400635,-0.2301434725522995,-0.1215621829032898,-0.299476683139801,-63.051734924316406,26.103479385375977,-20.242618560791016
2.9,1.5242280960083008,-5.752345085144043,-3.841676712036133,-0.1693623811006546,-0.18570303916931152,-0.1976149082183838,-62.18941879272461,25.31423568725586,-20.534931182861328
2.91,1.5601202249526978,-5.7032928466796875,-4.012763500213623,-0.080634206533432,-0.2509129047393799,-0.049785517156124115,-63.22712707519531,25.723472595214844,-19.877227783203125
2.92,1.4500504732131958,-5.508277416229248,-4.218545913696289,0.05451972037553787,-0.32330042123794556,0.12828169763088226,-62.350189208984375,25.22654151916504,-19.964923858642578
2.93,1.5290136337280273,-5.449653625488281,-4.082155227661133,0.2002110779285431,-0.407905250787735,0.24404066801071167,-62.350189208984375,26.045015335083008,-19.36568260192871
2.949,1.4596216678619385,-5.818148136138916,-4.004388809204102,0.32910364866256714,-0.4547891914844513,0.38438695669174194,-62.43788528442383,26.205787658691406,-19.394912719726562
2.953,1.8317056894302368,-6.221338748931885,-4.080958843231201,0.47342056035995483,-0.5140430927276611,0.5551237463951111,-61.86787414550781,26.87810707092285,-19.55568504333496
2.96,2.0410776138305664,-6.488138675689697,-4.027120590209961,0.5380195379257202,-0.6035348773002625,0.6577491164207458,-61.80941390991211,26.86349105834961,-19.80415153503418
2.97,1.84965181350708,-7.22034215927124,-3.985246181488037,0.6343835592269897,-0.7580837607383728,0.864679753780365,-61.8971061706543,27.784273147583008,-20.09646224975586
2.98,1.4333007335662842,-8.6033935546875,-4.2723846435546875,0.7063129544258118,-0.8339837193489075,1.0320568084716797,-61.2540168762207,28.1496639251709,-20.198772430419922
2.99,1.4021941423416138,-9.20040225982666,-4.406383037567139,0.750142514705658,-0.8897252082824707,1.1888965368270874,-60.74247360229492,28.398128509521484,-19.394912719726562
3.009,1.3244272470474243,-8.689535140991211,-4.6061835289001465,0.9608910083770752,-0.9462302327156067,1.468672752380371,-60.216312408447266,30.064308166503906,-19.029523849487305
3.013,1.042074203491211,-7.871189594268799,-4.554737567901611,1.0170906782150269,-0.9483683109283447,1.5253304243087769,-59.80707550048828,30.45893096923828,-19.27798843383789
3.02,0.8051848411560059,-7.651050090789795,-4.797609329223633,1.1084150075912476,-0.9248499870300293,1.592373013496399,-59.894771575927734,31.014324188232422,-18.854137420654297
3.03,0.453439861536026,-7.697710037231445,-4.789234161376953,1.2371548414230347,-0.8892670273780823,1.6479616165161133,-59.500144958496094,32.85588836669922,-18.854137420654297
3.04,0.13639087975025177,-8.273183822631836,-4.644468784332275,1.3209960460662842,-0.8147415518760681,1.6982053518295288,-58.623207092285156,33.07512283325195,-19.672609329223633
3.05,-0.08973085135221481,-8.902496337890625,-4.4614176750183105,1.3837624788284302,-0.6974554061889648,1.7458528280258179,-58.447818756103516,33.820518493652344,-19.292604446411133
3.069,-0.14476576447486877,-9.54377269744873,-4.260420799255371,1.4338533878326416,-0.4512766897678375,1.8405369520187378,-56.56240463256836,36.18824768066406,-19.614147186279297
3.072,-0.15672987699508667,-10.173084259033203,-3.9912281036376953,1.4300354719161987,-0.3851505219936371,1.863444447517395,-57.16164779663086,36.275943756103516,-19.760305404663086
3.08,-0.09092725813388824,-10.28195858001709,-3.895514965057373,1.4130840301513672,-0.2952006161212921,1.884671926498413,-56.708560943603516,36.87518310546875,-20.8126277923584
3.09,0.1423729509115219,-10.01037311553955,-3.7806599140167236,1.3929253816604614,-0.21288654208183289,1.901318073272705,-55.87547302246094,38.04443359375,-20.37415885925293
3.1,0.24885353446006775,-9.955338478088379,-3.73041033744812,1.3632985353469849,-0.15302173793315887,1.9060522317886353,-56.007015228271484,38.93598175048828,-21.236480712890625
3.11,0.2141576111316681,-9.951748847961426,-3.9421751499176025,1.3283264636993408,-0.10491610318422318,1.8865046501159668,-54.29698944091797,40.66062545776367,-21.4703311920166
3.129,0.48454657196998596,-9.885946273803711,-4.144368648529053,1.348484992980957,0.010690141469240189,1.845271110534668,-54.22391128540039,41.873722076416016,-21.178016662597656
3.132,0.576670229434967,-9.926624298095703,-4.17427921295166,1.3602441549301147,0.025656340643763542,1.83992600440979,-53.77082824707031,42.239112854003906,-21.441099166870117
3.14,0.672383189201355,-9.90867805480957,-4.1551361083984375,1.3813190460205078,0.015882495790719986,1.8208365440368652,-53.1569709777832,42.838348388671875,-22.011106491088867
3.15,0.7441678643226624,-9.93260669708252,-4.018745422363281,1.4213306903839111,-0.0328340083360672,1.7719674110412598,-53.17158508300781,43.627593994140625,-22.508039474487305
3.16,0.7118647694587708,-10.277173042297363,-3.6227335929870605,1.430799126625061,-0.10552696883678436,1.7130188941955566,-52.20695877075195,44.577606201171875,-23.00497055053711
3.17,0.45224347710609436,-10.77248764038086,-3.3786656856536865,1.4095715284347534,-0.18035796284675598,1.6342172622680664,-51.60771560668945,45.366851806640625,-23.925752639770508
3.189,-0.14715859293937683,-11.23789119720459,-3.239881753921509,1.2933545112609863,-0.19165895879268646,1.4451543092727661,-50.73078155517578,46.755332946777344,-25.29962158203125
3.193,-0.7549355626106262,-11.674581527709961,-3.190828800201416,1.256091594696045,-0.1365283876657486,1.3953689336776733,-50.90616989135742,47.1791877746582,-24.276527404785156
3.2,-0.5455635190010071,-11.760723114013672,-3.235095977783203,1.1908817291259766,-0.03787364438176155,1.345278024673462,-49.88307571411133,47.427650451660156,-25.445777893066406
3.21,-0.3852444291114807,-11.606385231018066,-3.438485860824585,1.1200214624404907,0.1036943718791008,1.3338242769241333,-49.63460922241211,48.099971771240234,-25.50423812866211
3.22,-0.4941178560256958,-11.277373313903809,-3.634697675704956,1.0745118856430054,0.2713768780231476,1.337183952331543,-48.976905822753906,48.2607421875,-26.585792541503906
3.23,-0.5096712112426758,-10.749755859375,-3.8943188190460205,1.0793988704681396,0.512210488319397,1.338405728340149,-48.30459213256836,49.31306457519531,-27.375036239624023
3.249,-0.45104703307151794,-9.836893081665039,-3.7950165271759033,1.157131552696228,0.860556423664093,1.3009902238845825,-47.95381546020508,50.07307434082031,-28.251972198486328
3.253,-0.3732803165912628,-9.773483276367188,-3.7938201427459717,1.171334147453308,0.8926268219947815,1.2927435636520386,-47.60304260253906,50.43846893310547,-28.456592559814453
3.26,-0.10767702013254166,-9.558130264282227,-3.6945178508758545,1.2180652618408203,0.9917396903038025,1.2768610715866089,-47.70534896850586,49.88307571411133,-28.52967071533203
3.27,0.06699903309345245,-9.469594955444336,-3.476771354675293,1.2580769062042236,1.0800096988677979,1.262047529220581,-46.95995330810547,50.90616989135742,-29.90353775024414
3.28,0.45583271980285645,-9.376275062561035,-3.4205398559570312,1.2663236856460571,1.111163854598999,1.2198978662490845,-46.521484375,51.169246673583984,-30.47354507446289
3.29,0.8338987231254578,-9.261420249938965,-3.387040376663208,1.2567025423049927,1.0728321075439453,1.1797335147857666,-46.185325622558594,52.17772674560547,-31.11663246154785
3.302,1.0899306535720825,-9.19442081451416,-3.3236305713653564,1.2250901460647583,0.9369145631790161,1.1116219758987427,-45.84916687011719,52.79158401489258,-31.935108184814453
3.31,1.2897313833236694,-9.308079719543457,-3.208775043487549,1.1866058111190796,0.816421389579773,1.0624473094940186,-45.790706634521484,53.37620544433594,-32.75358200073242
3.32,1.521835207939148,-9.55214786529541,-3.166900634765625,1.1033753156661987,0.6446155309677124,1.0056369304656982,-45.52762222290039,52.99620056152344,-33.060508728027344
3.33,1.6079767942428589,-9.409774780273438,-3.473181962966919,0.988379955291748,0.42302414774894714,0.970054030418396,-45.176849365234375,53.61005783081055,-34.08360290527344
3.34,1.6043875217437744,-8.857032775878906,-3.8021950721740723,0.933860182762146,0.2541199326515198,0.9520334601402283,-45.366851806640625,53.624671936035156,-34.50745391845703
3.35,1.5170494318008423,-8.511269569396973,-3.9840495586395264,0.9191994071006775,0.13500121235847473,0.9502009153366089,-44.46068572998047,54.282371520996094,-34.58053207397461
3.366,1.3232309818267822,-8.224130630493164,-4.096512317657471,0.9619600176811218,-0.03329215571284294,0.9752463102340698,-43.71529006958008,54.31160354614258,-35.01900100708008
3.37,1.1461620330810547,-8.293522834777832,-4.034298896789551,0.9683740735054016,-0.052839841693639755,0.9720392823219299,-43.452205657958984,54.54545593261719,-35.3843879699707
3.38,0.8530412316322327,-8.34855842590332,-3.975674629211426,0.9935723543167114,-0.11927143484354019,0.9480628371238708,-42.706809997558594,54.57468795776367,-35.57439422607422
3.39,0.751346230506897,-8.372486114501953,-3.9086756706237793,1.0239628553390503,-0.13637566566467285,0.9298896193504333,-42.12218475341797,55.11546325683594,-36.50979232788086
3.4,0.8327022790908813,-8.757730484008789,-3.7878382205963135,1.014647126197815,-0.17180584371089935,0.9129380583763123,-41.97603225708008,55.46623992919922,-37.13826370239258
3.419,0.6412764191627502,-8.98265552520752,-3.772284984588623,0.9818131327629089,-0.1966986060142517,0.8868235945701599,-41.084476470947266,55.583160400390625,-36.96287536621094
3.423,0.23808583617210388,-8.957530975341797,-3.85483717918396,0.9173668622970581,-0.16004669666290283,0.8280278444290161,-40.73370361328125,55.817012786865234,-37.86904525756836
3.43,0.2907279431819916,-8.967103004455566,-3.9278182983398438,0.9011789560317993,-0.12049316614866257,0.8058840036392212,-40.762935638427734,56.53317642211914,-38.54136276245117
3.44,0.665204644203186,-9.059226036071777,-4.101297855377197,0.8520042896270752,-0.031612277030944824,0.7811439037322998,-40.207542419433594,56.021629333496094,-38.161354064941406
3.45,1.007378339767456,-9.144170761108398,-4.295116424560547,0.7982481718063354,0.004123340360820293,0.7964155077934265,-39.783687591552734,56.25548553466797,-38.93598175048828
3.46,0.8997012972831726,-8.997013092041016,-4.545166492462158,0.7666358351707458,0.08445211499929428,0.8344419598579407,-39.389068603515625,56.620872497558594,-38.775211334228516
3.478,0.8793622851371765,-8.903693199157715,-4.60139799118042,0.7794640064239502,0.14523321390151978,0.8546004891395569,-39.06752395629883,57.2347297668457,-39.87138366699219
3.482,0.7310072779655457,-9.121438980102539,-4.285545349121094,0.7712173461914062,0.166460782289505,0.8452848196029663,-38.804443359375,56.79625701904297,-40.80678176879883
3.49,0.5682953596115112,-9.266205787658691,-4.18863582611084,0.7354817390441895,0.17409659922122955,0.8093964457511902,-38.029815673828125,57.67319107055664,-40.73370361328125
3.5,1.0061818361282349,-9.613164901733398,-4.238884925842285,0.7076873779296875,0.1647808998823166,0.7597636580467224,-38.1467399597168,57.117801666259766,-40.85062789916992
3.51,1.384247899055481,-9.930213928222656,-4.366901397705078,0.6704245805740356,0.1333213448524475,0.7425066828727722,-38.00058364868164,57.921661376953125,-41.80064392089844
3.52,1.4763715267181396,-10.070194244384766,-4.445864677429199,0.6093380451202393,0.10018189251422882,0.7435756921768188,-37.7667350769043,58.155513763427734,-41.888336181640625
3.539,1.4189437627792358,-10.229315757751465,-4.588237285614014,0.5396994352340698,0.04932736977934837,0.7509061098098755,-37.284420013427734,57.77550506591797,-42.48757553100586
3.543,0.8709874153137207,-10.076175689697266,-4.8538408279418945,0.451123982667923,0.027183502912521362,0.7257079482078552,-36.845951080322266,57.936275482177734,-42.706809997558594
3.55,0.8685945868492126,-10.124032020568848,-4.902893543243408,0.42730024456977844,0.052228979766368866,0.6937901973724365,-36.77287292480469,58.667057037353516,-43.262203216552734
3.56,1.1593225002288818,-10.27358341217041,-5.106283187866211,0.40194934606552124,0.10995574295520782,0.6655376553535461,-36.39286804199219,58.56474685668945,-43.67144012451172
3.57,1.561316728591919,-10.28195858001709,-5.263012886047363,0.40744709968566895,0.1644754558801651,0.6753115057945251,-35.9836311340332,58.57936096191406,-43.802982330322266
3.58,1.6941183805465698,-10.425528526306152,-5.2151570320129395,0.42271873354911804,0.19394971430301666,0.6985243558883667,-35.42823791503906,58.623207092285156,-43.56913375854492
3.599,1.695314884185791,-10.570293426513672,-5.209174633026123,0.42592576146125793,0.1814269870519638,0.671493649482727,-35.25284957885742,59.295528411865234,-43.84682846069336
3.604,1.782652735710144,-10.831111907958984,-5.029713153839111,0.4056145250797272,0.12018773704767227,0.6036875247955322,-35.12131118774414,59.14937210083008,-43.86144256591797
3.61,1.7551352977752686,-10.906484603881836,-4.828715801239014,0.3761402666568756,0.051770828664302826,0.5590943694114685,-34.82899475097656,59.12014389038086,-43.90529251098633
3.62,1.502692461013794,-11.270194053649902,-4.433900356292725,0.29993483424186707,-0.020158551633358,0.4677700698375702,-34.84361267089844,58.95936965942383,-43.802982330322266
3.63,1.3734800815582275,-11.26062297821045,-4.3070807456970215,0.19517144560813904,-0.03497203439474106,0.384234219789505,-34.229759216308594,59.39783477783203,-45.26454162597656
3.64,1.3184452056884766,-11.036894798278809,-4.309473514556885,0.10766499489545822,0.01160643994808197,0.3087923526763916,-34.31745147705078,59.485530853271484,-44.31452941894531
3.659,1.2789636850357056,-11.182855606079102,-4.908875465393066,0.04581489413976669,0.06414084881544113,0.24587324261665344,-34.08360290527344,59.7339973449707,-44.69453430175781
3.663,1.8484554290771484,-11.619545936584473,-5.367100715637207,0.0050396379083395,0.05467243865132332,0.15622878074645996,-33.791290283203125,59.82168960571289,-44.91376876831055
3.67,2.1714866161346436,-11.953344345092773,-5.416153907775879,-0.02122756652534008,-0.016493361443281174,0.11774427443742752,-33.41128158569336,59.8363037109375,-45.761470794677734
3.68,2.2983059883117676,-12.372089385986328,-5.438885688781738,-0.06108652427792549,-0.1414152979850769,0.06780604273080826,-33.70359420776367,60.099388122558594,-45.366851806640625
3.69,2.2923240661621094,-12.54915714263916,-5.290530681610107,-0.11591167747974396,-0.3013092875480652,-0.007635815534740686,-33.89359664916992,60.71324157714844,-44.94300079345703
3.7,2.1786649227142334,-12.711870193481445,-4.809573173522949,-0.1941024363040924,-0.4404338300228119,-0.09789115190505981,-33.08974075317383,60.26015853881836,-44.738380432128906
3.719,1.7898313999176025,-13.351949691772461,-4.5367913246154785,-0.2997821271419525,-0.5250386595726013,-0.19425514340400696,-33.8643684387207,60.1140022277832,-44.50453186035156
3.723,1.3531410694122314,-13.27538013458252,-4.120440483093262,-0.5303837656974792,-0.5207626223564148,-0.32879823446273804,-33.995906829833984,60.31861877441406,-44.50453186035156
3.73,1.1353943347930908,-12.616156578063965,-4.377668857574463,-0.66584312915802,-0.4967861771583557,-0.43478330969810486,-33.572052001953125,60.08477020263672,-43.61297607421875
3.74,0.8075776100158691,-11.895917892456055,-4.406383037567139,-0.7929030656814575,-0.4433354437351227,-0.6368269920349121,-34.171295166015625,60.47938919067383,-42.896812438964844
3.75,0.27038896083831787,-11.340782165527344,-4.633700847625732,-0.9228646755218506,-0.27290403842926025,-0.807563841342926,-34.47822189331055,60.50862121582031,-42.999122619628906
3.76,0.0011964113218709826,-10.498509407043457,-4.669593334197998,-0.945772111415863,-0.08552113175392151,-0.9947940707206726,-34.6682243347168,60.1140022277832,-42.56065368652344
3.779,-0.12323036044836044,-9.986444473266602,-4.348955154418945,-0.9437867999076843,0.11575896292924881,-1.1638509035110474,-36.67056655883789,60.216312408447266,-41.01139831542969
3.783,0.2751745879650116,-9.835697174072266,-4.194617748260498,-0.9221010804176331,0.3677408695220947,-1.3982704877853394,-36.59748840332031,60.24554443359375,-40.74831771850586
3.79,0.6305087208747864,-10.057032585144043,-4.006781578063965,-0.9219483733177185,0.4161519408226013,-1.4547755718231201,-37.211341857910156,60.581703186035156,-40.38292694091797
3.8,0.9726824164390564,-10.25922679901123,-3.4911282062530518,-0.9760099053382874,0.46043968200683594,-1.6019940376281738,-38.00058364868164,59.997074127197266,-40.74831771850586
3.81,1.550549030303955,-10.372885704040527,-3.427718162536621,-1.0506882667541504,0.42699480056762695,-1.7105753421783447,-39.140602111816406,60.04092025756836,-39.60830307006836
3.828,2.4538395404815674,-10.608579635620117,-3.469592809677124,-1.2328786849975586,0.028405234217643738,-1.913535237312317,-40.558319091796875,59.82168960571289,-38.38058853149414
3.832,2.596212387084961,-10.723433494567871,-3.3607192039489746,-1.2649492025375366,-0.05467243865132332,-1.938580870628357,-40.70447540283203,59.675533294677734,-37.88365936279297
3.84,2.565105676651001,-10.950752258300781,-3.2685956954956055,-1.3678799867630005,-0.3240639865398407,-2.0167715549468994,-42.01987838745117,59.22244644165039,-38.35136032104492
3.85,2.2025930881500244,-11.25344467163086,-3.018545627593994,-1.5387694835662842,-0.7435756921768188,-2.1168007850646973,-43.58374786376953,59.38322067260742,-36.24671173095703
3.86,1.3818550109863281,-11.686545372009277,-2.695514678955078,-1.6711745262145996,-0.9708175659179688,-2.152383804321289,-44.21221923828125,58.06781768798828,-35.282081604003906
3.87,1.0253244638442993,-11.887542724609375,-2.6452653408050537,-1.8093827962875366,-1.0548114776611328,-2.1621575355529785,-45.30839157104492,58.08243179321289,-35.23823165893555
3.889,0.21774685382843018,-11.822936058044434,-2.840280294418335,-1.9454530477523804,-0.9981537461280823,-2.068084239959717,-47.14995574951172,57.14703369140625,-31.876644134521484
3.893,0.02392822690308094,-11.641081809997559,-2.908475875854492,-1.948660135269165,-0.9265298247337341,-2.0479257106781006,-47.03303146362305,56.65010070800781,-32.680503845214844
3.9,-0.14356935024261475,-11.458030700683594,-2.974278450012207,-1.9142990112304688,-0.7802276015281677,-2.0120372772216797,-47.544578552246094,55.53931427001953,-30.6489315032959
3.91,-0.519242525100708,-11.387442588806152,-2.847459077835083,-1.8306103944778442,-0.5106833577156067,-1.9601138830184937,-48.494590759277344,54.9400749206543,-29.640457153320312
3.92,-0.6041877269744873,-11.49272632598877,-2.794816732406616,-1.75303053855896,-0.22892174124717712,-1.9312503337860107,-49.13768005371094,53.7562141418457,-28.646595001220703
3.93,-0.6041877269744873,-11.444869995117188,-2.6009981632232666,-1.6646077632904053,0.024434609338641167,-1.9379699230194092,-49.92692184448242,53.814674377441406,-28.325050354003906
3.943,0.007178467698395252,-11.669795989990234,-2.2576282024383545,-1.5471688508987427,0.3026837408542633,-1.979508876800537,-50.89155578613281,52.22157287597656,-27.1704158782959
3.95,0.31824538111686707,-12.000005722045898,-1.9992032051086426,-1.549154281616211,0.36483925580978394,-2.001194477081299,-51.65156173706055,51.914642333984375,-26.96579933166504
3.96,0.6364907622337341,-11.971291542053223,-2.0267207622528076,-1.5807665586471558,0.35506540536880493,-2.07663631439209,-52.79158401489258,50.80385971069336,-25.855012893676758
3.97,0.7932206988334656,-11.933006286621094,-1.9860427379608154,-1.6213890314102173,0.32162055373191833,-2.135737657546997,-53.317745208740234,50.19000244140625,-24.77345848083496
3.98,0.9762716293334961,-11.691330909729004,-2.2229323387145996,-1.663691520690918,0.29077184200286865,-2.191478967666626,-54.35545349121094,48.289974212646484,-24.714996337890625
3.99,1.23589289188385,-11.263016700744629,-2.390429735183716,-1.6937766075134277,0.21074850857257843,-2.250427484512329,-54.60391616821289,48.099971771240234,-23.458053588867188
4.003,0.9427720904350281,-10.697113037109375,-2.44785737991333,-1.6939293146133423,0.10186177492141724,-2.2730295658111572,-55.94855499267578,46.05378341674805,-23.414207458496094
4.01,0.647258460521698,-10.232906341552734,-2.5435705184936523,-1.648725152015686,0.10690141469240189,-2.2620339393615723,-56.76702880859375,46.112247467041016,-22.84419822692871
4.02,0.41036906838417053,-9.700502395629883,-2.3820548057556152,-1.5457943677902222,0.11331550031900406,-2.2901337146759033,-57.936275482177734,44.3437614440918,-22.464191436767578
4.03,0.3601197898387909,-9.611968040466309,-2.084148406982422,-1.4424055814743042,0.1339322030544281,-2.289370059967041,-58.40397644042969,43.3645133972168,-21.748027801513672
4.04,0.23808583617210388,-9.670592308044434,-1.868794322013855,-1.3550517559051514,0.16630806028842926,-2.2731821537017822,-58.56474685668945,41.99064636230469,-21.031862258911133
4.058,0.39960137009620667,-9.452845573425293,-1.7024933099746704,-1.2893837690353394,0.1771509051322937,-2.2684481143951416,-59.17860412597656,40.98217010498047,-21.09032440185547
4.062,0.8159525394439697,-9.467202186584473,-1.7252249717712402,-1.2273809909820557,0.12889257073402405,-2.2353086471557617,-60.23093032836914,39.330604553222656,-20.768781661987305
4.07,0.8805586695671082,-9.336793899536133,-2.080559253692627,-1.239598274230957,0.0682641938328743,-2.202932834625244,-60.90324401855469,38.775211334228516,-19.672609329223633
4.08,1.0360921621322632,-9.10110092163086,-2.366501569747925,-1.234253168106079,-0.03344487026333809,-2.163073778152466,-61.44401931762695,36.90441131591797,-20.476469039916992
4.09,1.117448091506958,-9.123832702636719,-2.4023938179016113,-1.2315043210983276,-0.1466076523065567,-2.085188627243042,-61.736331939697266,35.910552978515625,-19.83338165283203
4.1,0.9008976817131042,-8.849854469299316,-2.2636101245880127,-1.2475395202636719,-0.2396118938922882,-1.9593502283096313,-61.911720275878906,34.6243782043457,-19.46799087524414
4.119,0.5048855543136597,-8.306683540344238,-2.2851455211639404,-1.242194414138794,-0.2551889419555664,-1.8532124757766724,-62.18941879272461,34.03975296020508,-18.6933650970459
4.123,0.016749758273363113,-7.5457658767700195,-2.210968017578125,-1.1846203804016113,-0.20143280923366547,-1.7117971181869507,-62.160186767578125,31.774335861206055,-18.81028938293457
4.13,-0.17108681797981262,-7.130610942840576,-2.255235195159912,-1.1369730234146118,-0.1270599663257599,-1.6238324642181396,-62.569419860839844,31.71587371826172,-17.69950294494629
4.14,-0.26919254660606384,-6.762116432189941,-2.3772692680358887,-1.0325149297714233,-0.003359758760780096,-1.5094480514526367,-63.00789260864258,30.44431495666504,-18.459514617919922
4.15,-0.22133608162403107,-6.427121639251709,-2.5974087715148926,-0.922711968421936,0.11270463466644287,-1.4066699743270874,-63.24174499511719,29.97661590576172,-17.78719711303711
4.16,0.16390834748744965,-5.946164131164551,-2.926422119140625,-0.76846843957901,0.2096794992685318,-1.29549241065979,-63.168663024902344,28.661209106445312,-17.670272827148438
4.178,0.9212366938591003,-5.92223596572876,-2.9216363430023193,-0.6377432942390442,0.21365012228488922,-1.1731666326522827,-63.28559112548828,27.988893508911133,-16.6325626373291
4.182,1.2095718383789062,-6.233302593231201,-2.8869404792785645,-0.5120577812194824,0.1420261561870575,-0.9873108863830566,-63.79713439941406,27.375036239624023,-17.377958297729492
4.19,1.2131609916687012,-6.398407459259033,-2.84386944770813,-0.45585817098617554,0.078343465924263,-0.8827002644538879,-63.82636260986328,26.629642486572266,-18.00642967224121
4.2,1.3651052713394165,-6.421139240264893,-2.9072792530059814,-0.4092797338962555,-0.01237002108246088,-0.7577782869338989,-63.475589752197266,26.702720642089844,-17.933351516723633
4.21,1.6701900959014893,-6.381657600402832,-3.1130621433258057,-0.36529740691185,-0.1725694239139557,-0.5881105065345764,-63.5340576171875,26.05963134765625,-18.09412384033203
4.22,1.8532410860061646,-6.117250919342041,-3.3954150676727295,-0.32498031854629517,-0.3419318199157715,-0.4662429094314575,-63.358665466308594,25.67962646484375,-17.24641990661621
4.239,2.0099709033966064,-5.988038063049316,-3.55214524269104,-0.2698497176170349,-0.5401575565338135,-0.33307427167892456,-63.9140625,25.650394439697266,-16.866413116455078
4.243,1.9345970153808594,-5.583651542663574,-4.234099388122559,-0.17287485301494598,-0.7715228199958801,-0.09315694868564606,-63.00789260864258,25.168079376220703,-16.807950973510742
4.25,1.832902193069458,-5.411368370056152,-4.460221290588379,-0.12217304855585098,-0.8465065360069275,-0.016340645030140877,-63.168663024902344,25.007307052612305,-15.974861145019531
4.26,1.6031910181045532,-5.216352939605713,-4.498506546020508,0.021991148591041565,-1.0213667154312134,0.1586722582578659,-62.42327117919922,25.05115509033203,-16.267173767089844
4.27,0.8757730722427368,-5.198407173156738,-4.393222332000732,0.14477506279945374,-1.0709995031356812,0.3139847218990326,-62.20403289794922,24.641918182373047,-15.28792667388916
4.28,0.25363919138908386,-5.623133182525635,-4.2209391593933105,0.2981022298336029,-1.0196868181228638,0.46532657742500305,-61.28324890136719,25.67962646484375,-15.024847030639648
4.299,-0.363709032535553,-6.820741176605225,-4.015156269073486,0.40973785519599915,-0.9143125414848328,0.6276640295982361,-61.45863342285156,25.621164321899414,-15.41946792602539
4.304,-0.9439685344696045,-8.433503150939941,-4.254438400268555,0.535881519317627,-0.6499606370925903,0.8359690308570862,-60.771705627441406,25.92809295654297,-14.878690719604492
4.31,-0.98703932762146,-8.591429710388184,-4.212563991546631,0.5816964507102966,-0.49617525935173035,0.925308108329773,-60.75708770751953,26.717334747314453,-14.484068870544434
4.32,-0.9439685344696045,-7.88913631439209,-4.730610370635986,0.6372851133346558,-0.2721404433250427,1.0412198305130005,-59.93861389160156,27.433500289916992,-14.95176887512207
4.33,-0.7812565565109253,-7.1533427238464355,-4.84187650680542,0.7257079482078552,-0.0858265683054924,1.1313223838806152,-60.099388122558594,28.295820236206055,-14.11867904663086
4.34,-0.6149553656578064,-7.069594383239746,-4.735395908355713,0.7982481718063354,0.07788532227277756,1.2101240158081055,-59.76322937011719,28.80736541748047,-15.024847030639648
4.359,-0.576670229434967,-7.53021240234375,-4.596611976623535,0.8587237596511841,0.23228150606155396,1.3041971921920776,-59.880149841308594,29.201988220214844,-15.755626678466797
4.363,0.09690931439399719,-8.714659690856934,-4.682753562927246,0.9004153609275818,0.3933972120285034,1.436602234840393,-59.22244644165039,30.824321746826172,-16.091785430908203
4.37,0.3565305471420288,-9.034101486206055,-4.878964900970459,0.9222537875175476,0.42867469787597656,1.521359920501709,-59.792457580566406,31.13124656677246,-16.413330078125
4.38,0.8243273496627808,-9.297311782836914,-5.042873382568359,0.9607383012771606,0.40393462777137756,1.6140587329864502,-59.22244644165039,32.1689567565918,-16.515640258789062
4.39,1.4428720474243164,-9.280562400817871,-5.134997367858887,0.9813550114631653,0.29306259751319885,1.700343370437622,-59.35398864746094,32.59280776977539,-16.676410675048828
4.4,1.573280930519104,-9.221938133239746,-5.052444934844971,1.0227410793304443,0.14523321390151978,1.8020524978637695,-59.17860412597656,33.70359420776367,-16.676410675048828
4.419,1.171286702156067,-9.251848220825195,-5.01296329498291,1.052520751953125,0.016035212203860283,1.9172005653381348,-58.053199768066406,35.179771423339844,-17.071033477783203
4.423,0.7250252366065979,-9.335597038269043,-4.7473602294921875,1.1162035465240479,-0.07498370856046677,1.9950858354568481,-57.512420654296875,35.6036262512207,-16.807950973510742
4.43,0.3170489966869354,-9.418149948120117,-4.674378871917725,1.142012596130371,-0.07009679079055786,2.0470094680786133,-57.89242935180664,36.67056655883789,-17.100261688232422
4.44,-0.038285162299871445,-9.633503913879395,-4.382454872131348,1.1974486112594604,-0.03222314268350601,2.06854248046875,-56.78164291381836,37.854427337646484,-17.87489128112793
4.45,-0.11006983369588852,-9.993623733520508,-4.070191383361816,1.2293663024902344,0.016340645030140877,2.054797887802124,-56.79625701904297,39.11137008666992,-17.24641990661621
4.46,-0.30628129839897156,-10.601400375366211,-3.541377305984497,1.2203559875488281,0.023365594446659088,2.004248857498169,-55.53931427001953,39.973690032958984,-18.401052474975586
4.479,-0.44745784997940063,-11.108678817749023,-3.4468607902526855,1.1427761316299438,0.11056660860776901,1.9295705556869507,-54.79391860961914,41.61064147949219,-18.766441345214844
4.483,0.2464607208967209,-11.924631118774414,-3.700500249862671,1.0758863687515259,0.23548854887485504,1.8936822414398193,-54.37007141113281,41.74217987060547,-18.43028450012207
4.49,0.7525426745414734,-12.065807342529297,-3.9385857582092285,1.0317513942718506,0.27519479393959045,1.884671926498413,-54.22391128540039,42.77988815307617,-18.97106170654297
4.5,0.7405785322189331,-11.825328826904297,-4.310669898986816,0.9926559925079346,0.2991712689399719,1.8768833875656128,-53.94621658325195,43.40835952758789,-19.27798843383789
4.51,0.4666004180908203,-11.326425552368164,-4.3070807456970215,0.9989173412322998,0.3098613917827606,1.824501633644104,-53.7562141418457,44.41683578491211,-19.54106903076172
4.52,0.07417750358581543,-10.8430757522583,-4.01037073135376,1.058171272277832,0.39217546582221985,1.7351627349853516,-52.937740325927734,44.47529983520508,-20.2718505859375
4.539,-0.20099709928035736,-10.570293426513672,-3.620340585708618,1.146288514137268,0.5736024975776672,1.5735888481140137,-52.42618942260742,46.19994354248047,-21.57263946533203
4.542,-0.07657032459974289,-10.140782356262207,-3.6011979579925537,1.1731666326522827,0.6333145499229431,1.526857614517212,-52.294654846191406,46.44840621948242,-22.157264709472656
4.55,0.07657032459974289,-9.943374633789062,-3.562912940979004,1.209971308708191,0.7020369172096252,1.4726433753967285,-51.6807975769043,47.01841354370117,-22.74188804626465
4.56,0.17347964644432068,-9.549755096435547,-3.438485860824585,1.2528846263885498,0.7773259878158569,1.4110987186431885,-51.49079132080078,47.924583435058594,-22.917274475097656
4.57,0.3170489966869354,-9.584450721740723,-2.977867603302002,1.273043155670166,0.8199338316917419,1.3335187435150146,-50.950016021728516,48.31920623779297,-23.867290496826172
4.58,0.6975077390670776,-9.422935485839844,-3.0891339778900146,1.2273809909820557,0.8205447196960449,1.2738066911697388,-51.22771453857422,48.80152130126953,-25.25577163696289
4.599,1.2382856607437134,-9.262616157531738,-3.152543783187866,1.1917980909347534,0.7221954464912415,1.217149019241333,-50.979244232177734,50.08769607543945,-25.796550750732422
4.604,1.8077774047851562,-9.018548011779785,-3.483949661254883,1.1227703094482422,0.4879285991191864,1.180649757385254,-51.00847625732422,49.89768981933594,-26.045015335083008
4.61,1.875972867012024,-8.910871505737305,-3.4995031356811523,1.114981770515442,0.40103304386138916,1.1823296546936035,-50.365386962890625,50.526161193847656,-26.673486709594727
4.62,1.9214365482330322,-8.770891189575195,-3.5545380115509033,1.095739483833313,0.17211127281188965,1.1942416429519653,-50.10231018066406,51.154632568359375,-26.936567306518555
4.63,1.6977075338363647,-8.60219669342041,-3.6023943424224854,1.108567714691162,0.005345070734620094,1.2104294300079346,-49.766151428222656,51.81233215332031,-27.945045471191406
4.64,1.3543375730514526,-8.689535140991211,-3.3990042209625244,1.1249083280563354,-0.1062905564904213,1.2275335788726807,-49.225372314453125,52.19234085083008,-28.71967315673828
4.659,0.9678966999053955,-8.731410026550293,-3.3954150676727295,1.1252137422561646,-0.2203696370124817,1.2841914892196655,-47.96842956542969,53.36158752441406,-29.143524169921875
4.662,0.7537391185760498,-8.752944946289062,-3.400200843811035,1.1270463466644287,-0.22174407541751862,1.2918273210525513,-48.114585876464844,52.8208122253418,-29.085063934326172
4.67,0.38763725757598877,-8.751748085021973,-3.449253797531128,1.13620924949646,-0.18616119027137756,1.3194688558578491,-47.70534896850586,53.66851806640625,-28.778135299682617
4.68,0.3086740970611572,-8.706284523010254,-3.55214524269104,1.1731666326522827,-0.1085812970995903,1.327562928199768,-46.916107177734375,53.87313461303711,-29.742765426635742
4.69,0.39481574296951294,-8.833104133605957,-3.5676984786987305,1.1855366230010986,-0.03695734962821007,1.3390165567398071,-46.06840133666992,54.472373962402344,-29.961999893188477
4.7,0.32662028074264526,-8.737391471862793,-3.803391456604004,1.1940888166427612,0.01863138936460018,1.3474159240722656,-45.60070037841797,54.8962287902832,-30.765857696533203
4.719,0.6675975322723389,-8.933603286743164,-4.0833516120910645,1.203404426574707,0.1417207270860672,1.2705997228622437,-43.84682846069336,55.51008605957031,-32.31510925292969
4.722,0.8207381367683411,-8.986245155334473,-4.18983268737793,1.2021827697753906,0.15470163524150848,1.258840560913086,-43.978370666503906,55.67085647583008,-32.432037353515625
4.73,1.1617152690887451,-9.073582649230957,-4.396811485290527,1.207069754600525,0.156686931848526,1.2622002363204956,-43.84682846069336,56.401634216308594,-32.95820236206055
4.74,1.2251251935958862,-9.414560317993164,-4.3788652420043945,1.2000447511672974,0.1345430612564087,1.260825753211975,-43.23297119140625,56.182403564453125,-33.440513610839844
4.75,1.2418749332427979,-9.658628463745117,-4.255634784698486,1.1800389289855957,0.11453723162412643,1.244943380355835,-41.698333740234375,57.05934143066406,-33.732826232910156
4.76,1.4309078454971313,-9.868000030517578,-4.161118507385254,1.1510229110717773,0.0884227380156517,1.2356276512145996,-41.56679153442383,57.322418212890625,-34.536685943603516
4.779,1.31365966796875,-10.252047538757324,-4.089333534240723,1.0403034687042236,-0.039248090237379074,1.2030991315841675,-40.499855041503906,57.60011672973633,-36.159019470214844
4.783,1.23589289188385,-10.331010818481445,-4.12642240524292,1.0097602605819702,-0.07696902006864548,1.1867583990097046,-40.309852600097656,57.8193473815918,-36.34901809692383
4.79,1.1437692642211914,-10.42074203491211,-4.286741733551025,0.9694430828094482,-0.1267545372247696,1.153160810470581,-39.959075927734375,58.360130310058594,-36.75825881958008
4.8,1.0995019674301147,-10.441081047058105,-4.609772682189941,0.9311113357543945,-0.18051066994667053,1.105513334274292,-39.53522491455078,58.46243667602539,-35.910552978515625
4.81,1.1341978311538696,-10.432705879211426,-4.959124565124512,0.9146180152893066,-0.21319197118282318,1.064738154411316,-38.62905502319336,58.667057037353516,-36.919029235839844
4.82,1.062413215637207,-10.554740905761719,-5.07517671585083,0.9207265973091125,-0.22907446324825287,1.0445795059204102,-38.49751663208008,58.27243423461914,-37.839813232421875
4.835,0.8949156999588013,-10.712667465209961,-5.302494525909424,0.9111055135726929,-0.21380282938480377,0.9970847964286804,-37.4451904296875,58.71090316772461,-37.73750305175781
4.84,0.8889335989952087,-10.618149757385254,-5.402993679046631,0.9146180152893066,-0.1915062516927719,0.988990843296051,-36.87518310546875,58.81321334838867,-39.228294372558594
4.85,0.7884350419044495,-10.553544044494629,-5.282155990600586,0.9175195693969727,-0.14248430728912354,0.9668470025062561,-36.465946197509766,59.12014389038086,-38.61444091796875
4.86,0.6783652305603027,-10.572686195373535,-5.114657878875732,0.8894197344779968,-0.10644327104091644,0.9077457189559937,-35.80824279785156,59.16398620605469,-39.28675842285156
4.87,0.8410770893096924,-10.782058715820312,-4.951946258544922,0.8506298065185547,-0.048258356750011444,0.8530732989311218,-34.975154876708984,59.71937942504883,-39.579071044921875
4.88,1.0875378847122192,-10.929216384887695,-5.087141036987305,0.7570146918296814,0.03405573591589928,0.7980954647064209,-35.369773864746094,59.61707305908203,-40.28062057495117
4.899,1.4213366508483887,-10.486544609069824,-5.663811206817627,0.64217209815979,0.0007635815418325365,0.6307183504104614,-34.419761657714844,59.76322937011719,-40.149078369140625
4.903,1.4488540887832642,-10.371689796447754,-5.623133182525635,0.6386595964431763,-0.011301006190478802,0.6087271571159363,-34.726688385009766,59.280914306640625,-40.29523468017578
4.91,1.5553346872329712,-10.364510536193848,-5.471189022064209,0.611323356628418,-0.035735614597797394,0.5346598029136658,-34.127445220947266,60.099388122558594,-39.564453125
4.92,1.7599210739135742,-10.271190643310547,-5.499902248382568,0.5700899958610535,-0.06368270516395569,0.4512766897678375,-33.601287841796875,59.456298828125,-40.952938079833984
4.93,1.6271193027496338,-10.012765884399414,-5.435296535491943,0.5760459303855896,-0.11133018881082535,0.375071257352829,-32.987430572509766,59.982460021972656,-41.084476470947266
4.948,2.018345832824707,-10.621739387512207,-5.667400360107422,0.5833762884140015,-0.18448129296302795,0.28878653049468994,-33.11897277832031,60.1578483581543,-41.873722076416016
4.952,2.0338993072509766,-11.274980545043945,-5.808576583862305,0.5859724879264832,-0.3623957931995392,0.24678955972194672,-33.031280517578125,60.406314849853516,-42.41449737548828
4.96,2.0446667671203613,-11.759527206420898,-5.740381240844727,0.5749768614768982,-0.47601673007011414,0.19715675711631775,-33.08974075317383,59.71937942504883,-42.078338623046875
4.97,2.115255117416382,-12.252447128295898,-5.550151824951172,0.5429064631462097,-0.6511823534965515,0.11652254313230515,-32.59280776977539,59.92399978637695,-42.823734283447266
4.98,1.987239122390747,-12.717851638793945,-4.978267192840576,0.35842517018318176,-0.8156577944755554,0.040317103266716,-32.47588348388672,59.8363037109375,-41.80064392089844
4.99,1.4584254026412964,-13.131810188293457,-3.919443368911743,0.10506881773471832,-0.8200865387916565,-0.00931569468230009,-32.08126449584961,60.0555419921875,-42.73604202270508
5.009,0.7334001660346985,-12.955938339233398,-3.4193434715270996,-0.2070833146572113,-0.6328563690185547,0.0,-32.28588104248047,59.982460021972656,-42.48757553100586
5.013,-0.8386843204498291,-11.732008934020996,-4.0666022300720215,-0.5508477091789246,-0.021991148591041565,0.03298672288656235,-32.00818634033203,60.201690673828125,-41.99064636230469
5.02,-1.5780664682388306,-10.949556350708008,-4.694717884063721,-0.589790403842926,0.25992316007614136,0.005497787147760391,-31.935108184814453,60.172462463378906,-41.683719635009766
5.03,-1.0899306535720825,-10.25922679901123,-4.89571475982666,-0.5361869931221008,0.9230173230171204,-0.13897183537483215,-32.25665283203125,60.216312408447266,-41.332942962646484
5.04,0.16749757528305054,-9.90987491607666,-5.03449821472168,-0.4740314185619354,1.2736539840698242,-0.2460259646177292,-31.935108184814453,59.33937454223633,-40.572933197021484
5.05,0.9798608422279358,-9.421738624572754,-5.024927616119385,-0.3579670190811157,1.4648548364639282,-0.3744603991508484,-32.5051155090332,59.909385681152344,-40.514469146728516
5.068,1.9154545068740845,-9.119047164916992,-4.765305995941162,-0.21899518370628357,1.505019187927246,-0.5581781268119812,-32.56357955932617,59.38322067260742,-40.64601135253906
5.072,3.5198421478271484,-9.372685432434082,-4.222135543823242,-0.12400564551353455,1.313665747642517,-0.7834346890449524,-32.797428131103516,59.60245895385742,-40.07600402832031
5.08,4.486542224884033,-9.906285285949707,-3.810570001602173,-0.1336267739534378,1.0395399332046509,-0.9138544201850891,-33.425899505615234,59.310142517089844,-40.48523712158203
5.09,4.965106964111328,-10.798808097839355,-3.4540393352508545,-0.31062498688697815,0.31031954288482666,-1.152855396270752,-34.33206558227539,59.470916748046875,-39.973690032958984
5.1,4.53080940246582,-11.391032218933105,-3.207578659057617,-0.5707008242607117,-0.33536502718925476,-1.377806544303894,-34.47822189331055,59.70476150512695,-39.85676574707031
5.11,3.504288673400879,-11.21515941619873,-2.6153552532196045,-0.8648324608802795,-0.9036223888397217,-1.6084080934524536,-35.44285202026367,59.63168716430664,-38.96521759033203
5.13,2.275574207305908,-10.819147109985352,-2.1439690589904785,-1.1371256113052368,-1.3031282424926758,-1.8037323951721191,-36.290557861328125,58.79859924316406,-38.49751663208008
5.133,0.7525426745414734,-10.651649475097656,-2.197807550430298,-1.3994922637939453,-1.3813190460205078,-1.919033169746399,-36.97748947143555,58.7547492980957,-37.19672393798828
5.14,0.6640082597732544,-10.560722351074219,-2.54117751121521,-1.466840147972107,-1.3081679344177246,-1.9422460794448853,-37.35749816894531,58.46243667602539,-37.035953521728516
5.15,0.3960121273994446,-10.316654205322266,-3.0556344985961914,-1.4874567985534668,-1.2460123300552368,-1.9730947017669678,-38.51213073730469,58.623207092285156,-35.735164642333984
5.16,0.10887342691421509,-10.583454132080078,-3.1214370727539062,-1.4877623319625854,-1.1659890413284302,-2.007150411605835,-38.96521759033203,57.70242691040039,-34.726688385009766
5.17,-0.2392822504043579,-11.065608024597168,-2.853440999984741,-1.4908167123794556,-1.0419833660125732,-2.013259172439575,-39.53522491455078,57.64396286010742,-32.69511795043945
5.189,-0.4929214417934418,-11.429317474365234,-2.4909281730651855,-1.4924964904785156,-0.8509352803230286,-2.020895004272461,-40.207542419433594,56.76702880859375,-32.11049270629883
5.193,-0.49531427025794983,-11.69013500213623,-2.137986898422241,-1.524566888809204,-0.5230533480644226,-2.010662794113159,-41.2014045715332,56.10932540893555,-31.02893829345703
5.2,-0.4809573292732239,-11.855239868164062,-1.9860427379608154,-1.5494595766067505,-0.3500257730484009,-2.0007364749908447,-41.873722076416016,55.2762336730957,-30.34200668334961
5.21,-0.04666003957390785,-12.025130271911621,-1.8699908256530762,-1.6149749755859375,-0.17104226350784302,-2.016007900238037,-42.73604202270508,54.79391860961914,-29.36275863647461
5.22,0.5599204897880554,-12.088539123535156,-1.9130616188049316,-1.6774359941482544,-0.07956519722938538,-2.0260872840881348,-43.52528381347656,54.3408317565918,-27.755043029785156
5.23,0.7812565565109253,-12.0394868850708,-2.0123636722564697,-1.7369952201843262,-0.04749477282166481,-2.0167715549468994,-44.50453186035156,53.478515625,-27.41888427734375
5.249,0.4833501875400543,-11.782258987426758,-2.4430718421936035,-1.7832683324813843,-0.043218713253736496,-2.0610592365264893,-45.42531204223633,52.35311508178711,-26.556564331054688
5.253,0.9212366938591003,-10.86461067199707,-3.111865520477295,-1.7214181423187256,-0.08017606288194656,-2.1757493019104004,-46.56533432006836,51.82695388793945,-24.305757522583008
5.26,1.0791629552841187,-10.825128555297852,-2.9551358222961426,-1.656819224357605,-0.1814269870519638,-2.244777202606201,-47.74919891357422,50.760013580322266,-24.612686157226562
5.27,0.331405907869339,-11.545369148254395,-2.4263219833374023,-1.6406313180923462,-0.28069257736206055,-2.3157901763916016,-47.95381546020508,49.75153350830078,-24.32037353515625
5.28,-0.43908295035362244,-11.980862617492676,-2.204986095428467,-1.7284431457519531,-0.26404649019241333,-2.3687827587127686,-48.88921356201172,48.62613296508789,-23.443437576293945
5.29,-0.8159525394439697,-11.910274505615234,-1.904686689376831,-1.824654459953308,-0.07009679079055786,-2.420858860015869,-49.94153594970703,47.82227325439453,-21.718795776367188
5.309,-0.7800601124763489,-11.94257640838623,-1.5469597578048706,-1.9040669202804565,0.16752979159355164,-2.4245240688323975,-51.710025787353516,45.30839157104492,-20.418006896972656
5.313,-0.8231310248374939,-11.520244598388672,-1.5960125923156738,-1.9840903282165527,0.5700899958610535,-2.3020458221435547,-52.16311264038086,45.206077575683594,-20.315698623657227
5.32,-1.0552347898483276,-10.88016414642334,-1.8783657550811768,-1.9741637706756592,0.8510879278182983,-2.2262983322143555,-52.8792724609375,43.7445182800293,-19.511838912963867
5.33,-0.9990034103393555,-9.820143699645996,-2.392822504043579,-1.8842138051986694,1.2012665271759033,-2.1644482612609863,-53.215431213378906,42.76527404785156,-19.131834030151367
5.34,-0.2153540402650833,-9.188438415527344,-2.6189444065093994,-1.6673567295074463,1.4442380666732788,-2.160324811935425,-54.51622772216797,41.21601867675781,-18.81028938293457
5.35,0.8841480016708374,-9.004191398620605,-2.5734806060791016,-1.5094480514526367,1.4408783912658691,-2.166128158569336,-56.27009963989258,40.35369873046875,-18.34259033203125
5.369,1.6773686408996582,-8.940781593322754,-2.5052852630615234,-1.3788756132125854,1.317941665649414,-2.1700987815856934,-58.0385856628418,38.585208892822266,-18.839519500732422
5.373,2.24566388130188,-9.06161880493164,-2.3162522315979004,-1.2765556573867798,0.9923505187034607,-2.116189956665039,-58.28704833984375,37.41596221923828,-17.918737411499023
5.38,2.366501569747925,-9.19442081451416,-2.228914260864258,-1.2760974168777466,0.8573493957519531,-2.094046115875244,-58.60859298706055,36.0274772644043,-18.152587890625
5.39,2.1583259105682373,-9.23031234741211,-2.1714866161346436,-1.2899945974349976,0.5057964324951172,-2.0257818698883057,-59.76322937011719,35.41362380981445,-17.772581100463867
5.4,1.7407783269882202,-9.20997428894043,-2.1308083534240723,-1.3213015794754028,0.2733621895313263,-1.9788979291915894,-60.08477020263672,34.346683502197266,-17.81642723083496
5.41,1.3507484197616577,-8.918049812316895,-2.4287149906158447,-1.3231340646743774,0.1339322030544281,-1.9118554592132568,-60.3770866394043,33.14820098876953,-16.647178649902344
5.429,1.1940184831619263,-8.572286605834961,-2.5495524406433105,-1.2554807662963867,-0.10461067408323288,-1.7658586502075195,-61.034786224365234,31.408945083618164,-15.872551918029785
5.432,0.7932206988334656,-8.514859199523926,-2.286341905593872,-1.2475395202636719,-0.12049316614866257,-1.7443256378173828,-61.195556640625,30.415081024169922,-16.369482040405273
5.44,0.5599204897880554,-8.592625617980957,-2.255235195159912,-1.2292135953903198,-0.1488984078168869,-1.6811010837554932,-61.45863342285156,30.049694061279297,-16.106401443481445
5.45,0.5527420043945312,-8.462217330932617,-2.513659954071045,-1.1804970502853394,-0.15485434234142303,-1.5490015745162964,-61.88248825073242,28.558900833129883,-15.317158699035645
5.46,0.6604190468788147,-8.008777618408203,-2.644068956375122,-1.101084589958191,-0.11759155988693237,-1.395827054977417,-61.940948486328125,27.535808563232422,-15.580240249633789
5.47,0.662811815738678,-7.8041911125183105,-2.685943365097046,-1.0143417119979858,-0.09056076407432556,-1.223868489265442,-61.76556396484375,27.024263381958008,-15.41946792602539
5.489,0.42352959513664246,-7.508677005767822,-2.699103832244873,-0.9237809181213379,-0.07376197725534439,-1.0577131509780884,-61.59017562866211,25.577316284179688,-14.11867904663086
5.493,0.08853442966938019,-7.16650390625,-2.830709218978882,-0.7811439037322998,-0.0032070425804704428,-0.8549058437347412,-62.145572662353516,25.694242477416992,-14.35252857208252
5.5,0.041874393820762634,-7.0169525146484375,-2.9659035205841064,-0.7082982659339905,0.06001751124858856,-0.7612908482551575,-62.130958557128906,24.714996337890625,-14.45483684539795
5.51,0.45942193269729614,-6.478567123413086,-3.4133615493774414,-0.5618432760238647,0.1212567538022995,-0.6459900140762329,-62.715576171875,24.11575698852539,-13.504822731018066
5.52,0.9200402498245239,-6.355337142944336,-3.5820553302764893,-0.4075998365879059,0.12782354652881622,-0.4996877610683441,-62.30634307861328,23.794212341308594,-14.571762084960938
5.53,1.234696388244629,-6.1399827003479,-3.706482172012329,-0.25244006514549255,0.10491610318422318,-0.3323107063770294,-62.08710479736328,23.648056030273438,-14.07483196258545
5.549,1.219143033027649,-6.265605926513672,-3.298506021499634,0.022143863141536713,-0.03787364438176155,-0.004886921960860491,-62.51095962524414,23.28266716003418,-13.534053802490234
5.552,1.1892328262329102,-6.608975410461426,-2.9240291118621826,0.06780604273080826,-0.07330382615327835,0.0708603635430336,-62.24787902832031,23.238819122314453,-13.227126121520996
5.56,1.286142110824585,-6.748956203460693,-2.985046148300171,0.13545936346054077,-0.1313360333442688,0.18891006708145142,-62.42327117919922,22.873428344726562,-14.469453811645508
5.57,1.270588755607605,-6.690331935882568,-2.9898316860198975,0.20693059265613556,-0.2744311988353729,0.3439171314239502,-62.18941879272461,23.77959632873535,-13.899443626403809
5.58,1.0277173519134521,-6.819544315338135,-2.9240291118621826,0.2597704529762268,-0.41004326939582825,0.4715879559516907,-62.101722717285156,23.516515731811523,-13.840982437133789
5.59,0.5994020700454712,-7.7036919593811035,-3.1082763671875,0.31184670329093933,-0.513126790523529,0.6224716901779175,-61.86787414550781,24.057292938232422,-12.832504272460938
5.609,-0.005982056725770235,-9.604789733886719,-3.410968542098999,0.4576907753944397,-0.5195409059524536,0.9640980362892151,-61.429405212402344,24.656532287597656,-12.642502784729004
5.612,-0.0323031060397625,-9.523433685302734,-3.473181962966919,0.4943426847457886,-0.5054909586906433,1.0500773191452026,-61.56094741821289,24.714996337890625,-13.080970764160156
5.62,-0.15314064919948578,-9.08674430847168,-3.6047871112823486,0.5639813542366028,-0.4712825417518616,1.175610065460205,-61.034786224365234,24.96346092224121,-12.876352310180664
5.63,-0.29431718587875366,-8.187042236328125,-3.6873395442962646,0.6899722814559937,-0.3900374472141266,1.3214542865753174,-60.90324401855469,25.7088565826416,-12.759428024291992
5.64,-0.35892340540885925,-7.9142608642578125,-3.6705896854400635,0.8449793457984924,-0.27030786871910095,1.4263702630996704,-60.406314849853516,26.30809783935547,-12.876352310180664
5.65,-0.1172483041882515,-8.395217895507812,-3.5533413887023926,1.005178689956665,-0.1511891484260559,1.5445727109909058,-59.982460021972656,27.62350082397461,-12.774043083190918
5.669,-0.16510476171970367,-9.354740142822266,-3.163311243057251,1.1282680034637451,-0.00855211354792118,1.762804388999939,-59.41244888305664,29.201988220214844,-13.051739692687988
5.673,-0.30508488416671753,-9.41934585571289,-3.067598581314087,1.1355985403060913,0.009621127508580685,1.7864753007888794,-59.71937942504883,29.81584358215332,-13.534053802490234
5.68,-0.5060819387435913,-9.352347373962402,-3.142972707748413,1.1505646705627441,0.07177666574716568,1.8359553813934326,-58.857059478759766,30.590471267700195,-12.671732902526855
5.69,-0.4414757788181305,-9.175277709960938,-3.239881753921509,1.1858421564102173,0.15577064454555511,1.8709274530410767,-59.42707061767578,31.891260147094727,-12.788658142089844
5.7,0.12083754688501358,-9.115457534790039,-3.733999490737915,1.2443324327468872,0.256868839263916,1.9245309829711914,-58.667057037353516,32.78281021118164,-13.826367378234863
5.71,0.7657032608985901,-9.226723670959473,-4.000799655914307,1.2971723079681396,0.2567161023616791,2.007303237915039,-58.433204650878906,34.03975296020508,-13.256357192993164
5.725,1.1461620330810547,-9.598808288574219,-4.1347975730896,1.354135513305664,0.1846340149641037,2.0786216259002686,-57.921661376953125,34.916690826416016,-13.344051361083984
5.73,1.5002998113632202,-9.750751495361328,-4.112065315246582,1.3559681177139282,0.12018773704767227,2.0949623584747314,-57.512420654296875,36.17363357543945,-13.928675651550293
5.74,1.53858482837677,-10.18026351928711,-3.5808589458465576,1.3622294664382935,-0.06918048858642578,2.1566596031188965,-57.000877380371094,36.87518310546875,-14.659457206726074
5.75,1.0301101207733154,-10.827521324157715,-3.2817561626434326,1.3014483451843262,-0.22800545394420624,2.1600193977355957,-56.197017669677734,38.36597442626953,-14.571762084960938
5.76,0.5970092415809631,-11.2366943359375,-3.0759735107421875,1.1804970502853394,-0.33246341347694397,2.1171061992645264,-55.84624481201172,39.228294372558594,-14.659457206726074
5.77,0.22731813788414001,-11.408977508544922,-3.064009428024292,1.0974193811416626,-0.38117989897727966,2.0723602771759033,-55.29084777832031,40.587547302246094,-15.434082984924316
5.789,-0.6376872062683105,-11.546565055847168,-3.1369903087615967,0.976468026638031,-0.23640485107898712,1.949729084968567,-53.46390151977539,41.9029541015625,-14.440221786499023
5.792,-0.6867400407791138,-11.547761917114258,-3.2542386054992676,0.959669291973114,-0.2021963894367218,1.9280433654785156,-53.87313461303711,42.692195892333984,-15.653318405151367
5.8,-0.6891329288482666,-11.448458671569824,-3.7220354080200195,0.9144652485847473,-0.09437867254018784,1.8460346460342407,-52.893890380859375,42.18064880371094,-15.624086380004883
5.81,-0.14476576447486877,-10.794022560119629,-4.135993957519531,0.9327912330627441,0.04612032324075699,1.7049248218536377,-52.66004180908203,43.34989929199219,-15.551008224487305
5.82,0.13639087975025177,-10.352546691894531,-4.722235202789307,1.0057896375656128,0.22189679741859436,1.6749924421310425,-51.98772430419922,43.96375274658203,-16.837182998657227
5.838,0.31106695532798767,-9.827322959899902,-4.887340068817139,1.100168228149414,0.36621370911598206,1.6268868446350098,-51.344635009765625,45.22069549560547,-17.363344192504883
5.842,1.2179466485977173,-10.107282638549805,-4.442275047302246,1.228450059890747,0.5601634383201599,1.5900822877883911,-50.90616989135742,45.77608871459961,-17.567962646484375
5.85,1.7180465459823608,-10.243673324584961,-4.1659040451049805,1.2363911867141724,0.5873469114303589,1.6113097667694092,-50.70154571533203,46.8430290222168,-18.211048126220703
5.86,1.592423439025879,-9.945767402648926,-3.865604877471924,1.204626202583313,0.4717406630516052,1.58427894115448,-49.82461166381836,47.63227081298828,-18.547208786010742
5.87,1.054038405418396,-10.031908988952637,-3.6191442012786865,1.1352930068969727,0.38087448477745056,1.5166256427764893,-49.82461166381836,48.33382034301758,-18.56182289123535
5.88,1.2227323055267334,-9.795019149780273,-3.7471601963043213,1.0622947216033936,0.32162055373191833,1.4396566152572632,-49.15229415893555,49.42999267578125,-19.46799087524414
5.89,1.530210018157959,-9.561718940734863,-3.805784225463867,1.001055359840393,0.23289236426353455,1.3901766538619995,-48.479976654052734,49.51768493652344,-19.83338165283203
5.903,1.2418749332427979,-9.075976371765137,-4.150351047515869,0.9233227968215942,0.12140946835279465,1.337183952331543,-47.851505279541016,50.160770416259766,-20.73954963684082
5.91,1.1054840087890625,-8.93838882446289,-4.115654468536377,0.9135489463806152,0.07635815441608429,1.2844969034194946,-47.98304748535156,50.745399475097656,-20.798011779785156
5.92,1.0683952569961548,-8.807979583740234,-4.065405368804932,0.9100365042686462,0.04260785132646561,1.2341004610061646,-47.25226593017578,51.213096618652344,-21.20724868774414
5.93,0.9463613033294678,-8.592625617980957,-4.074976921081543,0.9346237778663635,0.06429356336593628,1.21027672290802,-46.740718841552734,51.505409240722656,-21.616485595703125
5.94,0.8530412316322327,-8.167899131774902,-4.217350006103516,0.9819658994674683,0.11270463466644287,1.1930198669433594,-46.170711517333984,51.52002716064453,-21.791873931884766
5.958,1.0325030088424683,-8.188239097595215,-4.000799655914307,1.0332785844802856,0.14676035940647125,1.165683627128601,-45.615318298339844,52.280033111572266,-22.37649917602539
5.962,1.5397813320159912,-8.736194610595703,-3.7088749408721924,1.0487028360366821,0.13255774974822998,1.1213958263397217,-45.14761734008789,53.08388900756836,-22.873428344726562
5.97,1.8293129205703735,-9.440881729125977,-3.2482566833496094,1.0131200551986694,0.05711590126156807,1.1178834438323975,-44.431453704833984,53.87313461303711,-23.50189971923828
5.98,1.852044701576233,-9.68494987487793,-3.6251261234283447,0.8863654732704163,-0.08597928285598755,1.0861183404922485,-43.71529006958008,53.80005645751953,-23.77959632873535
5.99,1.6893328428268433,-9.711270332336426,-3.786641836166382,0.7811439037322998,-0.2515237629413605,1.0422887802124023,-43.55451583862305,54.79391860961914,-24.364221572875977
6.0,1.4871392250061035,-9.492326736450195,-4.3788652420043945,0.6858489513397217,-0.33948835730552673,1.010523796081543,-42.10757064819336,54.82314682006836,-24.583454132080078
6.019,1.2382856607437134,-9.22313404083252,-4.411168098449707,0.6449209451675415,-0.3594941794872284,0.9912815690040588,-41.873722076416016,55.1593132019043,-25.372699737548828
6.023,0.9152546525001526,-9.156135559082031,-4.55354118347168,0.6247624158859253,-0.289702832698822,1.0143417119979858,-41.5814094543457,55.62701416015625,-25.080385208129883
6.03,0.48574298620224,-8.82951545715332,-4.577469348907471,0.645073652267456,-0.18860463798046112,1.0450377464294434,-41.42063903808594,55.53931427001953,-25.591930389404297
6.04,0.02153540402650833,-8.517251968383789,-4.577469348907471,0.7105889916419983,0.040164388716220856,1.0798569917678833,-41.069862365722656,56.211631774902344,-25.489622116088867
6.05,0.21774685382843018,-8.630910873413086,-4.478167533874512,0.7925975918769836,0.29764407873153687,1.0932960510253906,-40.324466705322266,56.44548416137695,-26.39579200744629
6.06,0.4223332107067108,-8.548358917236328,-4.621737003326416,0.8672758936882019,0.4917464852333069,1.091310739517212,-40.149078369140625,56.5770263671875,-26.278865814208984
6.079,0.9451649785041809,-8.891729354858398,-3.8333017826080322,0.9456194043159485,0.6262896060943604,1.0729848146438599,-39.91522979736328,57.39550018310547,-26.702720642089844
6.083,1.6905291080474854,-10.285547256469727,-3.7423744201660156,0.8689557909965515,0.5844453573226929,1.027475357055664,-39.31599044799805,57.84858322143555,-27.740427017211914
6.09,1.971685767173767,-10.17428207397461,-4.1347975730896,0.8098545670509338,0.479834645986557,0.9775370955467224,-38.8629035949707,57.83396911621094,-27.1704158782959
6.1,2.0925233364105225,-9.914660453796387,-4.360918998718262,0.7392996549606323,0.30283644795417786,0.90728759765625,-38.43905258178711,57.717044830322266,-28.193510055541992
6.11,2.1607186794281006,-9.984052658081055,-4.60020112991333,0.696539044380188,0.1472185254096985,0.817337691783905,-38.570594787597656,58.652442932128906,-28.82198143005371
6.12,2.1571295261383057,-10.621739387512207,-4.034298896789551,0.6362161040306091,-0.03726277872920036,0.7658722400665283,-37.89827346801758,58.6378288269043,-28.73428726196289
6.139,1.3112667798995972,-10.922039031982422,-4.341776371002197,0.5047274231910706,-0.1036943718791008,0.7257079482078552,-37.15288162231445,58.53551483154297,-29.859689712524414
6.143,1.0707881450653076,-10.15633487701416,-4.890929222106934,0.46822819113731384,-0.06643159687519073,0.6769914031028748,-36.480560302734375,58.94475555419922,-29.421222686767578
6.15,1.0049854516983032,-9.967302322387695,-5.079962253570557,0.47968190908432007,-0.01160643994808197,0.669355571269989,-36.655948638916016,58.9739875793457,-29.961999893188477
6.16,0.9786643981933594,-9.751948356628418,-5.801398277282715,0.5555819272994995,0.1417207270860672,0.6568328738212585,-36.34901809692383,58.22858810424805,-29.37737464904785
6.17,1.8340984582901,-9.475577354431152,-5.406582355499268,0.7324274182319641,0.2047925740480423,0.6710354089736938,-35.720550537109375,59.35398864746094,-30.049694061279297
6.18,1.499103307723999,-10.242477416992188,-4.135993957519531,0.7522805333137512,0.18738290667533875,0.6792821288108826,-35.472084045410156,58.57936096191406,-30.166616439819336
6.199,1.0277173519134521,-10.437492370605469,-4.825126647949219,0.7322747111320496,0.30772337317466736,0.6524040699005127,-35.25284957885742,59.41244888305664,-30.63431739807129
6.204,1.557727575302124,-10.717452049255371,-3.363112211227417,0.7484626173973083,0.26190847158432007,0.5476406812667847,-35.530548095703125,59.792457580566406,-31.75971794128418
6.21,1.432104229927063,-11.296515464782715,-2.798405885696411,0.6808093190193176,0.206777885556221,0.5057964324951172,-35.3843879699707,60.08477020263672,-31.394329071044922
6.22,1.137787103652954,-12.095718383789062,-2.9718856811523438,0.3104722499847412,0.16065755486488342,0.34926217794418335,-34.96053695678711,59.5586051940918,-31.803565979003906
6.23,1.7228323221206665,-11.033304214477539,-4.059423446655273,0.10674870014190674,0.07773260027170181,0.2298380434513092,-35.13592529296875,60.1578483581543,-30.722009658813477
6.24,1.6941183805465698,-10.535597801208496,-4.703092575073242,-0.03176499158143997,-0.00015271631127689034,0.12553280591964722,-34.77053451538086,59.982460021972656,-31.248172760009766
6.259,2.076970100402832,-10.798808097839355,-5.565705299377441,-0.05253440886735916,-0.04337143152952194,0.057421330362558365,-34.81438064575195,59.485530853271484,-30.985092163085938
6.263,2.630908489227295,-11.277373313903809,-6.029912948608398,-0.024434609338641167,-0.13988813757896423,0.04260785132646561,-34.63899612426758,59.310142517089844,-31.05817222595215
6.27,2.825923442840576,-11.1433744430542,-5.971288204193115,0.005497787147760391,-0.24617868661880493,0.031154125928878784,-34.755916595458984,59.96784591674805,-30.605087280273438
6.28,2.3820548057556152,-11.665009498596191,-4.77248477935791,-0.028405234217643738,-0.41202861070632935,-0.04245513305068016,-35.2674674987793,59.64630126953125,-30.47354507446289
6.29,2.7146570682525635,-12.236894607543945,-4.225724697113037,-0.1316414624452591,-0.530536413192749,-0.15424346923828125,-35.39900588989258,59.660919189453125,-30.6489315032959
6.3,2.7397818565368652,-12.382857322692871,-4.078566074371338,-0.3243694305419922,-0.6910412907600403,-0.2664899528026581,-35.22361755371094,59.047061920166016,-30.590471267700195
6.319,2.682354211807251,-11.816954612731934,-4.628915309906006,-0.6647740602493286,-1.003498911857605,-0.5734497308731079,-35.61824035644531,59.13475799560547,-29.070446014404297
6.322,2.5148565769195557,-10.63968563079834,-5.288137912750244,-0.6919575929641724,-1.0392345190048218,-0.6336199641227722,-35.39900588989258,59.00321578979492,-28.558900833129883
6.33,1.7407783269882202,-10.077371597290039,-5.160121917724609,-0.7000515460968018,-1.0293078422546387,-0.7218900322914124,-35.20900344848633,58.7547492980957,-27.4481143951416
6.34,0.6640082597732544,-9.882357597351074,-4.549952030181885,-0.7156286239624023,-0.9601274132728577,-0.8292495608329773,-35.69131851196289,57.9947395324707,-28.26658821105957
6.35,-0.468993216753006,-9.745965957641602,-4.358526229858398,-0.7105889916419983,-0.6385068893432617,-0.9595165848731995,-35.41362380981445,58.3162841796875,-27.813507080078125
6.36,-0.1579262912273407,-9.863214492797852,-4.4410786628723145,-0.6934847235679626,-0.27290403842926025,-1.100168228149414,-36.115169525146484,57.512420654296875,-27.930429458618164
6.379,0.5994020700454712,-10.206583976745605,-4.077369689941406,-0.7342600226402283,-0.06612616032361984,-1.21974515914917,-37.57673263549805,56.416255950927734,-26.775794982910156
6.383,1.3495519161224365,-10.907682418823242,-3.7328033447265625,-0.8834638595581055,-0.07956519722938538,-1.3829988241195679,-37.401344299316406,56.48933029174805,-26.468870162963867
6.39,0.9320043921470642,-10.928020477294922,-3.710071325302124,-1.0030407905578613,-0.1511891484260559,-1.4698944091796875,-38.40982437133789,56.6354866027832,-25.86962890625
6.4,1.215553879737854,-11.042876243591309,-3.7674992084503174,-1.1452195644378662,-0.22815817594528198,-1.6288721561431885,-38.96521759033203,55.52470016479492,-25.460391998291016
6.41,1.1294121742248535,-10.721041679382324,-3.912264823913574,-1.2660181522369385,-0.3199406564235687,-1.7275269031524658,-39.72522735595703,54.91084289550781,-24.817304611206055
6.42,1.8077774047851562,-10.53200912475586,-4.156332969665527,-1.330159068107605,-0.32788190245628357,-1.799150824546814,-40.41215896606445,54.267757415771484,-24.40806770324707
6.439,1.820937991142273,-10.870593070983887,-3.6741790771484375,-1.4563027620315552,-0.5742133259773254,-1.8034268617630005,-41.683719635009766,52.25080108642578,-22.434959411621094
6.442,1.439282774925232,-11.437692642211914,-3.482753276824951,-1.479362964630127,-0.6003278493881226,-1.8025106191635132,-42.22449493408203,52.323883056640625,-22.084184646606445
6.45,1.231107234954834,-11.201998710632324,-3.548555612564087,-1.514182209968567,-0.654542088508606,-1.8145751953125,-42.0052604675293,52.0169563293457,-21.631101608276367
6.46,1.1389836072921753,-11.526226043701172,-2.9718856811523438,-1.5554156303405762,-0.7228062748908997,-1.8403842449188232,-42.37065124511719,50.65769958496094,-21.251096725463867
6.47,0.7465606331825256,-11.769097328186035,-2.772084951400757,-1.6273449659347534,-0.7939720749855042,-1.843743920326233,-43.452205657958984,50.0584602355957,-20.008769989013672
6.48,0.6436693072319031,-11.876774787902832,-3.0544381141662598,-1.7043139934539795,-0.773202657699585,-1.9060522317886353,-43.51066970825195,49.13768005371094,-18.70798110961914
6.499,0.5934200286865234,-11.560921669006348,-3.22552490234375,-1.7365370988845825,-0.6982190012931824,-1.9656115770339966,-45.26454162597656,46.7991828918457,-18.079509735107422
6.503,0.2871387004852295,-11.37667465209961,-3.1657042503356934,-1.7218763828277588,-0.6203336119651794,-1.974927306175232,-44.928382873535156,46.22917175292969,-16.661794662475586
6.51,0.11485548317432404,-11.60279655456543,-3.0687947273254395,-1.710117220878601,-0.49586984515190125,-1.990657091140747,-45.68839645385742,45.498390197753906,-16.15024757385254
6.52,0.15194423496723175,-11.487940788269043,-3.1573293209075928,-1.7067574262619019,-0.30970868468284607,-2.018604278564453,-46.05378341674805,44.70914840698242,-16.32563591003418
6.53,0.19621144235134125,-10.840682983398438,-3.0556344985961914,-1.64414381980896,-0.05910121276974678,-2.032043218612671,-46.726104736328125,43.75913619995117,-15.697164535522461
6.54,0.7525426745414734,-10.834700584411621,-2.5746772289276123,-1.634827971458435,0.058948494493961334,-2.065946340560913,-46.95995330810547,42.706809997558594,-14.937153816223145
6.559,0.6675975322723389,-10.494918823242188,-2.4406790733337402,-1.6462817192077637,0.21395555138587952,-2.104583501815796,-48.6407470703125,40.29523468017578,-14.308682441711426
6.563,0.7130610942840576,-10.407581329345703,-2.441875457763672,-1.6468926668167114,0.21059578657150269,-2.1421515941619873,-48.72844314575195,39.5059928894043,-14.089447021484375
6.57,0.7752745151519775,-10.228119850158691,-2.581855535507202,-1.6589572429656982,0.18677204847335815,-2.185828447341919,-48.713829040527344,38.775211334228516,-13.577900886535645
6.58,1.1916255950927734,-9.858428955078125,-2.8833510875701904,-1.6723963022232056,0.10903944075107574,-2.266462802886963,-48.669979095458984,37.284420013427734,-14.498684883117676
6.59,1.9118653535842896,-9.858428955078125,-2.616551399230957,-1.6966781616210938,-0.07498370856046677,-2.286163091659546,-50.01461410522461,36.465946197509766,-13.709442138671875
6.6,1.234696388244629,-9.513862609863281,-2.651247262954712,-1.7353153228759766,-0.20494529604911804,-2.264019250869751,-50.20461654663086,34.88745880126953,-12.89096736907959
6.615,0.8997012972831726,-9.579665184020996,-2.286341905593872,-1.7360789775848389,-0.2750420570373535,-2.208583354949951,-50.993858337402344,33.572052001953125,-11.970184326171875
6.62,0.4737788736820221,-9.358328819274902,-2.403590202331543,-1.7453947067260742,-0.24648413062095642,-2.1684188842773438,-50.92078399658203,32.46126937866211,-12.394037246704102
6.63,-0.03110669180750847,-8.636893272399902,-2.7876384258270264,-1.671021819114685,-0.0429132841527462,-2.0470094680786133,-51.286170959472656,31.18971061706543,-12.101724624633789
6.64,0.2679961323738098,-9.012566566467285,-2.9204399585723877,-1.6242907047271729,0.118660569190979,-2.0256290435791016,-50.65769958496094,29.684301376342773,-12.306343078613281
6.65,1.1054840087890625,-9.04845905303955,-3.046063184738159,-1.6142114400863647,0.11026117950677872,-2.021047592163086,-51.593101501464844,28.646595001220703,-11.867875099182129
6.66,2.9276182651519775,-8.646464347839355,-3.0520453453063965,-1.5671747922897339,0.0277943667024374,-1.9460639953613281,-51.85618591308594,27.258113861083984,-11.385560035705566
6.679,-0.7286145091056824,-8.049454689025879,-3.1752755641937256,-1.4398094415664673,0.22937989234924316,-1.6617060899734497,-52.484657287597656,25.40192985534668,-11.692487716674805
6.682,-0.29431718587875366,-7.9896345138549805,-3.458824872970581,-1.3820825815200806,0.2770273983478546,-1.720807433128357,-52.42618942260742,25.78193473815918,-11.634024620056152
6.69,2.297109603881836,-8.115257263183594,-3.0652055740356445,-1.3290901184082031,0.17760907113552094,-1.756237506866455,-53.08388900756836,24.919614791870117,-11.487869262695312
