time,accel_x,accel_y,accel_z,gyro_x,gyro_y,gyro_z,mag_x,mag_y,mag_z
0.0,75.9632339477539,-9.691728591918945,17.966089248657227,-1.7320060729980469,8.926492691040039,2.9310872554779053,-69.1500015258789,-21.450000762939453,-15.90000057220459
0.009,77.34229278564453,-7.7763671875,13.828908920288086,-0.9326186776161194,13.056661605834961,-7.327718257904053,-68.55000305175781,-21.900001525878906,-17.25
0.019,77.99351501464844,-7.8529815673828125,14.288596153259277,7.06125545501709,9.992342948913574,-5.595712184906006,-69.30000305175781,-20.850000381469727,-15.750000953674316
0.038,78.79796600341797,-5.822698593139648,13.21599292755127,9.459418296813965,4.263399600982666,-2.2649309635162354,-71.25,-21.150001525878906,-16.5
0.041,76.76768493652344,-7.316680431365967,14.020444869995117,5.8621745109558105,10.525267601013184,-2.131699800491333,-69.75,-22.350000381469727,-14.700000762939453
0.05,76.46122741699219,-9.346963882446289,12.641385078430176,3.7304747104644775,3.9969370365142822,-0.2664624750614166,-69.75,-22.350000381469727,-14.700000762939453
0.06,77.57213592529297,-7.5848307609558105,12.60307788848877,2.6646246910095215,-5.595712184906006,14.255742073059082,-67.95000457763672,-22.950000762939453,-17.100000381469727
0.069,77.64875030517578,-6.818686485290527,12.756306648254395,4.396630764007568,-1.3323123455047607,11.724349021911621,-68.70000457763672,-21.450000762939453,-15.600000381469727
0.079,77.1507568359375,-6.01423454284668,13.254301071166992,2.2649309635162354,7.594180583953857,3.597243309020996,-70.20000457763672,-21.0,-16.350000381469727
0.089,77.30398559570312,-1.7621324062347412,12.066776275634766,1.4655436277389526,8.526799201965332,15.321592330932617,-69.0,-21.150001525878906,-16.5
0.103,77.26567840576172,-4.9799394607543945,16.855180740356445,10.125574111938477,-1.1990811824798584,18.385910034179688,-69.0,-21.150001525878906,-16.5
0.11,77.68705749511719,-9.308655738830566,12.02846908569336,-2.9310872554779053,8.526799201965332,13.323123931884766,-68.25,-22.350000381469727,-16.5
0.119,76.42292022705078,-11.951854705810547,12.258312225341797,-4.929555892944336,7.194486618041992,8.260336875915527,-69.45000457763672,-22.5,-16.650001525878906
0.13,76.65276336669922,-10.802638053894043,12.334927558898926,-3.3307809829711914,1.0658499002456665,8.793261528015137,-70.05000305175781,-22.350000381469727,-16.05000114440918
0.14,77.34229278564453,-9.730035781860352,11.03248119354248,-2.531393527984619,-0.2664624750614166,8.260336875915527,-70.05000305175781,-22.350000381469727,-16.05000114440918
0.158,76.92091369628906,-9.84495735168457,10.457873344421387,-4.529861927032471,9.326186180114746,2.9310872554779053,-70.20000457763672,-22.950000762939453,-17.400001525878906
0.162,77.22737121582031,-8.08282470703125,8.044517517089844,-3.597243309020996,13.722817420959473,13.189892768859863,-70.5,-22.80000114440918,-16.5
0.17,78.29997253417969,-5.592854976654053,14.173673629760742,7.9938740730285645,10.258805274963379,8.526799201965332,-70.5,-22.350000381469727,-16.5
0.179,78.03182220458984,-7.508216381072998,11.875240325927734,10.258805274963379,8.39356803894043,15.188361167907715,-70.20000457763672,-25.650001525878906,-15.15000057220459
0.19,76.03984832763672,-9.883264541625977,11.760318756103516,-3.597243309020996,16.25421142578125,7.594180583953857,-70.20000457763672,-25.650001525878906,-15.15000057220459
0.2,76.00154113769531,-9.615114212036133,12.48815631866455,9.192955017089844,9.592649459838867,20.91730499267578,-69.30000305175781,-22.350000381469727,-14.700000762939453
0.219,77.30398559570312,-7.354987621307373,12.986149787902832,11.591117858886719,9.859111785888672,7.06125545501709,-69.9000015258789,-21.75,-16.350000381469727
0.223,77.45721435546875,-9.078812599182129,12.7946138381958,10.525267601013184,14.522205352783203,9.859111785888672,-69.75,-23.100000381469727,-16.05000114440918
0.23,76.03984832763672,-11.798625946044922,12.986149787902832,-3.4640121459960938,16.25421142578125,-0.6661561727523804,-69.75,-23.100000381469727,-16.05000114440918
0.239,78.10843658447266,-11.683704376220703,14.250288963317871,-0.2664624750614166,10.791729927062988,13.722817420959473,-69.75,-23.100000381469727,-16.05000114440918
0.25,77.49552154541016,-8.619126319885254,15.207969665527344,1.3323123455047607,7.460949420928955,7.06125545501709,-71.25,-22.80000114440918,-15.450000762939453
0.26,77.45721435546875,-9.27034854888916,15.284584045410156,-12.124042510986328,22.51607894897461,9.192955017089844,-70.6500015258789,-24.150001525878906,-16.350000381469727
0.278,76.99752807617188,-4.9799394607543945,14.863204002380371,-5.995405673980713,4.663093090057373,7.06125545501709,-70.05000305175781,-22.80000114440918,-14.700000762939453
0.282,76.42292022705078,-3.4093432426452637,8.925583839416504,10.791729927062988,12.124042510986328,13.456355094909668,-71.4000015258789,-22.5,-14.40000057220459
0.29,78.56812286376953,-6.818686485290527,11.875240325927734,17.453292846679688,23.182235717773438,8.793261528015137,-71.4000015258789,-22.5,-14.40000057220459
0.3,76.4995346069336,-9.461885452270508,11.990161895751953,18.91883659362793,9.859111785888672,-1.8652373552322388,-70.20000457763672,-23.700000762939453,-16.350000381469727
0.309,77.57213592529297,-11.568782806396484,15.552734375,60.35375213623047,7.594180583953857,-10.525267601013184,-70.80000305175781,-23.100000381469727,-15.750000953674316
0.319,86.42110443115234,-11.91354751586914,19.80483627319336,64.084228515625,3.9969370365142822,-8.926492691040039,-69.9000015258789,-23.700000762939453,-16.650001525878906
0.339,76.19307708740234,-2.030282974243164,8.197746276855469,53.026031494140625,3.86370587348938,-7.594180583953857,-69.9000015258789,-22.950000762939453,-14.40000057220459
0.343,68.53163146972656,-21.337125778198242,14.135366439819336,3.7304747104644775,-0.2664624750614166,1.7320060729980469,-70.6500015258789,-25.200000762939453,-14.850000381469727
0.35,75.69508361816406,-17.468095779418945,14.709975242614746,-13.189892768859863,1.1990811824798584,11.058192253112793,-70.6500015258789,-25.200000762939453,-14.850000381469727
0.359,78.91288757324219,-10.113107681274414,16.510414123535156,-13.722817420959473,11.857580184936523,4.396630764007568,-70.5,-23.850000381469727,-14.700000762939453
0.369,76.76768493652344,0.9959878921508789,16.70195198059082,2.9310872554779053,14.92189884185791,7.460949420928955,-71.70000457763672,-23.700000762939453,-14.40000057220459
0.38,75.73339080810547,0.0,16.012420654296875,22.382848739624023,1.8652373552322388,21.183767318725586,-70.6500015258789,-24.900001525878906,-14.100000381469727
0.399,76.38461303710938,-8.427590370178223,13.407529830932617,25.846860885620117,8.260336875915527,26.113323211669922,-70.6500015258789,-24.900001525878906,-14.100000381469727
0.403,76.23138427734375,-14.480132102966309,12.066776275634766,7.594180583953857,12.790199279785156,28.24502182006836,-69.1500015258789,-23.25,-13.65000057220459
0.41,76.65276336669922,-17.276559829711914,12.105083465576172,-7.194486618041992,12.523736000061035,14.788667678833008,-70.5,-23.25,-13.65000057220459
0.42,76.80599212646484,-15.207969665527344,13.369222640991211,-4.130168437957764,4.929555892944336,30.90964698791504,-68.25,-24.750001907348633,-16.05000114440918
0.429,77.45721435546875,-9.615114212036133,12.22000503540039,-14.12251091003418,18.119447708129883,26.64624786376953,-68.25,-24.750001907348633,-16.05000114440918
0.44,76.69107055664062,-7.201758861541748,13.982137680053711,-5.329249382019043,16.520673751831055,29.444103240966797,-70.20000457763672,-24.750001907348633,-16.05000114440918
0.459,76.5761489868164,-7.623138427734375,15.093047142028809,8.660030364990234,9.059723854064941,36.63859176635742,-69.75,-26.250001907348633,-13.200000762939453
0.463,74.77571105957031,-9.883264541625977,18.464082717895508,1.8652373552322388,22.116384506225586,36.905052185058594,-69.9000015258789,-26.100000381469727,-14.850000381469727
0.47,74.46924591064453,-9.921571731567383,19.306842803955078,1.0658499002456665,13.189892768859863,26.246553421020508,-70.05000305175781,-24.750001907348633,-14.700000762939453
0.479,74.6990966796875,-8.044517517089844,19.843143463134766,6.395099639892578,15.987748146057129,26.246553421020508,-70.05000305175781,-24.750001907348633,-14.700000762939453
0.49,74.54586791992188,-6.435614109039307,18.195932388305664,12.390504837036133,13.722817420959473,31.975496292114258,-69.75,-25.500001907348633,-13.950000762939453
0.5,75.38862609863281,-7.4316020011901855,14.67166805267334,21.183767318725586,12.923430442810059,31.042879104614258,-70.95000457763672,-27.600000381469727,-13.65000057220459
0.519,76.92091369628906,-9.155426979064941,14.863204002380371,15.188361167907715,21.050535202026367,29.177640914916992,-70.95000457763672,-26.400001525878906,-14.100000381469727
0.523,77.8019790649414,-16.740259170532227,13.675680160522461,19.584991455078125,9.326186180114746,59.02143859863281,-70.20000457763672,-27.150001525878906,-14.850000381469727
0.53,76.61445617675781,-13.292608261108398,17.697938919067383,8.926492691040039,15.45482349395752,27.978559494018555,-70.20000457763672,-27.150001525878906,-14.850000381469727
0.54,76.00154113769531,-8.312667846679688,20.800825119018555,9.059723854064941,16.520673751831055,15.987748146057129,-69.30000305175781,-26.250001907348633,-13.500000953674316
0.549,76.15476989746094,-7.738059997558594,18.847156524658203,13.456355094909668,17.586523056030273,16.920366287231445,-71.55000305175781,-27.000001907348633,-13.200000762939453
0.559,75.61846923828125,-10.687716484069824,18.195932388305664,14.12251091003418,4.929555892944336,26.246553421020508,-69.1500015258789,-27.600000381469727,-15.15000057220459
0.579,76.65276336669922,-13.982137680053711,16.931795120239258,8.260336875915527,16.520673751831055,16.78713607788086,-69.1500015258789,-27.600000381469727,-15.15000057220459
0.583,77.26567840576172,-12.48815631866455,15.207969665527344,-8.260336875915527,9.326186180114746,8.39356803894043,-70.95000457763672,-27.600000381469727,-13.050000190734863
0.59,76.34630584716797,-10.41956615447998,21.14558982849121,2.6646246910095215,2.398162364959717,22.249616622924805,-69.75,-28.500001907348633,-12.450000762939453
0.6,77.1124496459961,-12.871228218078613,17.42978858947754,3.4640121459960938,8.526799201965332,17.986217498779297,-70.05000305175781,-28.950000762939453,-12.0
0.609,76.26969146728516,-12.105083465576172,15.24627685546875,-5.462480545043945,9.992342948913574,9.859111785888672,-70.6500015258789,-29.100000381469727,-14.100000381469727
0.62,78.60643005371094,-16.012420654296875,21.87342643737793,-10.791729927062988,9.592649459838867,5.329249382019043,-70.6500015258789,-29.100000381469727,-14.100000381469727
0.639,77.53382873535156,-17.161638259887695,16.203956604003906,-16.920366287231445,5.462480545043945,6.128636837005615,-69.9000015258789,-27.150001525878906,-14.40000057220459
0.642,74.08617401123047,-12.641385078430176,21.183897018432617,-21.050535202026367,3.7304747104644775,0.0,-70.20000457763672,-28.350000381469727,-12.600000381469727
0.65,76.26969146728516,-9.346963882446289,17.1999454498291,-18.78560447692871,7.460949420928955,10.791729927062988,-68.55000305175781,-27.000001907348633,-15.000000953674316
0.66,74.85232543945312,-9.308655738830566,18.962078094482422,-2.531393527984619,-3.0643184185028076,12.390504837036133,-69.1500015258789,-27.600000381469727,-12.600000381469727
0.67,75.84831237792969,-11.1474027633667,19.230228424072266,-8.793261528015137,-3.7304747104644775,19.45176124572754,-69.1500015258789,-27.600000381469727,-12.600000381469727
0.679,77.7253646850586,-11.41555404663086,17.774553298950195,-21.316997528076172,-1.9984685182571411,10.92496109008789,-69.45000457763672,-28.350000381469727,-14.100000381469727
0.699,76.46122741699219,-11.185709953308105,15.705963134765625,-24.11485481262207,3.0643184185028076,14.255742073059082,-71.4000015258789,-27.900001525878906,-14.40000057220459
0.703,74.7374038696289,-4.32871675491333,20.41775131225586,-7.460949420928955,-12.656967163085938,32.77488327026367,-70.20000457763672,-29.100000381469727,-13.65000057220459
0.71,75.04386138916016,-5.171475887298584,22.06496238708496,7.72741174697876,-13.456355094909668,26.379785537719727,-70.5,-28.950000762939453,-13.500000953674316
0.72,75.08216857910156,-3.294421434402466,24.516624450683594,16.65390396118164,-6.395099639892578,34.906585693359375,-70.5,-28.950000762939453,-13.500000953674316
0.729,72.70711517333984,-4.32871675491333,17.276559829711914,41.434913635253906,-15.45482349395752,41.168453216552734,-70.05000305175781,-30.450000762939453,-13.500000953674316
0.74,75.04386138916016,-13.330915451049805,17.1999454498291,39.16998291015625,-13.056661605834961,37.304744720458984,-70.95000457763672,-28.350000381469727,-13.65000057220459
0.759,76.72937774658203,-20.264522552490234,13.10107135772705,19.584991455078125,-5.196018218994141,32.77488327026367,-70.20000457763672,-29.55000114440918,-14.100000381469727
0.763,76.65276336669922,-19.460071563720703,14.173673629760742,15.588054656982422,-3.86370587348938,42.36753463745117,-70.20000457763672,-29.850000381469727,-14.100000381469727
0.77,74.62248229980469,-7.201758861541748,18.272546768188477,25.846860885620117,-7.06125545501709,44.89892578125,-70.20000457763672,-29.850000381469727,-14.100000381469727
0.78,74.35432434082031,-4.788403511047363,17.697938919067383,45.298622131347656,-9.059723854064941,48.22970962524414,-70.20000457763672,-30.600000381469727,-13.65000057220459
0.79,75.19709014892578,-8.08282470703125,16.05072784423828,44.49923324584961,-6.5283308029174805,57.15620040893555,-70.95000457763672,-29.850000381469727,-13.65000057220459
0.8,79.10442352294922,-23.405715942382812,12.90953540802002,15.321592330932617,-9.72588062286377,48.362937927246094,-70.05000305175781,-31.200000762939453,-13.200000762939453
0.818,78.9511947631836,-34.13174057006836,11.30063247680664,-25.7136287689209,-9.992342948913574,47.0306282043457,-67.95000457763672,-30.600000381469727,-12.600000381469727
0.822,74.16278839111328,-9.193734169006348,19.230228424072266,-9.459418296813965,-11.191424369812012,53.558956146240234,-67.95000457763672,-30.600000381469727,-12.600000381469727
0.829,74.77571105957031,-7.623138427734375,18.272546768188477,-2.9310872554779053,-6.395099639892578,46.897396087646484,-69.30000305175781,-33.60000228881836,-13.950000762939453
0.839,76.38461303710938,-12.48815631866455,14.441824913024902,8.926492691040039,-14.655436515808105,54.22511291503906,-70.20000457763672,-31.05000114440918,-13.65000057220459
0.85,77.7253646850586,-21.337125778198242,15.054739952087402,-2.131699800491333,-12.523736000061035,55.69065856933594,-71.25,-31.650001525878906,-14.250000953674316
0.86,78.03182220458984,-26.355371475219727,16.81687355041504,-24.51454734802246,-8.793261528015137,43.56661605834961,-69.45000457763672,-32.55000305175781,-13.65000057220459
0.879,76.38461303710938,-22.90772247314453,13.943830490112305,-24.781009674072266,-22.382848739624023,52.75957107543945,-69.45000457763672,-32.55000305175781,-13.65000057220459
0.883,73.74140930175781,-5.5545477867126465,20.379444122314453,-9.059723854064941,-20.784072875976562,61.01990509033203,-69.30000305175781,-34.80000305175781,-15.450000762939453
0.89,73.32003021240234,-5.4013190269470215,19.574993133544922,2.797856092453003,-18.652372360229492,66.21592712402344,-69.30000305175781,-33.60000228881836,-13.500000953674316
0.9,74.20109558105469,-10.802638053894043,16.81687355041504,17.586523056030273,-25.447166442871094,72.61102294921875,-70.20000457763672,-33.45000076293945,-15.15000057220459
0.91,75.84831237792969,-17.966089248657227,14.709975242614746,9.859111785888672,-26.113323211669922,76.34149932861328,-69.9000015258789,-34.5,-15.15000057220459
0.92,76.84429931640625,-19.574993133544922,14.748282432556152,11.990811347961426,-30.776416778564453,84.60183715820312,-69.9000015258789,-34.5,-15.15000057220459
0.934,76.15476989746094,-16.012420654296875,16.433799743652344,11.990811347961426,-30.110260009765625,92.19601440429688,-69.1500015258789,-34.95000076293945,-14.40000057220459
0.94,75.38862609863281,-17.238252639770508,17.085023880004883,3.9969370365142822,-22.915773391723633,86.86676788330078,-68.25,-37.5,-15.000000953674316
0.949,75.61846923828125,-21.413740158081055,14.288596153259277,11.324655532836914,-34.50688934326172,84.60183715820312,-67.5,-37.5,-14.700000762939453
0.96,78.10843658447266,-25.665842056274414,14.36521053314209,-2.6646246910095215,-35.17304611206055,88.06584930419922,-67.80000305175781,-36.60000228881836,-14.250000953674316
0.97,77.1890640258789,-26.087221145629883,13.292608261108398,-17.852985382080078,-27.17917251586914,84.06890869140625,-67.80000305175781,-36.60000228881836,-14.250000953674316
0.98,77.61044311523438,-27.15982437133789,13.21599292755127,-17.586523056030273,-37.17151641845703,85.66768646240234,-67.95000457763672,-38.85000228881836,-15.15000057220459
0.997,78.29997253417969,-24.36339569091797,13.139378547668457,-34.906585693359375,-26.379785537719727,94.72740936279297,-66.45000457763672,-38.400001525878906,-14.40000057220459
1.001,74.35432434082031,-17.889474868774414,10.381258964538574,-28.644716262817383,-41.30168533325195,94.0612564086914,-66.45000457763672,-38.400001525878906,-14.40000057220459
1.01,76.537841796875,-20.11129379272461,9.768342971801758,-21.583459854125977,-35.57273864746094,94.46094512939453,-66.45000457763672,-38.400001525878906,-14.40000057220459
1.02,80.06210327148438,-23.02264404296875,9.346963882446289,-5.995405673980713,-38.90352249145508,97.12557220458984,-66.45000457763672,-38.400001525878906,-14.40000057220459
1.029,82.0157699584961,-29.53487205505371,8.312667846679688,-23.848390579223633,-36.771820068359375,99.92343139648438,-66.45000457763672,-41.10000228881836,-15.600000381469727
1.05,80.13871765136719,-31.335311889648438,9.768342971801758,-14.522205352783203,-41.83460998535156,102.58805084228516,-66.9000015258789,-43.05000305175781,-17.400001525878906
1.054,78.79796600341797,-26.43198585510254,6.512228488922119,-23.581928253173828,-30.90964698791504,113.77947998046875,-65.70000457763672,-42.60000228881836,-17.400001525878906
1.06,78.75965881347656,-16.35718536376953,19.38345718383789,-22.649311065673828,-32.5084228515625,97.92495727539062,-65.70000457763672,-42.60000228881836,-17.400001525878906
1.07,84.16098022460938,-26.12552833557129,19.000385284423828,-44.23276901245117,-27.71209716796875,101.65543365478516,-64.95000457763672,-42.30000305175781,-18.450000762939453
1.08,87.57032012939453,-32.71437072753906,17.276559829711914,-64.88361358642578,-36.771820068359375,98.85757446289062,-64.6500015258789,-42.60000228881836,-17.400001525878906
1.089,89.8687515258789,-28.998571395874023,16.855180740356445,-61.552833557128906,-47.297088623046875,110.98162078857422,-64.6500015258789,-43.05000305175781,-19.200000762939453
1.109,100.67139434814453,-21.298818588256836,18.77054214477539,-67.01531219482422,-49.56201934814453,105.65237426757812,-64.5,-45.150001525878906,-17.55000114440918
1.113,99.63710021972656,-19.843143463134766,22.2948055267334,-88.19908142089844,-52.3598747253418,130.56661987304688,-64.05000305175781,-45.150001525878906,-17.55000114440918
1.12,94.542236328125,-23.9420166015625,20.724210739135742,-97.65850067138672,-62.75191116333008,142.15773010253906,-64.05000305175781,-45.900001525878906,-19.5
1.13,97.83665466308594,-20.341136932373047,19.421764373779297,-105.25267791748047,-66.08269500732422,162.40887451171875,-62.55000305175781,-44.400001525878906,-19.5
1.139,99.9052505493164,-15.629348754882812,19.306842803955078,-115.91117858886719,-67.5482406616211,162.94180297851562,-62.400001525878906,-46.5,-19.650001525878906
1.149,103.39120483398438,-13.254301071166992,18.387468338012695,-119.64165496826172,-67.94792938232422,191.4532928466797,-61.500003814697266,-45.60000228881836,-19.80000114440918
1.168,105.03841400146484,-12.258312225341797,17.276559829711914,-119.5084228515625,-87.0,209.4394989013672,-61.500003814697266,-45.60000228881836,-19.80000114440918
1.172,105.65132904052734,-12.7946138381958,16.931795120239258,-150.81776428222656,-82.86982727050781,231.4226531982422,-61.95000076293945,-48.45000076293945,-21.450000762939453
1.18,109.21390533447266,-15.744270324707031,13.10107135772705,-175.7320098876953,-84.20214080810547,237.15159606933594,-61.95000076293945,-48.45000076293945,-21.450000762939453
1.19,109.21390533447266,-11.91354751586914,14.556746482849121,-194.2511444091797,-102.72128295898438,266.72894287109375,-58.650001525878906,-49.650001525878906,-23.25
1.2,112.5083236694336,-9.346963882446289,14.135366439819336,-201.17916870117188,-101.9218978881836,284.71514892578125,-57.900001525878906,-49.20000076293945,-24.450000762939453
1.21,116.49227905273438,3.907337188720703,13.407529830932617,-204.6431884765625,-103.92036437988281,294.30780029296875,-57.900001525878906,-49.20000076293945,-24.450000762939453
1.229,118.67578887939453,9.883264541625977,8.65743350982666,-199.04747009277344,-96.59264373779297,298.8376770019531,-56.400001525878906,-49.650001525878906,-24.750001907348633
1.233,115.15152740478516,10.649409294128418,8.542511940002441,-214.10260009765625,-89.13169860839844,320.8208312988281,-53.55000305175781,-52.20000076293945,-26.100000381469727
1.24,110.47804260253906,14.058752059936523,8.197746276855469,-233.82081604003906,-92.46247863769531,323.3522033691406,-53.55000305175781,-52.20000076293945,-26.100000381469727
1.25,110.094970703125,17.161638259887695,7.5848307609558105,-257.5359802246094,-77.14088439941406,310.0290832519531,-52.05000305175781,-52.500003814697266,-26.100000381469727
1.259,109.78851318359375,17.276559829711914,6.129156112670898,-267.2618713378906,-89.93108367919922,298.8376770019531,-52.05000305175781,-52.500003814697266,-26.100000381469727
1.269,104.7319564819336,13.752294540405273,4.520252704620361,-233.28790283203125,-106.31852722167969,301.76873779296875,-50.400001525878906,-53.55000305175781,-29.250001907348633
1.289,92.39703369140625,4.8267107009887695,2.5665841102600098,-110.04900360107422,-90.86370086669922,292.8422546386719,-48.900001525878906,-55.05000305175781,-31.05000114440918
1.293,81.90084838867188,10.228029251098633,-0.9959878921508789,108.050537109375,-74.60948944091797,323.3522033691406,-47.400001525878906,-53.10000228881836,-31.350000381469727
1.3,76.537841796875,-9.959878921508789,14.901511192321777,189.1883544921875,-56.756507873535156,327.4823913574219,-47.400001525878906,-53.10000228881836,-31.350000381469727
1.31,68.761474609375,-24.286781311035156,21.030668258666992,196.1163787841797,-46.897396087646484,291.6431884765625,-47.400001525878906,-53.10000228881836,-31.350000381469727
1.32,62.74723815917969,-58.112064361572266,31.067161560058594,108.45022583007812,-18.385910034179688,189.32159423828125,-45.75,-57.60000228881836,-29.700000762939453
1.33,55.23902130126953,-51.59983444213867,18.77054214477539,54.22511291503906,-9.059723854064941,136.16232299804688,-45.150001525878906,-59.250003814697266,-27.750001907348633
1.349,47.19450378417969,-20.072986602783203,11.91354751586914,31.042879104614258,19.584991455078125,64.61714935302734,-43.80000305175781,-60.30000305175781,-27.150001525878906
1.353,39.456443786621094,-2.9496564865112305,11.30063247680664,53.29249572753906,36.238895416259766,-18.78560447692871,-43.05000305175781,-59.10000228881836,-27.150001525878906
1.36,35.5874137878418,14.97812557220459,14.97812557220459,90.06431579589844,50.62786865234375,-46.364471435546875,-43.05000305175781,-59.10000228881836,-27.150001525878906
1.37,35.43418502807617,21.720197677612305,16.433799743652344,128.56814575195312,45.69831466674805,-86.20060729980469,-45.45000076293945,-58.20000076293945,-25.500001907348633
1.379,30.645782470703125,16.778566360473633,12.7946138381958,153.34915161132812,61.81929397583008,-128.3016815185547,-45.0,-57.150001525878906,-23.850000381469727
1.389,28.002582550048828,2.5282769203186035,9.423578262329102,149.48544311523438,70.74578857421875,-186.25726318359375,-46.650001525878906,-57.30000305175781,-22.5
1.409,27.389667510986328,-9.002198219299316,9.730035781860352,133.36447143554688,70.21286010742188,-240.0826873779297,-46.650001525878906,-57.30000305175781,-22.5
1.413,30.722396850585938,-13.867216110229492,6.588842868804932,81.53751373291016,79.67227935791016,-315.4915771484375,-49.650001525878906,-55.05000305175781,-21.150001525878906
1.42,34.62973403930664,-12.143390655517578,1.6855180263519287,73.9433364868164,77.94027709960938,-345.8682861328125,-49.95000076293945,-53.55000305175781,-19.950000762939453
1.43,36.123714447021484,-9.653421401977539,-0.9576807022094727,77.94027709960938,78.60643005371094,-388.23583984375,-51.750003814697266,-51.000003814697266,-19.80000114440918
1.439,42.559329986572266,-9.117119789123535,-2.6815059185028076,81.13782501220703,70.87902069091797,-413.1500549316406,-51.750003814697266,-51.000003814697266,-19.80000114440918
1.45,50.91030502319336,-13.024456977844238,0.26815059781074524,77.14088439941406,61.68606185913086,-444.8591003417969,-51.750003814697266,-51.000003814697266,-19.80000114440918
1.469,59.49112319946289,-19.07699966430664,2.8347349166870117,44.89892578125,69.67993927001953,-478.4333801269531,-57.45000076293945,-45.30000305175781,-17.100000381469727
1.473,64.31783294677734,-26.623523712158203,5.631162166595459,16.920366287231445,77.54058074951172,-513.3399658203125,-60.000003814697266,-41.25,-15.000000953674316
1.48,68.53163146972656,-28.653806686401367,5.861005783081055,9.992342948913574,67.68146514892578,-525.3307495117188,-60.900001525878906,-38.85000228881836,-13.65000057220459
1.49,71.2514419555664,-28.07919692993164,5.592854976654053,-2.9310872554779053,79.40581512451172,-552.1102294921875,-60.900001525878906,-38.85000228881836,-13.65000057220459
1.5,76.4995346069336,-27.657817840576172,5.51624059677124,-7.460949420928955,89.93108367919922,-559.3047485351562,-61.80000305175781,-31.650001525878906,-11.700000762939453
1.51,82.89684295654297,-31.871612548828125,6.052541732788086,-4.263399600982666,90.73047637939453,-565.8330688476562,-61.80000305175781,-26.55000114440918,-11.40000057220459
1.528,86.99571228027344,-33.097442626953125,5.5545477867126465,-10.658498764038086,99.79019927978516,-565.1669311523438,-64.5,-22.350000381469727,-9.450000762939453
1.532,90.74982452392578,-30.79901123046875,4.32871675491333,-12.390504837036133,99.92343139648438,-567.298583984375,-63.45000076293945,-19.80000114440918,-10.350000381469727
1.54,94.542236328125,-27.427974700927734,2.5282769203186035,-7.327718257904053,108.84992218017578,-565.8330688476562,-63.45000076293945,-19.80000114440918,-10.350000381469727
1.549,96.4192886352539,-24.516624450683594,0.4596867263317108,0.0,111.38131713867188,-562.7687377929688,-62.55000305175781,-10.050000190734863,-6.900000095367432
1.559,99.36894989013672,-23.405715942382812,-2.1068975925445557,17.852985382080078,120.30780792236328,-558.2388916015625,-61.80000305175781,-8.100000381469727,-5.850000381469727
1.57,102.62506103515625,-24.095245361328125,-5.592854976654053,34.24042892456055,116.71056365966797,-560.37060546875,-61.650001525878906,-5.100000381469727,-6.300000190734863
1.59,106.34086608886719,-28.347347259521484,-4.520252704620361,48.76263427734375,101.52220153808594,-544.6492919921875,-59.70000076293945,-0.45000001788139343,-4.950000286102295
1.594,106.60901641845703,-28.883649826049805,-3.332728862762451,43.43338394165039,99.52373504638672,-534.3905029296875,-59.70000076293945,-0.45000001788139343,-4.950000286102295
1.6,106.60901641845703,-32.790985107421875,-6.703764915466309,44.76569747924805,93.79479217529297,-530.7932739257812,-56.55000305175781,7.200000286102295,-2.5500001907348633
1.61,107.71992492675781,-33.7869758605957,-4.865017890930176,47.9632453918457,87.79938507080078,-516.1378173828125,-54.30000305175781,10.350000381469727,0.6000000238418579
1.62,107.45177459716797,-32.10145568847656,-1.3407529592514038,55.02450180053711,78.47319793701172,-507.8774719238281,-52.650001525878906,11.40000057220459,-0.45000001788139343
1.63,108.06468963623047,-27.58120346069336,1.9153614044189453,41.83460998535156,80.07197570800781,-495.6202087402344,-49.80000305175781,13.500000953674316,2.1000001430511475
1.649,109.21390533447266,-27.27474594116211,4.596867084503174,33.04134750366211,84.20214080810547,-473.1041259765625,-49.80000305175781,13.500000953674316,2.1000001430511475
1.652,104.1190414428711,-32.52283477783203,8.312667846679688,13.056661605834961,80.07197570800781,-421.9433288574219,-45.900001525878906,17.55000114440918,0.9000000357627869
1.66,99.44556427001953,-40.22258758544922,6.703764915466309,-7.72741174697876,80.73812866210938,-402.22509765625,-43.80000305175781,18.450000762939453,2.8500001430511475
1.67,100.32662963867188,-43.287166595458984,5.363011837005615,-40.36906433105469,88.46553802490234,-374.77947998046875,-42.0,18.900001525878906,4.350000381469727
1.679,98.21973419189453,-45.81544494628906,2.451662540435791,-66.48238372802734,88.33231353759766,-336.6753234863281,-40.20000076293945,20.55000114440918,3.450000047683716
1.689,94.69546508789062,-49.87601089477539,0.07661445438861847,-91.3966293334961,72.0781021118164,-292.5758056640625,-40.20000076293945,20.55000114440918,3.450000047683716
1.709,93.16317749023438,-48.91832733154297,-0.9193734526634216,-110.71515655517578,67.5482406616211,-258.7350769042969,-34.80000305175781,24.30000114440918,9.15000057220459
1.713,93.9293212890625,-39.72459411621094,1.1492167711257935,-103.7871322631836,53.558956146240234,-183.5926513671875,-34.80000305175781,24.30000114440918,9.15000057220459
1.72,92.32041931152344,-38.920143127441406,-0.8810662031173706,-98.59111785888672,34.906585693359375,-144.2894287109375,-35.55000305175781,21.900001525878906,7.950000286102295
1.729,90.2901382446289,-38.34553527832031,-2.1068975925445557,-84.86830139160156,22.116384506225586,-83.13629150390625,-33.75,23.100000381469727,8.700000762939453
1.74,91.32443237304688,-36.27694320678711,-3.5242648124694824,-73.67687225341797,15.854516983032227,-36.63859176635742,-33.75,23.100000381469727,8.700000762939453
1.749,89.1792221069336,-29.76471519470215,-5.094861030578613,-48.09647750854492,10.125574111938477,10.258805274963379,-32.400001525878906,22.200000762939453,9.75
1.769,89.48567962646484,-24.171859741210938,-5.171475887298584,-9.992342948913574,-13.323123931884766,56.356815338134766,-32.400001525878906,21.0,10.350000381469727
1.772,90.32844543457031,-18.004396438598633,-5.056553840637207,37.57120895385742,-21.583459854125977,102.72128295898438,-31.80000114440918,21.600000381469727,11.40000057220459
1.779,90.13690185546875,-15.744270324707031,-6.01423454284668,64.084228515625,-23.98162269592285,121.90658569335938,-33.45000076293945,19.80000114440918,10.050000190734863
1.789,87.3404769897461,-16.548721313476562,-4.750096321105957,104.32006072998047,-38.37059783935547,165.4731903076172,-33.45000076293945,19.80000114440918,10.050000190734863
1.8,82.82022857666016,-18.962078094482422,-5.5545477867126465,125.50382232666016,-44.63246536254883,180.3950958251953,-31.200000762939453,19.05000114440918,10.350000381469727
1.81,82.24561309814453,-23.099258422851562,-3.9839515686035156,131.49923706054688,-40.36906433105469,201.17916870117188,-33.75,18.450000762939453,10.200000762939453
1.828,76.84429931640625,-22.17988395690918,-1.8770540952682495,150.95098876953125,-15.721285820007324,225.02755737304688,-32.70000076293945,18.30000114440918,9.0
1.832,54.587799072265625,-28.53888511657715,27.77273941040039,152.41653442382812,0.5329249501228333,229.5574188232422,-32.70000076293945,18.30000114440918,9.0
1.84,54.24303436279297,-30.4925537109375,52.51920700073242,46.764163970947266,25.447166442871094,183.1929473876953,-32.70000076293945,18.30000114440918,9.0
1.85,83.01176452636719,-14.939818382263184,128.7122802734375,-266.9953918457031,-129.2342987060547,57.55589294433594,-33.45000076293945,14.40000057220459,9.300000190734863
1.86,209.0042266845703,63.93476104736328,29.803022384643555,-190.65390014648438,-81.27105712890625,211.9709014892578,-34.20000076293945,15.600000381469727,9.300000190734863
1.869,150.96878051757812,78.64473724365234,-87.53201293945312,2.9310872554779053,5.8621745109558105,286.0474548339844,-33.45000076293945,14.100000381469727,9.75
1.889,48.88002014160156,19.574993133544922,-2.4899697303771973,47.430320739746094,-0.6661561727523804,287.1133117675781,-33.45000076293945,14.100000381469727,9.75
1.893,60.563724517822266,-65.9267349243164,18.4257755279541,-81.53751373291016,-20.784072875976562,233.9540557861328,-33.45000076293945,14.100000381469727,9.75
1.9,60.21895980834961,-58.9548225402832,19.99637222290039,-142.4241943359375,-38.37059783935547,186.92343139648438,-35.55000305175781,9.600000381469727,9.450000762939453
1.909,65.04566955566406,-21.0689754486084,14.786589622497559,-138.02755737304688,-50.62786865234375,181.19448852539062,-35.400001525878906,9.75,10.050000190734863
1.919,72.32404327392578,16.81687355041504,-0.8810662031173706,-24.51454734802246,-9.326186180114746,188.1225128173828,-35.55000305175781,8.850000381469727,9.15000057220459
1.93,72.43896484375,16.66364288330078,9.998186111450195,100.9892807006836,12.923430442810059,213.56967163085938,-35.55000305175781,8.850000381469727,9.15000057220459
1.945,88.10662078857422,-1.6089035272598267,30.224401473999023,77.80704498291016,10.92496109008789,212.23736572265625,-37.05000305175781,6.450000286102295,8.700000762939453
1.95,77.53382873535156,-35.12772750854492,20.992361068725586,36.771820068359375,13.856048583984375,196.64930725097656,-37.05000305175781,6.450000286102295,8.700000762939453
1.96,70.29376220703125,-31.60346221923828,19.153614044189453,-8.127105712890625,4.929555892944336,194.6508331298828,-37.95000076293945,4.800000190734863,9.300000190734863
1.97,75.84831237792969,-19.230228424072266,18.11931800842285,1.7320060729980469,10.525267601013184,165.07350158691406,-36.30000305175781,5.400000095367432,8.40000057220459
1.98,79.98548889160156,-6.856993675231934,9.078812599182129,-0.2664624750614166,10.125574111938477,174.9326171875,-36.30000305175781,5.400000095367432,8.40000057220459
1.99,81.441162109375,-9.155426979064941,20.226215362548828,-15.854516983032227,6.261868000030518,162.00918579101562,-36.45000076293945,2.1000001430511475,9.0
2.003,77.99351501464844,-22.17988395690918,19.574993133544922,-38.37059783935547,2.9310872554779053,128.3016815185547,-36.0,1.8000000715255737,9.90000057220459
2.01,76.88260650634766,-21.98834800720215,5.631162166595459,-35.306278228759766,6.5283308029174805,140.6921844482422,-36.900001525878906,0.15000000596046448,9.300000190734863
2.019,77.07414245605469,-15.361198425292969,5.70777702331543,-33.57427215576172,6.128636837005615,119.64165496826172,-39.0,-0.30000001192092896,9.90000057220459
2.03,80.06210327148438,-8.389283180236816,5.5545477867126465,-7.327718257904053,16.78713607788086,108.3169937133789,-39.0,-0.30000001192092896,9.90000057220459
2.04,76.537841796875,-6.665457725524902,2.9496564865112305,27.045940399169922,19.31852912902832,116.57733154296875,-38.25,0.30000001192092896,10.65000057220459
2.058,76.15476989746094,-4.6734819412231445,2.2218191623687744,35.306278228759766,16.520673751831055,119.37519073486328,-38.25,-1.5,9.450000762939453
2.062,77.99351501464844,-10.41956615447998,10.41956615447998,15.987748146057129,19.31852912902832,99.3905029296875,-38.25,-2.25,9.450000762939453
2.07,79.5641098022461,-25.321077346801758,16.127342224121094,-0.39969372749328613,16.12097930908203,103.52066802978516,-38.400001525878906,-1.350000023841858,10.050000190734863
2.08,77.61044311523438,-25.780763626098633,13.292608261108398,-29.044410705566406,15.588054656982422,92.99540710449219,-38.400001525878906,-1.350000023841858,10.050000190734863
2.09,74.2777099609375,-15.782577514648438,19.038692474365234,-22.51607894897461,19.45176124572754,77.67381286621094,-37.650001525878906,-2.8500001430511475,9.300000190734863
2.1,73.85633087158203,-10.84094524383545,22.869415283203125,-13.58958625793457,7.327718257904053,72.47779083251953,-38.55000305175781,-2.700000047683716,9.15000057220459
2.119,73.24341583251953,-13.292608261108398,16.970102310180664,-5.995405673980713,-3.197549819946289,71.2787094116211,-38.55000305175781,-3.450000047683716,10.200000762939453
2.123,75.9249267578125,-11.30063247680664,18.579004287719727,1.5987749099731445,-3.7304747104644775,63.418067932128906,-39.30000305175781,-3.450000047683716,10.950000762939453
2.13,77.1507568359375,-4.098873138427734,16.740259170532227,2.131699800491333,3.7304747104644775,69.28024291992188,-39.30000305175781,-3.450000047683716,10.950000762939453
2.139,75.81000518798828,-6.167463779449463,16.318878173828125,10.392036437988281,12.124042510986328,68.21439361572266,-37.95000076293945,-4.050000190734863,8.550000190734863
2.15,76.46122741699219,-10.036493301391602,13.177685737609863,12.523736000061035,0.9326186776161194,78.3399658203125,-37.80000305175781,-4.5,9.450000762939453
2.159,75.3503189086914,-9.385271072387695,14.135366439819336,10.791729927062988,8.660030364990234,73.81010437011719,-39.30000305175781,-5.700000286102295,9.90000057220459
2.178,76.30799865722656,-7.240066051483154,16.28057098388672,11.591117858886719,3.597243309020996,74.8759536743164,-40.05000305175781,-4.950000286102295,9.450000762939453
2.182,77.84028625488281,-10.955866813659668,15.782577514648438,5.595712184906006,-3.197549819946289,83.13629150390625,-37.05000305175781,-7.200000286102295,9.15000057220459
2.19,76.69107055664062,-20.264522552490234,14.058752059936523,-5.462480545043945,-3.597243309020996,84.73506927490234,-37.05000305175781,-7.200000286102295,9.15000057220459
2.2,72.82203674316406,-19.613300323486328,15.974113464355469,-11.324655532836914,-0.6661561727523804,82.7365951538086,-37.20000076293945,-6.300000190734863,9.0
2.209,72.74542236328125,-14.824896812438965,18.464082717895508,-12.523736000061035,3.197549819946289,73.14395141601562,-37.650001525878906,-6.750000476837158,10.350000381469727
2.22,75.58016204833984,-10.457873344421387,16.242263793945312,8.660030364990234,-2.531393527984619,82.07044219970703,-39.150001525878906,-7.050000190734863,9.0
2.239,75.46524047851562,-6.435614109039307,18.34916114807129,17.186830520629883,-3.3307809829711914,81.40428924560547,-39.150001525878906,-7.050000190734863,9.0
2.243,75.73339080810547,-7.6997528076171875,20.64759635925293,32.90811538696289,-17.586523056030273,87.0,-40.05000305175781,-8.100000381469727,10.200000762939453
2.25,75.77169799804688,-17.73624610900879,17.468095779418945,23.182235717773438,-13.056661605834961,89.5313949584961,-40.05000305175781,-8.100000381469727,10.200000762939453
2.26,75.23539733886719,-19.421764373779297,13.599065780639648,16.520673751831055,-12.923430442810059,96.99234008789062,-40.650001525878906,-8.25,10.050000190734863
2.269,75.77169799804688,-10.955866813659668,12.986149787902832,11.591117858886719,-7.194486618041992,102.98774719238281,-39.150001525878906,-9.0,9.0
2.279,75.73339080810547,-3.6391866207122803,17.238252639770508,27.84532928466797,-7.06125545501709,111.5145492553711,-39.150001525878906,-9.0,9.0
2.299,73.35833740234375,-7.048529624938965,20.341136932373047,43.56661605834961,-18.652372360229492,118.30934143066406,-37.95000076293945,-9.450000762939453,8.550000190734863
2.303,67.15257263183594,-25.89568519592285,18.34916114807129,15.321592330932617,-14.255742073059082,109.51607513427734,-38.25,-10.050000190734863,9.90000057220459
2.31,65.2372055053711,-44.819454193115234,7.010222434997559,2.2649309635162354,-9.72588062286377,106.98468017578125,-0.75,-10.050000190734863,9.90000057220459
2.32,69.60423278808594,-34.93619155883789,4.8267107009887695,-2.398162364959717,-17.586523056030273,111.5145492553711,-39.150001525878906,-10.5,9.0
2.33,75.2737045288086,-17.468095779418945,6.742072105407715,-1.5987749099731445,-5.462480545043945,119.24195861816406,-39.150001525878906,-10.5,9.0
2.34,82.13069152832031,-3.332728862762451,14.326903343200684,-3.597243309020996,0.9326186776161194,136.69525146484375,-37.80000305175781,-11.550000190734863,9.450000762939453
2.359,82.82022857666016,-4.941632270812988,18.732234954833984,-4.396630764007568,5.595712184906006,141.75804138183594,-39.75,-13.050000190734863,9.15000057220459
2.363,76.69107055664062,-20.494365692138672,13.599065780639648,-31.042879104614258,8.926492691040039,145.2220458984375,-39.75,-13.050000190734863,9.15000057220459
2.37,76.42292022705078,-26.393678665161133,6.129156112670898,-32.108726501464844,3.9969370365142822,162.5421142578125,-39.75,-13.050000190734863,9.15000057220459
2.38,76.07815551757812,-19.49837875366211,10.611102104187012,-39.16998291015625,8.660030364990234,181.06124877929688,-38.25,-12.300000190734863,8.700000762939453
2.39,80.40686798095703,-14.824896812438965,14.058752059936523,-38.90352249145508,9.592649459838867,177.73046875,-39.0,-14.550000190734863,7.950000286102295
2.4,78.29997253417969,-14.67166805267334,20.915746688842773,-33.04134750366211,18.2526798248291,179.86216735839844,-37.650001525878906,-15.90000057220459,9.75
2.418,71.48128509521484,-24.24847412109375,19.80483627319336,-42.36753463745117,21.050535202026367,164.5405731201172,-37.650001525878906,-15.90000057220459,9.75
2.422,63.85814666748047,-36.88985824584961,17.238252639770508,-53.42572784423828,19.052066802978516,164.27410888671875,-37.80000305175781,-16.950000762939453,8.700000762939453
2.43,54.66441345214844,-42.980709075927734,14.595053672790527,-41.967838287353516,9.459418296813965,176.7978515625,-38.400001525878906,-18.30000114440918,10.050000190734863
2.439,57.38422775268555,-46.313438415527344,6.358999729156494,-47.430320739746094,-0.39969372749328613,168.67074584960938,-37.650001525878906,-19.05000114440918,9.75
2.45,69.56592559814453,-37.924156188964844,4.213795185089111,-51.560489654541016,-0.2664624750614166,172.134765625,-37.95000076293945,-18.75,11.100000381469727
2.459,86.7275619506836,-25.70414924621582,11.492168426513672,-45.03215789794922,-18.78560447692871,195.983154296875,-37.95000076293945,-18.75,11.100000381469727
2.479,103.12305450439453,-16.47210693359375,18.808849334716797,-40.76875686645508,-17.053598403930664,213.0367431640625,-36.45000076293945,-20.25,7.800000190734863
2.483,91.63088989257812,-14.786589622497559,31.83330535888672,-39.83613967895508,-16.65390396118164,237.2848358154297,-36.45000076293945,-21.75,9.0
2.49,79.10442352294922,-32.21637725830078,20.800825119018555,-70.74578857421875,-4.929555892944336,230.62327575683594,-37.80000305175781,-21.900001525878906,9.450000762939453
2.5,71.213134765625,-38.422149658203125,19.919757843017578,-92.86217498779297,-3.197549819946289,227.29249572753906,-37.05000305175781,-23.55000114440918,9.450000762939453
2.51,63.24523162841797,-49.49293899536133,24.13355255126953,-99.65696716308594,-20.117916107177734,240.34915161132812,-37.05000305175781,-23.55000114440918,9.450000762939453
2.52,78.22335815429688,-57.192691802978516,-4.367023944854736,-121.77335357666016,-16.387441635131836,227.02603149414062,-35.55000305175781,-24.750001907348633,7.950000286102295
2.539,67.4973373413086,-32.40791320800781,-5.669469833374023,-64.48391723632812,-36.238895416259766,252.73965454101562,-36.45000076293945,-26.100000381469727,9.75
2.542,77.7253646850586,-29.190107345581055,-2.873042106628418,-32.5084228515625,-34.906585693359375,248.34303283691406,-34.5,-26.55000114440918,7.350000381469727
2.55,74.54586791992188,-38.34553527832031,4.596867084503174,-24.51454734802246,-31.842266082763672,253.93873596191406,-34.650001525878906,-28.350000381469727,7.800000190734863
2.559,67.84210205078125,-42.94240188598633,6.856993675231934,-14.522205352783203,-42.23430252075195,244.21286010742188,-34.650001525878906,-28.350000381469727,7.800000190734863
2.57,62.249244689941406,-38.000770568847656,12.641385078430176,3.597243309020996,-49.42878723144531,253.67227172851562,-35.55000305175781,-30.900001525878906,6.900000095367432
2.579,41.25688552856445,-47.309425354003906,13.024456977844238,8.660030364990234,-47.0306282043457,246.8774871826172,-34.5,-30.900001525878906,6.900000095367432
2.598,41.71657180786133,-64.66259765625,15.016432762145996,-27.71209716796875,-41.701377868652344,228.75804138183594,-33.75,-30.450000762939453,7.350000381469727
2.603,48.037261962890625,-61.48310089111328,19.766529083251953,-47.0306282043457,-45.831546783447266,236.21897888183594,-33.30000305175781,-32.400001525878906,5.400000095367432
2.61,75.2737045288086,-55.698707580566406,24.89969825744629,-57.02296829223633,-56.889739990234375,239.68299865722656,-33.30000305175781,-32.400001525878906,5.400000095367432
2.619,84.85050964355469,-47.539268493652344,27.198131561279297,-62.485450744628906,-54.75803756713867,247.2771759033203,-31.500001907348633,-34.80000305175781,6.600000381469727
2.629,72.28573608398438,-46.88804626464844,25.5892276763916,-65.15007781982422,-54.4915771484375,249.1424102783203,-31.950000762939453,-35.70000076293945,6.0
2.64,74.96724700927734,-65.73519897460938,20.724210739135742,-79.9387435913086,-61.41960144042969,263.7978515625,-31.950000762939453,-35.70000076293945,6.300000190734863
2.659,76.537841796875,-60.21895980834961,9.232041358947754,-72.87748718261719,-79.80551147460938,266.595703125,-32.70000076293945,-36.900001525878906,5.700000286102295
2.662,81.36454772949219,-42.559329986572266,0.9959878921508789,-73.54364013671875,-77.54058074951172,271.39202880859375,-32.70000076293945,-36.900001525878906,5.700000286102295
2.67,66.9610366821289,-44.05331039428711,-2.2218191623687744,-51.027565002441406,-79.0061264038086,275.12249755859375,-28.650001525878906,-37.650001525878906,4.5
2.68,52.3659782409668,-58.87820816040039,-2.2601263523101807,-54.89126968383789,-77.00765228271484,271.9249572753906,-27.450000762939453,-40.650001525878906,3.750000238418579
2.689,69.45100402832031,-67.99533081054688,-0.1149216815829277,-66.61561584472656,-68.88054656982422,264.0643005371094,-28.650001525878906,-39.150001525878906,3.750000238418579
2.7,70.79175567626953,-49.14817428588867,-0.38307225704193115,-35.839202880859375,-78.87289428710938,263.7978515625,-27.150001525878906,-41.10000228881836,2.25
2.715,60.10403823852539,-57.88222122192383,3.485957622528076,-53.69218826293945,-66.34915924072266,255.27105712890625,-27.150001525878906,-41.10000228881836,2.25
2.72,61.444793701171875,-66.8844223022461,9.576807022094727,-54.89126968383789,-74.34303283691406,259.93414306640625,-24.900001525878906,-41.55000305175781,2.700000047683716
2.73,64.35614013671875,-68.22517395019531,10.764330863952637,-63.684532165527344,-71.01225280761719,242.21438598632812,-24.150001525878906,-44.25,2.700000047683716
2.74,86.57433319091797,-72.86034393310547,14.058752059936523,-89.93108367919922,-69.54670715332031,241.28176879882812,-23.25,-42.45000076293945,1.0500000715255737
2.749,109.63528442382812,-70.25545501708984,18.88546371459961,-101.2557373046875,-83.5359878540039,235.28636169433594,-22.5,-44.400001525878906,0.0
2.759,127.67798614501953,-62.785545349121094,22.026655197143555,-116.71056365966797,-81.93721008300781,218.0995330810547,-22.5,-44.400001525878906,0.0
2.778,134.07530212402344,-50.25908279418945,21.75850486755371,-102.72128295898438,-90.19754791259766,190.5206756591797,-19.5,-45.150001525878906,-0.30000001192092896
2.782,117.10519409179688,-38.34553527832031,14.556746482849121,-102.05513000488281,-94.19448852539062,169.8698272705078,-19.5,-45.150001525878906,-0.30000001192092896
2.79,110.28650665283203,-33.71036148071289,6.473921298980713,-90.73047637939453,-93.79479217529297,131.7657012939453,-18.0,-46.650001525878906,-1.350000023841858
2.8,88.0300064086914,-31.60346221923828,-2.8347349166870117,-7.860642910003662,-93.79479217529297,104.18682861328125,-18.0,-45.60000228881836,-2.5500001907348633
2.81,59.72096633911133,-47.002967834472656,-4.405331134796143,123.77182006835938,-63.684532165527344,102.45481872558594,-18.0,-45.60000228881836,-2.5500001907348633
2.828,19.421764373779297,-59.72096633911133,-21.605276107788086,239.016845703125,-20.117916107177734,134.83001708984375,-16.650001525878906,-46.5,-4.5
2.832,-6.052541732788086,-90.71151733398438,6.3973069190979,223.4287872314453,8.127105712890625,122.03981018066406,-16.200000762939453,-47.25,-1.6500000953674316
2.84,-16.318878173828125,-97.68342590332031,23.060951232910156,155.21438598632812,29.044410705566406,82.20367431640625,-15.300000190734863,-47.55000305175781,-3.6000001430511475
2.85,-28.73042106628418,-67.91871643066406,38.19230651855469,-21.716691970825195,17.586523056030273,-22.116384506225586,-14.550000190734863,-47.85000228881836,-2.5500001907348633
2.86,-35.97048568725586,-8.848969459533691,14.250288963317871,-181.3277130126953,22.51607894897461,-152.81622314453125,-14.550000190734863,-47.85000228881836,-2.5500001907348633
2.869,-41.180267333984375,51.63814163208008,-14.211980819702148,-120.04134368896484,57.289432525634766,-223.69525146484375,-15.300000190734863,-47.55000305175781,-2.1000001430511475
2.88,-22.2948055267334,97.91326904296875,-1.647210717201233,12.923430442810059,72.47779083251953,-268.59417724609375,-15.750000953674316,-48.60000228881836,-2.5500001907348633
2.893,6.550535678863525,106.07271575927734,14.97812557220459,196.38284301757812,79.0061264038086,-329.61407470703125,-16.5,-46.35000228881836,-5.100000381469727
2.9,14.288596153259277,58.07375717163086,26.240449905395508,229.0244903564453,89.5313949584961,-375.0459289550781,-15.000000953674316,-48.30000305175781,-4.650000095367432
2.91,10.036493301391602,30.415939331054688,18.23423957824707,194.2511444091797,97.92495727539062,-425.6737976074219,-15.000000953674316,-48.30000305175781,-4.650000095367432
2.919,8.08282470703125,-1.4939818382263184,8.734047889709473,128.56814575195312,100.05665588378906,-476.5681457519531,-17.25,-45.900001525878906,-2.5500001907348633
2.93,17.966089248657227,-13.713987350463867,5.631162166595459,70.74578857421875,108.45022583007812,-511.4747314453125,-19.05000114440918,-45.150001525878906,-1.350000023841858
2.949,30.415939331054688,-9.53849983215332,7.738059997558594,40.76875686645508,121.90658569335938,-547.9801025390625,-18.30000114440918,-42.900001525878906,-0.30000001192092896
2.953,31.52684783935547,-6.205770969390869,7.967903137207031,31.44257164001465,130.83306884765625,-579.1561889648438,-18.30000114440918,-42.900001525878906,-0.30000001192092896
2.96,29.075185775756836,-18.617311477661133,10.764330863952637,17.986217498779297,131.7657012939453,-591.14697265625,-21.900001525878906,-41.10000228881836,-0.45000001788139343
2.97,30.837318420410156,-28.38565444946289,10.41956615447998,-26.64624786376953,125.50382232666016,-612.0643310546875,-22.05000114440918,-40.20000076293945,-0.6000000238418579
2.98,33.94020462036133,-40.452430725097656,5.51624059677124,-72.34455871582031,127.76875305175781,-633.1148681640625,-21.30000114440918,-39.30000305175781,-0.6000000238418579
2.99,42.367794036865234,-45.24083709716797,-1.8387469053268433,-92.3292465209961,113.3797836303711,-653.6324462890625,-22.950000762939453,-36.900001525878906,-1.6500000953674316
3.01,52.21274948120117,-44.206539154052734,-7.354987621307373,-86.20060729980469,86.60030364990234,-632.5819091796875,-22.950000762939453,-36.900001525878906,-1.6500000953674316
3.013,65.54366302490234,-39.72459411621094,-13.062764167785645,-53.026031494140625,66.08269500732422,-604.736572265625,-25.650001525878906,-31.500001907348633,0.15000000596046448
3.02,75.61846923828125,-41.10365295410156,-12.717999458312988,-49.02909469604492,70.3460922241211,-607.9341430664062,-25.650001525878906,-31.500001907348633,0.15000000596046448
3.03,75.2737045288086,-42.52102279663086,-16.931795120239258,-3.597243309020996,60.88667678833008,-573.6937255859375,-25.950000762939453,-31.500001907348633,0.45000001788139343
3.04,72.05589294433594,-47.80741882324219,-16.089035034179688,30.90964698791504,53.95865249633789,-565.5665893554688,-26.250001907348633,-28.200000762939453,1.0500000715255737
3.05,71.8643569946289,-61.023414611816406,-14.36521053314209,50.22817611694336,46.63093185424805,-542.6508178710938,-26.250001907348633,-28.200000762939453,1.0500000715255737
3.069,74.96724700927734,-77.95520782470703,-16.548721313476562,74.34303283691406,22.249616622924805,-526.2633666992188,-27.30000114440918,-25.80000114440918,1.8000000715255737
3.073,79.71733856201172,-91.74581146240234,-13.024456977844238,121.50688934326172,1.8652373552322388,-477.3675231933594,-28.05000114440918,-24.750001907348633,1.0500000715255737
3.08,90.71151733398438,-93.62286376953125,-1.9153614044189453,146.28790283203125,-2.9310872554779053,-453.6523742675781,-28.05000114440918,-24.750001907348633,1.0500000715255737
3.09,93.8910140991211,-94.04424285888672,1.5322890281677246,189.5880584716797,-17.32006072998047,-402.4915771484375,-28.950000762939453,-21.450000762939453,2.25
3.1,96.91728210449219,-96.45759582519531,5.2480902671813965,217.1669158935547,-35.57273864746094,-345.06890869140625,-28.950000762939453,-21.450000762939453,2.25
3.109,104.34888458251953,-105.30656433105469,9.117119789123535,205.5758056640625,-43.30015182495117,-294.174560546875,-28.200000762939453,-19.80000114440918,1.6500000953674316
3.129,108.52437591552734,-110.32481384277344,13.599065780639648,135.0964813232422,-40.102603912353516,-281.91729736328125,-26.700000762939453,-18.75,2.700000047683716
3.133,105.07672119140625,-115.26644897460938,11.453861236572266,18.652372360229492,-46.231239318847656,-212.1041259765625,-28.950000762939453,-16.80000114440918,0.9000000357627869
3.14,90.51998138427734,-109.21390533447266,4.367023944854736,-48.49617004394531,-48.76263427734375,-187.85604858398438,-28.950000762939453,-16.80000114440918,0.9000000357627869
3.15,82.97345733642578,-103.31459045410156,0.6512228846549988,-130.1669158935547,-36.905052185058594,-149.21897888183594,-28.950000762939453,-16.80000114440918,0.9000000357627869
3.16,76.30799865722656,-83.1266860961914,-1.455674648284912,-182.2603302001953,-37.83767318725586,-126.5696792602539,-28.80000114440918,-15.450000762939453,1.0500000715255737
3.169,74.58417510986328,-63.01538848876953,0.5363011956214905,-193.58499145507812,-37.57120895385742,-96.59264373779297,-26.250001907348633,-15.450000762939453,3.3000001907348633
3.189,77.26567840576172,-45.66221618652344,4.8267107009887695,-176.13169860839844,-30.776416778564453,-74.8759536743164,-28.80000114440918,-16.5,1.0500000715255737
3.193,77.61044311523438,-29.266721725463867,10.036493301391602,-117.50994873046875,-31.042879104614258,-49.56201934814453,-28.80000114440918,-17.400001525878906,2.5500001907348633
3.2,76.69107055664062,-17.046716690063477,17.544710159301758,-75.00918579101562,-27.045940399169922,-27.578866958618164,-28.80000114440918,-17.400001525878906,2.5500001907348633
3.21,75.73339080810547,-17.1999454498291,19.49837875366211,-13.456355094909668,-28.644716262817383,3.4640121459960938,-28.200000762939453,-14.850000381469727,3.0
3.22,78.52981567382812,-25.20615577697754,21.107282638549805,8.526799201965332,-14.255742073059082,12.523736000061035,-28.500001907348633,-14.550000190734863,3.6000001430511475
3.23,84.12267303466797,-30.37763023376465,19.230228424072266,9.859111785888672,-15.721285820007324,11.724349021911621,-27.30000114440918,-16.200000762939453,3.3000001907348633
3.25,89.94536590576172,-25.89568519592285,15.782577514648438,-23.04900360107422,-16.12097930908203,14.92189884185791,-29.250001907348633,-14.550000190734863,2.5500001907348633
3.253,95.49991607666016,-15.207969665527344,13.675680160522461,-35.57273864746094,-8.660030364990234,9.72588062286377,-28.05000114440918,-16.200000762939453,2.8500001430511475
3.26,97.45358276367188,7.891288757324219,6.971915245056152,-23.315465927124023,-1.9984685182571411,20.117916107177734,-28.05000114440918,-16.200000762939453,2.8500001430511475
3.27,94.65715789794922,12.986149787902832,4.367023944854736,3.197549819946289,5.196018218994141,53.29249572753906,-27.30000114440918,-16.5,3.6000001430511475
3.28,88.41307830810547,2.2218191623687744,5.2480902671813965,14.92189884185791,1.8652373552322388,65.28330993652344,-26.250001907348633,-16.950000762939453,3.6000001430511475
3.29,83.85452270507812,-12.29662036895752,8.389283180236816,-18.385910034179688,15.188361167907715,33.97396469116211,-26.250001907348633,-16.950000762939453,3.6000001430511475
3.309,81.13470458984375,-7.5848307609558105,6.282385349273682,-33.17457962036133,21.983154296875,53.159263610839844,-26.250001907348633,-16.950000762939453,3.6000001430511475
3.313,81.32624053955078,1.6089035272598267,-3.8307228088378906,57.955589294433594,65.81623077392578,201.9785614013672,-25.80000114440918,-17.400001525878906,4.350000381469727
3.32,94.73377227783203,-82.4754638671875,45.777137756347656,43.69984436035156,13.456355094909668,252.20672607421875,-28.200000762939453,-18.30000114440918,4.950000286102295
3.329,116.99027252197266,-143.1157989501953,56.69469451904297,-166.40582275390625,28.644716262817383,157.21286010742188,-27.30000114440918,-18.900001525878906,4.650000095367432
3.34,142.9625701904297,-115.18983459472656,20.379444122314453,-251.14088439941406,55.55742645263672,79.67227935791016,-27.30000114440918,-18.900001525878906,4.650000095367432
3.35,133.9220733642578,10.802638053894043,7.891288757324219,-175.9984588623047,56.09035110473633,102.18836212158203,-25.950000762939453,-19.80000114440918,5.700000286102295
3.369,130.66595458984375,134.3817596435547,16.548721313476562,-65.016845703125,51.960182189941406,165.3399658203125,-26.250001907348633,-20.850000381469727,6.600000381469727
3.372,107.6050033569336,150.0877227783203,8.96389102935791,159.07809448242188,74.34303283691406,168.9372100830078,-25.80000114440918,-19.200000762939453,6.150000095367432
3.38,69.91069030761719,70.06391906738281,35.6257209777832,267.1286315917969,46.09800720214844,189.5880584716797,-25.80000114440918,-19.200000762939453,6.150000095367432
3.39,99.40725708007812,23.673866271972656,14.748282432556152,307.76416015625,28.77794647216797,234.8866729736328,-25.80000114440918,-19.200000762939453,6.150000095367432
3.4,133.99868774414062,-48.535255432128906,11.262324333190918,229.69065856933594,55.55742645263672,183.1929473876953,-25.80000114440918,-22.350000381469727,5.100000381469727
3.409,121.5871353149414,-99.44556427001953,-11.453861236572266,107.91730499267578,78.73966217041016,134.83001708984375,-26.700000762939453,-22.950000762939453,6.750000476837158
3.429,65.62027740478516,-62.93877410888672,-15.514427185058594,22.915773391723633,64.21745300292969,158.9448699951172,-25.500001907348633,-24.750001907348633,6.150000095367432
3.432,59.031436920166016,-15.744270324707031,10.074800491333008,15.854516983032227,59.4211311340332,141.35833740234375,-25.500001907348633,-24.750001907348633,6.150000095367432
3.44,70.67683410644531,-8.65743350982666,23.903709411621094,41.035221099853516,63.551300048828125,129.36753845214844,-25.650001525878906,-25.200000762939453,8.550000190734863
3.449,84.81220245361328,-5.784391403198242,42.21456527709961,82.20367431640625,50.22817611694336,123.2388916015625,-27.150001525878906,-24.150001525878906,9.0
3.459,85.5783462524414,-13.560758590698242,47.424346923828125,100.18988800048828,41.568145751953125,110.98162078857422,-27.150001525878906,-24.450000762939453,8.25
3.47,81.441162109375,-35.5874137878418,40.52904510498047,50.36140823364258,4.263399600982666,103.92036437988281,-26.700000762939453,-25.200000762939453,6.750000476837158
3.489,103.42951202392578,-63.66661071777344,16.89348793029785,-34.10719680786133,-16.78713607788086,108.58345794677734,-26.700000762939453,-25.200000762939453,6.750000476837158
3.493,157.40440368652344,-47.922340393066406,-14.748282432556152,-117.11026000976562,24.381317138671875,127.5022964477539,-25.05000114440918,-25.500001907348633,8.40000057220459
3.5,134.87974548339844,35.395877838134766,-9.576807022094727,-59.02143859863281,41.434913635253906,153.61561584472656,-24.450000762939453,-27.600000381469727,7.500000476837158
3.51,89.48567962646484,54.089805603027344,7.163451671600342,81.93721008300781,43.83307647705078,201.0459442138672,-24.30000114440918,-27.000001907348633,7.950000286102295
3.519,60.1806526184082,-1.4939818382263184,10.036493301391602,106.05206298828125,39.43644714355469,168.80397033691406,-25.950000762939453,-26.850000381469727,7.500000476837158
3.53,46.313438415527344,-53.170433044433594,20.11129379272461,47.56355285644531,29.444103240966797,142.82388305664062,-25.950000762939453,-26.850000381469727,7.500000476837158
3.55,46.35174560546875,-83.89282989501953,38.000770568847656,-15.321592330932617,23.04900360107422,83.13629150390625,-23.55000114440918,-27.000001907348633,9.15000057220459
3.553,71.94097137451172,-31.83330535888672,29.64979362487793,-15.854516983032227,0.5329249501228333,58.62174606323242,-23.55000114440918,-27.000001907348633,9.15000057220459
3.559,76.15476989746094,-22.06496238708496,28.960264205932617,12.656967163085938,-13.856048583984375,70.47932434082031,-24.450000762939453,-27.900001525878906,8.25
3.57,85.31019592285156,-22.677879333496094,25.665842056274414,34.50688934326172,-25.580398559570312,59.55436325073242,-25.650001525878906,-28.80000114440918,9.75
3.579,81.4028549194336,-44.66622543334961,7.738059997558594,3.0643184185028076,-29.044410705566406,59.4211311340332,-25.650001525878906,-28.80000114440918,9.75
3.59,69.9873046875,-52.82566452026367,4.060565948486328,-18.78560447692871,-30.776416778564453,63.684532165527344,-24.30000114440918,-29.250001907348633,7.650000095367432
3.603,73.0901870727539,-34.13174057006836,1.7621324062347412,-30.110260009765625,-9.459418296813965,55.29096221923828,-23.55000114440918,-28.950000762939453,7.950000286102295
3.61,78.72135162353516,-18.77054214477539,10.879252433776855,-16.78713607788086,-7.72741174697876,66.08269500732422,-24.450000762939453,-27.600000381469727,8.25
3.62,74.62248229980469,-19.766529083251953,13.10107135772705,-2.131699800491333,-7.860642910003662,79.13935852050781,-24.30000114440918,-28.500001907348633,7.650000095367432
3.63,66.5013427734375,-36.04710006713867,13.905523300170898,-14.255742073059082,-6.661561965942383,69.81317138671875,-24.30000114440918,-28.500001907348633,7.650000095367432
3.64,68.49332427978516,-51.10184097290039,8.542511940002441,-31.44257164001465,-7.72741174697876,60.22052001953125,-24.750001907348633,-30.150001525878906,7.650000095367432
3.649,71.71112823486328,-47.730804443359375,6.129156112670898,-54.75803756713867,7.06125545501709,55.29096221923828,-24.150001525878906,-29.100000381469727,8.25
3.666,74.6990966796875,-32.10145568847656,11.224017143249512,-42.23430252075195,5.196018218994141,75.40888214111328,-24.750001907348633,-30.450000762939453,6.600000381469727
3.67,79.98548889160156,-21.796812057495117,16.970102310180664,-41.83460998535156,-3.197549819946289,77.00765228271484,-24.750001907348633,-30.450000762939453,6.600000381469727
3.68,78.26166534423828,-21.298818588256836,19.536685943603516,-45.56508255004883,5.462480545043945,84.4686050415039,-24.750001907348633,-30.450000762939453,6.600000381469727
3.69,77.87859344482422,-27.236438751220703,23.3291015625,-60.08728790283203,6.395099639892578,96.72587585449219,-23.400001525878906,-29.55000114440918,6.300000190734863
3.7,77.763671875,-29.611486434936523,20.41775131225586,-60.88667678833008,-3.9969370365142822,100.58958435058594,-22.950000762939453,-30.30000114440918,7.500000476837158
3.718,72.09420013427734,-30.875625610351562,20.685903549194336,-59.15467071533203,-10.791729927062988,116.31086730957031,-22.950000762939453,-30.30000114440918,6.750000476837158
3.722,78.10843658447266,-28.002582550048828,13.943830490112305,-45.298622131347656,-5.728943347930908,133.09800720214844,-22.80000114440918,-31.650001525878906,6.600000381469727
3.73,75.69508361816406,-27.083209991455078,15.476119995117188,-37.17151641845703,-17.453292846679688,145.75497436523438,-22.80000114440918,-31.650001525878906,6.600000381469727
3.739,78.989501953125,-26.815059661865234,14.09705924987793,-17.186830520629883,-21.84992218017578,151.48391723632812,-23.55000114440918,-31.650001525878906,5.850000381469727
3.749,73.74140930175781,-32.10145568847656,18.195932388305664,-25.313934326171875,-12.124042510986328,160.14395141601562,-22.650001525878906,-31.05000114440918,5.25
3.759,73.16680145263672,-44.0150032043457,15.591041564941406,-48.49617004394531,-26.246553421020508,158.81163024902344,-22.80000114440918,-31.950000762939453,4.350000381469727
3.778,80.1770248413086,-38.34553527832031,8.465897560119629,-43.03369140625,-28.511484146118164,164.27410888671875,-22.80000114440918,-31.950000762939453,6.600000381469727
3.782,70.52360534667969,-25.81907081604004,12.7946138381958,-11.457886695861816,-35.03981399536133,175.19908142089844,-22.80000114440918,-31.950000762939453,6.600000381469727
3.79,51.29337692260742,-40.682273864746094,13.407529830932617,-19.45176124572754,-20.650842666625977,178.79632568359375,-23.25,-33.900001525878906,4.650000095367432
3.8,49.9143180847168,-54.31964874267578,12.066776275634766,-45.43185043334961,-21.983154296875,174.79937744140625,-23.25,-34.80000305175781,5.850000381469727
3.81,63.589996337890625,-53.51519775390625,10.879252433776855,-60.35375213623047,-22.116384506225586,190.65390014648438,-21.75,-33.900001525878906,5.400000095367432
3.82,78.3382797241211,-37.27293395996094,13.330915451049805,-55.4241943359375,-15.987748146057129,188.78866577148438,-21.0,-35.10000228881836,4.650000095367432
3.839,74.08617401123047,-31.22039031982422,16.740259170532227,-42.23430252075195,-25.447166442871094,192.3859100341797,-21.0,-35.10000228881836,4.650000095367432
3.843,73.89463806152344,-46.96466064453125,16.58702850341797,-50.36140823364258,-32.37519073486328,217.5666046142578,-19.5,-35.55000305175781,3.9000000953674316
3.85,94.42731475830078,-45.164222717285156,11.30063247680664,-56.22358322143555,-46.09800720214844,231.1562042236328,-20.700000762939453,-35.70000076293945,4.5
3.859,92.39703369140625,-34.93619155883789,13.024456977844238,-42.101070404052734,-40.9019889831543,230.62327575683594,-20.400001525878906,-36.45000076293945,4.5
3.87,64.93074798583984,-35.77894973754883,11.951854705810547,-30.509952545166016,-41.168453216552734,233.9540557861328,-20.400001525878906,-36.45000076293945,4.5
3.88,43.785160064697266,-55.73701477050781,9.883264541625977,-26.379785537719727,-42.76722717285156,234.8866729736328,-19.5,-38.55000305175781,2.8500001430511475
3.898,35.817256927490234,-62.63231658935547,7.163451671600342,-46.897396087646484,-32.108726501464844,224.22817993164062,-17.400001525878906,-37.20000076293945,1.6500000953674316
3.903,53.09381866455078,-57.65237808227539,5.631162166595459,-51.29402542114258,-39.43644714355469,228.0918731689453,-17.55000114440918,-38.55000305175781,3.6000001430511475
3.91,58.68667221069336,-49.722782135009766,8.312667846679688,-41.168453216552734,-48.62940216064453,241.814697265625,-17.55000114440918,-38.55000305175781,3.6000001430511475
3.92,61.17664337158203,-54.31964874267578,11.185709953308105,-49.29555892944336,-56.49004364013672,238.48391723632812,-17.55000114440918,-38.55000305175781,3.6000001430511475
3.929,72.28573608398438,-55.315635681152344,13.867216110229492,-57.289432525634766,-50.09494400024414,233.1546630859375,-17.700000762939453,-40.35000228881836,2.700000047683716
3.94,63.62830352783203,-50.757076263427734,17.8128604888916,-46.897396087646484,-50.36140823364258,241.9479217529297,-16.650001525878906,-41.10000228881836,2.25
3.959,77.61044311523438,-65.3138198852539,18.464082717895508,-73.54364013671875,-61.81929397583008,248.34303283691406,-15.750000953674316,-40.20000076293945,1.350000023841858
3.963,75.19709014892578,-55.698707580566406,17.468095779418945,-57.822357177734375,-52.626338958740234,254.60488891601562,-15.300000190734863,-40.95000076293945,1.0500000715255737
3.97,27.657817840576172,-53.40027618408203,9.768342971801758,-55.15773391723633,-41.434913635253906,247.01071166992188,-15.300000190734863,-40.95000076293945,1.0500000715255737
3.98,30.645782470703125,-74.62248229980469,7.891288757324219,-81.8039779663086,-46.497703552246094,232.48851013183594,-14.40000057220459,-41.85000228881836,1.6500000953674316
3.99,35.93217849731445,-80.13871765136719,3.294421434402466,-86.46707153320312,-50.62786865234375,227.29249572753906,-14.40000057220459,-42.30000305175781,0.9000000357627869
4.0,58.18867874145508,-61.559715270996094,3.2178070545196533,-71.41194152832031,-55.82388687133789,211.5712127685547,-12.90000057220459,-41.85000228881836,-1.2000000476837158
4.019,77.7253646850586,-52.05952072143555,4.098873138427734,-61.68606185913086,-39.9693717956543,216.36752319335938,-14.250000953674316,-41.25,0.0
4.023,59.91250228881836,-58.80159378051758,2.911349296569824,-56.356815338134766,-33.97396469116211,224.3614044189453,-10.950000762939453,-43.05000305175781,-0.15000000596046448
4.03,71.44297790527344,-73.32003021240234,3.1028854846954346,-69.01377868652344,-44.36600112915039,218.36599731445312,-10.950000762939453,-43.05000305175781,-0.15000000596046448
4.039,70.44699096679688,-65.58197021484375,2.451662540435791,-70.3460922241211,-40.635528564453125,212.23736572265625,-11.700000762939453,-42.60000228881836,-1.6500000953674316
4.049,67.30580139160156,-64.43275451660156,-0.8810662031173706,-60.22052001953125,-52.226646423339844,209.57273864746094,-10.050000190734863,-43.650001525878906,-1.0500000715255737
4.06,85.00373840332031,-71.09821319580078,0.15322890877723694,-77.80704498291016,-65.15007781982422,205.44256591796875,-11.550000190734863,-44.85000228881836,-3.3000001907348633
4.079,108.52437591552734,-68.68486022949219,1.2641384601593018,-92.19601440429688,-65.41653442382812,167.0719757080078,-11.550000190734863,-44.85000228881836,-3.3000001907348633
4.083,118.13948822021484,-62.01940155029297,14.173673629760742,-60.88667678833008,-59.82082748413086,155.747314453125,-9.300000190734863,-44.85000228881836,-3.3000001907348633
4.09,114.27046203613281,-54.166419982910156,2.911349296569824,-69.14701080322266,-88.59877014160156,143.09034729003906,-9.300000190734863,-44.85000228881836,-3.3000001907348633
4.1,99.48387145996094,-38.000770568847656,7.163451671600342,-21.183767318725586,-65.949462890625,118.30934143066406,-9.75,-43.650001525878906,-3.3000001907348633
4.109,75.69508361816406,-44.091617584228516,11.338939666748047,61.28636932373047,-55.29096221923828,74.60948944091797,-8.25,-44.85000228881836,-4.350000381469727
4.119,63.896453857421875,-60.563724517822266,4.63517427444458,140.1592559814453,-56.09035110473633,71.67840576171875,-8.25,-44.85000228881836,-4.350000381469727
4.139,32.13976287841797,-76.92091369628906,-7.201758861541748,166.00611877441406,-11.591117858886719,97.39203643798828,-8.25,-45.150001525878906,-5.850000381469727
4.143,4.32871675491333,-95.53822326660156,-2.6815059185028076,149.48544311523438,9.059723854064941,98.99080657958984,-8.550000190734863,-43.95000076293945,-6.900000095367432
4.15,-9.500192642211914,-85.69326782226562,22.37141990661621,123.2388916015625,31.709033966064453,67.28177642822266,-8.550000190734863,-43.95000076293945,-6.900000095367432
4.16,-19.99637222290039,-73.24341583251953,16.28057098388672,72.34455871582031,22.382848739624023,39.43644714355469,-9.0,-45.900001525878906,-6.150000095367432
4.17,-28.38565444946289,-45.81544494628906,15.093047142028809,-39.30321502685547,11.990811347961426,-69.28024291992188,-9.0,-45.900001525878906,-6.150000095367432
4.18,-22.754493713378906,-9.768342971801758,2.4133553504943848,-150.95098876953125,14.788667678833008,-190.9203643798828,-8.550000190734863,-45.60000228881836,-6.150000095367432
4.199,-4.367023944854736,52.09782791137695,-8.121131896972656,-121.10719299316406,16.920366287231445,-227.02603149414062,-8.550000190734863,-45.150001525878906,-4.350000381469727
4.203,18.04270362854004,86.765869140625,-0.689530074596405,60.48698043823242,19.584991455078125,-275.9219055175781,-10.800000190734863,-43.95000076293945,-7.350000381469727
4.21,22.409727096557617,58.26529312133789,4.865017890930176,128.83460998535156,34.773353576660156,-325.2174377441406,-10.800000190734863,-43.95000076293945,-7.350000381469727
4.22,16.625335693359375,40.83550262451172,6.550535678863525,170.26951599121094,39.16998291015625,-363.7212829589844,-10.800000190734863,-43.95000076293945,-7.350000381469727
4.229,12.832921028137207,15.820884704589844,1.2641384601593018,156.01377868652344,36.63859176635742,-397.2955627441406,-10.800000190734863,-43.20000076293945,-5.850000381469727
4.24,19.19192123413086,-2.2601263523101807,1.1109095811843872,124.43797302246094,44.23276901245117,-442.0612487792969,-13.200000762939453,-41.10000228881836,-6.0
4.258,27.696125030517578,-7.010222434997559,5.669469833374023,84.06890869140625,50.09494400024414,-494.1546630859375,-14.40000057220459,-40.35000228881836,-6.0
4.262,29.22841453552246,-7.393294811248779,11.951854705810547,49.69525146484375,51.027565002441406,-518.669189453125,-14.40000057220459,-40.35000228881836,-6.0
4.27,24.286781311035156,-11.568782806396484,11.72201156616211,36.238895416259766,48.362937927246094,-530.1270751953125,-14.40000057220459,-40.35000228881836,-6.0
4.28,25.052927017211914,-14.250288963317871,11.453861236572266,12.656967163085938,54.75803756713867,-559.9708862304688,-18.450000762939453,-38.400001525878906,-4.950000286102295
4.29,30.14778709411621,-19.153614044189453,11.60708999633789,5.196018218994141,61.9525260925293,-576.22509765625,-18.30000114440918,-39.0,-3.9000000953674316
4.3,33.32728576660156,-27.236438751220703,12.22000503540039,-15.854516983032227,71.94486999511719,-587.41650390625,-18.900001525878906,-34.5,-3.750000238418579
4.318,34.170047760009766,-40.069358825683594,16.28057098388672,-59.82082748413086,67.94792938232422,-610.7319946289062,-18.900001525878906,-34.5,-3.750000238418579
4.322,38.230613708496094,-49.109867095947266,6.780379295349121,-125.63705444335938,67.68146514892578,-623.7886352539062,-22.200000762939453,-34.5,-3.750000238418579
4.33,38.2689208984375,-46.27513122558594,-0.689530074596405,-125.37059783935547,67.28177642822266,-603.1378173828125,-24.150001525878906,-33.0,-3.450000047683716
4.339,41.86980056762695,-43.86177444458008,-3.907337188720703,-130.96630859375,69.54670715332031,-586.2174682617188,-24.0,-28.500001907348633,-4.650000095367432
4.35,47.65419006347656,-45.279144287109375,-6.129156112670898,-106.98468017578125,76.87442779541016,-566.365966796875,-24.0,-28.500001907348633,-4.650000095367432
4.359,49.837703704833984,-51.94459915161133,-9.730035781860352,-83.26952362060547,84.20214080810547,-557.972412109375,-24.900001525878906,-26.400001525878906,-4.200000286102295
4.379,49.56955337524414,-57.46084213256836,-11.683704376220703,-70.3460922241211,82.20367431640625,-532.5252685546875,-24.900001525878906,-25.650001525878906,-3.450000047683716
4.383,51.48491287231445,-65.58197021484375,-11.530475616455078,-58.4885139465332,85.00152587890625,-516.6707153320312,-25.650001525878906,-24.150001525878906,-4.200000286102295
4.39,60.29557418823242,-72.97526550292969,-6.435614109039307,-61.9525260925293,91.3966293334961,-514.6722412109375,-27.450000762939453,-20.55000114440918,-2.700000047683716
4.4,63.66661071777344,-71.213134765625,-4.481945514678955,-34.773353576660156,77.27411651611328,-502.0152893066406,-27.450000762939453,-20.55000114440918,-2.700000047683716
4.41,68.53163146972656,-62.479087829589844,-5.286397457122803,2.2649309635162354,65.41653442382812,-464.57733154296875,-27.150001525878906,-18.30000114440918,-1.2000000476837158
4.42,78.07012939453125,-56.311622619628906,-4.213795185089111,64.48391723632812,65.15007781982422,-431.80242919921875,-26.55000114440918,-18.150001525878906,-1.8000000715255737
4.439,95.04022979736328,-61.29156494140625,-1.4173674583435059,139.09341430664062,50.76110076904297,-378.1102600097656,-27.000001907348633,-15.450000762939453,-1.0500000715255737
4.443,116.0325927734375,-102.3569107055664,-0.5746083855628967,202.11178588867188,29.977027893066406,-317.49005126953125,-27.000001907348633,-15.450000762939453,-1.0500000715255737
4.45,116.99027252197266,-113.84908294677734,-1.3407529592514038,187.85604858398438,18.78560447692871,-270.5926513671875,-27.000001907348633,-15.450000762939453,-1.0500000715255737
4.459,116.26243591308594,-131.2405548095703,-0.689530074596405,97.5252685546875,16.920366287231445,-247.54364013671875,-27.150001525878906,-14.100000381469727,-0.15000000596046448
4.47,108.56268310546875,-146.56344604492188,5.439626216888428,-25.7136287689209,-8.260336875915527,-208.5068817138672,-27.000001907348633,-12.300000190734863,0.0
4.48,97.30035400390625,-133.57730102539062,10.304644584655762,-132.56507873535156,-24.914241790771484,-169.20367431640625,-27.750001907348633,-13.500000953674316,-0.6000000238418579
4.499,87.45539855957031,-102.2802963256836,10.189722061157227,-208.90658569335938,-22.649311065673828,-132.43185424804688,-28.500001907348633,-11.850000381469727,-0.30000001192092896
4.503,75.77169799804688,-48.99494171142578,17.238252639770508,-203.57733154296875,-19.45176124572754,-81.8039779663086,-28.500001907348633,-11.850000381469727,-0.30000001192092896
4.51,75.73339080810547,-38.03907775878906,17.42978858947754,-158.14547729492188,-28.378253936767578,-56.889739990234375,-27.30000114440918,-13.050000190734863,0.30000001192092896
4.519,78.72135162353516,-29.611486434936523,17.468095779418945,-70.07962799072266,-30.24349021911621,2.2649309635162354,-26.55000114440918,-12.300000190734863,0.6000000238418579
4.529,83.81621551513672,-28.19411849975586,23.865402221679688,-10.525267601013184,-27.045940399169922,42.101070404052734,-27.000001907348633,-13.050000190734863,0.0
4.54,91.59258270263672,-36.928165435791016,25.244462966918945,-15.188361167907715,-21.716691970825195,55.55742645263672,-25.80000114440918,-12.750000953674316,0.6000000238418579
4.557,88.14492797851562,-40.375816345214844,18.77054214477539,-21.583459854125977,5.8621745109558105,106.05206298828125,-26.250001907348633,-13.800000190734863,1.0500000715255737
4.561,74.7374038696289,-11.262324333190918,10.72602367401123,-8.793261528015137,22.915773391723633,118.70903015136719,-26.250001907348633,-13.800000190734863,1.0500000715255737
4.57,77.45721435546875,-10.228029251098633,2.0685901641845703,31.709033966064453,39.30321502685547,206.5084228515625,-27.150001525878906,-12.90000057220459,1.9500000476837158
4.58,88.94937896728516,-51.59983444213867,20.95405387878418,30.776416778564453,32.77488327026367,200.11331176757812,-26.250001907348633,-14.550000190734863,2.1000001430511475
4.589,95.38499450683594,-91.13289642333984,37.694313049316406,-65.949462890625,1.1990811824798584,152.68299865722656,-27.150001525878906,-15.15000057220459,1.2000000476837158
4.608,130.93409729003906,-68.22517395019531,24.05693817138672,-200.77947998046875,7.06125545501709,111.38131713867188,-27.150001525878906,-15.15000057220459,1.2000000476837158
4.612,159.0133056640625,24.210166931152344,1.2641384601593018,-93.12863159179688,19.85145378112793,82.47013854980469,-26.250001907348633,-16.5,1.0500000715255737
4.62,172.95713806152344,129.2485809326172,13.139378547668457,-5.8621745109558105,27.978559494018555,163.34149169921875,-25.05000114440918,-15.450000762939453,0.30000001192092896
4.63,152.4627685546875,164.56784057617188,45.010990142822266,148.4196014404297,67.28177642822266,213.16998291015625,-27.30000114440918,-16.5,1.0500000715255737
4.64,104.65534210205078,126.52877044677734,83.39483642578125,239.5497589111328,55.02450180053711,177.5972442626953,-25.650001525878906,-15.600000381469727,1.2000000476837158
4.65,89.60060119628906,74.00955963134766,23.099258422851562,327.3491516113281,58.4885139465332,248.7427215576172,-25.650001525878906,-15.600000381469727,1.2000000476837158
4.659,99.71371459960938,-3.9456443786621094,24.554933547973633,298.30474853515625,45.03215789794922,241.68145751953125,-25.05000114440918,-16.200000762939453,2.8500001430511475
4.675,118.94393920898438,-95.42330169677734,-16.127342224121094,45.69831466674805,58.355281829833984,171.7350616455078,-26.700000762939453,-19.80000114440918,2.25
4.68,77.99351501464844,-58.49513626098633,-29.573179244995117,14.255742073059082,35.439510345458984,193.3185272216797,-26.55000114440918,-19.200000762939453,2.8500001430511475
4.69,73.97125244140625,-47.730804443359375,-28.117504119873047,54.091880798339844,0.5329249501228333,182.52679443359375,-25.650001525878906,-19.05000114440918,3.450000047683716
4.7,101.0544662475586,-9.27034854888916,-12.449849128723145,79.80551147460938,-25.580398559570312,158.14547729492188,-25.650001525878906,-19.05000114440918,3.450000047683716
4.709,152.5393829345703,21.26051139831543,53.01720428466797,138.56048583984375,-31.042879104614258,191.8529815673828,-25.950000762939453,-19.80000114440918,6.300000190734863
4.729,191.15306091308594,30.224401473999023,49.87601089477539,190.38743591308594,-23.848390579223633,220.09800720214844,-25.950000762939453,-22.200000762939453,3.450000047683716
4.733,149.16835021972656,-14.441824913024902,12.7946138381958,174.79937744140625,-12.790199279785156,224.62786865234375,-26.400001525878906,-23.25,4.5
4.74,46.58158874511719,-77.7253646850586,-19.230228424072266,121.77335357666016,-7.9938740730285645,192.25267028808594,-24.750001907348633,-22.350000381469727,4.650000095367432
4.75,26.85336685180664,-96.53421020507812,-27.46628189086914,0.1332312375307083,-2.531393527984619,136.4287872314453,-24.750001907348633,-22.350000381469727,4.650000095367432
4.759,40.18428039550781,-80.10041046142578,-0.7661445140838623,-39.16998291015625,-6.5283308029174805,102.05513000488281,-26.250001907348633,-24.750001907348633,3.9000000953674316
4.77,69.71915435791016,-57.920528411865234,20.379444122314453,-30.643184661865234,-7.460949420928955,68.08116149902344,-25.500001907348633,-23.850000381469727,3.3000001907348633
4.788,77.95520782470703,-44.47468948364258,19.19192123413086,-25.846860885620117,0.39969372749328613,36.63859176635742,-24.150001525878906,-23.700000762939453,3.0
4.792,74.50755310058594,-44.28315353393555,16.778566360473633,-4.130168437957764,-11.457886695861816,14.388973236083984,-24.150001525878906,-23.700000762939453,3.0
4.8,68.95301055908203,-40.375816345214844,11.492168426513672,2.6646246910095215,-22.649311065673828,1.9984685182571411,-24.900001525878906,-24.150001525878906,3.0
4.81,69.18285369873047,-40.375816345214844,15.514427185058594,-11.990811347961426,-13.58958625793457,-4.396630764007568,-25.650001525878906,-25.200000762939453,3.450000047683716
4.82,74.3160171508789,-33.288978576660156,19.460071563720703,-10.658498764038086,-6.9280242919921875,-12.390504837036133,-24.30000114440918,-23.55000114440918,3.6000001430511475
4.83,76.65276336669922,-11.645397186279297,5.5545477867126465,17.053598403930664,-26.64624786376953,10.125574111938477,-25.950000762939453,-25.200000762939453,3.750000238418579
4.849,80.52178955078125,-22.754493713378906,19.881450653076172,29.31087303161621,-21.316997528076172,17.719755172729492,-25.950000762939453,-25.200000762939453,3.750000238418579
4.853,74.00955963134766,-29.726408004760742,21.030668258666992,18.385910034179688,-24.914241790771484,5.728943347930908,-24.0,-23.850000381469727,1.8000000715255737
4.86,74.00955963134766,-36.123714447021484,6.971915245056152,35.306278228759766,-6.5283308029174805,-0.6661561727523804,-24.150001525878906,-23.700000762939453,3.0
4.869,76.80599212646484,-32.982521057128906,44.12992477416992,6.9280242919921875,-32.37519073486328,15.055130004882812,-24.750001907348633,-23.55000114440918,2.5500001907348633
4.879,74.96724700927734,-21.0689754486084,14.939818382263184,18.385910034179688,-20.251148223876953,28.111791610717773,-24.900001525878906,-24.450000762939453,0.15000000596046448
4.89,74.50755310058594,-16.47210693359375,13.445837020874023,25.846860885620117,-20.91730499267578,31.575803756713867,-24.900001525878906,-24.450000762939453,0.15000000596046448
4.909,73.7031021118164,-22.562957763671875,12.181697845458984,19.45176124572754,-23.581928253173828,35.306278228759766,-25.200000762939453,-25.200000762939453,3.0
4.913,71.36636352539062,-32.75267791748047,12.105083465576172,0.6661561727523804,-18.519142150878906,32.77488327026367,-24.150001525878906,-24.900001525878906,2.25
4.92,71.74943542480469,-34.05512619018555,8.389283180236816,-19.45176124572754,-14.655436515808105,39.70290756225586,-25.200000762939453,-25.200000762939453,3.450000047683716
4.929,68.60824584960938,-30.875625610351562,7.967903137207031,-20.117916107177734,-12.390504837036133,44.63246536254883,-24.30000114440918,-25.500001907348633,3.3000001907348633
4.94,70.33206939697266,-26.508602142333984,5.975927352905273,-25.447166442871094,-7.194486618041992,66.21592712402344,-24.30000114440918,-25.500001907348633,3.3000001907348633
4.949,72.4772720336914,-24.24847412109375,1.2641384601593018,-30.90964698791504,7.9938740730285645,58.222049713134766,-23.700000762939453,-26.400001525878906,2.25
4.969,70.67683410644531,-24.286781311035156,6.205770969390869,-32.5084228515625,11.324655532836914,80.8713607788086,-24.30000114440918,-25.80000114440918,2.1000001430511475
4.973,72.70711517333984,-25.435998916625977,7.508216381072998,-47.56355285644531,18.91883659362793,98.05818939208984,-24.750001907348633,-25.500001907348633,2.5500001907348633
4.98,69.3360824584961,-31.680076599121094,8.65743350982666,-47.9632453918457,15.987748146057129,110.848388671875,-24.750001907348633,-25.500001907348633,2.5500001907348633
4.989,70.90667724609375,-30.91393280029297,7.048529624938965,-63.551300048828125,27.445634841918945,122.17304229736328,-24.750001907348633,-25.500001907348633,2.5500001907348633
5.0,75.42693328857422,-24.66985511779785,10.496180534362793,-63.418067932128906,31.842266082763672,139.6263427734375,-24.30000114440918,-26.250001907348633,2.1000001430511475
5.01,74.12448120117188,-14.97812557220459,13.637372970581055,-44.09954071044922,21.583459854125977,152.41653442382812,-24.900001525878906,-26.100000381469727,1.9500000476837158
5.03,74.04786682128906,-25.09123420715332,15.744270324707031,-47.830013275146484,20.38437843322754,173.33384704589844,-22.950000762939453,-27.900001525878906,1.9500000476837158
5.034,72.63050079345703,-34.3998908996582,16.089035034179688,-49.69525146484375,6.395099639892578,157.74578857421875,-24.0,-28.200000762939453,3.6000001430511475
5.04,66.11827087402344,-32.86759948730469,16.66364288330078,-41.434913635253906,6.5283308029174805,172.2679901123047,-24.0,-28.200000762939453,3.6000001430511475
5.049,67.42072296142578,-34.782962799072266,14.939818382263184,-34.10719680786133,-5.329249382019043,179.32923889160156,-22.650001525878906,-29.850000381469727,2.700000047683716
5.06,71.05990600585938,-32.484527587890625,13.599065780639648,-35.57273864746094,-3.4640121459960938,209.4394989013672,-22.5,-28.950000762939453,2.5500001907348633
5.07,79.21934509277344,-32.599449157714844,11.492168426513672,-51.4272575378418,-7.194486618041992,214.63552856445312,-22.650001525878906,-31.80000114440918,1.6500000953674316
5.09,86.53602600097656,-32.40791320800781,10.5344877243042,-38.77029037475586,-9.326186180114746,247.8101043701172,-22.650001525878906,-29.55000114440918,1.2000000476837158
5.094,81.17301177978516,-43.593624114990234,3.754108190536499,-77.94027709960938,-11.191424369812012,273.25726318359375,-21.0,-30.450000762939453,0.6000000238418579
5.1,97.72173309326172,-51.7913703918457,-1.455674648284912,-103.25421142578125,-15.321592330932617,258.2021484375,-21.0,-30.450000762939453,0.6000000238418579
5.109,103.92750549316406,-34.70634841918945,3.9839515686035156,-82.33690643310547,-19.31852912902832,274.056640625,-21.30000114440918,-31.200000762939453,2.1000001430511475
5.12,89.60060119628906,-6.01423454284668,16.318878173828125,-62.085758209228516,-12.790199279785156,300.30322265625,-21.900001525878906,-32.55000305175781,0.9000000357627869
5.13,75.61846923828125,-39.37982940673828,33.90189743041992,-85.00152587890625,4.130168437957764,292.44256591796875,-21.0,-33.60000228881836,-0.6000000238418579
5.15,62.249244689941406,-83.58637237548828,36.008792877197266,-146.42112731933594,5.728943347930908,283.6492919921875,-21.0,-33.60000228881836,-0.6000000238418579
5.154,95.34668731689453,-85.15696716308594,26.96828842163086,-164.80703735351562,-28.111791610717773,321.7534484863281,-19.200000762939453,-33.45000076293945,-0.45000001788139343
5.16,128.98043823242188,-21.6818904876709,13.369222640991211,-142.15773010253906,-28.511484146118164,336.9418029785156,-19.200000762939453,-33.45000076293945,-0.45000001788139343
5.169,129.89981079101562,-23.02264404296875,6.358999729156494,-110.71515655517578,-48.22970962524414,366.9188232421875,-18.30000114440918,-34.35000228881836,-0.30000001192092896
5.179,148.17234802246094,-37.617698669433594,2.7964274883270264,-125.90351867675781,-68.88054656982422,380.37518310546875,-18.900001525878906,-36.45000076293945,0.45000001788139343
5.19,86.30618286132812,-18.77054214477539,-2.7964274883270264,-66.882080078125,-67.5482406616211,391.3001403808594,-18.900001525878906,-36.45000076293945,0.45000001788139343
5.209,40.375816345214844,-35.35757064819336,-5.822698593139648,-47.696781158447266,-75.94180297851562,382.50689697265625,-16.200000762939453,-36.900001525878906,-1.2000000476837158
5.212,28.577192306518555,-59.10805130004883,-4.252102375030518,-70.61255645751953,-72.34455871582031,319.6217346191406,-15.90000057220459,-38.85000228881836,-3.450000047683716
5.22,-5.975927352905273,-63.36015319824219,-5.094861030578613,-58.4885139465332,-91.26339721679688,316.0245056152344,-16.5,-40.20000076293945,-3.3000001907348633
5.229,15.629348754882812,-62.364166259765625,1.072602391242981,-57.689125061035156,-96.32618713378906,291.50994873046875,-16.5,-40.20000076293945,-3.3000001907348633
5.239,35.5874137878418,-59.5677375793457,5.592854976654053,-56.49004364013672,-99.12403869628906,282.983154296875,-16.5,-40.20000076293945,-3.3000001907348633
5.25,61.90447998046875,-65.73519897460938,14.67166805267334,-49.42878723144531,-120.30780792236328,285.5145568847656,-13.200000762939453,-41.10000228881836,-5.25
5.27,103.65935516357422,-69.3743896484375,19.99637222290039,-83.26952362060547,-135.36293029785156,281.5176086425781,-13.200000762939453,-40.650001525878906,-5.25
5.274,137.1015625,-65.65858459472656,21.796812057495117,-86.3338394165039,-147.4869842529297,264.59722900390625,-13.200000762939453,-40.650001525878906,-5.25
5.28,159.77944946289062,-48.88002014160156,27.427974700927734,-102.72128295898438,-140.42572021484375,237.41806030273438,-13.200000762939453,-40.650001525878906,-5.25
5.29,151.04539489746094,-44.97268295288086,25.09123420715332,-101.78866577148438,-143.4900360107422,208.5068817138672,-11.25,-42.45000076293945,-6.600000381469727
5.3,112.08694458007812,-40.375816345214844,21.490354537963867,-95.79325866699219,-139.49310302734375,165.4731903076172,-8.700000762939453,-41.10000228881836,-6.300000190734863
5.31,77.57213592529297,-30.26270866394043,16.70195198059082,-41.701377868652344,-131.63246154785156,161.34303283691406,-7.950000286102295,-42.30000305175781,-9.300000190734863
5.329,45.279144287109375,-35.77894973754883,4.213795185089111,88.46553802490234,-107.51760864257812,149.08575439453125,-7.950000286102295,-42.30000305175781,-9.300000190734863
5.333,21.796812057495117,-53.668426513671875,-0.26815059781074524,188.1225128173828,-44.23276901245117,144.82235717773438,-8.40000057220459,-41.10000228881836,-8.25
5.34,-11.1474027633667,-84.2759017944336,3.2561142444610596,203.71055603027344,-20.117916107177734,153.7488555908203,-8.25,-42.150001525878906,-8.700000762939453
5.35,-17.889474868774414,-100.93954467773438,20.341136932373047,156.5467071533203,-4.796324729919434,107.78407287597656,-9.300000190734863,-44.400001525878906,-8.40000057220459
5.36,-26.12552833557129,-96.87897491455078,22.562957763671875,86.86676788330078,4.796324729919434,87.39968872070312,-8.550000190734863,-43.20000076293945,-8.700000762939453
5.369,-48.343719482421875,-60.48711013793945,22.677879333496094,37.70444107055664,10.125574111938477,17.186830520629883,-8.550000190734863,-43.20000076293945,-8.700000762939453
5.389,-58.64836502075195,-22.103269577026367,19.306842803955078,-56.22358322143555,-2.398162364959717,-148.15313720703125,-6.750000476837158,-43.95000076293945,-8.700000762939453
5.392,-47.34773254394531,21.0689754486084,7.929595947265625,-53.558956146240234,-3.3307809829711914,-271.65850830078125,-8.25,-42.900001525878906,-9.15000057220459
5.4,-16.548721313476562,96.03621673583984,-13.21599292755127,0.39969372749328613,-3.3307809829711914,-271.2587890625,-7.800000190734863,-43.20000076293945,-10.200000762939453
5.41,6.282385349273682,100.74800872802734,-6.933608055114746,77.94027709960938,25.313934326171875,-304.03369140625,-7.950000286102295,-42.60000228881836,-8.550000190734863
5.42,22.90772247314453,66.42472839355469,-3.026270866394043,157.87901306152344,50.89433288574219,-352.9295349121094,-7.950000286102295,-42.60000228881836,-8.550000190734863
5.429,12.986149787902832,27.46628189086914,10.228029251098633,176.9310760498047,51.29402542114258,-409.0198974609375,-12.0,-41.70000076293945,-9.450000762939453
5.449,-3.2178070545196533,-3.179499864578247,10.611102104187012,133.6309356689453,61.68606185913086,-467.6416320800781,-10.950000762939453,-41.85000228881836,-8.550000190734863
5.452,13.713987350463867,-6.627150535583496,7.814674377441406,65.15007781982422,84.06890869140625,-518.9356689453125,-12.90000057220459,-40.650001525878906,-8.550000190734863
5.46,20.187908172607422,-5.20978307723999,8.504204750061035,38.90352249145508,92.86217498779297,-550.3782348632812,-13.800000190734863,-39.75,-8.40000057220459
5.47,29.64979362487793,-4.750096321105957,9.730035781860352,33.04134750366211,86.86676788330078,-558.905029296875,-13.800000190734863,-39.75,-8.40000057220459
5.479,32.982521057128906,-10.228029251098633,8.197746276855469,20.784072875976562,92.99540710449219,-605.669189453125,-17.25,-39.30000305175781,-7.950000286102295
5.49,36.04710006713867,-21.75850486755371,2.75812029838562,12.124042510986328,90.86370086669922,-610.5987548828125,-15.90000057220459,-36.900001525878906,-8.550000190734863
5.508,38.03907775878906,-32.10145568847656,0.7661445140838623,-27.978559494018555,89.7978515625,-620.724365234375,-19.200000762939453,-34.20000076293945,-7.800000190734863
5.512,49.26309585571289,-45.04929733276367,-2.3367409706115723,-29.7105655670166,81.53751373291016,-624.454833984375,-19.200000762939453,-34.20000076293945,-7.800000190734863
5.52,51.255069732666016,-47.99895477294922,-3.485957622528076,-63.551300048828125,76.4747314453125,-610.1990966796875,-19.200000762939453,-34.20000076293945,-7.800000190734863
5.529,55.928550720214844,-52.4042854309082,-5.324704647064209,-78.87289428710938,76.74119567871094,-622.3231201171875,-22.05000114440918,-31.200000762939453,-7.350000381469727
5.54,61.253257751464844,-58.38021469116211,-8.580819129943848,-80.20520782470703,75.14241790771484,-600.4732055664062,-21.450000762939453,-31.500001907348633,-7.500000476837158
5.549,63.436767578125,-66.00334930419922,-5.746084213256836,-88.33231353759766,80.73812866210938,-598.6079711914062,-22.05000114440918,-28.200000762939453,-7.650000095367432
5.569,61.71294403076172,-73.32003021240234,-2.2218191623687744,-94.32771301269531,83.66921997070312,-582.353759765625,-22.80000114440918,-25.500001907348633,-6.150000095367432
5.573,66.19488525390625,-84.12267303466797,3.869029998779297,-91.92955017089844,91.3966293334961,-543.050537109375,-22.80000114440918,-25.500001907348633,-6.150000095367432
5.58,69.3360824584961,-84.12267303466797,5.5545477867126465,-79.80551147460938,80.20520782470703,-518.5359497070312,-24.0,-22.80000114440918,-6.600000381469727
5.589,77.1507568359375,-82.59038543701172,7.201758861541748,-49.96171569824219,84.4686050415039,-486.29400634765625,-25.950000762939453,-21.450000762939453,-6.750000476837158
5.6,85.42511749267578,-79.14273071289062,5.861005783081055,14.388973236083984,80.73812866210938,-427.40582275390625,-25.500001907348633,-21.150001525878906,-6.150000095367432
5.61,86.07633972167969,-73.6264877319336,-0.15322890877723694,77.80704498291016,68.61408996582031,-392.89892578125,-27.000001907348633,-19.200000762939453,-6.150000095367432
5.622,87.49370574951172,-77.07414245605469,-6.358999729156494,100.9892807006836,55.55742645263672,-369.983154296875,-27.000001907348633,-19.200000762939453,-6.150000095367432
5.63,89.2558364868164,-87.99169921875,-9.53849983215332,86.20060729980469,63.684532165527344,-337.8744201660156,-26.700000762939453,-16.80000114440918,-6.300000190734863
5.64,90.36675262451172,-94.5039291381836,-11.530475616455078,45.16539001464844,48.76263427734375,-318.15618896484375,-25.650001525878906,-16.80000114440918,-5.700000286102295
5.649,87.72354888916016,-97.76004028320312,-13.943830490112305,-13.323123931884766,42.23430252075195,-292.9754943847656,-26.700000762939453,-15.15000057220459,-3.750000238418579
5.66,83.62467956542969,-89.8687515258789,-8.925583839416504,-97.25880432128906,35.972434997558594,-284.3154602050781,-27.30000114440918,-14.550000190734863,-6.150000095367432
5.67,79.87056732177734,-83.1266860961914,-2.604891538619995,-153.882080078125,19.31852912902832,-253.1393585205078,-27.30000114440918,-14.550000190734863,-6.150000095367432
5.686,81.4794692993164,-74.54586791992188,3.44765043258667,-199.713623046875,-2.9310872554779053,-213.16998291015625,-26.700000762939453,-13.200000762939453,-5.25
5.69,87.4170913696289,-60.563724517822266,11.836933135986328,-214.23582458496094,2.131699800491333,-209.1730499267578,-26.700000762939453,-13.200000762939453,-5.25
5.7,87.99169921875,-58.418521881103516,12.258312225341797,-221.03062438964844,-5.995405673980713,-181.3277130126953,-26.250001907348633,-11.850000381469727,-3.6000001430511475
5.71,92.58856964111328,-46.504974365234375,17.697938919067383,-197.0489959716797,-2.9310872554779053,-146.9540557861328,-27.150001525878906,-10.950000762939453,-4.950000286102295
5.719,92.51195526123047,-34.9744987487793,18.808849334716797,-154.14854431152344,11.591117858886719,-101.2557373046875,-27.150001525878906,-10.950000762939453,-4.950000286102295
5.738,88.18323516845703,-27.121517181396484,22.256498336791992,-115.2450180053711,22.249616622924805,-61.15313720703125,-26.700000762939453,-9.450000762939453,-3.750000238418579
5.742,89.56229400634766,-23.788787841796875,22.7161865234375,-36.63859176635742,17.719755172729492,3.0643184185028076,-27.150001525878906,-10.950000762939453,-3.450000047683716
5.75,92.16719055175781,-24.78477668762207,17.00840950012207,7.327718257904053,8.660030364990234,38.63705825805664,-25.650001525878906,-9.0,-2.700000047683716
5.76,92.01396179199219,-27.619510650634766,17.085023880004883,62.618682861328125,3.197549819946289,73.0107192993164,-25.650001525878906,-9.0,-2.700000047683716
5.77,91.4776611328125,-27.542896270751953,14.020444869995117,77.27411651611328,1.4655436277389526,93.66156005859375,-25.650001525878906,-9.0,-2.700000047683716
5.779,86.65094757080078,-27.083209991455078,6.856993675231934,84.20214080810547,16.65390396118164,149.7519073486328,-26.400001525878906,-11.40000057220459,-3.0
5.798,84.50574493408203,-30.454246520996094,3.6774938106536865,67.14854431152344,13.856048583984375,217.30015563964844,-26.700000762939453,-10.950000762939453,-3.0
5.803,87.80016326904297,-75.00555419921875,25.665842056274414,-33.30780792236328,-1.7320060729980469,203.04440307617188,-26.55000114440918,-10.050000190734863,-2.8500001430511475
5.81,94.84869384765625,-114.00231170654297,36.2386360168457,-144.1562042236328,8.926492691040039,135.76263427734375,-26.55000114440918,-10.050000190734863,-2.8500001430511475
5.819,103.69766235351562,-76.46122741699219,15.131354331970215,-323.4854431152344,48.22970962524414,79.9387435913086,-26.250001907348633,-12.750000953674316,-3.3000001907348633
5.83,128.48243713378906,27.619510650634766,13.10107135772705,-263.1316833496094,32.64165496826172,77.00765228271484,-26.250001907348633,-12.750000953674316,-1.8000000715255737
5.84,151.46678161621094,117.8330307006836,-15.935806274414062,-122.17304229736328,38.10413360595703,151.6171417236328,-26.400001525878906,-13.200000762939453,-2.700000047683716
5.859,163.87831115722656,189.85061645507812,17.583017349243164,95.12710571289062,32.64165496826172,226.2266387939453,-26.700000762939453,-13.65000057220459,-0.45000001788139343
5.863,110.51634979248047,127.02676391601562,56.34992980957031,355.1944885253906,36.5053596496582,180.26187133789062,-26.700000762939453,-13.65000057220459,-0.45000001788139343
5.87,84.73558807373047,40.79719543457031,22.984336853027344,408.7534484863281,37.83767318725586,203.3108673095703,-26.400001525878906,-15.90000057220459,-0.45000001788139343
5.879,95.49991607666016,12.373234748840332,-8.619126319885254,355.0612487792969,60.62021255493164,248.47625732421875,-25.950000762939453,-15.90000057220459,-0.9000000357627869
5.89,111.9337158203125,-84.12267303466797,24.554933547973633,231.95558166503906,53.82542037963867,163.6079559326172,-26.400001525878906,-16.350000381469727,-1.2000000476837158
5.9,94.96361541748047,-120.9742202758789,-33.7486686706543,16.520673751831055,76.4747314453125,140.42572021484375,-25.950000762939453,-17.55000114440918,-0.45000001788139343
5.919,68.41670989990234,-41.065345764160156,-12.449849128723145,26.113323211669922,42.76722717285156,135.89585876464844,-25.950000762939453,-17.55000114440918,-0.45000001788139343
5.923,83.31822204589844,-6.01423454284668,6.780379295349121,120.4410400390625,28.511484146118164,156.14700317382812,-26.250001907348633,-18.450000762939453,-0.30000001192092896
5.937,123.8089599609375,18.34916114807129,53.783348083496094,87.53292083740234,20.38437843322754,146.28790283203125,-27.30000114440918,-18.150001525878906,0.0
5.941,166.94290161132812,-19.115306854248047,34.70634841918945,47.297088623046875,21.983154296875,150.2848358154297,-27.30000114440918,-18.150001525878906,0.0
5.95,170.77362060546875,-17.73624610900879,22.409727096557617,-15.321592330932617,33.70750427246094,153.34915161132812,-26.55000114440918,-19.200000762939453,0.0
5.959,132.50469970703125,-2.4899697303771973,4.175487995147705,38.50382614135742,23.182235717773438,190.1209716796875,-26.55000114440918,-19.200000762939453,0.0
5.969,72.43896484375,-8.35097599029541,-1.9919757843017578,88.99846649169922,21.183767318725586,183.1929473876953,-26.700000762939453,-19.80000114440918,-0.9000000357627869
5.98,50.06754684448242,-44.89606857299805,-4.711789131164551,53.42572784423828,20.38437843322754,149.7519073486328,-26.250001907348633,-21.150001525878906,-1.0500000715255737
5.999,44.47468948364258,-75.73339080810547,8.35097599029541,-3.197549819946289,7.72741174697876,106.31852722167969,-25.650001525878906,-21.450000762939453,-1.2000000476837158
6.003,72.4772720336914,-48.650177001953125,23.558944702148438,-22.51607894897461,-6.9280242919921875,73.0107192993164,-25.650001525878906,-21.450000762939453,-1.2000000476837158
6.01,73.97125244140625,-36.2386360168457,27.121517181396484,-20.91730499267578,-3.197549819946289,56.756507873535156,-25.650001525878906,-21.450000762939453,-1.2000000476837158
6.02,77.1507568359375,-27.389667510986328,26.240449905395508,-9.72588062286377,-7.06125545501709,59.02143859863281,-25.950000762939453,-21.0,0.45000001788139343
6.03,74.89063262939453,-30.569168090820312,23.44402313232422,3.3307809829711914,-15.055130004882812,50.76110076904297,-25.950000762939453,-22.200000762939453,-0.45000001788139343
6.04,71.55789947509766,-37.84754180908203,15.552734375,0.2664624750614166,-16.387441635131836,44.23276901245117,-26.250001907348633,-22.80000114440918,0.30000001192092896
6.052,76.92091369628906,-31.756690979003906,12.832921028137207,-10.658498764038086,-12.923430442810059,42.633995056152344,-25.200000762939453,-22.950000762939453,-0.15000000596046448
6.06,82.39884948730469,-12.564770698547363,14.288596153259277,0.9326186776161194,-8.526799201965332,56.09035110473633,-25.200000762939453,-22.950000762939453,-0.15000000596046448
6.07,83.20330047607422,-18.617311477661133,13.752294540405273,0.0,-19.45176124572754,73.14395141601562,-26.250001907348633,-23.850000381469727,0.0
6.08,73.35833740234375,-34.70634841918945,16.28057098388672,-27.978559494018555,-12.124042510986328,58.62174606323242,-25.500001907348633,-23.55000114440918,0.6000000238418579
6.09,68.26348114013672,-34.70634841918945,16.970102310180664,-32.5084228515625,-12.124042510986328,60.35375213623047,-26.55000114440918,-23.55000114440918,-2.1000001430511475
6.109,68.761474609375,-37.54108428955078,17.391481399536133,-33.04134750366211,-26.64624786376953,59.02143859863281,-27.000001907348633,-23.55000114440918,0.6000000238418579
6.113,71.51959228515625,-36.736629486083984,14.863204002380371,-27.31240463256836,-29.31087303161621,64.084228515625,-25.200000762939453,-24.900001525878906,-0.9000000357627869
6.12,71.02159881591797,-28.8453426361084,15.131354331970215,-35.17304611206055,-23.315465927124023,58.08882141113281,-25.200000762939453,-24.900001525878906,-0.9000000357627869
6.13,75.84831237792969,-26.2021427154541,14.518439292907715,-29.7105655670166,-18.385910034179688,63.151607513427734,-24.450000762939453,-22.5,0.45000001788139343
6.139,75.54185485839844,-22.524648666381836,18.808849334716797,-15.321592330932617,-26.246553421020508,84.86830139160156,-25.80000114440918,-22.80000114440918,0.30000001192092896
6.149,69.56592559814453,-25.321077346801758,18.502389907836914,-17.053598403930664,-24.248085021972656,82.6033706665039,-25.05000114440918,-23.100000381469727,0.0
6.168,64.77751922607422,-27.58120346069336,17.697938919067383,-14.655436515808105,-26.113323211669922,81.67074584960938,-25.05000114440918,-23.100000381469727,0.0
6.172,61.40648651123047,-38.230613708496094,14.901511192321777,-8.660030364990234,-34.373661041259766,82.07044219970703,-25.80000114440918,-24.30000114440918,0.0
6.18,63.32184600830078,-44.12992477416992,6.3973069190979,-23.182235717773438,-37.304744720458984,91.26339721679688,-24.450000762939453,-22.950000762939453,36.45000076293945
6.19,65.39043426513672,-37.08139419555664,4.558559894561768,-26.379785537719727,-28.24502182006836,95.9264907836914,-24.900001525878906,-24.450000762939453,-1.2000000476837158
6.2,73.51156616210938,-26.738445281982422,8.695740699768066,-15.721285820007324,-31.309341430664062,109.64930725097656,-24.900001525878906,-24.450000762939453,-1.2000000476837158
6.21,82.59038543701172,-21.98834800720215,12.449849128723145,0.5329249501228333,-41.967838287353516,137.8943328857422,-23.700000762939453,-26.100000381469727,-1.2000000476837158
6.229,86.45941162109375,-20.83913230895996,15.552734375,2.398162364959717,-39.9693717956543,151.2174530029297,-24.30000114440918,-26.250001907348633,-1.350000023841858
6.233,86.1146469116211,-23.9420166015625,14.09705924987793,3.197549819946289,-47.430320739746094,184.5252685546875,-24.30000114440918,-27.450000762939453,-0.6000000238418579
6.24,86.7275619506836,-22.524648666381836,12.871228218078613,5.062787055969238,-43.56661605834961,196.64930725097656,-22.950000762939453,-27.150001525878906,-2.700000047683716
6.249,85.84649658203125,-19.843143463134766,16.510414123535156,5.995405673980713,-50.22817611694336,220.09800720214844,-22.950000762939453,-27.150001525878906,-2.700000047683716
6.259,83.77790832519531,-23.903709411621094,18.579004287719727,-10.92496109008789,-35.17304611206055,224.8943328857422,-24.450000762939453,-29.100000381469727,-2.25
6.269,80.44517517089844,-38.69029998779297,15.054739952087402,-32.24195861816406,-34.24042892456055,232.0888214111328,-24.150001525878906,-28.80000114440918,-3.450000047683716
6.289,74.2394027709961,-53.74504089355469,14.326903343200684,-66.21592712402344,-36.238895416259766,239.5497589111328,-22.950000762939453,-29.100000381469727,-3.450000047683716
6.293,77.34229278564453,-51.1784553527832,9.346963882446289,-76.60796356201172,-39.30321502685547,241.41500854492188,-22.950000762939453,-29.100000381469727,-3.450000047683716
6.3,82.0157699584961,-28.07919692993164,10.764330863952637,-57.289432525634766,-43.30015182495117,252.07350158691406,-21.450000762939453,-30.600000381469727,-3.0
6.31,84.81220245361328,-27.734432220458984,7.7763671875,-43.96630859375,-52.626338958740234,293.37518310546875,-22.650001525878906,-31.80000114440918,-3.750000238418579
6.319,99.2540283203125,-38.2689208984375,12.832921028137207,-63.151607513427734,-53.159263610839844,301.23583984375,-22.05000114440918,-32.400001525878906,-4.350000381469727
6.33,100.74800872802734,-32.56114196777344,13.177685737609863,-71.67840576171875,-46.497703552246094,308.1638488769531,-21.30000114440918,-32.400001525878906,-3.9000000953674316
6.349,74.92893981933594,-28.19411849975586,16.510414123535156,-56.356815338134766,-46.897396087646484,310.8284912109375,-21.30000114440918,-32.400001525878906,-3.9000000953674316
6.353,60.87018585205078,-50.68046188354492,15.131354331970215,-73.54364013671875,-44.23276901245117,312.1607971191406,-19.950000762939453,-33.45000076293945,-3.750000238418579
6.36,54.702720642089844,-59.29958724975586,10.994174003601074,-74.60948944091797,-55.69065856933594,311.8943176269531,-20.400001525878906,-34.20000076293945,-5.700000286102295
6.369,52.25105667114258,-53.668426513671875,8.236053466796875,-80.33843994140625,-47.9632453918457,307.63092041015625,-19.05000114440918,-34.80000305175781,-5.850000381469727
6.38,60.44880294799805,-48.343719482421875,8.121131896972656,-70.74578857421875,-67.94792938232422,310.2955627441406,-18.150001525878906,-36.45000076293945,-6.0
6.389,57.46084213256836,-43.63193130493164,5.975927352905273,-54.35834503173828,-70.07962799072266,315.62481689453125,-18.150001525878906,-36.45000076293945,-6.0
6.408,55.85193634033203,-53.28535461425781,9.385271072387695,-71.94486999511719,-65.41653442382812,316.15771484375,-16.950000762939453,-34.95000076293945,-6.750000476837158
6.412,48.72679138183594,-59.91250228881836,8.121131896972656,-84.06890869140625,-59.55436325073242,299.7702941894531,-18.0,-35.85000228881836,-7.650000095367432
6.42,49.14817428588867,-61.82786560058594,10.41956615447998,-86.60030364990234,-67.41500854492188,304.6998291015625,-16.650001525878906,-36.45000076293945,-8.25
6.43,57.88222122192383,-61.444793701171875,11.683704376220703,-87.39968872070312,-62.485450744628906,299.5038146972656,-15.450000762939453,-37.20000076293945,-6.300000190734863
6.439,54.779335021972656,-57.805606842041016,9.346963882446289,-91.3966293334961,-47.0306282043457,287.9126892089844,-15.450000762939453,-37.20000076293945,-6.300000190734863
6.45,50.25908279418945,-59.98911666870117,6.3973069190979,-81.13782501220703,-55.02450180053711,283.78253173828125,-13.800000190734863,-40.5,-7.950000286102295
6.469,57.499149322509766,-72.55388641357422,6.933608055114746,-93.79479217529297,-65.016845703125,276.98773193359375,-14.250000953674316,-39.0,-7.950000286102295
6.473,82.59038543701172,-74.89063262939453,8.810662269592285,-120.4410400390625,-64.48391723632812,270.326171875,-15.450000762939453,-38.85000228881836,-9.300000190734863
6.48,114.04061889648438,-60.7552604675293,13.982137680053711,-125.37059783935547,-58.888206481933594,266.595703125,-12.15000057220459,-38.85000228881836,-10.350000381469727
6.49,120.85929870605469,-54.702720642089844,14.518439292907715,-115.64471435546875,-65.15007781982422,247.01071166992188,-12.15000057220459,-38.85000228881836,-10.350000381469727
6.5,123.8472671508789,-52.787357330322266,11.1474027633667,-107.78407287597656,-68.21439361572266,227.1592559814453,-13.200000762939453,-39.900001525878906,-11.550000190734863
6.509,117.10519409179688,-50.83369064331055,1.7621324062347412,-79.67227935791016,-69.94640350341797,193.18528747558594,-11.40000057220459,-38.85000228881836,-11.550000190734863
6.53,102.08876037597656,-47.884033203125,1.7621324062347412,-23.04900360107422,-85.00152587890625,166.53904724121094,-10.65000057220459,-39.60000228881836,-12.300000190734863
6.533,81.90084838867188,-51.29337692260742,-9.615114212036133,124.70443725585938,-60.22052001953125,134.5635528564453,-10.200000762939453,-40.35000228881836,-11.550000190734863
6.54,39.4947509765625,-56.38823699951172,-8.96389102935791,166.53904724121094,-40.502296447753906,169.60336303710938,-10.200000762939453,-40.35000228881836,-11.550000190734863
6.55,17.583017349243164,-56.57977294921875,-8.465897560119629,151.6171417236328,4.263399600982666,168.67074584960938,-11.40000057220459,-41.85000228881836,-11.550000190734863
6.559,-9.959878921508789,-60.7552604675293,13.982137680053711,147.62020874023438,6.661561965942383,150.95098876953125,-10.050000190734863,-40.20000076293945,-12.750000953674316
6.569,-29.190107345581055,-55.315635681152344,19.728221893310547,72.0781021118164,28.24502182006836,92.06278228759766,-8.40000057220459,-40.35000228881836,-12.600000381469727
6.589,-53.70673370361328,-39.226600646972656,18.23423957824707,-43.03369140625,16.78713607788086,-8.793261528015137,-9.75,-41.25,-10.950000762939453
6.593,-50.642154693603516,-12.986149787902832,7.4316020011901855,-180.26187133789062,-5.062787055969238,-216.76722717285156,-9.75,-41.25,-10.950000762939453
6.6,-33.13574981689453,67.65056610107422,-15.476119995117188,-137.3614044189453,-15.588054656982422,-247.94332885742188,-10.200000762939453,-41.85000228881836,-12.300000190734863
6.61,-16.855180740356445,101.78230285644531,-20.456058502197266,-2.531393527984619,-2.398162364959717,-290.31085205078125,-9.450000762939453,-41.10000228881836,-13.050000190734863
6.62,1.9919757843017578,103.08474731445312,-12.756306648254395,164.27410888671875,12.656967163085938,-351.86370849609375,-11.40000057220459,-41.55000305175781,-11.550000190734863
6.63,11.645397186279297,84.04605865478516,0.8810662031173706,286.9800720214844,-1.7320060729980469,-403.29095458984375,-11.550000190734863,-38.55000305175781,-13.500000953674316
6.649,12.717999458312988,49.9526252746582,2.183511972427368,332.2787170410156,-6.661561965942383,-434.7335205078125,-11.550000190734863,-38.55000305175781,-13.500000953674316
6.653,13.560758590698242,10.457873344421387,5.746084213256836,288.44561767578125,-3.197549819946289,-495.6202087402344,-15.750000953674316,-38.55000305175781,-10.950000762939453
6.66,24.24847412109375,-21.75850486755371,11.262324333190918,225.56048583984375,5.728943347930908,-537.0551147460938,-15.000000953674316,-38.55000305175781,-9.90000057220459
6.67,29.803022384643555,-31.41192626953125,16.81687355041504,145.35528564453125,1.3323123455047607,-562.7687377929688,-18.30000114440918,-37.5,-10.65000057220459
6.68,33.40390396118164,-43.05732345581055,24.210166931152344,44.36600112915039,3.7304747104644775,-595.410400390625,-19.5,-38.55000305175781,-10.200000762939453
6.689,35.74064254760742,-46.083595275878906,26.585216522216797,-15.721285820007324,8.926492691040039,-624.0551147460938,-19.5,-38.55000305175781,-10.200000762939453
6.709,38.34553527832031,-41.60165023803711,23.597251892089844,-48.62940216064453,21.050535202026367,-616.5941772460938,-21.30000114440918,-31.950000762939453,-10.65000057220459
6.713,53.51519775390625,-36.736629486083984,19.766529083251953,-54.22511291503906,31.709033966064453,-623.2557373046875,-21.30000114440918,-31.950000762939453,-10.65000057220459
6.72,57.6906852722168,-37.656005859375,19.49837875366211,-48.76263427734375,36.238895416259766,-615.1286010742188,-23.25,-31.200000762939453,-10.200000762939453
6.73,64.96905517578125,-43.01901626586914,19.038692474365234,-48.09647750854492,25.04747200012207,-609.0,-23.55000114440918,-28.950000762939453,-10.65000057220459
6.739,72.24742889404297,-55.660400390625,13.522451400756836,-26.379785537719727,17.453292846679688,-593.2786865234375,-23.55000114440918,-28.950000762939453,-10.65000057220459
6.75,74.89063262939453,-69.02962493896484,9.768342971801758,-35.972434997558594,19.45176124572754,-596.2097778320312,-25.500001907348633,-25.500001907348633,-10.65000057220459
6.769,77.53382873535156,-77.45721435546875,7.8529815673828125,-71.2787094116211,19.85145378112793,-609.5328979492188,-24.750001907348633,-22.80000114440918,-9.450000762939453
6.772,83.24160766601562,-80.63671112060547,2.451662540435791,-105.38591003417969,31.309341430664062,-615.2618408203125,-25.950000762939453,-22.950000762939453,-9.75
6.78,85.5017318725586,-80.48348236083984,4.788403511047363,-107.25114440917969,19.31852912902832,-587.016845703125,-27.150001525878906,-19.80000114440918,-10.800000190734863
6.789,89.71552276611328,-76.03984832763672,7.201758861541748,-125.50382232666016,21.716691970825195,-582.75341796875,-27.150001525878906,-19.80000114440918,-10.800000190734863
6.8,88.94937896728516,-61.98109436035156,8.887276649475098,-69.81317138671875,36.63859176635742,-565.8330688476562,-27.750001907348633,-16.200000762939453,-9.450000762939453
6.809,83.77790832519531,-46.88804626464844,9.921571731567383,28.644716262817383,31.042879104614258,-508.410400390625,-27.900001525878906,-14.100000381469727,-9.0
6.827,87.80016326904297,-36.77493667602539,11.60708999633789,186.5237274169922,73.27718353271484,-466.17608642578125,-28.650001525878906,-10.5,-8.550000190734863
6.831,111.58895111083984,-59.18466567993164,25.627534866333008,209.97242736816406,72.34455871582031,-444.5926513671875,-28.650001525878906,-10.5,-8.550000190734863
6.84,105.3448715209961,-63.20692443847656,27.657817840576172,218.49923706054688,67.41500854492188,-414.2159118652344,-28.650001525878906,-10.5,-8.550000190734863
6.849,108.71591186523438,-90.2901382446289,22.333112716674805,153.7488555908203,66.74884796142578,-395.0306091308594,-30.150001525878906,-9.450000762939453,-7.800000190734863
6.86,106.87716674804688,-116.0708999633789,19.38345718383789,18.91883659362793,58.4885139465332,-372.3813171386719,-28.500001907348633,-6.900000095367432,-7.350000381469727
6.87,100.67139434814453,-123.65573120117188,15.322891235351562,-142.15773010253906,39.83613967895508,-357.326171875,-28.200000762939453,-6.300000190734863,-8.550000190734863
6.889,92.89502716064453,-109.40544128417969,8.542511940002441,-278.9862060546875,28.911178588867188,-351.4640197753906,-25.950000762939453,-4.050000190734863,-7.050000190734863
6.893,96.3809814453125,-37.27293395996094,11.760318756103516,-348.6661376953125,28.511484146118164,-321.22052001953125,-27.000001907348633,-1.0500000715255737,-7.350000381469727
6.9,92.01396179199219,-23.405715942382812,13.254301071166992,-325.3506774902344,48.09647750854492,-301.3690490722656,-27.000001907348633,-1.0500000715255737,-7.350000381469727
6.91,82.97345733642578,-4.941632270812988,12.105083465576172,-216.36752319335938,77.54058074951172,-218.63246154785156,-27.150001525878906,-1.350000023841858,-6.750000476837158
6.919,70.14053344726562,4.596867084503174,10.5344877243042,-102.98774719238281,95.79325866699219,-150.151611328125,-27.30000114440918,-0.75,-5.850000381469727
6.93,71.36636352539062,-14.288596153259277,8.695740699768066,-56.22358322143555,113.51301574707031,-106.71822357177734,-27.30000114440918,-0.75,-5.850000381469727
6.943,75.00555419921875,-44.55130386352539,2.3367409706115723,-77.67381286621094,121.24042510986328,-53.42572784423828,-27.450000762939453,0.9000000357627869,-4.200000286102295
6.95,70.0256118774414,-62.057708740234375,5.861005783081055,-104.98621368408203,108.050537109375,-29.044410705566406,-27.450000762939453,0.9000000357627869,-4.200000286102295
6.96,71.90266418457031,-55.46886444091797,10.802638053894043,-117.50994873046875,97.65850067138672,-0.7993874549865723,-28.05000114440918,1.0500000715255737,-4.650000095367432
6.969,78.79796600341797,-36.123714447021484,14.863204002380371,-132.29861450195312,89.13169860839844,40.36906433105469,-26.55000114440918,1.0500000715255737,-3.6000001430511475
6.98,86.8041763305664,-16.089035034179688,15.935806274414062,-105.78560638427734,57.822357177734375,71.67840576171875,-26.55000114440918,1.0500000715255737,-3.6000001430511475
6.989,97.5685043334961,0.19153612852096558,16.012420654296875,-85.00152587890625,35.57273864746094,116.0444107055664,-26.400001525878906,0.9000000357627869,-4.200000286102295
7.003,100.90123748779297,2.2601263523101807,6.89530086517334,-69.67993927001953,11.457886695861816,146.42112731933594,-29.55000114440918,1.8000000715255737,-2.5500001907348633
7.01,91.4776611328125,-6.320692539215088,-0.038307227194309235,-83.26952362060547,15.055130004882812,149.7519073486328,-29.55000114440918,1.8000000715255737,-2.5500001907348633
