time,accel_x,accel_y,accel_z,gyro_x,gyro_y,gyro_z,mag_x,mag_y,mag_z
0.0,-0.7740780711174011,-9.651450157165527,1.8005989789962769,0.06673702597618103,-0.0354301817715168,0.01618792861700058,-18.6933650970459,84.25899505615234,-24.992692947387695
0.009,-0.7190431356430054,-9.737591743469238,1.8903299570083618,0.0656680166721344,-0.039248090237379074,0.015271631069481373,-18.474130630493164,83.74744415283203,-25.25577163696289
0.019,-0.6209374666213989,-9.838089942932129,1.9238293170928955,0.059864792972803116,-0.06734789162874222,-0.0032070425804704428,-18.240280151367188,84.0835952758789,-24.59807014465332
0.038,-0.62931227684021,-9.604789733886719,1.856830358505249,0.053297992795705795,-0.09575312584638596,0.009621127508580685,-18.152587890625,83.76205444335938,-25.89885902404785
0.041,-0.906879723072052,-9.538987159729004,1.7670994997024536,0.04520402476191521,-0.08460482954978943,0.032070424407720566,-18.137971878051758,83.98129272460938,-25.50423812866211
0.05,-0.906879723072052,-9.617950439453125,1.7886348962783813,0.04077525436878204,-0.06811147183179855,0.04337143152952194,-18.06489372253418,84.09822082519531,-25.665008544921875
0.06,-0.7094718813896179,-9.67657470703125,1.805384635925293,0.03237585723400116,-0.04581489413976669,0.059406641870737076,-18.313358306884766,84.31745147705078,-26.118093490600586
0.069,-0.503689169883728,-9.69810962677002,1.8448662757873535,0.03039054572582245,-0.03527746722102165,0.07422012835741043,-18.70798110961914,84.27360534667969,-25.460391998291016
0.079,-0.19262221455574036,-9.760323524475098,1.6821541786193848,0.036651913076639175,-0.03237585723400116,0.1062905564904213,-18.25489616394043,84.02513885498047,-25.41654396057129
0.089,-0.2883351147174835,-9.681360244750977,2.2444677352905273,0.03756821155548096,-0.03344487026333809,0.1264491081237793,-18.415668487548828,83.36743927001953,-25.562700271606445
0.103,-1.0360921621322632,-9.639486312866211,1.7706886529922485,0.035124752670526505,-0.04856378585100174,0.11988230049610138,-18.00642967224121,83.83513641357422,-25.080385208129883
0.11,-1.2885348796844482,-9.619146347045898,1.6522438526153564,0.03756821155548096,-0.03527746722102165,0.11652254313230515,-17.78719711303711,84.03975677490234,-24.87576675415039
0.119,-1.3124631643295288,-9.561718940734863,1.6666009426116943,0.036651913076639175,0.0027488935738801956,0.09911288321018219,-17.53873062133789,83.8497543334961,-25.533470153808594
0.13,-1.0875378847122192,-9.592824935913086,1.6199408769607544,0.04214970022439957,0.017867807298898697,0.08704829961061478,-17.217187881469727,83.70359802246094,-25.665008544921875
0.14,-0.9942178130149841,-9.65982437133789,1.4847464561462402,0.04764748737215996,0.017562376335263252,0.08231408894062042,-17.129493713378906,83.95206451416016,-25.387313842773438
0.158,-0.802791953086853,-9.658628463745117,1.2885348796844482,0.05971207842230797,0.006566801108419895,0.07987063378095627,-17.845659255981445,84.0105209350586,-25.036537170410156
0.162,-0.2847459018230438,-9.677770614624023,1.8987046480178833,0.09285151958465576,0.018936822190880775,0.09010262042284012,-17.80181312561035,83.9666748046875,-25.445777893066406
0.17,-0.5084748268127441,-9.745965957641602,1.7335999011993408,0.0910189226269722,-0.03527746722102165,0.08796459436416626,-17.61180877685547,84.24436950683594,-25.41654396057129
0.179,-1.073180913925171,-9.67657470703125,1.5433706045150757,0.09957103431224823,-0.0679587572813034,0.0907134935259819,-17.34872817993164,84.1420669555664,-25.40192985534668
0.19,-1.101894736289978,-9.542576789855957,1.6462620496749878,0.11102475225925446,-0.04214970022439957,0.08781187981367111,-17.26103401184082,84.06898498535156,-26.118093490600586
0.2,-0.7058826684951782,-9.621540069580078,1.8508483171463013,0.11759155988693237,-0.042760565876960754,0.0861319974064827,-16.588716506958008,84.0105209350586,-25.81116485595703
0.219,-0.8255237936973572,-9.702895164489746,1.86520516872406,0.11774427443742752,-0.07513642311096191,0.08475754410028458,-16.76410484313965,83.8497543334961,-26.30809783935547
0.223,-1.2897313833236694,-9.605986595153809,1.84965181350708,0.11392636597156525,-0.05665775015950203,0.07330382615327835,-17.26103401184082,84.17129516601562,-25.67962646484375
0.23,-1.3854442834854126,-9.516255378723145,1.8891334533691406,0.11453723162412643,-0.035124752670526505,0.06704245507717133,-17.012569427490234,83.87898254394531,-26.161941528320312
0.239,-0.9750751852989197,-9.628718376159668,1.9776678085327148,0.11468994617462158,0.013439035043120384,0.0685696229338646,-17.217187881469727,83.4697494506836,-26.351943969726562
0.25,-0.9439685344696045,-9.747162818908691,2.17627215385437,0.10537425428628922,0.017867807298898697,0.06444628536701202,-17.567962646484375,83.77667236328125,-25.591930389404297
0.26,-0.6197410225868225,-9.728019714355469,1.9130616188049316,0.11804971098899841,0.04535674676299095,0.08414668589830399,-17.363344192504883,84.3028335571289,-25.825780868530273
0.278,-0.34576284885406494,-9.57607650756836,1.5708880424499512,0.1264491081237793,0.05665775015950203,0.07467827200889587,-16.910259246826172,84.0105209350586,-25.67962646484375
0.282,-0.23569302260875702,-9.773483276367188,1.53858482837677,0.14538592100143433,-0.08002334833145142,0.1085812970995903,-16.851797103881836,84.11283874511719,-26.39579200744629
0.29,-0.7298108339309692,-9.756733894348145,1.7216358184814453,0.1508837193250656,-0.15256358683109283,0.09697485715150833,-16.515640258789062,84.27360534667969,-26.571178436279297
0.3,-1.1353943347930908,-9.737591743469238,1.9728822708129883,0.14874568581581116,-0.1875356286764145,0.07452555745840073,-16.822566986083984,84.17129516601562,-26.351943969726562
0.309,-0.8386843204498291,-10.6564359664917,2.6488544940948486,0.10415252298116684,-0.3752239942550659,-0.01924225501716137,-16.471790313720703,84.24436950683594,-26.571178436279297
0.319,-0.22851455211639404,-10.057032585144043,1.6043875217437744,0.09025533497333527,-0.5296201705932617,-0.1589776873588562,-16.822566986083984,83.98129272460938,-26.848873138427734
0.339,-2.139183282852173,-8.695516586303711,1.710868239402771,0.07727444916963577,-0.483957976102829,0.010537425056099892,-16.661794662475586,83.9666748046875,-27.71119499206543
0.343,-2.5399811267852783,-9.330811500549316,1.9178473949432373,0.06322455406188965,-0.07437284290790558,0.010537425056099892,-16.647178649902344,84.11283874511719,-26.89272117614746
0.35,-1.521835207939148,-9.69810962677002,2.11405873298645,0.06719517707824707,0.07651086896657944,0.04245513305068016,-16.296403884887695,84.05436706542969,-26.848873138427734
0.359,0.15912269055843353,-9.614360809326172,2.293520450592041,0.08735372871160507,0.09346237778663635,0.0555887334048748,-16.04793930053711,83.95206451416016,-27.57965660095215
0.369,0.453439861536026,-9.524630546569824,2.2061824798583984,0.09529497474431992,-0.030237827450037003,0.09712757170200348,-16.121017456054688,84.31745147705078,-27.375036239624023
0.38,-0.39122650027275085,-9.607182502746582,2.0099709033966064,0.08735372871160507,-0.1514945775270462,0.12461650371551514,-16.281789779663086,83.76205444335938,-27.331188201904297
0.399,-1.3962119817733765,-9.647860527038574,1.7048860788345337,0.07009679079055786,-0.1996002048254013,0.16691893339157104,-15.741011619567871,83.71820831298828,-26.79041290283203
0.403,-2.111665964126587,-9.702895164489746,1.758724570274353,0.06230825185775757,-0.1014036312699318,0.18891006708145142,-15.477930068969727,83.89360046386719,-27.272727966308594
0.41,-1.9130616188049316,-9.546165466308594,1.7491532564163208,0.07116580009460449,-0.024129178375005722,0.19822576642036438,-15.52177619934082,84.28822326660156,-27.667348861694336
0.42,-1.2299107313156128,-9.631111145019531,1.7491532564163208,0.07620543986558914,0.06032294034957886,0.20983220636844635,-15.127155303955078,83.98129272460938,-27.360422134399414
0.429,-0.7226324677467346,-9.641878128051758,1.8460626602172852,0.08888089656829834,0.06673702597618103,0.22082778811454773,-15.214850425720215,84.06898498535156,-27.126571655273438
0.44,-0.6149553656578064,-9.603592872619629,2.076970100402832,0.0985020250082016,0.01313360221683979,0.2422080636024475,-14.820228576660156,84.11283874511719,-27.41888427734375
0.459,-0.8721838593482971,-9.468399047851562,2.313859462738037,0.10735956579446793,-0.06261368840932846,0.251676470041275,-14.484068870544434,83.76205444335938,-27.871967315673828
0.463,-1.015753149986267,-9.393025398254395,2.5627129077911377,0.10186177492141724,-0.0835358202457428,0.2571742534637451,-13.928675651550293,84.37591552734375,-27.930429458618164
0.47,-0.8638089299201965,-9.346364974975586,2.5710878372192383,0.10354165732860565,-0.07131851464509964,0.25473082065582275,-14.367143630981445,83.86436462402344,-27.755043029785156
0.479,-0.5838487148284912,-9.351150512695312,2.44785737991333,0.11423180252313614,-0.0633772686123848,0.24908030033111572,-14.089447021484375,83.98129272460938,-27.842735290527344
0.49,-0.6005984544754028,-9.446863174438477,2.1714866161346436,0.12339477986097336,-0.09392052888870239,0.24633140861988068,-13.811750411987305,83.90821075439453,-27.1704158782959
0.5,-0.9044869542121887,-9.451648712158203,1.9118653535842896,0.14553864300251007,-0.1589776873588562,0.24404066801071167,-13.811750411987305,84.27360534667969,-27.813507080078125
0.519,-1.7730815410614014,-9.79262638092041,1.84965181350708,0.13729196786880493,-0.17898350954055786,0.23594669997692108,-12.730195999145508,83.60128784179688,-29.508914947509766
0.523,-1.7611173391342163,-9.68494987487793,2.4011974334716797,0.13439035415649414,-0.14828753471374512,0.22846360504627228,-12.817889213562012,83.29435729980469,-28.661209106445312
0.53,-1.2538390159606934,-9.547362327575684,2.6799612045288086,0.12538009881973267,-0.10903944075107574,0.2151772677898407,-12.306343078613281,83.68898010253906,-29.552762985229492
0.54,-0.745364248752594,-9.489934921264648,2.5902304649353027,0.11270463466644287,-0.09437867254018784,0.20234911143779755,-12.730195999145508,83.95206451416016,-29.31891441345215
0.549,-1.0372885465621948,-9.610772132873535,2.5782663822174072,0.08979719132184982,-0.13576479256153107,0.20463986694812775,-12.920199394226074,83.98129272460938,-28.89505958557129
0.559,-1.4931212663650513,-9.69212818145752,2.348555326461792,0.08048149198293686,-0.12476921826601028,0.19165895879268646,-12.920199394226074,83.51359558105469,-28.63197898864746
0.579,-1.695314884185791,-9.620343208312988,2.0470597743988037,0.07177666574716568,-0.08170322328805923,0.17852537333965302,-12.335575103759766,83.68898010253906,-28.71967315673828
0.583,-0.9607182741165161,-9.492326736450195,2.6967110633850098,0.08216137439012527,0.014355332590639591,0.15882496535778046,-12.37942123413086,83.60128784179688,-28.558900833129883
0.59,-1.23589289188385,-9.631111145019531,2.5974087715148926,0.06750060617923737,0.00015271631127689034,0.1498146951198578,-12.291727066040039,83.8497543334961,-28.79275131225586
0.6,-1.5230315923690796,-9.468399047851562,2.007578134536743,0.07956519722938538,-0.013591751456260681,0.11728612333536148,-11.429407119750977,83.29435729980469,-28.26658821105957
0.609,-1.5984054803848267,-9.836893081665039,2.9754748344421387,0.062460970133543015,0.0022907445672899485,0.12278390675783157,-11.575562477111816,83.2066650390625,-28.80736541748047
0.62,-2.1858434677124023,-9.780662536621094,2.2540388107299805,0.025656340643763542,0.0029016099870204926,0.09040804952383041,-11.765565872192383,83.19204711914062,-29.523530960083008
0.639,-1.7216358184814453,-9.337989807128906,2.551945447921753,0.014049900695681572,0.1495092660188675,0.06108652427792549,-11.370944023132324,83.2505111694336,-29.114294052124023
0.642,-1.0887342691421509,-9.564111709594727,2.47896409034729,0.0088575454428792,0.14584407210350037,0.05696318298578262,-11.224788665771484,83.48435974121094,-28.73428726196289
0.65,-0.8685945868492126,-9.498309135437012,2.3365912437438965,0.016493361443281174,0.11789698898792267,0.06918048858642578,-11.268634796142578,83.10435485839844,-28.471206665039062
0.66,-1.1832507848739624,-9.503094673156738,2.551945447921753,0.0029016099870204926,0.05451972037553787,0.08567384630441666,-11.429407119750977,83.586669921875,-28.558900833129883
0.67,-1.4560325145721436,-9.66221809387207,2.407179594039917,-0.02076941914856434,0.05207626149058342,0.10812314599752426,-11.312481880187988,83.89360046386719,-28.208127975463867
0.679,-1.4344971179962158,-9.565308570861816,2.2325034141540527,-0.02733621932566166,0.10781770944595337,0.1290452778339386,-11.005553245544434,83.93743896484375,-28.938907623291016
0.699,-0.5934200286865234,-9.458827018737793,2.5435705184936523,-0.022602012380957603,0.1563815027475357,0.14767667651176453,-11.034785270690918,83.2066650390625,-28.851213455200195
0.703,-0.2799602448940277,-9.456435203552246,2.8737800121307373,-0.03390302136540413,0.10293079167604446,0.18616119027137756,-11.356328010559082,83.2066650390625,-29.172758102416992
0.71,-0.06699903309345245,-9.413363456726074,3.1692936420440674,-0.07208210229873657,0.006872233934700489,0.21410825848579407,-10.859397888183594,83.9228286743164,-28.661209106445312
0.72,-0.19501502811908722,-9.152545928955078,2.6117656230926514,-0.08078692108392715,-0.156686931848526,0.251218318939209,-10.903244018554688,83.76205444335938,-29.070446014404297
0.729,-0.9726824164390564,-9.396614074707031,2.4562323093414307,-0.06291911751031876,-0.2860376536846161,0.2874121069908142,-10.800935745239258,83.5428237915039,-29.055830001831055
0.74,-2.2576282024383545,-9.54496955871582,1.84965181350708,-0.08429940044879913,-0.33307427167892456,0.3049744665622711,-10.377082824707031,83.13358306884766,-28.763521194458008
0.759,-1.5074782371520996,-9.428916931152344,2.227717876434326,-0.044287726283073425,-0.11270463466644287,0.30405816435813904,-9.529377937316895,83.06050872802734,-28.61736488342285
0.763,-0.8542376756668091,-9.346364974975586,2.413161516189575,-0.03878994286060333,-0.09896016865968704,0.30833423137664795,-9.850920677185059,83.57205200195312,-28.71967315673828
0.77,-0.32183465361595154,-9.28893756866455,2.379662036895752,-0.02825251594185829,-0.16829337179660797,0.3295617997646332,-9.193218231201172,83.4697494506836,-28.73428726196289
0.78,-0.43908295035362244,-9.299705505371094,2.3365912437438965,-0.024129178375005722,-0.3113885521888733,0.3787364661693573,-9.573224067687988,82.88512420654297,-29.435836791992188
0.79,-2.159522294998169,-9.82971477508545,1.9310078620910645,-0.058795779943466187,-0.389426589012146,0.4363104999065399,-8.842443466186523,83.01666259765625,-29.085063934326172
0.8,-4.334598064422607,-9.962516784667969,1.4273186922073364,-0.08399397134780884,-0.19975292682647705,0.4465424716472626,-8.140894889831543,83.2505111694336,-29.1873722076416
0.818,-1.1330015659332275,-9.396614074707031,2.4083759784698486,-0.07620543986558914,0.18509215116500854,0.4030183255672455,-7.585501670837402,82.79742431640625,-28.485822677612305
0.822,-0.576670229434967,-9.357131958007812,2.4095723628997803,-0.07192938029766083,0.1391245573759079,0.41263946890830994,-7.7316575050354,82.92897033691406,-28.675825119018555
0.829,-0.9080761671066284,-9.45763111114502,2.049452543258667,-0.0754418596625328,-0.009773843921720982,0.4207334518432617,-7.658579349517822,83.08973693847656,-28.61736488342285
0.839,-2.146361827850342,-9.622735977172852,1.9764714241027832,-0.08002334833145142,-0.1036943718791008,0.44226643443107605,-7.673194885253906,82.43203735351562,-28.33966636657715
0.85,-3.1824538707733154,-9.722038269042969,2.066202163696289,-0.09819658100605011,-0.046731188893318176,0.4349360466003418,-6.737796306610107,82.92897033691406,-28.83659553527832
0.86,-3.1549363136291504,-9.729216575622559,1.935793399810791,-0.10308350622653961,0.1333213448524475,0.42180243134498596,-6.328558921813965,82.43203735351562,-28.924291610717773
0.879,-0.62931227684021,-9.251848220825195,2.7840490341186523,-0.1615738421678543,0.13515393435955048,0.4615086615085602,-5.773165702819824,82.37358093261719,-27.784273147583008
0.883,-0.32183465361595154,-9.20040225982666,2.7625136375427246,-0.16814064979553223,0.09544768929481506,0.4755585789680481,-5.8900909423828125,82.34434509277344,-28.354280471801758
0.89,-0.7010970711708069,-9.304490089416504,2.335394859313965,-0.18112152814865112,-0.030543262138962746,0.5239696502685547,-5.1300787925720215,82.54896545410156,-28.07658576965332
0.9,-1.7910276651382446,-9.475577354431152,1.9633108377456665,-0.18936823308467865,-0.11698068678379059,0.5804746747016907,-5.1154632568359375,82.54896545410156,-27.901199340820312
0.91,-2.2923240661621094,-9.694520950317383,1.9920247793197632,-0.20891591906547546,-0.09178250283002853,0.6223189830780029,-4.457760810852051,82.16895294189453,-28.456592559814453
0.92,-1.9549360275268555,-9.626324653625488,2.2336997985839844,-0.21762074530124664,-0.055283304303884506,0.6537785530090332,-4.1654486656188965,81.8035659790039,-28.04735565185547
0.934,-1.9573287963867188,-9.370293617248535,2.3258235454559326,-0.23808471858501434,-0.076052725315094,0.6831000447273254,-3.2738964557647705,81.61356353759766,-28.222742080688477
0.94,-2.2803597450256348,-9.424131393432617,2.076970100402832,-0.23609942197799683,-0.0910189226269722,0.6904304623603821,-2.952353000640869,81.40895080566406,-27.652734756469727
0.949,-2.943171739578247,-9.627521514892578,1.9800606966018677,-0.242513507604599,-0.08002334833145142,0.7012733221054077,-2.5577316284179688,81.49663543701172,-27.08272361755371
0.96,-3.2709884643554688,-9.737591743469238,1.7898313999176025,-0.26251932978630066,-0.0027488935738801956,0.7018841505050659,-2.016954183578491,80.8243179321289,-27.287343978881836
0.97,-3.249452829360962,-9.781858444213867,1.8460626602172852,-0.2635883390903473,0.07788532227277756,0.7043275833129883,-1.2277112007141113,80.83893585205078,-27.009645462036133
0.98,-2.909672260284424,-9.877571105957031,1.730010747909546,-0.27000242471694946,0.144622340798378,0.7081454992294312,-0.8477053642272949,80.80970764160156,-27.871967315673828
0.997,-2.258824348449707,-9.327221870422363,1.5912269353866577,-0.2652682065963745,0.2255619913339615,0.7443392872810364,0.13154049217700958,79.91815185546875,-25.957321166992188
1.001,-2.117647886276245,-9.534201622009277,1.4344971179962158,-0.26374107599258423,0.2145664095878601,0.7638869881629944,0.36539024114608765,79.93276977539062,-26.629642486572266
1.01,-2.3676979541778564,-9.905089378356934,1.3268201351165771,-0.28267788887023926,0.13500121235847473,0.7900014519691467,0.9938614368438721,80.15200805664062,-26.61502456665039
1.02,-3.410968542098999,-10.264013290405273,1.3758729696273804,-0.30711251497268677,0.0731511116027832,0.7887797355651855,1.5200233459472656,79.5089111328125,-25.25577163696289
1.029,-3.775874137878418,-10.084550857543945,1.415354609489441,-0.3055853545665741,0.11759155988693237,0.8022187352180481,1.6954107284545898,79.43583679199219,-25.285005569458008
1.05,-4.319044589996338,-10.118050575256348,0.8769694566726685,-0.36422839760780334,0.06230825185775757,0.8712465763092041,2.3969600200653076,79.09967803955078,-24.59807014465332
1.054,-1.4225330352783203,-9.745965957641602,2.6871397495269775,-0.3003929853439331,0.2292271852493286,0.7794640064239502,3.0838937759399414,78.61736297607422,-26.278865814208984
1.06,-2.2743778228759766,-10.084550857543945,2.4921247959136963,-0.27458393573760986,0.1621847152709961,0.8277223706245422,3.580824375152588,78.0327377319336,-24.788074493408203
1.07,-4.157529354095459,-11.027322769165039,2.3784656524658203,-0.28466320037841797,0.2877175211906433,0.8191702961921692,3.610055446624756,78.04735565185547,-25.562700271606445
1.08,-3.647857904434204,-11.178071022033691,2.2923240661621094,-0.30741792917251587,0.4465424716472626,0.8358163237571716,3.9754457473754883,78.13504791259766,-24.042678833007812
1.089,-2.640479564666748,-12.448659896850586,2.5938196182250977,-0.365755558013916,0.5097670555114746,0.8701775074005127,4.925460338592529,77.87196350097656,-23.911136627197266
1.109,-2.234896183013916,-12.692727088928223,2.8905298709869385,-0.41202861070632935,0.4917464852333069,0.9312640428543091,5.232388019561768,76.99503326416016,-23.253435134887695
1.113,-3.1477580070495605,-11.976076126098633,2.7672994136810303,-0.4509712755680084,0.656069278717041,1.056644082069397,5.729318618774414,76.48348236083984,-23.5895938873291
1.12,-2.9012973308563232,-12.208181381225586,2.715853691101074,-0.4908302128314972,0.7774786949157715,1.1162035465240479,6.226249694824219,76.2496337890625,-23.326513290405273
1.13,-1.9250258207321167,-12.6676025390625,2.54117751121521,-0.5410738587379456,0.861930787563324,1.23226797580719,6.723180294036865,75.19731140136719,-23.063430786132812
1.139,-1.5864413976669312,-12.806386947631836,2.496910333633423,-0.5874996781349182,0.8781187534332275,1.338711142539978,6.810873985290527,74.890380859375,-21.674949645996094
1.149,-1.397408366203308,-13.042078971862793,2.3389840126037598,-0.6337726712226868,0.8991936445236206,1.482569932937622,7.687810897827148,73.98421478271484,-21.938030242919922
1.168,-1.415354609489441,-13.205987930297852,2.2408783435821533,-0.6736316084861755,0.9518807530403137,1.6381878852844238,8.287050247192383,73.50189971923828,-20.038002014160156
1.172,-2.2229323387145996,-13.63908863067627,2.060220241546631,-0.7263187766075134,1.1305588483810425,1.8834502696990967,8.915521621704102,72.5080337524414,-19.204912185668945
1.18,-1.7874385118484497,-13.806586265563965,1.9489539861679077,-0.7480044364929199,1.348484992980957,1.9449949264526367,9.514761924743652,71.09032440185547,-19.321834564208984
1.19,-1.2669994831085205,-14.240883827209473,2.1439690589904785,-0.8072583675384521,1.516014814376831,2.0532708168029785,9.850920677185059,70.09646606445312,-19.292604446411133
1.2,0.397208571434021,-14.545968055725098,1.698904037475586,-0.8442157506942749,1.614822268486023,2.1878137588500977,10.318620681762695,69.70184326171875,-17.72873306274414
1.21,1.4297115802764893,-14.868999481201172,1.557727575302124,-0.883005678653717,1.5948164463043213,2.311056137084961,11.429407119750977,68.32797241210938,-16.939491271972656
1.229,1.4632110595703125,-14.620145797729492,1.5158531665802002,-0.8801040649414062,1.5393803119659424,2.4608705043792725,11.882491111755371,66.89564514160156,-16.35486602783203
1.233,1.590030550956726,-13.812567710876465,1.2610174417495728,-0.8211556077003479,1.6853772401809692,2.5587615966796875,12.335575103759766,65.43408966064453,-15.083308219909668
1.24,1.903490424156189,-13.706087112426758,1.2789636850357056,-0.776715099811554,1.8264870643615723,2.5873196125030518,12.949429512023926,64.74714660644531,-14.308682441711426
1.25,2.2600209712982178,-13.683355331420898,1.0887342691421509,-0.7186830043792725,2.0147862434387207,2.570826292037964,13.387897491455078,63.43174743652344,-14.35252857208252
1.259,2.045863151550293,-13.548161506652832,1.0289136171340942,-0.7218900322914124,2.14428973197937,2.4443774223327637,14.089447021484375,62.364803314208984,-13.051739692687988
1.269,1.6115659475326538,-12.355340003967285,0.7393822073936462,-0.8796459436416626,1.9729419946670532,2.286926746368408,14.381760597229004,61.414791107177734,-13.080970764160156
1.289,3.1381869316101074,-10.234102249145508,0.0933200791478157,-0.8191702961921692,1.0320568084716797,2.3654229640960693,14.747150421142578,60.581703186035156,-12.1455717086792
1.293,1.3698909282684326,-9.45045280456543,1.8376877307891846,-0.6501132845878601,-0.5210680365562439,2.5612051486968994,15.931015014648438,59.13475799560547,-12.262495994567871
1.3,-0.7740780711174011,-8.499305725097656,2.427518606185913,-0.5149593949317932,-1.332755208015442,2.596788167953491,16.574100494384766,58.477054595947266,-12.306343078613281
1.31,-6.453442096710205,-7.891529083251953,3.9625141620635986,-0.32681289315223694,-1.6872097253799438,2.507754325866699,18.137971878051758,57.80473327636719,-13.080970764160156
1.32,-7.838886737823486,-7.074379920959473,2.8354947566986084,-0.22098049521446228,-0.9992228150367737,1.6633859872817993,18.956445693969727,56.97164535522461,-14.177140235900879
1.33,-3.293720245361328,-5.854040145874023,1.9369899034500122,-0.0679587572813034,-0.5079344511032104,0.9905179738998413,19.64337921142578,56.16778564453125,-14.834843635559082
1.349,-0.349352091550827,-4.900500774383545,1.5565310716629028,0.06185010448098183,-0.2964223325252533,0.6097962260246277,19.46799087524414,55.992401123046875,-16.091785430908203
1.353,2.066202163696289,-4.269991874694824,2.163111686706543,0.24892757833003998,-0.4764748811721802,-0.037110064178705215,19.7310733795166,56.47471618652344,-16.96872329711914
1.36,3.2518458366394043,-4.1551361083984375,2.2504496574401855,0.3000875413417816,-0.6278167366981506,-0.24297165870666504,19.511838912963867,56.8985710144043,-16.457176208496094
1.37,3.1369903087615967,-3.8249268531799316,1.8376877307891846,0.40194934606552124,-1.0129672288894653,-0.6322454810142517,19.43876075744629,57.35165023803711,-17.465654373168945
1.379,1.5996018648147583,-3.4480574131011963,1.5840485095977783,0.5236642360687256,-1.2382237911224365,-0.9662361145019531,18.488744735717773,57.950889587402344,-18.956445693969727
1.389,-0.7764708995819092,-3.37268328666687,1.435693621635437,0.6018549799919128,-1.2716686725616455,-1.411251425743103,17.90412139892578,58.95936965942383,-20.2718505859375
1.409,-1.6701900959014893,-3.7292141914367676,1.2275179624557495,0.6337726712226868,-1.1128437519073486,-1.881464958190918,15.536393165588379,61.195556640625,-22.39111328125
1.413,-1.4297115802764893,-4.269991874694824,0.4785645008087158,0.6339254379272461,-0.7658722400665283,-2.510045289993286,14.761765480041504,62.64250183105469,-23.648056030273438
1.42,-1.1665010452270508,-4.445864677429199,0.17946170270442963,0.6368269920349121,-0.6762278079986572,-2.76920485496521,14.060215950012207,62.64250183105469,-22.961122512817383
1.43,-0.849452018737793,-5.006981372833252,0.0023928226437419653,0.6449209451675415,-0.6542366743087769,-3.0605874061584473,11.385560035705566,65.12715911865234,-24.788074493408203
1.439,-1.1880364418029785,-6.297908782958984,0.27278175950050354,0.6316346526145935,-0.6508768796920776,-3.291647434234619,9.31014347076416,66.85179901123047,-26.366558074951172
1.45,-2.007578134536743,-7.332805156707764,0.5144568085670471,0.6046038866043091,-0.5813909769058228,-3.5272886753082275,6.8547210693359375,69.01490783691406,-26.39579200744629
1.469,-2.963510751724243,-7.990830898284912,0.8398807048797607,0.5916229486465454,-0.46547931432724,-3.7502543926239014,2.5138847827911377,71.28032684326172,-27.901199340820312
1.473,-3.5736804008483887,-8.524430274963379,0.9966105818748474,0.6010913848876953,-0.19425514340400696,-4.066835403442383,0.23384974896907806,72.2741928100586,-28.23735809326172
1.48,-3.493520736694336,-8.713462829589844,0.9511469602584839,0.6223189830780029,-0.08261951804161072,-4.198018550872803,-2.908506155014038,73.06343078613281,-29.479684829711914
1.49,-3.1884360313415527,-9.476773262023926,0.8793622851371765,0.6747006773948669,-0.012217304669320583,-4.335005283355713,-6.240865230560303,74.70037841796875,-30.83893585205078
1.5,-3.5712878704071045,-10.192227363586426,0.8865407705307007,0.7380779385566711,0.01191187184303999,-4.416250228881836,-10.084770202636719,75.50423431396484,-31.335866928100586
1.51,-3.871586799621582,-10.768898963928223,0.8757730722427368,0.7965682744979858,0.039248090237379074,-4.483750820159912,-13.592517852783203,76.48348236083984,-32.08126449584961
1.528,-3.735196113586426,-11.290533065795898,0.8147560954093933,0.8901833295822144,0.1365283876657486,-4.5573601722717285,-20.388774871826172,77.24349212646484,-34.361297607421875
1.532,-3.3547372817993164,-11.795418739318848,0.6161518096923828,0.9094256162643433,0.1463022232055664,-4.567744731903076,-23.39959144592285,77.36042022705078,-34.58053207397461
1.54,-2.853440999984741,-11.973684310913086,0.3086740970611572,0.9404270052909851,0.12217304855585098,-4.567286491394043,-25.78193473815918,77.17041778564453,-35.80824279785156
1.549,-2.4717857837677,-12.340982437133789,-0.0131605239585042,0.9677632451057434,0.030085112899541855,-4.541019439697266,-30.064308166503906,76.99503326416016,-36.87518310546875
1.559,-2.4646072387695312,-12.81356430053711,-0.37926235795021057,0.9831876158714294,-0.1235474944114685,-4.495662689208984,-33.68898010253906,76.848876953125,-38.32212829589844
1.57,-2.968296527862549,-13.324432373046875,-0.3397807776927948,0.9724974632263184,-0.27488934993743896,-4.433354377746582,-37.32826614379883,75.21192169189453,-38.99444580078125
1.59,-3.3655049800872803,-13.529019355773926,-0.27278175950050354,0.9179776906967163,-0.34773504734039307,-4.3760857582092285,-43.83221435546875,72.15726470947266,-41.17217254638672
1.594,-3.5533413887023926,-13.545768737792969,-0.6161518096923828,0.8202393054962158,-0.3903428912162781,-4.265213966369629,-44.7822265625,71.83572387695312,-42.20988082885742
1.6,-3.8811581134796143,-13.60678482055664,-0.5419743061065674,0.7954992651939392,-0.4138611853122711,-4.215580940246582,-47.06226348876953,70.4764633178711,-42.268341064453125
1.61,-3.9804604053497314,-13.661820411682129,-0.09451649338006973,0.7492262125015259,-0.4248567819595337,-4.1468586921691895,-49.6784553527832,68.66413116455078,-43.817596435546875
1.62,-3.339184045791626,-13.695320129394531,0.22013966739177704,0.7055493593215942,-0.39675697684288025,-4.09279727935791,-51.30078887939453,66.51564025878906,-44.51914596557617
1.63,-3.036491870880127,-13.820942878723145,0.6257230639457703,0.6852380633354187,-0.3911064863204956,-3.931223154067993,-54.443145751953125,64.87869262695312,-45.04530715942383
1.649,-3.906282901763916,-13.227522850036621,1.0911270380020142,0.6913467645645142,-0.2503020465373993,-3.5973854064941406,-57.19087600708008,61.09324645996094,-47.39842224121094
1.652,-5.0285162925720215,-12.495319366455078,0.9966105818748474,0.6950119137763977,-0.15683965384960175,-3.4852917194366455,-57.68781280517578,60.47938919067383,-46.8430290222168
1.66,-5.43290376663208,-12.490533828735352,0.8315058350563049,0.7148650884628296,0.0177150908857584,-3.3040173053741455,-58.345516204833984,59.456298828125,-47.354576110839844
1.67,-5.839683532714844,-12.460623741149902,0.5802595019340515,0.7263187766075134,0.24327708780765533,-3.0422616004943848,-59.61707305908203,57.61473083496094,-48.20227813720703
1.679,-6.317051887512207,-12.017951011657715,0.19501502811908722,0.7131851315498352,0.4899139106273651,-2.671924352645874,-59.894771575927734,55.89009094238281,-48.94767761230469
1.689,-6.412764072418213,-11.850454330444336,0.039481572806835175,0.6466008424758911,0.7052439451217651,-2.383596181869507,-61.06401824951172,53.90237045288086,-50.526161193847656
1.709,-4.892125606536865,-11.972487449645996,0.07178467512130737,0.4761694371700287,0.8521569967269897,-1.6789631843566895,-61.76556396484375,51.505409240722656,-52.39695739746094
1.713,-4.831109046936035,-11.909078598022461,0.07178467512130737,0.4537201523780823,0.8468118906021118,-1.5821409225463867,-61.414791107177734,50.84770202636719,-52.61619567871094
1.72,-4.691128730773926,-11.684152603149414,-0.11126624792814255,0.37782013416290283,0.8112290501594543,-1.277166485786438,-61.35633087158203,49.166908264160156,-53.40544128417969
1.729,-4.442275047302246,-11.546565055847168,-0.2799602448940277,0.27351492643356323,0.7339546084403992,-0.8532260060310364,-61.341712951660156,48.713829040527344,-54.472373962402344
1.74,-3.696910858154297,-11.508280754089355,-0.4570291042327881,0.13790282607078552,0.5984951853752136,-0.3445279896259308,-60.844783782958984,48.62613296508789,-54.253143310546875
1.749,-2.7326035499572754,-11.397013664245605,-0.5132604241371155,0.051312681287527084,0.4043927788734436,0.03741549327969551,-60.74247360229492,47.99766159057617,-55.32008361816406
1.769,-1.8628122806549072,-11.589635848999023,-0.47617167234420776,-0.12446378916501999,-0.11438451707363129,0.6760751008987427,-59.7339973449707,47.89535140991211,-54.54545593261719
1.772,-1.5326027870178223,-11.509476661682129,-0.49651068449020386,-0.14477506279945374,-0.19165895879268646,0.7463245987892151,-59.237064361572266,47.58842468261719,-55.67085647583008
1.779,-1.361515998840332,-11.182855606079102,-0.5647060871124268,-0.19333885610103607,-0.4311181306838989,0.9482155442237854,-58.842445373535156,47.26688003540039,-55.24700164794922
1.789,-1.683350682258606,-10.660024642944336,-0.576670229434967,-0.25442537665367126,-0.7900014519691467,1.2441797256469727,-58.33089828491211,47.64688491821289,-55.48085403442383
1.8,-2.496910333633423,-10.376474380493164,-0.35054853558540344,-0.3013092875480652,-0.987463653087616,1.446376085281372,-57.527042388916016,47.924583435058594,-54.457759857177734
1.81,-2.5782663822174072,-9.848857879638672,-0.12681959569454193,-0.34727686643600464,-1.1065824031829834,1.6056592464447021,-56.46010208129883,48.24612808227539,-54.676998138427734
1.828,-2.7146570682525635,-7.018148422241211,1.9286149740219116,-0.18570303916931152,-1.2837332487106323,1.8330539464950562,-55.071617126464844,48.80152130126953,-53.814674377441406
1.832,-3.724428415298462,-6.246463775634766,4.682753562927246,-0.1039998009800911,-1.2782355546951294,1.8432859182357788,-54.472373962402344,49.166908264160156,-52.86465835571289
1.84,-4.559523582458496,-7.740781307220459,11.775079727172852,0.15271630883216858,-0.6322454810142517,1.5560264587402344,-53.71236038208008,49.210758209228516,-52.80619812011719
1.85,2.7218358516693115,-25.90709114074707,8.184649467468262,-0.912021815776825,1.6659822463989258,0.651029646396637,-53.37620544433594,49.53229904174805,-53.69774627685547
1.86,14.456236839294434,-21.06162452697754,-10.24487018585205,-0.8767443299293518,2.035097599029541,1.350012183189392,-53.025428771972656,49.63460922241211,-53.741600036621094
1.869,5.816951751708984,-7.133004188537598,-2.6285154819488525,-0.015577062964439392,0.29626965522766113,2.2658517360687256,-51.4615592956543,50.0,-53.87313461303711
1.889,-8.597411155700684,-7.529016494750977,2.423929214477539,-0.1915062516927719,-0.029016099870204926,2.232712507247925,-49.45922088623047,50.64308547973633,-53.49312973022461
1.893,-9.08554744720459,-7.651050090789795,2.5698914527893066,-0.21120664477348328,0.4294382631778717,2.004248857498169,-48.72844314575195,50.64308547973633,-53.58082580566406
1.9,-4.319044589996338,-8.184649467468262,2.251646041870117,-0.27840182185173035,1.063821792602539,1.5771013498306274,-48.39228439331055,51.4615592956543,-53.58082580566406
1.909,2.441875457763672,-9.074779510498047,0.4989035129547119,-0.3723223805427551,1.2186760902404785,1.4019356966018677,-47.544578552246094,51.56386947631836,-54.472373962402344
1.919,4.303491592407227,-8.49571704864502,0.9846464395523071,-0.21410825848579407,0.4616613984107971,1.505935549736023,-47.07687759399414,51.56386947631836,-54.99854278564453
1.93,1.9334007501602173,-10.13479995727539,3.5258240699768066,0.06658431142568588,-0.6206390857696533,1.6769777536392212,-46.06840133666992,51.75387191772461,-54.18006134033203
1.945,-4.756931304931641,-10.113264083862305,2.93001127243042,0.08338310569524765,-0.7170030474662781,1.7182111740112305,-44.15375518798828,52.323883056640625,-53.78544235229492
1.95,-4.8574299812316895,-9.017352104187012,2.678764820098877,0.09239336103200912,-0.4761694371700287,1.6728545427322388,-43.452205657958984,52.60157775878906,-52.893890380859375
1.96,-2.9826531410217285,-9.1716890335083,2.606980323791504,0.07819075137376785,0.010690141469240189,1.556484580039978,-43.04296875,52.35311508178711,-53.55158996582031
1.97,-0.8315058350563049,-9.80100154876709,1.4428720474243164,0.09285151958465576,0.06520986557006836,1.4732542037963867,-42.326805114746094,52.99620056152344,-53.7562141418457
1.98,-0.6101697683334351,-10.459028244018555,2.1272192001342773,0.10644327104091644,0.03176499158143997,1.4512630701065063,-41.34756088256836,52.499271392822266,-53.814674377441406
1.99,-2.093719720840454,-9.795019149780273,2.8486552238464355,0.032070424407720566,0.056352317333221436,1.3338242769241333,-40.499855041503906,53.27389907836914,-53.142356872558594
2.003,-2.8977081775665283,-9.474380493164062,0.8099704384803772,0.0073303827084600925,0.18997909128665924,1.1717921495437622,-39.4621467590332,53.30312728881836,-53.113128662109375
2.01,-2.014756679534912,-9.561718940734863,0.8685945868492126,0.03634648025035858,0.2838996350765228,1.0939068794250488,-39.30137634277344,53.08388900756836,-53.4200553894043
2.019,-0.7070790529251099,-9.90867805480957,0.97148597240448,0.05513058975338936,0.28008171916007996,1.0004445314407349,-38.599822998046875,53.0985107421875,-54.32621765136719
2.03,-0.2955136001110077,-9.841679573059082,0.94037926197052,0.07299839705228806,0.09560041129589081,0.9469938278198242,-38.599822998046875,53.18620300292969,-54.19468307495117
2.04,-0.19501502811908722,-9.561718940734863,0.5383850932121277,0.128434419631958,-0.19226983189582825,0.9314167499542236,-37.43057632446289,53.69774627685547,-54.443145751953125
2.058,-1.015753149986267,-9.663414001464844,1.3483555316925049,0.14385876059532166,-0.3029891550540924,0.9143125414848328,-37.021339416503906,53.88775634765625,-54.72084426879883
2.062,-2.9970104694366455,-9.957731246948242,2.1930220127105713,0.13286319375038147,-0.21380282938480377,0.8689557909965515,-37.19672393798828,53.27389907836914,-55.071617126464844
2.07,-3.6370902061462402,-9.846465110778809,1.9537396430969238,0.11698068678379059,-0.0503963828086853,0.8092436790466309,-36.159019470214844,53.61005783081055,-54.633148193359375
2.08,-2.179861307144165,-9.415757179260254,2.3198413848876953,0.1339322030544281,0.19288070499897003,0.7009678483009338,-35.99824523925781,53.741600036621094,-55.02777099609375
2.09,-0.9810572266578674,-9.280562400817871,2.794816732406616,0.10476338863372803,0.2102903574705124,0.6516404747962952,-35.88132095336914,53.97544479370117,-54.8962287902832
2.1,-1.275374412536621,-9.32602596282959,2.533998966217041,0.04642575979232788,0.08597928285598755,0.5994114875793457,-35.25284957885742,53.814674377441406,-54.75007247924805
2.119,-1.2550355195999146,-9.56052303314209,2.427518606185913,0.024892758578062057,0.06734789162874222,0.5667302012443542,-35.39900588989258,53.72698211669922,-54.676998138427734
2.123,-0.25363919138908386,-9.651450157165527,2.3234305381774902,0.019394971430301666,0.006108652334660292,0.5560400485992432,-34.39052963256836,53.449283599853516,-54.647762298583984
2.13,-0.27756741642951965,-9.674181938171387,2.2887346744537354,0.01038470957428217,-0.06688974052667618,0.579405665397644,-34.47822189331055,53.66851806640625,-55.51008605957031
2.139,-1.0229315757751465,-9.56052303314209,1.8795621395111084,0.004734205547720194,-0.12599095702171326,0.6023131012916565,-34.40514373779297,53.23004913330078,-54.6185302734375
2.15,-1.1545369625091553,-9.407382011413574,1.8987046480178833,0.033597588539123535,-0.10033462196588516,0.6111707091331482,-33.615901947021484,53.87313461303711,-54.662376403808594
2.159,-0.7238287925720215,-9.649056434631348,2.2097716331481934,0.03878994286060333,-0.0985020250082016,0.6293439269065857,-33.557437896728516,53.72698211669922,-55.14469909667969
2.178,-1.0707881450653076,-9.82133960723877,2.251646041870117,0.01542434748262167,-0.10567968338727951,0.6505715250968933,-33.002044677734375,53.72698211669922,-54.867000579833984
2.182,-2.3784656524658203,-9.65503978729248,1.956132411956787,0.012217304669320583,-0.062460970133543015,0.6604980230331421,-32.87050247192383,54.048526763916016,-54.6185302734375
2.19,-2.5746772289276123,-9.315258026123047,2.0362918376922607,0.022907447069883347,0.01863138936460018,0.6511823534965515,-32.57819366455078,54.09237289428711,-55.20315933227539
2.2,-1.8855441808700562,-9.097511291503906,2.311466693878174,0.021074850112199783,0.11056660860776901,0.6209444999694824,-31.964338302612305,53.05466079711914,-55.61239242553711
2.209,-0.9822536706924438,-9.42054271697998,2.2923240661621094,-0.001679879380390048,0.052381694316864014,0.6082690358161926,-31.862030029296875,53.46390151977539,-54.662376403808594
2.22,-0.5503491759300232,-9.428916931152344,2.4921247959136963,-0.013439035043120384,-0.04993823170661926,0.6244570016860962,-32.03741455078125,53.39081954956055,-54.662376403808594
2.239,-0.45583271980285645,-9.462416648864746,2.7326035499572754,-0.04077525436878204,-0.1667662113904953,0.6565274000167847,-31.482023239135742,53.59543991088867,-54.867000579833984
2.243,-1.7718851566314697,-9.540183067321777,2.706282138824463,-0.10262536257505417,-0.2545780837535858,0.7116580009460449,-30.9266300201416,53.68313217163086,-54.79391860961914
2.25,-2.4299113750457764,-9.371489524841309,2.1092729568481445,-0.09926559776067734,-0.19456057250499725,0.7214318513870239,-30.882781982421875,53.5369758605957,-55.43700408935547
2.26,-1.4416755437850952,-9.446863174438477,1.8041881322860718,-0.09437867254018784,-0.11163561791181564,0.7591527700424194,-30.28354263305664,53.61005783081055,-54.98392105102539
2.269,-0.2763710021972656,-9.501898765563965,2.17627215385437,-0.08048149198293686,-0.13668109476566315,0.8242099285125732,-29.45045280456543,53.71236038208008,-54.881614685058594
2.279,-0.2763710021972656,-9.282955169677734,2.4610180854797363,-0.07559457421302795,-0.22342397272586823,0.9115636348724365,-29.333528518676758,53.28851318359375,-55.743934631347656
2.299,-2.27677059173584,-8.74337387084961,2.7122642993927,-0.10216721147298813,-0.3006984293460846,0.9619600176811218,-28.60274887084961,53.68313217163086,-54.647762298583984
2.303,-5.481956481933594,-8.2755765914917,1.3375877141952515,-0.15103644132614136,-0.2220495045185089,0.9305005073547363,-28.018123626708984,53.40544128417969,-54.41391372680664
2.31,-4.844269275665283,-8.423932075500488,0.7441678643226624,-0.16050483286380768,-0.0913243517279625,0.887739896774292,-27.535808563232422,53.0985107421875,-54.58930206298828
2.32,-2.30069899559021,-9.280562400817871,1.1772687435150146,-0.15057827532291412,0.03756821155548096,0.8785768747329712,-27.477344512939453,52.99620056152344,-54.20929718017578
2.33,-0.38763725757598877,-9.978070259094238,1.5780664682388306,-0.08048149198293686,0.0507018156349659,0.960280179977417,-26.89272117614746,53.25928497314453,-54.82314682006836
2.34,-0.18065811693668365,-10.374082565307617,2.5950162410736084,-0.04260785132646561,0.023976460099220276,1.0598511695861816,-26.118093490600586,53.36158752441406,-54.077754974365234
2.359,-1.7443677186965942,-9.860821723937988,2.1032910346984863,-0.010231993161141872,-0.04963279888033867,1.156978726387024,-25.50423812866211,52.528499603271484,-53.90237045288086
2.363,-3.8189449310302734,-9.495916366577148,1.0133603811264038,0.0074830991216003895,0.11407908797264099,1.249219298362732,-24.174217224121094,53.0985107421875,-54.253143310546875
2.37,-2.592623233795166,-9.483952522277832,1.2789636850357056,0.0455094613134861,0.2837468981742859,1.2834279537200928,-24.276527404785156,53.332359313964844,-54.73545837402344
2.38,-1.727617859840393,-9.968499183654785,1.8855441808700562,0.048258356750011444,0.2831360399723053,1.3831515312194824,-23.545745849609375,53.17158508300781,-54.267757415771484
2.39,-1.521835207939148,-10.003194808959961,2.4981067180633545,0.0757472887635231,0.30665433406829834,1.4556918144226074,-22.94650650024414,52.67465591430664,-54.077754974365234
2.4,-2.282752752304077,-9.293722152709961,2.919243335723877,0.08277223259210587,0.25915956497192383,1.5126550197601318,-22.318035125732422,52.60157775878906,-55.2762336730957
2.418,-4.04985237121582,-8.325825691223145,2.524427890777588,0.11423180252313614,0.3790418803691864,1.4541646242141724,-20.549545288085938,52.76234817504883,-54.79391860961914
2.422,-5.041677474975586,-6.941577911376953,2.0518453121185303,0.11087203770875931,0.4001167118549347,1.4185817241668701,-20.549545288085938,52.543113708496094,-54.82314682006836
2.43,-5.413760662078857,-7.138986110687256,1.2825528383255005,0.08368853479623795,0.3630066514015198,1.372156023979187,-20.30108070373535,52.8208122253418,-55.04238510131836
2.439,-4.901697158813477,-8.549554824829102,0.48813581466674805,0.03176499158143997,0.35781431198120117,1.352608323097229,-19.497222900390625,51.710025787353516,-54.92546081542969
2.45,-3.410968542098999,-10.36929702758789,1.2610174417495728,-0.02733621932566166,0.36911532282829285,1.3805553913116455,-18.88336753845215,51.62232971191406,-55.10084533691406
2.459,-2.1655044555664062,-12.52164077758789,2.348555326461792,-0.12049316614866257,0.33399054408073425,1.5317444801330566,-18.56182289123535,51.373870849609375,-54.18006134033203
2.479,-1.612762451171875,-11.868399620056152,3.865604877471924,-0.1333213448524475,0.3478877544403076,1.679268479347229,-16.413330078125,51.0815544128418,-54.53084182739258
2.483,-3.8727831840515137,-10.183852195739746,3.043670415878296,-0.14813482761383057,0.2871066629886627,1.8379408121109009,-16.340251922607422,51.0815544128418,-54.48699188232422
2.49,-4.671986103057861,-9.414560317993164,2.726621150970459,-0.13316862285137177,0.48059821128845215,1.8559613227844238,-15.609471321105957,50.584625244140625,-54.033905029296875
2.5,-5.681756973266602,-7.633103847503662,2.96111798286438,-0.062460970133543015,0.6490443348884583,1.8278615474700928,-14.513299942016602,50.336158752441406,-54.29698944091797
2.51,-7.499105453491211,-9.7064847946167,0.5491527915000916,-0.1589776873588562,0.7922922372817993,1.9034559726715088,-13.650979042053223,49.44460678100586,-54.048526763916016
2.52,-4.0486555099487305,-8.791230201721191,-0.5467599630355835,-0.19013181328773499,0.9535605907440186,1.835344672203064,-12.89096736907959,50.263084411621094,-53.97544479370117
2.539,-2.5399811267852783,-9.432506561279297,-0.23210379481315613,-0.3055853545665741,0.29565879702568054,2.027003526687622,-10.990938186645508,49.15229415893555,-53.87313461303711
2.542,-4.321437358856201,-10.115657806396484,0.3409772217273712,-0.3110831081867218,0.27458393573760986,2.02120041847229,-10.479392051696777,48.99152374267578,-53.025428771972656
2.55,-4.765305995941162,-8.768498420715332,0.9128617644309998,-0.3240639865398407,0.21288654208183289,2.021353006362915,-9.690149307250977,49.093833923339844,-53.18620300292969
2.559,-4.7294135093688965,-8.459823608398438,1.0253244638442993,-0.35705074667930603,0.10201448947191238,2.0566306114196777,-8.886290550231934,48.14381790161133,-52.57234573364258
2.57,-5.023731231689453,-5.487938404083252,1.7778671979904175,-0.40026944875717163,0.007024950347840786,2.007761240005493,-7.57088565826416,47.77842712402344,-52.77696990966797
2.579,-7.70967435836792,-5.062016010284424,2.0195422172546387,-0.38270705938339233,-0.08109235763549805,1.9759962558746338,-6.796258926391602,47.661502838134766,-51.44694519042969
2.598,-8.111668586730957,-5.935396194458008,2.4741785526275635,-0.41401392221450806,0.28298333287239075,1.8755089044570923,-5.656240940093994,46.24378967285156,-52.22157287597656
2.603,-7.032505512237549,-8.161917686462402,3.242274522781372,-0.44028112292289734,0.3176499307155609,1.9089539051055908,-5.0862321853637695,46.302249908447266,-51.49079132080078
2.61,-6.515655517578125,-10.606185913085938,3.2159535884857178,-0.4807509481906891,0.4401284158229828,1.9593502283096313,-4.501607418060303,45.717628479003906,-52.280033111572266
2.619,-5.400600433349609,-9.790233612060547,3.2410783767700195,-0.5013676285743713,0.48579058051109314,1.9827158451080322,-3.712364673614502,45.45454788208008,-51.49079132080078
2.629,-7.952546119689941,-9.43489933013916,2.7696919441223145,-0.5065600275993347,0.43188172578811646,2.0531179904937744,-2.5723471641540527,45.22069549560547,-51.198482513427734
2.64,-7.859225749969482,-9.601200103759766,1.5361920595169067,-0.5390886068344116,0.5984951853752136,2.04960560798645,-1.6807950735092163,44.32914352416992,-50.42385482788086
2.659,-5.186442852020264,-10.953145980834961,0.4331009089946747,-0.65958172082901,0.6123924255371094,2.157270669937134,0.20461852848529816,43.072200775146484,-50.584625244140625
2.662,-5.0392842292785645,-10.024730682373047,0.259621262550354,-0.6688974499702454,0.5690209865570068,2.1760547161102295,0.3800058364868164,42.56065368652344,-49.48845672607422
2.67,-5.758327960968018,-7.0061845779418945,-0.23808583617210388,-0.6327036619186401,0.43890663981437683,2.2064452171325684,0.7746273279190063,42.6045036315918,-49.54691696166992
2.68,-8.656035423278809,-8.294719696044922,-0.03349951654672623,-0.6116288304328918,0.41981711983680725,2.183232307434082,2.4700381755828857,41.756797790527344,-49.166908264160156
2.689,-6.20937442779541,-9.451648712158203,0.3517449200153351,-0.6334671974182129,0.5021312236785889,2.1447479724884033,2.937737464904785,40.8652458190918,-48.494590759277344
2.7,-6.245266914367676,-7.606782913208008,0.5180460810661316,-0.6447682976722717,0.331852525472641,2.166433572769165,3.814674139022827,40.09061813354492,-48.289974212646484
2.715,-8.12961483001709,-7.7898335456848145,1.2047861814498901,-0.6207917928695679,0.41401392221450806,2.1113028526306152,4.706226348876953,38.43905258178711,-47.98304748535156
2.72,-8.139185905456543,-7.761119842529297,1.3316056728363037,-0.6122397184371948,0.43249258399009705,2.085952043533325,5.013154029846191,38.263668060302734,-47.310726165771484
2.73,-8.935996055603027,-10.38963508605957,1.8269200325012207,-0.616973876953125,0.4590652287006378,2.024101972579956,5.656240940093994,37.86904525756836,-46.98918533325195
2.74,-8.915657043457031,-13.251450538635254,2.3306093215942383,-0.6484334468841553,0.6319400668144226,1.9782871007919312,6.737796306610107,37.0067253112793,-46.097633361816406
2.749,-8.038687705993652,-15.43490219116211,2.792423963546753,-0.688903272151947,0.7770205736160278,1.928959608078003,7.278573513031006,36.451332092285156,-46.097633361816406
2.759,-6.616154670715332,-16.85743522644043,3.13938307762146,-0.702189564704895,0.903775155544281,1.836719036102295,7.424729347229004,35.325927734375,-44.182987213134766
2.778,-4.463810443878174,-15.244672775268555,2.1786649227142334,-0.7267768979072571,0.9028587937355042,1.5028811693191528,8.243204116821289,33.060508728027344,-43.13066482543945
2.782,-3.8560335636138916,-14.110474586486816,1.4261221885681152,-0.7602217793464661,0.8379544019699097,1.3788756132125854,8.243204116821289,32.9289665222168,-42.95527648925781
2.79,-3.1441688537597656,-11.663813591003418,-0.19740787148475647,-0.7470881938934326,0.7580837607383728,1.1659890413284302,8.6670560836792,32.46126937866211,-42.77988815307617
2.8,-3.37268328666687,-8.341379165649414,-0.13160523772239685,-0.7360925674438477,0.33078351616859436,0.8906415104866028,8.740134239196777,31.774335861206055,-41.3037109375
2.81,-5.0943193435668945,-3.829712390899658,-1.490728497505188,-0.6591235995292664,-0.7790058851242065,0.683863639831543,9.193218231201172,31.321250915527344,-41.55217742919922
2.828,-8.528019905090332,0.5156532526016235,-0.8554341197013855,-0.17837265133857727,-1.8678730726242065,1.1171197891235352,9.50014591217041,30.327388763427734,-41.3037109375
2.832,-13.142578125,1.9441683292388916,2.7361927032470703,0.039706241339445114,-1.9257526397705078,1.0154106616973877,9.807073593139648,29.28968048095703,-41.49371337890625
2.84,-10.582257270812988,3.5270204544067383,4.42193603515625,0.16600261628627777,-1.478293776512146,0.7895433306694031,10.391697883605957,28.880443572998047,-42.326805114746094
2.85,-4.8574299812316895,4.431507587432861,3.1968109607696533,0.17119498550891876,-0.29474249482154846,0.1261436641216278,11.370944023132324,28.354280471801758,-42.516807556152344
2.86,3.2793633937835693,5.170889377593994,-0.6843472719192505,0.16752979159355164,1.2229522466659546,-0.9254608750343323,10.742472648620605,27.97427749633789,-41.37678909301758
2.869,12.269197463989258,4.486542224884033,-0.5575276613235474,0.43799036741256714,1.0563386678695679,-1.6545284986495972,10.201695442199707,28.17889404296875,-41.3037109375
2.88,15.52582836151123,-0.13878370821475983,2.0554347038269043,0.5523748993873596,0.03695734962821007,-2.0259344577789307,9.558608055114746,28.83659553527832,-41.25986862182617
2.893,10.415956497192383,-1.7910276651382446,3.7710883617401123,0.6843218207359314,-1.3556627035140991,-2.577240228652954,8.783981323242188,29.859689712524414,-42.57527160644531
2.9,5.690132141113281,-1.4105688333511353,3.0352954864501953,0.7276932001113892,-1.795027494430542,-2.8823676109313965,8.783981323242188,30.210464477539062,-42.6629638671875
2.91,0.3230310380458832,-0.9116654396057129,1.6785650253295898,0.7863362431526184,-1.747380018234253,-3.263089179992676,8.053200721740723,31.072786331176758,-43.422977447509766
2.919,-2.063809394836426,-1.7312071323394775,0.9786643981933594,0.8665122985839844,-1.134834885597229,-3.7343719005584717,7.263957500457764,31.423559188842773,-44.051448822021484
2.93,-1.56969153881073,-3.4121649265289307,1.137787103652954,0.9306531548500061,-0.6380487084388733,-4.076456546783447,5.860859394073486,32.490501403808594,-44.48991394042969
2.949,-0.5120640397071838,-3.985246181488037,1.219143033027649,0.9763153791427612,-0.3874412775039673,-4.311486721038818,4.910844802856445,33.367435455322266,-45.35223388671875
2.953,-1.5649060010910034,-3.678964614868164,1.55413818359375,1.067639708518982,-0.30940327048301697,-4.548349857330322,3.770827054977417,34.46360778808594,-45.4399299621582
2.96,-3.071187734603882,-3.7902309894561768,1.534995675086975,1.0929906368255615,-0.20234911143779755,-4.687474727630615,2.864659309387207,35.51593017578125,-45.86378479003906
2.97,-4.886143684387207,-4.334598064422607,1.026520848274231,1.0812314748764038,0.08155050873756409,-4.865541458129883,1.1692488193511963,36.50979232788086,-46.126861572265625
2.98,-5.775076866149902,-5.090729713439941,0.16510476171970367,1.0329731702804565,0.5015203952789307,-4.997030258178711,0.07307805120944977,37.24057388305664,-45.70301055908203
2.99,-5.37069034576416,-6.530013084411621,-0.6089733242988586,0.963181734085083,0.6866125464439392,-5.002985954284668,-2.2215726375579834,38.015201568603516,-45.93686294555664
3.01,-4.727020740509033,-8.141578674316406,-1.3040882349014282,0.8399397134780884,0.7235698699951172,-5.002680778503418,-3.566208839416504,38.30751037597656,-46.4191780090332
3.013,-4.55354118347168,-9.6526460647583,-1.5278172492980957,0.6536257863044739,0.5227479338645935,-4.922046661376953,-6.138556003570557,39.593685150146484,-45.90762710571289
3.02,-4.515256404876709,-9.66221809387207,-1.7934205532073975,0.6059783101081848,0.4237877428531647,-4.867527008056641,-7.351651668548584,40.09061813354492,-45.615318298339844
3.03,-4.937589645385742,-9.431309700012207,-2.0027923583984375,0.5852088928222656,0.07284567505121231,-4.681059837341309,-8.886290550231934,41.157554626464844,-46.287635803222656
3.04,-6.771687984466553,-9.335597038269043,-1.7455641031265259,0.5227479338645935,-0.17211127281188965,-4.511850833892822,-10.581701278686523,41.55217742919922,-46.46302032470703
3.05,-8.774479866027832,-9.529415130615234,-1.9298113584518433,0.4050036370754242,-0.37201693654060364,-4.367991924285889,-11.970184326171875,42.03449249267578,-46.287635803222656
3.069,-10.607381820678711,-10.192227363586426,-1.6749757528305054,0.27091872692108154,-0.5612324476242065,-4.227034568786621,-12.803274154663086,41.9029541015625,-47.07687759399414
3.073,-11.158927917480469,-11.531012535095215,-0.3720839321613312,0.14645493030548096,-0.9297369122505188,-3.8760926723480225,-15.039462089538574,42.29757308959961,-47.44226837158203
3.08,-11.09910774230957,-11.91745376586914,-0.015553345903754234,0.04764748737215996,-1.1823296546936035,-3.634190082550049,-16.091785430908203,43.10143280029297,-47.32534408569336
3.09,-11.475976943969727,-12.446266174316406,0.47976091504096985,-0.08185594528913498,-1.5289957523345947,-3.280193567276001,-17.275650024414062,42.429115295410156,-47.04764938354492
3.1,-12.702299118041992,-13.191630363464355,1.1964112520217896,-0.1817324161529541,-1.7365370988845825,-2.88114595413208,-17.962583541870117,42.79450607299805,-47.661502838134766
3.109,-14.000405311584473,-13.793425559997559,1.5637094974517822,-0.24953843653202057,-1.7095063924789429,-2.4964535236358643,-19.54106903076172,43.393741607666016,-47.41303634643555
3.129,-14.987444877624512,-13.475180625915527,1.5553346872329712,-0.2922990024089813,-1.356731653213501,-2.15543794631958,-21.251096725463867,43.422977447509766,-47.851505279541016
3.133,-15.026926040649414,-11.657832145690918,0.6855436563491821,-0.3104722499847412,-0.3013092875480652,-1.7534886598587036,-21.031862258911133,42.999122619628906,-47.07687759399414
3.14,-14.141581535339355,-10.677969932556152,0.29431718587875366,-0.3237585723400116,0.28527405858039856,-1.5163203477859497,-21.046478271484375,43.057586669921875,-47.44226837158203
3.15,-11.721240997314453,-9.617950439453125,-0.06939185410737991,-0.32589662075042725,0.9311113357543945,-1.2279918193817139,-22.157264709472656,43.40835952758789,-48.056121826171875
3.16,-8.854640007019043,-9.352347373962402,0.11844471842050552,-0.31184670329093933,1.3490958213806152,-1.0009026527404785,-22.259572982788086,43.15989685058594,-47.58842468261719
3.169,-6.391229152679443,-9.540183067321777,0.6029912829399109,-0.2816088795661926,1.5436564683914185,-0.8373435139656067,-22.464191436767578,43.23297119140625,-46.4191780090332
3.189,-3.9661033153533936,-9.707681655883789,1.1748758554458618,-0.2460259646177292,1.492190957069397,-0.6766859889030457,-22.94650650024414,43.01374053955078,-47.07687759399414
3.193,-1.432104229927063,-9.641878128051758,2.2169501781463623,-0.21991148591041565,1.0500773191452026,-0.4482223689556122,-23.341127395629883,42.692195892333984,-47.44226837158203
3.2,-1.2741780281066895,-9.626324653625488,2.5639095306396484,-0.21838431060314178,0.6794348359107971,-0.26603180170059204,-23.00497055053711,43.02835464477539,-47.95381546020508
3.21,-2.1607186794281006,-9.741181373596191,2.779263496398926,-0.19853119552135468,0.22968532145023346,-0.013439035043120384,-23.268049240112305,42.85296630859375,-48.465362548828125
3.22,-3.2135608196258545,-10.313065528869629,2.7038893699645996,-0.19288070499897003,-0.052228979766368866,0.11759155988693237,-22.47880744934082,42.96989059448242,-48.421512603759766
3.23,-3.425325632095337,-10.930414199829102,2.2648065090179443,-0.16768251359462738,-0.11102475225925446,0.10644327104091644,-22.858814239501953,42.867584228515625,-48.27535629272461
3.25,-2.2851455211639404,-11.653045654296875,1.9298113584518433,-0.14004085958003998,0.12492194026708603,0.0754418596625328,-21.967260360717773,42.73604202270508,-48.30459213256836
3.253,0.6161518096923828,-12.035898208618164,1.332802176475525,-0.07635815441608429,0.284052312374115,0.08231408894062042,-22.025724411010742,42.79450607299805,-48.94767761230469
3.26,1.7838492393493652,-11.933006286621094,0.9439685344696045,-0.05009094625711441,0.237321138381958,0.17241671681404114,-22.230342864990234,42.268341064453125,-49.45922088623047
3.27,1.3399806022644043,-11.22353458404541,0.7369893193244934,0.0010690141934901476,0.0018325956771150231,0.4193589985370636,-22.288803100585938,42.12218475341797,-48.43613052368164
3.28,-0.9116654396057129,-10.552348136901855,1.200000524520874,0.027641652151942253,-0.1518000215291977,0.517861008644104,-22.11341667175293,42.253726959228516,-48.75767135620117
3.29,-1.6043875217437744,-10.071390151977539,1.1437692642211914,0.09086620807647705,0.06352998316287994,0.34025195240974426,-21.28032684326172,41.59602355957031,-48.81613540649414
3.309,0.22013966739177704,-10.091730117797852,0.20937196910381317,0.4124867618083954,-0.058490343391895294,1.0068585872650146,-21.031862258911133,41.698333740234375,-49.51768493652344
3.313,-5.528616905212402,-10.698309898376465,3.207578659057617,0.4703662395477295,-0.2519819140434265,1.2764029502868652,-20.90032196044922,42.09295654296875,-49.56153106689453
3.32,-16.5511531829834,-14.738590240478516,7.28973388671875,0.3058907687664032,-0.5123632550239563,1.9660696983337402,-20.09646224975586,42.37065124511719,-49.75153350830078
3.329,-18.55992889404297,-16.61456298828125,3.561716318130493,0.10949759185314178,0.7220426797866821,1.5676329135894775,-19.657995223999023,41.46448516845703,-50.07307434082031
3.34,-4.96630334854126,-17.392230987548828,2.060220241546631,0.3701843023300171,2.0396790504455566,0.6858489513397217,-19.17568016052246,41.66910171508789,-50.540775299072266
3.35,15.333207130432129,-16.350156784057617,1.8664016723632812,0.527634859085083,1.5514450073242188,0.7241807579994202,-18.591054916381836,41.2452507019043,-51.05232620239258
3.369,21.196819305419922,-14.359328269958496,1.467996597290039,0.5085453391075134,-0.5042692422866821,1.397354245185852,-17.845659255981445,41.2014045715332,-51.30078887939453
3.372,13.351949691772461,-8.408378601074219,4.956732273101807,0.5326744914054871,-0.861167311668396,1.368032693862915,-17.59719467163086,41.65448760986328,-51.4177131652832
3.38,6.997809410095215,-11.12183952331543,3.2039895057678223,0.48655417561531067,-1.867567777633667,1.4089607000350952,-16.98333740234375,41.2014045715332,-51.81233215332031
3.39,-2.414357900619507,-15.743577003479004,1.168893814086914,0.2838996350765228,-2.545628070831299,1.875814437866211,-16.866413116455078,40.777549743652344,-52.513885498046875
3.4,-12.854243278503418,-15.549757957458496,-0.14476576447486877,0.38499781489372253,-1.998598337173462,1.6366606950759888,-15.770242691040039,40.64601135253906,-52.484657287597656
3.409,-10.256834030151367,-9.330811500549316,-2.3162522315979004,0.5766568183898926,-1.1201741695404053,1.1707231998443604,-15.317158699035645,40.38292694091797,-53.05466079711914
3.429,-2.0362918376922607,-7.054040908813477,0.8327022790908813,0.4662429094314575,-0.1333213448524475,1.1950050592422485,-14.294065475463867,40.03215408325195,-53.27389907836914
3.432,-1.3878371715545654,-7.7730841636657715,1.7527425289154053,0.47280970215797424,-0.14416420459747314,1.1143709421157837,-13.972522735595703,39.81291961669922,-53.23004913330078
3.44,-0.1579262912273407,-9.955338478088379,4.545166492462158,0.48288896679878235,-0.30482175946235657,1.0448850393295288,-14.045600891113281,40.1636962890625,-53.55158996582031
3.449,-0.8327022790908813,-10.984251976013184,6.022734642028809,0.46334129571914673,-0.6233879327774048,1.00197172164917,-13.621747970581055,39.769073486328125,-53.624671936035156
3.459,-3.5509486198425293,-10.305886268615723,5.260620594024658,0.42210787534713745,-0.778242290019989,0.9286679029464722,-13.329436302185059,39.345218658447266,-53.61005783081055
3.47,-7.721638202667236,-12.425928115844727,3.174079179763794,0.08536841720342636,-0.5587889552116394,0.8498662114143372,-12.730195999145508,39.418296813964844,-53.61005783081055
3.489,-8.209774017333984,-17.917455673217773,-0.18065811693668365,-0.049785517156124115,0.7654141187667847,0.9805914163589478,-12.408652305603027,39.72522735595703,-54.12160110473633
3.493,3.125026226043701,-18.009578704833984,-1.6630116701126099,0.11911872029304504,0.9587529897689819,0.9543241858482361,-12.320959091186523,39.35983657836914,-53.88775634765625
3.5,8.194220542907715,-12.029914855957031,0.7441678643226624,0.2871066629886627,0.6204863786697388,1.1270463466644287,-11.444022178649902,39.403682708740234,-53.93159866333008
3.51,2.981456995010376,-7.7730841636657715,1.5230315923690796,0.31184670329093933,-0.5169447064399719,1.5522085428237915,-11.32709789276123,38.92136764526367,-54.15083312988281
3.519,-5.4209394454956055,-6.113661289215088,1.9250258207321167,0.34605515003204346,-0.9376780986785889,1.463938593864441,-10.874013900756836,38.87752151489258,-54.20929718017578
3.53,-10.394421577453613,-5.825326442718506,4.380061626434326,0.31780263781547546,-0.5308418869972229,1.2331842184066772,-10.596317291259766,38.70213317871094,-54.82314682006836
3.55,-5.113461494445801,-8.72064208984375,3.754338502883911,0.08307767659425735,0.21288654208183289,0.5871942043304443,-10.537854194641113,38.70213317871094,-55.48085403442383
3.553,-2.957528829574585,-9.378667831420898,3.8261232376098633,0.06154467165470123,0.1872301995754242,0.5522221326828003,-10.391697883605957,38.07366180419922,-55.40777587890625
3.559,-1.8783657550811768,-10.642078399658203,3.4707889556884766,-0.04138611629605293,-0.020005837082862854,0.523511528968811,-10.099386215209961,38.205204010009766,-54.51622772216797
3.57,-4.816751956939697,-10.671988487243652,1.2179466485977173,-0.18784105777740479,-0.2655736804008484,0.5338962078094482,-9.485530853271484,38.234432220458984,-54.019290924072266
3.579,-6.8171515464782715,-9.199206352233887,0.8446664214134216,-0.23105978965759277,-0.1488984078168869,0.5071708559989929,-9.58784008026123,38.395206451416016,-54.282371520996094
3.59,-5.249852657318115,-8.916852951049805,0.2715853750705719,-0.22876903414726257,0.0754418596625328,0.47739118337631226,-9.368605613708496,38.29289627075195,-53.23004913330078
3.603,-2.210968017578125,-9.772287368774414,1.5409777164459229,-0.14538592100143433,0.17577646672725677,0.5271766781806946,-8.564746856689453,38.190589904785156,-54.57468795776367
3.61,-2.0817556381225586,-9.370293617248535,1.753938913345337,-0.09285151958465576,0.12553280591964722,0.5656611919403076,-9.0762939453125,38.00058364868164,-55.01315689086914
3.62,-3.6023943424224854,-8.419146537780762,2.029113531112671,-0.04581489413976669,0.06230825185775757,0.5884159207344055,-9.090909004211426,37.635196685791016,-53.58082580566406
3.63,-5.937789440155029,-8.61057186126709,1.415354609489441,-0.02687807008624077,0.05253440886735916,0.5468770861625671,-8.579362869262695,37.679039001464844,-53.56621170043945
3.64,-6.379265308380127,-8.872586250305176,0.8590232729911804,-0.024892758578062057,0.21624629199504852,0.4893030524253845,-8.403975486755371,37.78135299682617,-52.952354431152344
3.649,-4.5128631591796875,-9.166903495788574,1.2741780281066895,-0.0050396379083395,0.36254850029945374,0.45952337980270386,-8.725519180297852,37.75211715698242,-53.39081954956055
3.666,-2.561516523361206,-9.980463027954102,2.146361827850342,-0.014202617108821869,0.3113885521888733,0.5575672388076782,-8.155509948730469,37.679039001464844,-53.94621658325195
3.67,-2.557927370071411,-10.015158653259277,2.3976082801818848,-0.014813481830060482,0.3168863356113434,0.6052147150039673,-7.950891494750977,37.109031677246094,-53.8585205078125
3.68,-3.093919515609741,-9.810572624206543,2.9144580364227295,-0.016340645030140877,0.32849279046058655,0.695164680480957,-8.053200721740723,37.43057632446289,-52.74773406982422
3.69,-3.7627134323120117,-9.885946273803711,2.7804598808288574,-0.02977968007326126,0.39996400475502014,0.765566885471344,-8.03858470916748,36.94826126098633,-53.55158996582031
3.7,-3.572484016418457,-9.157332420349121,2.623729705810547,-0.01038470957428217,0.5099197626113892,0.8379544019699097,-7.36626672744751,36.99210739135742,-53.55158996582031
3.718,-3.4468607902526855,-9.767501831054688,2.0650060176849365,-0.02672535367310047,0.46700647473335266,0.9089674949645996,-6.825489521026611,36.75825881958008,-53.127742767333984
3.722,-3.032902479171753,-9.556933403015137,2.1643080711364746,-0.049785517156124115,0.4159992039203644,1.0199922323226929,-6.606255531311035,36.290557861328125,-52.85004425048828
3.73,-2.9994029998779297,-9.835697174072266,2.0362918376922607,-0.08857545256614685,0.32971450686454773,1.0925325155258179,-6.460099697113037,36.30517578125,-52.77696990966797
3.739,-3.221935510635376,-9.535398483276367,2.3078773021698,-0.11942415684461594,0.21578815579414368,1.1665998697280884,-6.547792911529541,36.21747970581055,-51.95848846435547
3.749,-4.71027135848999,-9.148957252502441,2.014756679534912,-0.15286903083324432,0.16554446518421173,1.277471899986267,-6.0508623123168945,35.852088928222656,-52.25080108642578
3.759,-5.187639236450195,-10.04985523223877,1.3627125024795532,-0.20402897894382477,0.29138270020484924,1.3069461584091187,-5.393159866333008,36.20286560058594,-52.42618942260742
3.778,-2.99222469329834,-9.286543846130371,1.5122638940811157,-0.22678370773792267,0.3488040566444397,1.3758212327957153,-4.720841884613037,35.559776306152344,-51.388484954833984
3.782,-3.926621675491333,-6.754938125610352,1.8484554290771484,-0.2223549336194992,0.12034045159816742,1.443169116973877,-4.501607418060303,34.81438064575195,-52.0608024597168
3.79,-6.125626087188721,-6.275177478790283,1.6785650253295898,-0.22311851382255554,0.08857545256614685,1.441947340965271,-4.3262200355529785,34.93130874633789,-51.43233108520508
3.8,-7.195217609405518,-7.144968032836914,1.5314065217971802,-0.20265454053878784,0.32009339332580566,1.4205671548843384,-3.4200527667999268,34.60976028442383,-51.03771209716797
3.81,-4.809573173522949,-9.70528793334961,1.8604196310043335,-0.21991148591041565,0.4973970353603363,1.467145562171936,-3.639286756515503,34.09821701049805,-51.43233108520508
3.82,-3.3535408973693848,-9.438488960266113,2.135594129562378,-0.21594086289405823,0.43218716979026794,1.5250251293182373,-3.1423561573028564,34.50745391845703,-51.12540054321289
3.839,-5.022534370422363,-9.09272575378418,2.139183282852173,-0.22770002484321594,0.2721404433250427,1.6296356916427612,-2.674656629562378,33.630516052246094,-51.27155685424805
3.843,-6.327819347381592,-11.297711372375488,1.6295121908187866,-0.29535335302352905,0.3459024429321289,1.7693711519241333,-1.7100263833999634,33.74744415283203,-50.86231994628906
3.85,-4.900500774383545,-12.124431610107422,1.7228323221206665,-0.35063666105270386,0.42577308416366577,1.8274033069610596,-2.1338791847229004,33.805904388427734,-50.02922821044922
3.859,-3.8799617290496826,-8.525627136230469,1.5601202249526978,-0.36743542551994324,0.3036000430583954,1.894445776939392,-1.5638701915740967,32.95820236206055,-50.24846649169922
3.87,-6.384050369262695,-5.92223596572876,1.4608181715011597,-0.35613444447517395,0.19318613409996033,1.905441403388977,-0.3800058364868164,32.34434509277344,-50.08769607543945
3.88,-7.597211837768555,-4.456632137298584,1.1341978311538696,-0.3127630054950714,0.2203696370124817,1.8597792387008667,0.2192341536283493,31.949722290039062,-49.6199951171875
3.898,-7.534998416900635,-6.058626651763916,0.8159525394439697,-0.3107776939868927,0.2719877362251282,1.8477145433425903,0.39462143182754517,31.408945083618164,-49.18152618408203
3.903,-5.8133625984191895,-7.444070816040039,1.0444670915603638,-0.3683517277240753,0.3637702465057373,1.8771889209747314,0.6138556003570557,30.882781982421875,-48.78690719604492
3.91,-6.129214763641357,-7.4524455070495605,1.3890334367752075,-0.39416077733039856,0.3347541391849518,1.8842138051986694,1.2423267364501953,30.780473709106445,-48.80152130126953
3.92,-7.178467750549316,-8.997013092041016,1.9501503705978394,-0.4415028393268585,0.41340306401252747,1.8878790140151978,1.8415666818618774,30.064308166503906,-49.13768005371094
3.929,-5.842076301574707,-8.169095993041992,2.4047865867614746,-0.48258352279663086,0.4418082535266876,1.9197967052459717,2.4554224014282227,29.655071258544922,-48.37766647338867
3.94,-7.511070251464844,-9.038887023925781,2.3880369663238525,-0.47479501366615295,0.327729195356369,1.9877554178237915,2.5138847827911377,29.055830001831055,-47.99766159057617
3.959,-7.93459939956665,-10.390832901000977,2.2432711124420166,-0.479834645986557,0.479834645986557,2.028836250305176,3.3031277656555176,29.28968048095703,-46.95995330810547
3.963,-5.30847692489624,-3.862015724182129,1.466800332069397,-0.4303545355796814,0.508698046207428,2.0344865322113037,3.624671220779419,28.06197166442871,-47.20841979980469
3.97,-8.673981666564941,-3.638286828994751,1.0564311742782593,-0.3978259861469269,0.3761402666568756,2.016007900238037,4.340836048126221,27.988893508911133,-47.500728607177734
3.98,-10.365707397460938,-4.329812526702881,0.4414757788181305,-0.38270705938339233,0.6145303845405579,1.8991800546646118,4.589301109313965,27.55042266845703,-46.24378967285156
3.99,-8.051847457885742,-6.569494247436523,0.5874379277229309,-0.38606685400009155,0.7426593899726868,1.7988454103469849,4.925460338592529,26.79041290283203,-46.00994110107422
4.0,-6.296712398529053,-9.7998046875,1.0205388069152832,-0.41202861070632935,0.5983425378799438,1.8197674751281738,5.787781238555908,26.585792541503906,-45.22069549560547
4.019,-6.363711833953857,-8.276773452758789,0.558724045753479,-0.38438695669174194,0.4940372407436371,1.8342756032943726,5.773165702819824,25.533470153808594,-44.66530227661133
4.023,-9.166903495788574,-8.530412673950195,0.5611169338226318,-0.35216379165649414,0.38469237089157104,1.821447491645813,5.9193220138549805,25.445777893066406,-44.446067810058594
4.03,-8.556733131408691,-9.141778945922852,0.25363919138908386,-0.35216379165649414,0.5195409059524536,1.7602081298828125,6.328558921813965,25.197309494018555,-44.811458587646484
4.039,-7.607979774475098,-8.47896671295166,0.08733802288770676,-0.37629297375679016,0.5771149396896362,1.704161286354065,6.752411365509033,24.641918182373047,-44.10990905761719
4.049,-8.449056625366211,-9.954142570495605,-0.11605189740657806,-0.4156937897205353,0.5001459121704102,1.6908749341964722,7.132417678833008,24.042678833007812,-44.24144744873047
4.06,-8.733802795410156,-12.930813789367676,0.5814558863639832,-0.5135849714279175,0.5981897711753845,1.6103935241699219,6.986261367797852,23.9695987701416,-43.55451583862305
4.079,-7.654639720916748,-14.932409286499023,1.3950154781341553,-0.5613851547241211,0.6939429044723511,1.5016595125198364,7.234726905822754,23.516515731811523,-42.6629638671875
4.083,-5.271388053894043,-14.82951831817627,0.31106695532798767,-0.6490443348884583,0.6569855809211731,1.2947288751602173,7.600116729736328,22.84419822692871,-41.85910415649414
4.09,-4.766502380371094,-13.76351547241211,3.2853453159332275,-0.6110179424285889,0.5418374538421631,1.1270463466644287,7.629348278045654,22.82958221435547,-41.5814094543457
4.1,-4.110869407653809,-10.077371597290039,1.4715858697891235,-0.6009386777877808,0.28756481409072876,0.9813550114631653,7.483191967010498,22.712656021118164,-41.069862365722656
4.109,-5.438885688781738,-8.4502534866333,0.9619146585464478,-0.5328271985054016,-0.4437935948371887,0.611323356628418,7.600116729736328,22.37649917602539,-40.67523956298828
4.119,-8.538786888122559,-4.6061835289001465,-0.2883351147174835,-0.41263946890830994,-1.048092007637024,0.5239696502685547,7.936275959014893,22.347267150878906,-39.769073486328125
4.139,-11.576476097106934,-0.5718846321105957,-0.8267201781272888,-0.12370020896196365,-1.335504174232483,0.8393288254737854,8.023969650268555,21.879568099975586,-39.68138122558594
4.143,-11.387442588806152,0.8973084688186646,2.5184457302093506,0.10415252298116684,-1.2370021343231201,0.8414669036865234,7.717041492462158,21.894182205200195,-39.8859977722168
4.15,-9.884749412536621,2.1092729568481445,2.5052852630615234,0.17180584371089935,-1.1314750909805298,0.697149932384491,7.8047356605529785,22.493423461914062,-40.017539978027344
4.16,-7.607979774475098,3.297309398651123,2.480160713195801,0.23396137356758118,-0.6679810881614685,0.37629297375679016,8.593978881835938,22.332651138305664,-40.70447540283203
4.17,-2.904886484146118,3.056830644607544,0.6831508874893188,0.15454889833927155,0.17608189582824707,-0.41523563861846924,8.52090072631836,22.39111328125,-40.002925872802734
4.18,4.7952165603637695,1.0839486122131348,-0.6185446381568909,0.09147706627845764,1.061072826385498,-1.3884966373443604,7.819350719451904,22.800350189208984,-40.03215408325195
4.199,11.172087669372559,-1.550549030303955,-0.044267214834690094,0.1598939746618271,1.0888673067092896,-1.8009834289550781,6.913183689117432,23.764982223510742,-37.94212341308594
4.203,9.990034103393555,-2.768495798110962,0.7465606331825256,0.23411409556865692,-0.2503020465373993,-2.1345157623291016,6.957030296325684,24.101139068603516,-38.219818115234375
4.21,7.919046401977539,-2.26959228515625,1.073180913925171,0.29825496673583984,-1.0172432661056519,-2.4521658420562744,6.167787551879883,24.39345359802246,-38.99444580078125
4.22,3.524627685546875,-1.557727575302124,0.4570291042327881,0.32009339332580566,-1.4144585132598877,-2.8293750286102295,6.299327373504639,25.109615325927734,-39.05290985107422
4.229,0.010767702013254166,-2.2061824798583984,0.3649054169654846,0.352011114358902,-1.3312280178070068,-3.14626145362854,5.700087547302246,26.278865814208984,-38.804443359375
4.24,-0.9152546525001526,-3.3128626346588135,0.802791953086853,0.408974289894104,-1.0754282474517822,-3.4602463245391846,5.042385101318359,27.769657135009766,-39.1259880065918
4.258,-0.9834501147270203,-3.7316067218780518,1.5469597578048706,0.4495968222618103,-0.5331326127052307,-3.9794816970825195,3.0838937759399414,30.34200668334961,-40.41215896606445
4.262,-1.3674980401992798,-3.2554352283477783,1.6139588356018066,0.4499022364616394,-0.4772384762763977,-4.0434699058532715,2.952353000640869,30.590471267700195,-40.07600402832031
4.27,-1.5672988891601562,-3.0592236518859863,1.6307085752487183,0.478765606880188,-0.30085110664367676,-4.26628303527832,2.2215726375579834,31.525867462158203,-40.41215896606445
4.28,-2.1846470832824707,-3.686143398284912,1.7359927892684937,0.494189977645874,-0.1560760736465454,-4.44144868850708,0.9792458415031433,32.82666015625,-40.309852600097656
4.29,-3.0412774085998535,-4.082155227661133,1.7288143634796143,0.5236642360687256,-0.07070764899253845,-4.570188522338867,-0.7600116729736328,34.536685943603516,-40.6021614074707
4.3,-4.610969066619873,-4.30588436126709,2.0721843242645264,0.5902485251426697,0.046731188893318176,-4.676325798034668,-2.4115755558013916,35.25284957885742,-40.499855041503906
4.318,-6.553940773010254,-4.869393825531006,1.113858938217163,0.5600107312202454,0.7887797355651855,-4.939303398132324,-4.823151111602783,37.284420013427734,-41.53756332397461
4.322,-6.065804958343506,-4.855037212371826,0.34217363595962524,0.556345522403717,0.9537133574485779,-4.9507575035095215,-5.378544330596924,37.401344299316406,-41.084476470947266
4.33,-5.487938404083252,-5.174479007720947,-0.2548356056213379,0.6053674817085266,1.0612256526947021,-4.8898234367370605,-6.986261367797852,38.29289627075195,-41.81526184082031
4.339,-5.307280540466309,-5.882754325866699,-0.5204389095306396,0.6110179424285889,1.0589349269866943,-4.7361907958984375,-8.652440071105957,39.19906234741211,-40.61677932739258
4.35,-5.730810165405273,-6.159125328063965,-0.8685945868492126,0.6104071140289307,0.9043859839439392,-4.597524642944336,-10.362466812133789,39.4621467590332,-41.56679153442383
4.359,-6.465406894683838,-6.160321235656738,-1.2562319040298462,0.6441574096679688,0.717308521270752,-4.489859580993652,-11.780181884765625,39.783687591552734,-42.19526290893555
4.379,-7.4979095458984375,-6.415157318115234,-1.3483555316925049,0.7400632500648499,0.5206099152565002,-4.228714466094971,-14.90792179107666,40.952938079833984,-43.27682113647461
4.383,-8.708678245544434,-7.42133903503418,-0.8769694566726685,0.7476990222930908,0.503963828086853,-4.166253566741943,-15.81408977508545,41.05524826049805,-42.35603332519531
4.39,-8.659625053405762,-7.9381890296936035,-0.5659025311470032,0.7496843934059143,0.4723515212535858,-4.09310245513916,-16.340251922607422,41.47909927368164,-43.01374053955078
4.4,-7.588836669921875,-8.571090698242188,-0.4929214417934418,0.711963415145874,0.36193764209747314,-4.001319885253906,-17.743350982666016,41.25986862182617,-43.29143524169922
4.41,-6.32542610168457,-9.628718376159668,-0.4833501875400543,0.6536257863044739,0.12095130980014801,-3.8150062561035156,-19.17568016052246,41.873722076416016,-43.78836441040039
4.42,-6.257230758666992,-11.408977508544922,-0.22492532432079315,0.5438227653503418,-0.5009095072746277,-3.4458906650543213,-20.476469039916992,42.239112854003906,-43.65682601928711
4.439,-11.022536277770996,-14.624931335449219,0.21296119689941406,0.3323107063770294,-1.568854570388794,-2.6537513732910156,-22.961122512817383,42.22449493408203,-43.75913619995117
4.443,-12.922438621520996,-14.854642868041992,-0.04905286058783531,0.3149010241031647,-1.623068928718567,-2.562732458114624,-22.888044357299805,42.443729400634766,-43.65682601928711
4.45,-16.017555236816406,-14.878570556640625,-0.13519448041915894,0.2684752643108368,-1.594052791595459,-2.3067798614501953,-23.428821563720703,42.282955169677734,-44.29991149902344
4.459,-19.057634353637695,-14.386845588684082,0.3840480148792267,0.17577646672725677,-1.0908526182174683,-1.9982929229736328,-24.261911392211914,42.063724517822266,-44.577606201171875
4.47,-19.074384689331055,-13.085149765014648,1.0049854516983032,-0.033139437437057495,0.06933320313692093,-1.647045373916626,-24.510377883911133,42.35603332519531,-44.13914108276367
4.48,-14.46341609954834,-11.264212608337402,1.3651052713394165,-0.16523903608322144,0.9822712540626526,-1.3596333265304565,-25.12423324584961,42.3414192199707,-44.41683578491211
4.499,-7.101897239685059,-9.463613510131836,2.0506489276885986,-0.1788308024406433,1.7482962608337402,-0.8303185701370239,-25.88424301147461,42.77988815307617,-44.76761245727539
4.503,-5.276174068450928,-9.518648147583008,2.2959132194519043,-0.1898263692855835,1.6581937074661255,-0.6908885836601257,-25.606548309326172,42.01987838745117,-45.33761978149414
4.51,-3.2590243816375732,-9.7064847946167,2.3270199298858643,-0.19257526099681854,1.461800456047058,-0.5325217843055725,-25.942707061767578,42.45834732055664,-44.97222900390625
4.519,-2.196611166000366,-10.364510536193848,2.77447772026062,-0.18112152814865112,0.6198754906654358,-0.0354301817715168,-26.161941528320312,41.85910415649414,-45.001461029052734
4.529,-3.497110366821289,-11.225926399230957,3.22552490234375,-0.23029619455337524,0.07971791177988052,0.32971450686454773,-25.957321166992188,42.39988327026367,-45.04530715942383
4.54,-5.124229431152344,-11.088339805603027,2.7840490341186523,-0.22708913683891296,0.015271631069481373,0.5232061147689819,-26.103479385375977,42.10757064819336,-45.65916442871094
4.557,-1.676172137260437,-9.314062118530273,1.6510475873947144,0.06139195337891579,0.2561052441596985,0.6414085030555725,-24.87576675415039,41.77141189575195,-45.65916442871094
4.561,-0.698704183101654,-9.144170761108398,0.9212366938591003,0.14782939851284027,0.17608189582824707,0.7635815143585205,-24.919614791870117,41.78602600097656,-45.68839645385742
4.57,-3.1920251846313477,-10.573882102966309,1.530210018157959,0.3032945990562439,-0.17760907113552094,1.2840386629104614,-25.32884979248047,42.01987838745117,-46.00994110107422
4.58,-10.916056632995605,-11.20917797088623,4.194617748260498,0.24144448339939117,-0.2747366428375244,1.664149522781372,-24.174217224121094,42.502193450927734,-46.05378341674805
4.589,-10.74855899810791,-16.5511531829834,4.295116424560547,0.14706581830978394,0.3833179175853729,1.263269305229187,-23.370359420776367,41.683719635009766,-46.59456253051758
4.608,-0.2679961323738098,-19.261024475097656,0.2835494577884674,-0.029168814420700073,1.3910928964614868,0.9283624291419983,-23.048816680908203,41.78602600097656,-46.916107177734375
4.612,15.298511505126953,-21.177675247192383,1.262213945388794,0.06719517707824707,1.0563386678695679,0.6717990040779114,-22.288803100585938,41.712947845458984,-47.77842712402344
4.62,20.84746742248535,-20.525630950927734,4.727020740509033,0.17669276893138885,0.32360586524009705,0.9923505187034607,-22.332651138305664,41.318328857421875,-47.281497955322266
4.63,19.984853744506836,-14.34736442565918,9.736394882202148,0.5577199459075928,-1.0299187898635864,1.648572564125061,-21.251096725463867,41.47909927368164,-47.8807373046875
4.64,11.558528900146484,-11.285747528076172,5.006981372833252,0.45753806829452515,-1.8029687404632568,1.4969252347946167,-20.593395233154297,41.3037109375,-48.406898498535156
4.65,2.6356940269470215,-11.788240432739258,2.4323041439056396,0.5071708559989929,-2.5951082706451416,1.8735237121582031,-20.315698623657227,41.17217254638672,-47.9391975402832
4.659,-9.82133960723877,-14.707483291625977,1.0600204467773438,0.3882048726081848,-2.498286008834839,2.024407386779785,-19.584917068481445,40.66062545776367,-47.98304748535156
4.675,-9.716055870056152,-11.289337158203125,-4.078566074371338,0.5106833577156067,-0.5328271985054016,1.3576478958129883,-18.678749084472656,40.71908950805664,-48.72844314575195
4.68,-7.83410120010376,-10.04148006439209,-3.765106201171875,0.3433062732219696,-0.11988230049610138,1.4561500549316406,-18.839519500732422,40.90909194946289,-48.1584358215332
4.69,-1.4919248819351196,-12.151949882507324,-2.2540388107299805,0.040164388716220856,-0.3998112976551056,1.4298827648162842,-17.78719711303711,40.2660026550293,-48.5822868347168
4.7,3.032902479171753,-18.151952743530273,5.590829849243164,-0.13041973114013672,-0.5384777188301086,1.3125966787338257,-17.377958297729492,40.149078369140625,-48.27535629272461
4.709,4.540380477905273,-23.10030746459961,7.012166500091553,-0.2816088795661926,-1.059393048286438,1.4804319143295288,-16.734872817993164,40.67523956298828,-49.38614273071289
4.729,0.849452018737793,-21.181264877319336,3.7316067218780518,-0.1892155110836029,-1.3862059116363525,1.7117971181869507,-16.106401443481445,40.19292449951172,-48.83074951171875
4.733,-8.837889671325684,-7.233502388000488,-1.9238293170928955,-0.0708603635430336,-1.452942967414856,1.842674970626831,-15.375621795654297,39.564453125,-49.093833923339844
4.74,-12.446266174316406,-3.6095728874206543,-3.286541700363159,-0.08918632566928864,-1.1297951936721802,1.6467399597167969,-14.674072265625,39.593685150146484,-49.283836364746094
4.75,-11.583653450012207,-4.382454872131348,-0.7202395796775818,-0.04688390716910362,-0.2073887437582016,1.2154691219329834,-13.914060592651367,39.769073486328125,-49.82461166381836
4.759,-7.689335346221924,-8.051847457885742,2.561516523361206,-0.0377209298312664,0.2880229651927948,0.8892670273780823,-13.738672256469727,39.5059928894043,-48.94767761230469
4.77,-5.392225742340088,-9.647860527038574,2.581855535507202,-0.022143863141536713,0.2793181240558624,0.6243042945861816,-13.709442138671875,39.30137634277344,-48.6407470703125
4.788,-5.03449821472168,-9.518648147583008,2.132004976272583,-0.03436116874217987,0.16203199326992035,0.36621370911598206,-13.650979042053223,38.789825439453125,-48.596900939941406
4.792,-4.797609329223633,-8.738588333129883,1.573280930519104,-0.09269880503416061,-0.0024434609804302454,0.1647808998823166,-13.431745529174805,39.418296813964844,-49.020755767822266
4.8,-4.82751989364624,-8.615358352661133,1.8484554290771484,-0.10384708642959595,-0.007024950347840786,0.11713340878486633,-13.373282432556152,39.593685150146484,-49.13768005371094
4.81,-4.2245283126831055,-9.337989807128906,2.2923240661621094,-0.13988813757896423,0.036651913076639175,0.04734205827116966,-13.314821243286133,39.023677825927734,-48.87459945678711
4.82,-3.655036449432373,-8.941977500915527,-0.5288137793540955,-0.13041973114013672,-0.0786488950252533,-0.019089538604021072,-13.110200881958008,38.8629035949707,-48.845367431640625
4.83,-2.4813568592071533,-10.120443344116211,2.706282138824463,-0.19013181328773499,-0.13286319375038147,0.08231408894062042,-13.241742134094238,38.789825439453125,-48.93306350708008
4.849,-2.603391170501709,-9.21715259552002,2.5184457302093506,-0.14737124741077423,-0.19853119552135468,0.09773843735456467,-13.241742134094238,39.140602111816406,-48.62613296508789
4.853,-4.706681728363037,-9.285347938537598,1.3423734903335571,-0.2295326143503189,-0.25534167885780334,0.09315694868564606,-13.344051361083984,38.55597686767578,-48.655364990234375
4.86,-3.8596227169036865,-9.008976936340332,-1.2179466485977173,-0.1843285858631134,-0.2102903574705124,0.08368853479623795,-13.534053802490234,38.97983169555664,-48.39228439331055
4.869,-3.1657042503356934,-9.20279598236084,1.046859860420227,-0.23273965716362,-0.036651913076639175,0.18402314186096191,-13.285589218139648,38.93598175048828,-48.87459945678711
4.879,-1.5170494318008423,-9.372685432434082,2.1188442707061768,-0.22540926933288574,-0.13484850525856018,0.22876903414726257,-12.715579986572266,38.395206451416016,-48.45074462890625
4.89,-2.1858434677124023,-9.253045082092285,1.8065810203552246,-0.20570887625217438,-0.23319780826568604,0.32268956303596497,-13.080970764160156,38.760597229003906,-49.06460189819336
4.909,-3.755535125732422,-8.992227554321289,1.7682960033416748,-0.18997909128665924,-0.22220222651958466,0.2854267954826355,-12.481730461120605,38.99444580078125,-48.18766403198242
4.913,-4.487738609313965,-8.932406425476074,1.5278172492980957,-0.18784105777740479,-0.1036943718791008,0.32971450686454773,-12.89096736907959,39.00905990600586,-48.33382034301758
4.92,-4.040280818939209,-8.678768157958984,1.0564311742782593,-0.1693623811006546,0.04153883829712868,0.3341432809829712,-12.437883377075195,38.64366912841797,-48.5822868347168
4.929,-3.3128626346588135,-8.762516021728516,1.1054840087890625,-0.11331550031900406,0.11575896292924881,0.36621370911598206,-12.306343078613281,38.64366912841797,-47.98304748535156
4.94,-3.0616164207458496,-8.9850492477417,0.4989035129547119,-0.05574145168066025,0.16111570596694946,0.478765606880188,-11.970184326171875,38.015201568603516,-48.07073974609375
4.949,-2.788834571838379,-8.801998138427734,0.8721838593482971,0.010690141469240189,0.22372940182685852,0.5430591702461243,-12.218649864196777,38.4244384765625,-47.486114501953125
4.969,-3.040081262588501,-8.947959899902344,1.2227323055267334,0.05803219974040985,0.204487144947052,0.6380487084388733,-11.940953254699707,38.4244384765625,-48.056121826171875
4.973,-3.830909013748169,-8.779266357421875,1.0492527484893799,0.12965615093708038,0.33292156457901,0.7738135457038879,-11.414791107177734,37.98596954345703,-47.69073486328125
4.98,-3.944568157196045,-8.803194046020508,1.1258230209350586,0.13759739696979523,0.3752239942550659,0.8161159157752991,-11.064016342163086,37.605960845947266,-47.76381301879883
4.989,-3.290131092071533,-9.214759826660156,1.3124631643295288,0.1598939746618271,0.48380523920059204,0.957531213760376,-10.859397888183594,37.854427337646484,-47.71996307373047
5.0,-1.794616937637329,-9.308079719543457,1.7192429304122925,0.17363843321800232,0.4853324294090271,1.0731375217437744,-11.093247413635254,37.45980453491211,-48.33382034301758
5.01,-2.3784656524658203,-9.219545364379883,2.3497517108917236,0.16722436249256134,0.38576140999794006,1.207680583000183,-9.894767761230469,37.94212341308594,-47.51534652709961
5.03,-3.964907169342041,-9.308079719543457,1.9836498498916626,0.1241583600640297,0.3248275816440582,1.2808316946029663,-9.514761924743652,37.211341857910156,-47.500728607177734
5.034,-3.9278182983398438,-8.414360046386719,2.179861307144165,0.04092797264456749,0.3784310221672058,1.3132075071334839,-8.75475025177002,37.079803466796875,-47.51534652709961
5.04,-3.94815731048584,-8.425127983093262,2.063809394836426,0.01237002108246088,0.3220787048339844,1.3912456035614014,-9.120140075683594,37.16749572753906,-47.38380432128906
5.049,-3.926621675491333,-9.047262191772461,1.817348837852478,-0.051312681287527084,0.2968805134296417,1.4427108764648438,-8.79859733581543,36.729026794433594,-46.81379699707031
5.06,-4.037888050079346,-9.856036186218262,1.7048860788345337,-0.1014036312699318,0.2580905556678772,1.5755741596221924,-8.111662864685059,36.75825881958008,-47.9391975402832
5.07,-4.0833516120910645,-10.890932083129883,1.4009976387023926,-0.11530081182718277,0.3300199508666992,1.7458528280258179,-7.775504112243652,36.58287048339844,-47.36919021606445
5.09,-4.510470390319824,-10.084550857543945,0.7633103728294373,-0.10002917796373367,0.40256020426750183,1.9063576459884644,-7.45396089553833,36.01285934448242,-46.78456497192383
5.094,-7.810173034667969,-11.438888549804688,-0.08255238085985184,-0.10445795953273773,0.4433354437351227,2.140929937362671,-6.737796306610107,35.57439422607422,-45.790706634521484
5.1,-5.123033046722412,-13.100703239440918,0.4378865361213684,-0.13255774974822998,0.7373143434524536,2.208735942840576,-6.503946304321289,35.61824035644531,-46.40456008911133
5.109,-0.4402793347835541,-11.399406433105469,1.8113667964935303,-0.12721268832683563,0.7683157920837402,2.1841487884521484,-5.846243858337402,35.51593017578125,-46.60917663574219
5.12,-3.3403801918029785,-9.857233047485352,4.022334575653076,-0.10506881773471832,0.5406157374382019,2.3692407608032227,-5.1446943283081055,35.13592529296875,-46.7991828918457
5.13,-9.20159912109375,-7.946564197540283,4.406383037567139,-0.05665775015950203,0.5874996781349182,2.392301082611084,-3.843905448913574,34.21514129638672,-47.16456985473633
5.15,-11.845667839050293,-10.476973533630371,3.8727831840515137,-0.02474004216492176,1.0842857360839844,2.370004177093506,-2.864659309387207,33.250511169433594,-46.06840133666992
5.154,-3.8847475051879883,-16.389638900756836,2.1343977451324463,-0.21960605680942535,1.370628833770752,2.5312728881835938,-2.586962938308716,32.84127426147461,-45.162235260009766
5.16,-1.6067804098129272,-16.478172302246094,1.2227323055267334,-0.29336804151535034,1.209971308708191,2.6487114429473877,-1.9877228736877441,33.002044677734375,-44.6799201965332
5.169,-4.4410786628723145,-18.681962966918945,0.5910272002220154,-0.4306599795818329,0.8359690308570862,2.9329166412353516,-0.9353989958763123,31.701257705688477,-44.606842041015625
5.179,-2.943171739578247,-14.005189895629883,0.13040883839130402,-0.5606215596199036,0.9900597929954529,3.048828363418579,-0.7015492916107178,30.751243591308594,-44.007598876953125
5.19,-2.14516544342041,-5.854040145874023,-0.6424728631973267,-0.5732970237731934,0.7486153841018677,3.0607402324676514,0.33615902066230774,30.122772216796875,-43.452205657958984
5.209,-7.184449672698975,-4.219742774963379,-0.3517449200153351,-0.6174320578575134,0.5215262174606323,2.8018860816955566,1.739257574081421,28.851213455200195,-42.54603958129883
5.212,-7.477570533752441,0.7405785322189331,-0.6975077390670776,-0.6359107494354248,0.5366451144218445,2.6841416358947754,1.7246419191360474,28.515052795410156,-42.29757308959961
5.22,-7.488338470458984,-1.195214867591858,-0.041874393820762634,-0.6979135274887085,0.4738787114620209,2.5677719116210938,2.3531131744384766,28.63197898864746,-42.443729400634766
5.229,-7.255037784576416,-4.191028594970703,0.6269195079803467,-0.7875579595565796,0.4804455041885376,2.4045183658599854,2.660040855407715,27.755043029785156,-40.952938079833984
5.239,-7.494320392608643,-6.757331371307373,1.4763715267181396,-0.8478809595108032,0.41263946890830994,2.328618288040161,3.0546624660491943,27.331188201904297,-41.21601867675781
5.25,-8.627321243286133,-11.599207878112793,2.4406790733337402,-0.9746354818344116,0.4190535545349121,2.2996022701263428,3.624671220779419,26.454252243041992,-40.9237060546875
5.27,-8.425127983093262,-16.851451873779297,2.7972095012664795,-1.069472312927246,0.6145303845405579,2.2595903873443604,4.106986045837402,25.562700271606445,-39.564453125
5.274,-6.405585765838623,-19.837696075439453,3.689732551574707,-1.1607966423034668,0.6913467645645142,2.1006128787994385,4.428529739379883,24.919614791870117,-39.87138366699219
5.28,-5.621936798095703,-19.411773681640625,3.2099714279174805,-1.1803444623947144,0.7260133028030396,1.9967657327651978,4.516223430633545,24.831920623779297,-39.038291931152344
5.29,-4.926821708679199,-15.694522857666016,2.967099905014038,-1.188132882118225,0.8008443117141724,1.740813136100769,4.720841884613037,24.422683715820312,-38.278282165527344
5.3,-3.6981072425842285,-11.113465309143066,2.379662036895752,-1.2003501653671265,0.7243334650993347,1.4382822513580322,4.837766647338867,24.13037109375,-38.015201568603516
5.31,-3.2446675300598145,-6.189035892486572,1.1042876243591309,-1.1664471626281738,0.3923282027244568,1.3119858503341675,5.261619567871094,23.10727882385254,-36.99210739135742
5.329,-4.125226020812988,-2.7146570682525635,0.07657032459974289,-0.6062837243080139,-1.3662000894546509,1.127810001373291,5.510084629058838,22.405729293823242,-36.100555419921875
5.333,-8.72064208984375,0.9619146585464478,0.5694918036460876,-0.4489859640598297,-1.5656476020812988,1.2220358848571777,5.787781238555908,22.610347747802734,-37.37211227416992
5.34,-11.693723678588867,2.4502503871917725,1.5960125923156738,-0.27901268005371094,-1.6659822463989258,1.3292428255081177,6.284712314605713,22.610347747802734,-36.99210739135742
5.35,-13.552947044372559,2.895315170288086,3.4408788681030273,-0.08445211499929428,-1.36955988407135,1.0436632633209229,6.416252136230469,21.938030242919922,-36.07132339477539
5.36,-8.57348346710205,5.895914554595947,2.788834571838379,0.058337628841400146,-0.7319692969322205,0.7028005123138428,6.752411365509033,22.11341667175293,-36.524410247802734
5.369,-4.011567115783691,7.427321434020996,2.5124638080596924,0.09422595798969269,-0.39324450492858887,0.2838996350765228,6.693948745727539,22.011106491088867,-36.34901809692383
5.389,0.7118647694587708,6.372086524963379,1.832902193069458,-0.09819658100605011,0.668744683265686,-1.8753561973571777,6.474714756011963,22.361881256103516,-35.82286071777344
5.392,10.978270530700684,3.672982692718506,-1.6785650253295898,-0.05864306166768074,0.6207917928695679,-2.1487185955047607,6.577024459838867,22.610347747802734,-35.7059326171875
5.4,14.017154693603516,0.6771687865257263,-0.6329016089439392,0.06658431142568588,0.09773843735456467,-2.2319488525390625,6.416252136230469,22.66880989074707,-35.44285202026367
5.41,10.342975616455078,-2.4287149906158447,-0.18783655762672424,0.17027868330478668,-0.5429064631462097,-2.390162706375122,6.0800933837890625,23.867290496826172,-34.975154876708984
5.42,5.3036909103393555,-1.657029628753662,1.3363914489746094,0.4057672321796417,-1.2060006856918335,-2.7122414112091064,5.24700403213501,24.714996337890625,-35.22361755371094
5.429,0.4498506486415863,0.0526420958340168,1.7455641031265259,0.49816060066223145,-1.4109458923339844,-3.128851890563965,4.501607418060303,25.650394439697266,-36.451332092285156
5.449,-1.2717852592468262,-1.2179466485977173,1.093519926071167,0.655458390712738,-0.7677049040794373,-3.9791762828826904,3.756211757659912,27.258113861083984,-36.26132583618164
5.452,-1.062413215637207,-1.8017953634262085,1.1892328262329102,0.7023422718048096,-0.5926920175552368,-4.128532886505127,3.78544282913208,27.535808563232422,-36.21747970581055
5.46,-0.40797626972198486,-3.2506494522094727,1.4273186922073364,0.750142514705658,-0.39507707953453064,-4.3035454750061035,2.5285003185272217,28.99736976623535,-37.035953521728516
5.47,-0.9320043921470642,-4.314259052276611,1.275374412536621,0.7870998382568359,-0.29825496673583984,-4.487110614776611,1.4761765003204346,30.239694595336914,-37.48904037475586
5.479,-2.166700839996338,-4.35972261428833,0.7166503667831421,0.7820602059364319,-0.2405281811952591,-4.6691484451293945,0.42385268211364746,31.277402877807617,-37.605960845947266
5.49,-3.6406795978546143,-4.847858428955078,0.35772696137428284,0.7765624523162842,-0.16539175808429718,-4.815603256225586,-1.0815550088882446,32.91435241699219,-37.41596221923828
5.508,-5.613561630249023,-6.14716100692749,-0.11485548317432404,0.7365507483482361,0.14126259088516235,-4.936554431915283,-3.712364673614502,34.33206558227539,-38.29289627075195
5.512,-5.822933673858643,-6.412764072418213,-0.1172483041882515,0.7153232097625732,0.22907446324825287,-4.938845634460449,-4.399298667907715,34.50745391845703,-37.91289138793945
5.52,-6.537191390991211,-7.222735404968262,-0.5647060871124268,0.6788239479064941,0.3911064863204956,-4.939608573913574,-5.729318618774414,35.57439422607422,-37.75211715698242
5.529,-7.160521507263184,-7.816154956817627,-0.9487541317939758,0.6394231915473938,0.5690209865570068,-4.9119672775268555,-7.103186130523682,36.831336975097656,-37.57673263549805
5.54,-7.768298149108887,-7.82692289352417,-0.7166503667831421,0.6653849482536316,0.6201809048652649,-4.837900161743164,-8.6670560836792,37.284420013427734,-37.211341857910156
5.549,-8.778069496154785,-7.871189594268799,-0.2189432680606842,0.6594290137290955,0.6615670323371887,-4.760931015014648,-10.49400806427002,38.395206451416016,-37.43057632446289
5.569,-9.998409271240234,-8.03390121459961,0.4175475239753723,0.7095199823379517,0.726471483707428,-4.425260543823242,-13.358667373657227,39.35983657836914,-37.284420013427734
5.573,-10.285547256469727,-8.549554824829102,0.6424728631973267,0.7215845584869385,0.7124215364456177,-4.368908405303955,-14.586379051208496,39.75445556640625,-37.45980453491211
5.58,-10.162318229675293,-9.45763111114502,0.867398202419281,0.7469354271888733,0.6633996367454529,-4.186564922332764,-14.703303337097168,39.447532653808594,-37.92750549316406
5.589,-9.259027481079102,-10.682756423950195,0.9415756464004517,0.7177666425704956,0.4541782736778259,-3.8907535076141357,-17.071033477783203,40.17831039428711,-38.36597442626953
5.6,-8.388039588928223,-10.975876808166504,0.35054853558540344,0.6438519358634949,0.0073303827084600925,-3.587153434753418,-17.831043243408203,40.29523468017578,-38.35136032104492
5.61,-8.687142372131348,-11.02014446258545,-0.48813581466674805,0.6059783101081848,-0.5772676467895508,-3.201544761657715,-19.52645492553711,40.85062789916992,-38.804443359375
5.622,-10.335797309875488,-11.271390914916992,-1.0205388069152832,0.5836817622184753,-0.8168795108795166,-2.8522825241088867,-20.973400115966797,41.069862365722656,-39.60830307006836
5.63,-11.703295707702637,-11.487940788269043,-1.2681959867477417,0.5429064631462097,-0.7476990222930908,-2.6839890480041504,-21.324174880981445,40.967552185058594,-39.82753372192383
5.64,-12.44746208190918,-11.300105094909668,-1.7012969255447388,0.48579058051109314,-0.4700608253479004,-2.529134750366211,-21.733409881591797,41.53756332397461,-39.8859977722168
5.649,-12.275178909301758,-10.86461067199707,-1.3423734903335571,0.4363104999065399,-0.032681290060281754,-2.4298691749572754,-22.65419578552246,41.2014045715332,-39.73984146118164
5.66,-11.377870559692383,-10.472187995910645,-0.5048855543136597,0.299476683139801,0.663705050945282,-2.2434027194976807,-23.750364303588867,41.5814094543457,-40.44139099121094
5.67,-9.943374633789062,-10.388439178466797,0.43908295035362244,0.18051066994667053,1.1459832191467285,-2.0642664432525635,-24.612686157226562,41.9029541015625,-40.587547302246094
5.686,-8.01356315612793,-10.89452075958252,1.3866406679153442,0.026114489883184433,1.5998560190200806,-1.7252360582351685,-25.86962890625,41.97603225708008,-41.25986862182617
5.69,-7.508677005767822,-11.081161499023438,1.590030550956726,0.014202617108821869,1.638798713684082,-1.6769777536392212,-26.103479385375977,41.59602355957031,-41.17217254638672
5.7,-6.252445697784424,-11.556137084960938,2.1068801879882812,-0.030543262138962746,1.7620407342910767,-1.4973833560943604,-27.08272361755371,41.069862365722656,-40.85062789916992
5.71,-4.338187217712402,-11.654241561889648,2.475374937057495,-0.012064589187502861,1.617876648902893,-1.1850786209106445,-28.310436248779297,41.39140701293945,-41.17217254638672
5.719,-2.9826531410217285,-11.01296615600586,2.849851608276367,0.10125090926885605,1.2990049123764038,-0.8768970370292664,-27.959659576416016,41.6252555847168,-40.74831771850586
5.738,-2.3976082801818848,-11.11226749420166,3.184846878051758,0.161268413066864,0.9792169332504272,-0.5476406812667847,-28.82198143005371,41.56679153442383,-41.17217254638672
5.742,-2.30069899559021,-11.635100364685059,2.526820659637451,0.15622878074645996,0.4717406630516052,-0.10201448947191238,-28.544286727905273,41.43525314331055,-41.55217742919922
5.75,-2.44785737991333,-11.691330909729004,2.1774685382843018,0.13286319375038147,0.11820242553949356,0.18035796284675598,-28.222742080688477,41.47909927368164,-41.186790466308594
5.76,-2.7696919441223145,-11.771491050720215,2.073380708694458,0.03741549327969551,-0.47800207138061523,0.5662720799446106,-28.1496639251709,41.37678909301758,-41.9614143371582
5.77,-3.2470602989196777,-11.170891761779785,1.1150553226470947,0.00855211354792118,-0.693637490272522,0.7669413089752197,-28.23735809326172,41.3037109375,-41.40602111816406
5.779,-3.3655049800872803,-10.234102249145508,0.4378865361213684,0.09743300080299377,-0.6632469296455383,1.0166324377059937,-27.842735290527344,41.34756088256836,-41.65448760986328
5.798,-8.426324844360352,-11.286943435668945,2.7565317153930664,0.1618792861700058,-0.5801692605018616,1.6769777536392212,-27.141185760498047,41.2014045715332,-42.10757064819336
5.803,-15.040085792541504,-12.029914855957031,5.044069766998291,-0.019853120669722557,0.10308350622653961,1.7880024909973145,-25.86962890625,41.43525314331055,-41.80064392089844
5.81,-14.275579452514648,-12.141181945800781,3.0317063331604004,-0.05726861581206322,0.972955584526062,1.1659890413284302,-25.41654396057129,41.639869689941406,-42.53142547607422
5.819,-3.135793924331665,-14.707483291625977,1.2406784296035767,0.32039880752563477,2.5002715587615967,0.661414384841919,-25.32884979248047,41.55217742919922,-42.54603958129883
5.83,14.646467208862305,-18.136398315429688,0.01196411345154047,0.2620611786842346,2.4330761432647705,0.6204863786697388,-25.577316284179688,41.28909683227539,-42.56065368652344
5.84,24.022741317749023,-20.70389747619629,0.2835494577884674,0.313373863697052,1.1798862218856812,1.0065531730651855,-24.56884002685547,41.683719635009766,-43.393741607666016
5.859,21.998414993286133,-15.932609558105469,6.386443614959717,0.22174407541751862,-0.15882496535778046,1.7272214889526367,-24.276527404785156,41.66910171508789,-43.452205657958984
5.863,7.501498699188232,-10.39801025390625,4.704289436340332,0.3721696436405182,-2.6668848991394043,1.4436273574829102,-23.472667694091797,41.43525314331055,-43.30604934692383
5.87,4.627718925476074,-11.218749046325684,0.5982056260108948,0.293826162815094,-3.268587112426758,1.617876648902893,-22.888044357299805,41.157554626464844,-43.72990417480469
5.879,-9.323633193969727,-13.667802810668945,2.849851608276367,0.4314235746860504,-3.0500502586364746,2.040900707244873,-22.128032684326172,41.21601867675781,-43.817596435546875
5.89,-17.484355926513672,-12.583853721618652,-2.3605194091796875,0.4605923891067505,-2.0862574577331543,1.3920091390609741,-21.338788986206055,40.79216766357422,-44.65068435668945
5.9,-9.389435768127441,-8.451449394226074,-2.991028070449829,0.5914702415466309,-0.5673410296440125,1.050840973854065,-21.178016662597656,40.36831283569336,-44.19760513305664
5.919,-1.2143574953079224,-9.9469633102417,0.41874393820762634,0.43799036741256714,-0.1088867262005806,1.177900791168213,-19.81876564025879,40.99678421020508,-44.72376251220703
5.923,3.5473594665527344,-14.830714225769043,5.970092296600342,0.3058907687664032,-0.8703302145004272,1.0946705341339111,-19.92107582092285,40.98217010498047,-44.48991394042969
5.937,-2.981456995010376,-20.362918853759766,5.630311489105225,0.15821409225463867,-0.9014843702316284,1.2486085891723633,-19.029523849487305,40.80678176879883,-45.4837760925293
5.941,-3.3918259143829346,-20.949161529541016,4.542773723602295,0.14538592100143433,-0.5477933883666992,1.2545644044876099,-18.956445693969727,40.93832015991211,-44.88453674316406
5.95,-1.4428720474243164,-18.3493595123291,1.062413215637207,0.222965806722641,0.015882495790719986,1.2698360681533813,-18.474130630493164,41.23063278198242,-45.118385314941406
5.959,1.1306086778640747,-10.776076316833496,0.10289137810468674,0.26404649019241333,-0.036041051149368286,1.4453071355819702,-17.9918155670166,40.82139587402344,-44.97222900390625
5.969,-3.4947173595428467,-7.345965385437012,-0.46779680252075195,0.1638645976781845,-0.697149932384491,1.4706579446792603,-18.09412384033203,40.38292694091797,-45.191463470458984
5.98,-9.387042999267578,-5.649453639984131,0.849452018737793,0.13530665636062622,-0.5247332453727722,1.3022119998931885,-16.793336868286133,40.207542419433594,-45.118385314941406
5.999,-6.283552169799805,-8.842676162719727,3.025723934173584,-0.014660765416920185,0.1638645976781845,0.7415904402732849,-16.106401443481445,40.48523712158203,-45.805320739746094
6.003,-4.753342151641846,-9.440881729125977,3.355933427810669,-0.032681290060281754,0.17272214591503143,0.6285803318023682,-15.726396560668945,40.83601379394531,-45.67377853393555
6.01,-3.5533413887023926,-9.65384292602539,3.394218921661377,-0.05451972037553787,0.15485434234142303,0.555429220199585,-15.492546081542969,40.324466705322266,-45.498390197753906
6.02,-3.095116138458252,-9.470791816711426,3.286541700363159,-0.08674286305904388,0.06154467165470123,0.4758639931678772,-15.784857749938965,40.90909194946289,-45.3814697265625
6.03,-4.427917957305908,-9.000602722167969,2.2636101245880127,-0.09605855494737625,-0.010690141469240189,0.39813143014907837,-15.390236854553223,40.324466705322266,-44.738380432128906
6.04,-4.018745422363281,-9.383453369140625,1.6701900959014893,-0.11056660860776901,0.019089538604021072,0.34437528252601624,-15.14177131652832,39.900611877441406,-45.26454162597656
6.052,-1.454836130142212,-10.175477981567383,1.5529417991638184,-0.0959058403968811,0.012217304669320583,0.38148534297943115,-14.90792179107666,40.499855041503906,-44.50453186035156
6.06,-1.6689937114715576,-10.53799057006836,1.84965181350708,-0.1261436641216278,-0.021074850112199783,0.456163614988327,-14.966383934020996,40.17831039428711,-45.615318298339844
6.07,-3.750749349594116,-9.546165466308594,2.146361827850342,-0.12690724432468414,0.0022907445672899485,0.5430591702461243,-14.776381492614746,40.397544860839844,-45.68839645385742
6.08,-4.426721572875977,-8.590232849121094,2.1882362365722656,-0.12324206531047821,0.1385136991739273,0.5293146967887878,-15.112540245056152,40.23677444458008,-45.498390197753906
6.09,-4.346562385559082,-8.70508861541748,2.3401803970336914,-0.1437060534954071,0.20983220636844635,0.5193881988525391,-14.717918395996094,39.769073486328125,-45.542240142822266
6.109,-4.468596458435059,-8.957530975341797,1.9657037258148193,-0.16814064979553223,0.22739459574222565,0.488539457321167,-14.834843635559082,39.900611877441406,-44.13914108276367
6.113,-3.6430721282958984,-8.940781593322754,1.875972867012024,-0.19226983189582825,0.25595253705978394,0.5006040930747986,-14.337912559509277,39.62291717529297,-44.636070251464844
6.12,-3.190828800201416,-9.31166934967041,1.987239122390747,-0.2096794992685318,0.24587324261665344,0.5346598029136658,-14.45483684539795,39.87138366699219,-43.59836196899414
6.13,-2.5986053943634033,-9.46480941772461,2.2995026111602783,-0.21273382008075714,0.21242839097976685,0.5682573914527893,-14.001753807067871,39.63753128051758,-43.978370666503906
6.139,-2.8067808151245117,-8.85224723815918,2.533998966217041,-0.2021963894367218,0.12828169763088226,0.6192646622657776,-13.782519340515137,39.710609436035156,-43.96375274658203
6.149,-3.142972707748413,-8.193024635314941,2.2301106452941895,-0.17989981174468994,0.1215621829032898,0.6601925492286682,-13.344051361083984,40.07600402832031,-44.182987213134766
6.168,-3.998406410217285,-7.823333263397217,2.2025930881500244,-0.20693059265613556,0.11163561791181564,0.6598871946334839,-13.44636058807373,39.579071044921875,-43.48143768310547
6.172,-5.5274200439453125,-7.719245433807373,1.093519926071167,-0.23273965716362,0.11178833991289139,0.6684393286705017,-13.095585823059082,39.47676086425781,-44.066062927246094
6.18,-5.113461494445801,-8.02074146270752,0.6173481941223145,-0.2577851414680481,0.17302757501602173,0.6827946305274963,-12.759428024291992,39.08213806152344,-44.182987213134766
6.19,-3.263810157775879,-9.127422332763672,1.1270194053649902,-0.27779096364974976,0.17898350954055786,0.7525859475135803,-13.080970764160156,39.19906234741211,-43.21835708618164
6.2,-2.5220348834991455,-10.291529655456543,1.6450655460357666,-0.2868012487888336,0.09987646341323853,0.8732318878173828,-12.408652305603027,39.30137634277344,-43.21835708618164
6.21,-2.400001049041748,-10.73180866241455,2.090130567550659,-0.29107728600502014,0.03191770985722542,1.0126618146896362,-12.043262481689453,39.06752395629883,-43.802982330322266
6.229,-2.654836893081665,-10.8969144821167,1.9154545068740845,-0.3045163154602051,-0.03176499158143997,1.1754573583602905,-11.824028015136719,38.61444091796875,-43.61297607421875
6.233,-2.6560330390930176,-11.032108306884766,1.904686689376831,-0.34055736660957336,-0.009162978269159794,1.454470157623291,-11.254019737243652,38.62905502319336,-43.21835708618164
6.24,-2.475374937057495,-10.76411247253418,1.9836498498916626,-0.3565925657749176,-0.02519819140434265,1.5668693780899048,-11.107863426208496,38.32212829589844,-43.02835464477539
6.249,-2.482553482055664,-10.597811698913574,2.3258235454559326,-0.3709478974342346,-0.028099801391363144,1.6957619190216064,-10.537854194641113,38.395206451416016,-42.73604202270508
6.259,-4.341776371002197,-10.197013854980469,2.3090739250183105,-0.37171149253845215,0.011453723534941673,1.8132007122039795,-9.763227462768555,37.81058120727539,-43.13066482543945
6.269,-6.56829833984375,-9.42772102355957,2.0482561588287354,-0.3016147017478943,0.17776179313659668,1.8785632848739624,-9.529377937316895,37.62057876586914,-43.48143768310547
6.289,-7.091129779815674,-9.549755096435547,1.3818550109863281,-0.2877175211906433,0.5015203952789307,1.9025397300720215,-8.6670560836792,36.919029235839844,-43.3645133972168
6.293,-3.4719855785369873,-10.417153358459473,1.223928689956665,-0.3407100737094879,0.6490443348884583,1.9856175184249878,-8.243204116821289,36.86056900024414,-42.53142547607422
6.3,-2.8390841484069824,-10.595417976379395,1.286142110824585,-0.36483925580978394,0.4963279962539673,2.0862574577331543,-7.746273040771484,36.480560302734375,-42.12218475341797
6.31,-4.408775806427002,-12.125627517700195,1.5361920595169067,-0.38148534297943115,0.34315353631973267,2.2760839462280273,-7.161648750305176,36.3636360168457,-41.47909927368164
6.319,-4.650450706481934,-13.1365966796875,1.8604196310043335,-0.4356996417045593,0.48258352279663086,2.423760414123535,-6.635486125946045,35.51593017578125,-41.01139831542969
6.33,-3.0077779293060303,-10.55115032196045,2.2444677352905273,-0.43829578161239624,0.5427537560462952,2.490192174911499,-5.466238021850586,35.22361755371094,-40.879859924316406
6.349,-5.588437080383301,-7.651050090789795,2.0685951709747314,-0.41813725233078003,0.38637226819992065,2.5505149364471436,-4.866997718811035,34.39052963256836,-40.35369873046875
6.353,-7.793423175811768,-7.264609336853027,1.6558332443237305,-0.4024074673652649,0.5097670555114746,2.5256223678588867,-4.413913726806641,33.586673736572266,-40.207542419433594
6.36,-6.678368091583252,-6.591030120849609,1.357926845550537,-0.417679101228714,0.6230825781822205,2.4743096828460693,-4.238526821136475,33.51359558105469,-39.73984146118164
6.369,-5.949753284454346,-7.511070251464844,1.0552347898483276,-0.4639521539211273,0.5871942043304443,2.4940102100372314,-3.551593065261841,33.08974075317383,-40.23677444458008
6.38,-5.242674350738525,-7.434499740600586,1.0612168312072754,-0.5233587622642517,0.5861251950263977,2.490802764892578,-3.3031277656555176,32.59280776977539,-39.43291473388672
6.389,-6.20219612121582,-7.244270324707031,1.1676974296569824,-0.5393940210342407,0.5099197626113892,2.5146267414093018,-2.4408068656921387,32.13972473144531,-39.140602111816406
6.408,-7.311269283294678,-6.399603843688965,1.1042876243591309,-0.5496259927749634,0.5789475440979004,2.4715607166290283,-1.0815550088882446,30.73662757873535,-38.278282165527344
6.412,-7.6283183097839355,-6.178267955780029,1.3088740110397339,-0.5403103232383728,0.6009386777877808,2.450944185256958,-1.2423267364501953,30.692779541015625,-38.36597442626953
6.42,-7.548158645629883,-7.050451278686523,1.7599210739135742,-0.5319108963012695,0.6394231915473938,2.417804479598999,-0.5553931593894958,29.97661590576172,-38.13212585449219
6.43,-7.21316385269165,-7.201199531555176,1.3435698747634888,-0.5145012736320496,0.7137960195541382,2.370309829711914,-0.745396077632904,29.991230010986328,-37.16749572753906
6.439,-7.258627414703369,-6.398407459259033,1.4883357286453247,-0.5021312236785889,0.7371616363525391,2.3093760013580322,0.2192341536283493,29.1873722076416,-37.1236457824707
6.45,-8.498109817504883,-6.902096748352051,1.0767701864242554,-0.4732678234577179,0.6670648455619812,2.283261299133301,0.6577024459838867,28.63197898864746,-37.13826370239258
6.469,-9.451648712158203,-9.700502395629883,1.2370892763137817,-0.46639561653137207,0.7461718320846558,2.2229385375976562,1.446945309638977,27.63811683654785,-36.100555419921875
6.473,-7.5565338134765625,-13.983654975891113,1.6797614097595215,-0.5268712639808655,0.9410378932952881,2.1562016010284424,1.4615609645843506,27.50657844543457,-36.14440155029297
6.48,-6.957131385803223,-14.849857330322266,1.7970097064971924,-0.5334380269050598,0.9527970552444458,2.1427624225616455,1.783104419708252,27.287343978881836,-35.79362487792969
6.49,-6.375675678253174,-15.623934745788574,1.7024933099746704,-0.5453499555587769,0.9219483733177185,2.0305159091949463,2.660040855407715,26.644256591796875,-35.12131118774414
6.5,-5.905486106872559,-14.971890449523926,0.5647060871124268,-0.5771149396896362,0.8770498037338257,1.8587101697921753,2.3677287101745605,26.001171112060547,-34.2443733215332
6.509,-5.224728107452393,-13.326825141906738,0.3002992272377014,-0.6178901791572571,0.7066183686256409,1.6554447412490845,2.689272165298462,25.358083724975586,-34.03975296020508
6.53,-5.14456844329834,-11.108678817749023,-0.8554341197013855,-0.6507241725921631,-0.33200523257255554,1.2356276512145996,3.2300498485565186,24.70037841796875,-33.07512283325195
6.533,-5.5345988273620605,-5.698506832122803,-0.8602197170257568,-0.5859724879264832,-0.8367326259613037,1.2047789096832275,3.3615901470184326,24.890382766723633,-33.93744659423828
6.54,-6.014359474182129,-3.291327476501465,-0.8709874153137207,-0.39965859055519104,-1.3544409275054932,1.2789990901947021,3.1715874671936035,24.74422836303711,-33.235897064208984
6.55,-7.575676441192627,1.2454640865325928,1.1222338676452637,-0.05345070734620094,-1.289689302444458,1.4294246435165405,3.9315991401672363,24.539608001708984,-33.33820343017578
6.559,-7.302894115447998,3.180061101913452,3.160918712615967,0.06765332818031311,-1.249372124671936,1.263269305229187,3.9315991401672363,24.057292938232422,-34.200523376464844
6.569,-5.958127975463867,6.4510498046875,2.137986898422241,0.21059578657150269,-0.7437283992767334,0.9063712954521179,4.633148193359375,24.583454132080078,-33.542823791503906
6.589,-3.9876389503479004,6.4666032791137695,2.042273998260498,0.1999056488275528,-0.03940080478787422,0.2961169183254242,4.223911285400391,24.261911392211914,-33.74744415283203
6.593,7.258627414703369,4.5822553634643555,-1.6295121908187866,-0.04749477282166481,1.3727668523788452,-1.5047138929367065,4.267758369445801,24.656532287597656,-32.70973205566406
6.6,13.203594207763672,2.544766664505005,-2.2205393314361572,-0.09575312584638596,1.281595230102539,-1.9364427328109741,3.3908214569091797,25.168079376220703,-32.85588836669922
6.61,15.461222648620605,0.33858439326286316,-1.5601202249526978,-0.03084869496524334,0.27809640765190125,-2.207972288131714,2.9961998462677,26.161941528320312,-32.84127426147461
6.62,13.489537239074707,-1.1988041400909424,0.1256231814622879,0.07299839705228806,-1.0406090021133423,-2.6847527027130127,2.630809783935547,26.89272117614746,-32.91435241699219
6.63,9.060422897338867,-1.7635102272033691,0.6508477926254272,0.06536258012056351,-2.124436616897583,-3.087465524673462,2.660040855407715,27.594270706176758,-33.41128158569336
6.649,3.3678977489471436,-1.6821541786193848,0.8853443264961243,0.05925392732024193,-2.6035075187683105,-3.7165040969848633,1.3738672733306885,30.049694061279297,-34.37591552734375
6.653,-2.5902304649353027,-3.0544381141662598,1.5266207456588745,0.06352998316287994,-2.412612199783325,-3.897167444229126,1.4030985832214355,29.830459594726562,-34.33206558227539
6.66,-4.24367094039917,-3.7292141914367676,2.0865414142608643,0.08384125679731369,-2.007150411605835,-4.150065898895264,1.0961706638336182,30.53200912475586,-34.33206558227539
6.67,-5.85284423828125,-4.29750919342041,3.012563705444336,0.08048149198293686,-1.3219122886657715,-4.444197177886963,-0.6577024459838867,31.56971549987793,-35.545162200927734
6.68,-6.465406894683838,-4.377668857574463,3.4887354373931885,0.06230825185775757,-0.6197227835655212,-4.6943464279174805,-2.1631100177764893,32.70973205566406,-36.24671173095703
6.689,-5.942574977874756,-4.602594375610352,3.232703447341919,0.11743884533643723,0.05803219974040985,-4.928460597991943,-3.2008185386657715,34.112831115722656,-35.57439422607422
6.709,-4.42193603515625,-6.468995571136475,2.6775684356689453,0.2678644061088562,0.44974952936172485,-4.96587610244751,-5.846243858337402,36.58287048339844,-35.6474723815918
