time,accel_x,accel_y,accel_z,gyro_x,gyro_y,gyro_z,mag_x,mag_y,mag_z
0.0,1.6175479888916016,-9.238687515258789,-2.985046148300171,0.08796459436416626,0.09697485715150833,0.04413501173257828,-49.210758209228516,41.43525314331055,-26.278865814208984
0.01,1.7084753513336182,-9.237491607666016,-3.07716965675354,0.1007927656173706,0.07635815441608429,0.04993823170661926,-48.596900939941406,40.79216766357422,-26.673486709594727
0.03,1.5864413976669312,-9.330811500549316,-2.9527430534362793,0.0910189226269722,-0.018478674814105034,0.06612616032361984,-48.845367431640625,40.967552185058594,-26.454252243041992
0.033,1.5086746215820312,-9.378667831420898,-3.0077779293060303,0.080634206533432,-0.028099801391363144,0.0754418596625328,-48.494590759277344,40.80678176879883,-26.454252243041992
0.04,1.3112667798995972,-9.360721588134766,-2.884547472000122,0.0682641938328743,-0.04306599870324135,0.07971791177988052,-48.39228439331055,41.2452507019043,-27.667348861694336
0.05,1.3375877141952515,-9.245866775512695,-2.8558335304260254,0.03985895588994026,-0.0555887334048748,0.04948008432984352,-49.06460189819336,41.449867248535156,-26.512714385986328
0.06,1.3651052713394165,-9.144170761108398,-2.9790639877319336,0.027488935738801956,-0.055436018854379654,0.040622539818286896,-48.9184455871582,41.78602600097656,-26.454252243041992
0.07,1.3782658576965332,-9.113064765930176,-3.071187734603882,0.03039054572582245,-0.02580905519425869,0.03833179175853729,-48.494590759277344,41.3037109375,-27.038877487182617
0.09,1.325623631477356,-9.10708236694336,-3.150151014328003,0.03390302136540413,0.021532999351620674,0.02367102913558483,-48.14381790161133,41.698333740234375,-27.24349594116211
0.093,1.380658507347107,-9.013762474060059,-3.1405797004699707,0.04046982154250145,0.04337143152952194,0.02367102913558483,-48.114585876464844,41.318328857421875,-27.05349349975586
0.1,1.330409288406372,-9.072386741638184,-3.0975089073181152,0.04871650040149689,0.08292495459318161,0.038637224584817886,-48.39228439331055,41.37678909301758,-25.694242477416992
0.11,1.322034478187561,-9.192028045654297,-3.1334011554718018,0.049785517156124115,0.10461067408323288,0.03833179175853729,-48.87459945678711,41.65448760986328,-26.89272117614746
0.12,1.5361920595169067,-9.158528327941895,-3.201596736907959,0.0529925599694252,0.1014036312699318,0.031154125928878784,-48.74305725097656,42.10757064819336,-26.86349105834961
0.13,1.5421741008758545,-9.126225471496582,-3.2099714279174805,0.06108652427792549,0.07483098655939102,0.036041051149368286,-48.52382278442383,41.91756820678711,-26.805028915405273
0.149,1.5254243612289429,-9.244669914245605,-3.1657042503356934,0.07498370856046677,0.027183502912521362,0.03039054572582245,-48.684593200683594,41.85910415649414,-27.05349349975586
0.153,1.561316728591919,-9.261420249938965,-3.1992037296295166,0.07299839705228806,0.017409659922122955,0.030695976689457893,-48.39228439331055,41.37678909301758,-27.491960525512695
0.16,1.5517455339431763,-9.299705505371094,-3.2374887466430664,0.07696902006864548,-0.005345070734620094,0.03451388329267502,-48.18766403198242,41.712947845458984,-26.805028915405273
0.17,1.5457634925842285,-9.354740142822266,-3.183650493621826,0.07024950534105301,-0.042760565876960754,0.032681290060281754,-48.33382034301758,41.53756332397461,-26.702720642089844
0.18,1.5074782371520996,-9.340383529663086,-3.13938307762146,0.05910121276974678,-0.0861319974064827,0.029474247246980667,-48.494590759277344,41.508331298828125,-27.345806121826172
0.19,1.290927767753601,-9.406185150146484,-3.0340988636016846,0.05406157299876213,-0.08460482954978943,0.041691552847623825,-48.39228439331055,41.77141189575195,-26.52733039855957
0.3,1.0097711086273193,-9.305686950683594,-2.723031997680664,-0.0064140851609408855,-0.06230825185775757,0.13026700913906097,-48.085357666015625,41.639869689941406,-26.629642486572266
0.32,0.6520441174507141,-9.206384658813477,-2.723031997680664,-0.011759155429899693,-0.035735614597797394,0.13271047174930573,-47.82227325439453,40.85062789916992,-26.805028915405273
0.323,0.5862414836883545,-9.103493690490723,-2.885744094848633,-0.0064140851609408855,0.06230825185775757,0.11820242553949356,-47.427650451660156,42.049110412597656,-27.06810760498047
0.33,0.7525426745414734,-9.10110092163086,-2.908475875854492,0.0088575454428792,0.1088867262005806,0.12782354652881622,-47.89535140991211,41.727561950683594,-26.79041290283203
0.34,0.8614161610603333,-9.116654396057129,-2.8079774379730225,0.03298672288656235,0.13729196786880493,0.13377948105335236,-47.836891174316406,42.049110412597656,-26.98041534423828
0.35,0.882951557636261,-9.104689598083496,-2.7553350925445557,0.04993823170661926,0.1543961763381958,0.14034628868103027,-48.17304992675781,41.2452507019043,-25.913476943969727
0.36,0.8937192559242249,-9.109475135803223,-2.7290141582489014,0.06719517707824707,0.161268413066864,0.14645493030548096,-48.056121826171875,41.85910415649414,-27.4481143951416
0.379,0.9858428835868835,-9.199206352233887,-2.7840490341186523,0.07910704612731934,0.16249015927314758,0.15515977144241333,-47.99766159057617,41.946800231933594,-26.731950759887695
0.383,1.0241280794143677,-9.29491901397705,-2.713460922241211,0.0835358202457428,0.10644327104091644,0.16523903608322144,-48.36305236816406,42.063724517822266,-26.68810272216797
0.39,1.1258230209350586,-9.43489933013916,-2.5196421146392822,0.0734565407037735,0.07651086896657944,0.17776179313659668,-48.041507720947266,41.77141189575195,-27.24349594116211
0.401,1.0660024881362915,-9.497113227844238,-2.414357900619507,0.04871650040149689,0.022602012380957603,0.21471913158893585,-48.026893615722656,42.282955169677734,-27.62350082397461
0.41,0.8135596513748169,-9.395418167114258,-2.413161516189575,0.020922133699059486,-0.01618792861700058,0.24633140861988068,-47.67612075805664,42.16603469848633,-27.433500289916992
0.42,0.6257230639457703,-9.119047164916992,-2.502892255783081,-0.003817907767370343,-0.012675453908741474,0.275347501039505,-47.851505279541016,42.3414192199707,-26.805028915405273
0.44,0.5168496966362,-8.811569213867188,-2.7014968395233154,0.004581489134579897,0.04566217586398125,0.3260492980480194,-47.354576110839844,42.253726959228516,-26.746564865112305
0.444,0.4462614059448242,-8.474181175231934,-2.9108684062957764,0.06261368840932846,0.13316862285137177,0.38469237089157104,-47.354576110839844,42.54603958129883,-27.491960525512695
0.45,0.5359922647476196,-8.394021987915039,-2.9252257347106934,0.10552696883678436,0.1941024363040924,0.41523563861846924,-47.76381301879883,42.692195892333984,-26.907337188720703
0.46,0.794417142868042,-8.437091827392578,-2.946760892868042,0.16142113506793976,0.22739459574222565,0.446389764547348,-47.2230339050293,42.35603332519531,-27.842735290527344
0.47,1.0899306535720825,-8.577072143554688,-2.9012973308563232,0.19639316201210022,0.21899518370628357,0.4686863422393799,-47.16456985473633,42.35603332519531,-27.55042266845703
0.48,1.3112667798995972,-8.677571296691895,-2.9216363430023193,0.22098049521446228,0.1820378452539444,0.494189977645874,-47.67612075805664,42.867584228515625,-28.091201782226562
0.499,1.3794622421264648,-8.807979583740234,-2.906083106994629,0.242513507604599,0.10506881773471832,0.5256495475769043,-47.33995819091797,42.896812438964844,-28.52967071533203
0.504,1.4117653369903564,-9.20997428894043,-2.5088744163513184,0.21700987219810486,-0.016493361443281174,0.5387831330299377,-46.78456497192383,43.3645133972168,-28.69044303894043
0.51,1.345962643623352,-9.327221870422363,-2.5986053943634033,0.1872301995754242,-0.07788532227277756,0.5335907936096191,-46.49225616455078,43.04296875,-28.500438690185547
0.52,1.683350682258606,-9.272187232971191,-2.880958318710327,0.14446963369846344,-0.11682797223329544,0.5311473608016968,-46.21455764770508,42.85296630859375,-28.661209106445312
0.53,1.9118653535842896,-8.937192916870117,-3.0664021968841553,0.1440114825963974,-0.1817324161529541,0.5789475440979004,-46.126861572265625,43.189125061035156,-28.295820236206055
0.54,1.3890334367752075,-8.682356834411621,-3.056830644607544,0.1316414624452591,-0.2347249537706375,0.6275113224983215,-46.112247467041016,43.61297607421875,-28.588130950927734
0.56,1.2430713176727295,-8.240880966186523,-2.9479572772979736,0.1408044397830963,-0.21105393767356873,0.6322454810142517,-45.717628479003906,43.67144012451172,-28.018123626708984
0.564,1.4847464561462402,-8.01954460144043,-2.9108684062957764,0.1667662113904953,-0.15821409225463867,0.6701191663742065,-45.118385314941406,44.051448822021484,-28.295820236206055
0.57,1.467996597290039,-7.859225749969482,-2.9587249755859375,0.19135352969169617,-0.10751228034496307,0.7089090943336487,-45.235313415527344,44.3437614440918,-27.784273147583008
0.58,1.452443242073059,-7.651050090789795,-3.0317063331604004,0.23151792585849762,-0.019089538604021072,0.7565565705299377,-45.03069305419922,44.19760513305664,-28.04735565185547
0.59,1.8293129205703735,-7.487142086029053,-3.181257724761963,0.2996293902397156,0.09789115190505981,0.8017606139183044,-44.70914840698242,44.72376251220703,-28.208127975463867
0.601,2.482553482055664,-7.721638202667236,-3.2925240993499756,0.3614795207977295,0.17058412730693817,0.8518515229225159,-44.636070251464844,45.57147216796875,-28.222742080688477
0.619,2.840280294418335,-7.998009204864502,-3.6083762645721436,0.41172316670417786,0.2018909603357315,0.9082038998603821,-43.978370666503906,44.66530227661133,-28.515052795410156
0.623,3.3822548389434814,-8.572286605834961,-3.6335010528564453,0.45173484086990356,0.17211127281188965,0.9511171579360962,-44.22683334350586,45.32300567626953,-28.61736488342285
0.63,3.5736804008483887,-8.988637924194336,-3.7435710430145264,0.4231768846511841,0.1371392458677292,0.9640980362892151,-43.30604934692383,44.928382873535156,-29.333528518676758
0.64,4.0666022300720215,-9.486345291137695,-3.954139232635498,0.3289509117603302,0.023365594446659088,0.9350818991661072,-43.496055603027344,45.717628479003906,-29.742765426635742
0.65,4.669593334197998,-10.145567893981934,-3.9314074516296387,0.22510384023189545,-0.10934487730264664,0.9130908250808716,-43.04296875,45.86378479003906,-29.508914947509766
0.66,4.750949382781982,-10.534400939941406,-3.87876558303833,0.11972958594560623,-0.23380866646766663,0.8874344229698181,-42.516807556152344,46.03916931152344,-29.333528518676758
0.679,4.579862117767334,-10.882556915283203,-3.8775689601898193,0.013286319561302662,-0.2779436707496643,0.8565858006477356,-41.6252555847168,46.346099853515625,-29.231218338012695
0.683,4.6061835289001465,-11.113465309143066,-4.061816215515137,-0.08888089656829834,-0.23716843128204346,0.7828238010406494,-41.756797790527344,46.375328063964844,-29.201988220214844
0.69,4.928018093109131,-11.282157897949219,-4.163511276245117,-0.14752395451068878,-0.1869247555732727,0.6937901973724365,-41.55217742919922,46.287635803222656,-29.37737464904785
0.701,5.436492443084717,-11.26062297821045,-4.439882278442383,-0.19349156320095062,-0.16691893339157104,0.6006332635879517,-41.2014045715332,46.682254791259766,-29.333528518676758
0.71,5.7200422286987305,-10.966304779052734,-4.60020112991333,-0.22342397272586823,-0.20830504596233368,0.45005494356155396,-40.762935638427734,46.1414794921875,-29.216602325439453
0.72,5.9916276931762695,-10.76291561126709,-4.750949382781982,-0.24144448339939117,-0.2695443034172058,0.24465152621269226,-40.41215896606445,46.27302169799805,-29.87430763244629
0.74,6.14716100692749,-10.642078399658203,-4.709074974060059,-0.27320948243141174,-0.37827828526496887,0.02977968007326126,-40.339080810546875,46.57994842529297,-28.763521194458008
0.744,5.880361557006836,-10.486544609069824,-4.401597023010254,-0.32879823446273804,-0.5572617650032043,-0.3228422701358795,-40.339080810546875,46.27302169799805,-28.13504981994629
0.75,5.407778739929199,-10.402796745300293,-4.135993957519531,-0.36560285091400146,-0.6133086681365967,-0.4963279962539673,-40.80678176879883,46.19994354248047,-28.456592559814453
0.76,4.8466620445251465,-10.313065528869629,-4.18863582611084,-0.436157763004303,-0.5690209865570068,-0.7283040285110474,-40.762935638427734,45.96609115600586,-27.930429458618164
0.77,4.808376789093018,-10.26760196685791,-4.2616167068481445,-0.47769662737846375,-0.5158756971359253,-0.9647089242935181,-40.894474029541016,45.83454895019531,-27.491960525512695
0.78,4.524827480316162,-10.083354949951172,-4.238884925842285,-0.5038110613822937,-0.43707406520843506,-1.151633620262146,-40.99678421020508,45.58608627319336,-27.871967315673828
0.8,4.085744380950928,-9.881160736083984,-4.146761417388916,-0.5141957998275757,-0.3352122902870178,-1.3629930019378662,-41.42063903808594,45.162235260009766,-27.857351303100586
0.805,3.975674629211426,-9.741181373596191,-4.121636867523193,-0.5183191299438477,-0.15271630883216858,-1.5619823932647705,-41.84449005126953,45.3814697265625,-27.08272361755371
0.81,4.121636867523193,-9.723234176635742,-4.18145751953125,-0.5146539211273193,-0.08979719132184982,-1.657124638557434,-42.633731842041016,44.86991882324219,-27.535808563232422
0.82,4.246063709259033,-9.783055305480957,-4.088137149810791,-0.5114468932151794,-0.04581489413976669,-1.7621934413909912,-42.823734283447266,44.182987213134766,-26.103479385375977
0.83,4.299902439117432,-9.979266166687012,-3.9038898944854736,-0.5355761051177979,-0.03649919852614403,-1.8526015281677246,-43.466819763183594,44.31452941894531,-26.483484268188477
0.84,4.11924409866333,-10.1336030960083,-3.73041033744812,-0.5571091175079346,-0.03787364438176155,-1.9254472255706787,-44.0806770324707,43.78836441040039,-26.644256591796875
0.859,3.896711587905884,-10.310672760009766,-3.6191442012786865,-0.6007859706878662,-0.038637224584817886,-1.9993618726730347,-45.805320739746094,43.30604934692383,-26.103479385375977
0.863,3.7184462547302246,-10.460224151611328,-3.3547372817993164,-0.6472117304801941,-0.05421429127454758,-2.0754146575927734,-46.25840377807617,43.627593994140625,-27.24349594116211
0.87,3.5473594665527344,-10.493722915649414,-3.2829525470733643,-0.6745479106903076,-0.0685696229338646,-2.10198712348938,-47.36919021606445,42.58988571166992,-25.67962646484375
0.88,3.276970386505127,-10.50927734375,-3.235095977783203,-0.6998988389968872,-0.06032294034957886,-2.129781484603882,-47.296112060546875,42.049110412597656,-25.387313842773438
0.89,3.0963122844696045,-10.461421012878418,-3.207578659057617,-0.7099781036376953,-0.033139437437057495,-2.157270669937134,-48.056121826171875,41.91756820678711,-25.548086166381836
0.901,2.939582586288452,-10.325029373168945,-3.1310083866119385,-0.7111998200416565,0.0073303827084600925,-2.174832820892334,-48.80152130126953,41.3037109375,-25.32884979248047
0.919,2.620140552520752,-10.060623168945312,-3.073580503463745,-0.6719517707824707,0.12812897562980652,-2.1876611709594727,-50.146156311035156,39.8859977722168,-25.650394439697266
0.923,2.510071039199829,-9.840482711791992,-3.0819554328918457,-0.6508768796920776,0.1742493212223053,-2.1813998222351074,-50.263084411621094,39.68138122558594,-25.270387649536133
0.93,2.5184457302093506,-9.70528793334961,-3.060420036315918,-0.6149886250495911,0.23426681756973267,-2.1711678504943848,-50.46770095825195,39.28675842285156,-24.77345848083496
0.94,2.6428725719451904,-9.58923625946045,-3.0508487224578857,-0.5639813542366028,0.2687807083129883,-2.158034086227417,-51.60771560668945,38.73136520385742,-25.13884925842285
0.95,2.902493953704834,-9.580862045288086,-3.064009428024292,-0.5293146967887878,0.22647827863693237,-2.152536392211914,-51.98772430419922,38.05904769897461,-25.197309494018555
0.96,3.304487705230713,-9.645467758178711,-3.019742250442505,-0.5151121020317078,0.1345430612564087,-2.1316142082214355,-52.79158401489258,37.45980453491211,-25.270387649536133
0.979,3.410968542098999,-9.833304405212402,-2.9790639877319336,-0.560468852519989,-0.1875356286764145,-2.0581576824188232,-54.35545349121094,36.04209518432617,-26.103479385375977
0.983,3.5533413887023926,-10.071390151977539,-2.8965117931365967,-0.5722280144691467,-0.23609942197799683,-2.046092987060547,-54.457759857177734,36.17363357543945,-25.548086166381836
0.99,3.4815566539764404,-10.035497665405273,-2.9312076568603516,-0.6061310172080994,-0.3943135142326355,-2.0004308223724365,-54.72084426879883,35.369773864746094,-25.67962646484375
1.001,3.1034910678863525,-9.951748847961426,-2.967099905014038,-0.666454017162323,-0.6447682976722717,-1.9158260822296143,-55.34931564331055,34.85823059082031,-24.11575698852539
1.01,2.7661027908325195,-9.461220741271973,-3.060420036315918,-0.6736316084861755,-0.8455901741981506,-1.860390067100525,-55.64162826538086,34.2882194519043,-24.67115020751953
1.02,1.7778671979904175,-8.415556907653809,-2.7517459392547607,-0.6620252132415771,-0.9277516007423401,-1.7640260457992554,-56.24086380004883,33.557437896728516,-24.86115074157715
1.04,1.0516455173492432,-9.06401252746582,-2.8558335304260254,-0.5511531829833984,-0.8422304391860962,-1.503339409828186,-56.021629333496094,32.242034912109375,-23.69190216064453
1.043,0.9643074870109558,-9.014959335327148,-2.908475875854492,-0.5129740834236145,-0.8051204085350037,-1.415069341659546,-55.758548736572266,31.862030029296875,-23.326513290405273
1.05,0.4941178560256958,-8.940781593322754,-3.1070802211761475,-0.4634940028190613,-0.7243334650993347,-1.2760974168777466,-56.197017669677734,31.905874252319336,-23.487285614013672
1.06,0.4893321990966797,-8.525627136230469,-2.8654050827026367,-0.3758348524570465,-0.6496551632881165,-1.0929906368255615,-56.503944396972656,31.71587371826172,-23.414207458496094
1.07,0.3397807776927948,-8.653642654418945,-3.1082763671875,-0.2822197377681732,-0.5732970237731934,-0.8904888033866882,-56.53317642211914,31.584331512451172,-22.75650405883789
1.08,0.3888336718082428,-8.895318031311035,-3.2231318950653076,-0.20662516355514526,-0.5413792729377747,-0.6722572445869446,-56.606258392333984,31.014324188232422,-22.434959411621094
1.1,0.24885353446006775,-9.261420249938965,-3.3272199630737305,-0.0780380368232727,-0.65958172082901,-0.24358251690864563,-56.05086135864258,31.20432472229004,-22.508039474487305
1.104,-0.04666003957390785,-10.26640510559082,-2.8618156909942627,-0.05207626149058342,-0.7159340381622314,-0.1241583600640297,-56.44548416137695,31.18971061706543,-22.054954528808594
1.11,-0.6556333899497986,-10.520044326782227,-2.4335005283355713,-0.0377209298312664,-0.762817919254303,0.0455094613134861,-56.53317642211914,31.08740234375,-22.420345306396484
1.12,-1.3112667798995972,-11.210373878479004,-2.6285154819488525,0.0006108652451075613,-0.8266533613204956,0.206777885556221,-55.597774505615234,31.13124656677246,-22.303421020507812
1.13,-2.042273998260498,-11.286943435668945,-2.4813568592071533,0.029626963660120964,-0.8058840036392212,0.3862195312976837,-55.48085403442383,31.13124656677246,-21.57263946533203
1.14,-2.557927370071411,-10.153943061828613,-2.6632113456726074,0.10048733651638031,-0.645684540271759,0.5763513445854187,-55.30546951293945,31.45279312133789,-21.733409881591797
1.16,-2.0889341831207275,-7.5673017501831055,-2.8390841484069824,0.36193764209747314,-0.3637702465057373,0.8571966290473938,-55.173927307128906,31.774335861206055,-21.426483154296875
1.164,-2.14516544342041,-7.4811601638793945,-2.6249263286590576,0.3851505219936371,-0.36880987882614136,0.8834638595581055,-55.33469772338867,32.183570861816406,-20.885705947875977
1.17,-2.636890411376953,-7.464410305023193,-2.6452653408050537,0.4338670074939728,-0.3553708493709564,0.9668470025062561,-54.954689025878906,32.27126693725586,-21.36802101135254
1.18,-2.950350046157837,-7.830511569976807,-2.252842426300049,0.48945578932762146,-0.3153591752052307,1.0545060634613037,-55.10084533691406,32.69511795043945,-20.798011779785156
1.19,-2.9754748344421387,-8.203792572021484,-2.3605194091796875,0.44684794545173645,-0.20234911143779755,1.1099421977996826,-54.691612243652344,33.29435729980469,-21.952646255493164
1.201,-2.8390841484069824,-8.049454689025879,-2.1332013607025146,0.47342056035995483,0.0,1.292285442352295,-53.55158996582031,33.46974563598633,-21.864952087402344
1.215,-3.352344274520874,-7.853243350982666,-1.9310078620910645,0.43417245149612427,0.4156937897205353,1.5106697082519531,-52.908504486083984,34.361297607421875,-21.57263946533203
1.22,-3.2410783767700195,-7.677371501922607,-2.203789472579956,0.445931613445282,0.5560400485992432,1.5659531354904175,-52.83543014526367,34.712074279785156,-21.66033363342285
1.23,-2.8618156909942627,-7.847261428833008,-2.4562323093414307,0.4755585789680481,0.8127562403678894,1.6789631843566895,-52.64542770385742,35.63285446166992,-22.771120071411133
1.24,-2.313859462738037,-8.440681457519531,-2.4466609954833984,0.5140430927276611,1.0027352571487427,1.7858645915985107,-52.85004425048828,35.735164642333984,-23.03420066833496
1.25,-1.9477574825286865,-9.382257461547852,-2.420340061187744,0.5290092825889587,1.1071932315826416,1.8732181787490845,-52.64542770385742,35.83747482299805,-22.902660369873047
1.26,-1.7754743099212646,-10.224531173706055,-2.3988046646118164,0.5325217843055725,1.175152063369751,1.9740110635757446,-52.17772674560547,37.24057388305664,-22.917274475097656
1.279,-1.4919248819351196,-11.49512004852295,-2.2133607864379883,0.5442808866500854,1.2264646291732788,2.107332229614258,-51.81233215332031,37.50365447998047,-23.531131744384766
1.283,-1.4775679111480713,-11.663813591003418,-2.1367905139923096,0.5542075037956238,1.2473868131637573,2.149329423904419,-51.94387435913086,38.205204010009766,-24.305757522583008
1.29,-1.5326027870178223,-11.907881736755371,-2.0159530639648438,0.5699372291564941,1.289841890335083,2.2062923908233643,-52.090030670166016,38.61444091796875,-24.378835678100586
1.301,-1.5840485095977783,-12.027523040771484,-2.104487419128418,0.5946772694587708,1.3843733072280884,2.267531633377075,-51.578487396240234,39.53522491455078,-25.50423812866211
1.31,-1.0612168312072754,-11.900703430175781,-2.4849462509155273,0.6644686460494995,1.5599970817565918,2.347707748413086,-50.789241790771484,39.973690032958984,-25.913476943969727
1.329,-0.4127618968486786,-11.751152038574219,-2.5363919734954834,0.7070765495300293,1.6168075799942017,2.419790029525757,-50.83308792114258,40.79216766357422,-26.30809783935547
1.333,0.2021934986114502,-11.37069320678711,-2.7517459392547607,0.7696901559829712,1.6105461120605469,2.490039348602295,-49.82461166381836,41.82987594604492,-27.05349349975586
1.34,0.5371886491775513,-11.033304214477539,-2.717050075531006,0.7959573864936829,1.587027907371521,2.512488842010498,-49.6784553527832,42.6045036315918,-27.24349594116211
1.35,1.1665010452270508,-10.63011360168457,-2.8965117931365967,0.8211556077003479,1.5025757551193237,2.534785270690918,-48.8599853515625,42.41449737548828,-27.988893508911133
1.36,1.6007983684539795,-10.167102813720703,-3.0269205570220947,0.8254316449165344,1.3182471990585327,2.543031930923462,-48.596900939941406,43.496055603027344,-28.80736541748047
1.37,1.8747763633728027,-9.570094108581543,-2.991028070449829,0.8022187352180481,1.0952813625335693,2.5199716091156006,-47.77842712402344,43.817596435546875,-30.07892417907715
1.38,2.076970100402832,-9.090332984924316,-2.963510751724243,0.7458664774894714,0.8817839622497559,2.453998327255249,-47.32534408569336,45.176849365234375,-30.517393112182617
1.398,2.1655044555664062,-8.659625053405762,-2.5387847423553467,0.6110179424285889,0.5442808866500854,2.3460278511047363,-46.302249908447266,45.29377365112305,-31.08740234375
1.402,2.1738791465759277,-8.48734188079834,-2.5806589126586914,0.5662720799446106,0.48227810859680176,2.3134994506835938,-46.08301544189453,45.87839889526367,-30.83893585205078
1.41,2.0961124897003174,-8.212166786193848,-2.7050859928131104,0.5042692422866821,0.4424191415309906,2.2766947746276855,-45.08915710449219,46.097633361816406,-30.765857696533203
1.42,1.9848462343215942,-7.770691394805908,-2.74337100982666,0.4674646258354187,0.46929723024368286,2.2501220703125,-43.6422119140625,46.71148681640625,-31.876644134521484
1.43,1.7934205532073975,-7.451249122619629,-2.7696919441223145,0.4637994170188904,0.5575672388076782,2.215913772583008,-43.20374298095703,47.427650451660156,-31.335866928100586
1.449,1.6115659475326538,-7.299305438995361,-2.8414766788482666,0.49235737323760986,0.7243334650993347,2.1846067905426025,-42.92604446411133,47.70534896850586,-31.65740966796875
1.453,1.8041881322860718,-7.477570533752441,-2.7589244842529297,0.5474879741668701,0.9500481486320496,2.1229093074798584,-42.0052604675293,47.909969329833984,-32.066646575927734
1.46,2.059023857116699,-7.768298149108887,-2.7397818565368652,0.5655084848403931,1.1271990537643433,2.0729711055755615,-41.25986862182617,48.479976654052734,-32.35895919799805
1.47,2.551945447921753,-8.429913520812988,-2.6321046352386475,0.5639813542366028,1.2389873266220093,1.9967657327651978,-40.74831771850586,48.56766891479492,-32.78281021118164
1.48,3.538984537124634,-9.440881729125977,-2.7278177738189697,0.5209153294563293,1.2735012769699097,1.91093909740448,-40.09061813354492,49.049983978271484,-32.70973205566406
1.49,4.077369689941406,-10.034300804138184,-2.730210542678833,0.4521929919719696,1.211803913116455,1.8232799768447876,-39.81291961669922,49.51768493652344,-33.002044677734375
1.51,4.334598064422607,-10.333403587341309,-3.13938307762146,0.39904773235321045,1.1435396671295166,1.714240550994873,-39.05290985107422,49.7223014831543,-33.39666748046875
1.514,4.628915309906006,-10.8430757522583,-3.4995031356811523,0.3620903789997101,1.0557278394699097,1.600925087928772,-38.219818115234375,49.576148986816406,-33.46974563598633
1.52,4.828715801239014,-11.002198219299316,-3.620340585708618,0.37369680404663086,1.004873275756836,1.5467108488082886,-37.94212341308594,49.92692184448242,-33.9666748046875
1.53,4.526023864746094,-10.961520195007324,-3.565305471420288,0.3900374472141266,0.9711230397224426,1.5224288702011108,-38.219818115234375,50.61385726928711,-34.30283737182617
1.54,4.632504463195801,-10.945966720581055,-3.9601213932037354,0.42898011207580566,1.071763038635254,1.4848606586456299,-37.679039001464844,49.82461166381836,-34.05436706542969
1.55,5.473581790924072,-10.6564359664917,-4.351347923278809,0.4957171380519867,1.1395691633224487,1.4330898523330688,-36.831336975097656,50.51154327392578,-34.65361022949219
1.57,6.1363935470581055,-10.63848876953125,-4.4374895095825195,0.55069500207901,1.1742357015609741,1.4034628868103027,-36.34901809692383,50.67231750488281,-35.01900100708008
1.573,7.529016494750977,-11.475976943969727,-4.607379913330078,0.545044481754303,1.0494664907455444,1.2765556573867798,-35.545162200927734,50.540775299072266,-35.44285202026367
1.58,8.237292289733887,-11.822936058044434,-4.741377830505371,0.5025893449783325,0.8926268219947815,1.1982121467590332,-34.96053695678711,50.89155578613281,-36.50979232788086
1.59,9.047262191772461,-12.098111152648926,-4.8119659423828125,0.42302414774894714,0.5769621729850769,1.06351637840271,-34.82899475097656,50.40924072265625,-36.96287536621094
1.6,9.824929237365723,-12.362517356872559,-4.784448623657227,0.3274237811565399,0.22846360504627228,0.8906415104866028,-34.6682243347168,51.286170959472656,-36.655948638916016
1.61,10.465009689331055,-12.52164077758789,-4.783252239227295,0.22143864631652832,-0.14752395451068878,0.75105881690979,-34.27360534667969,51.30078887939453,-37.13826370239258
1.63,10.292726516723633,-12.416356086730957,-4.801198482513428,0.118660569190979,-0.6107125282287598,0.5942191481590271,-33.95206069946289,51.476173400878906,-37.50365447998047
1.634,9.588040351867676,-12.026326179504395,-4.868197441101074,0.04184426739811897,-1.0044151544570923,0.4127922058105469,-34.06898498535156,51.43233108520508,-37.48904037475586
1.64,9.043672561645508,-11.96770191192627,-4.95792818069458,0.0036651913542300463,-1.2079859972000122,0.30665433406829834,-32.607425689697266,51.505409240722656,-38.17597198486328
1.65,8.076972961425781,-12.28834056854248,-5.428117752075195,-0.018478674814105034,-1.394605278968811,0.12293662130832672,-32.812042236328125,51.695411682128906,-36.64133071899414
1.66,7.719245433807373,-12.902099609375,-5.682953357696533,-0.02535090781748295,-1.4903584718704224,-0.10583239793777466,-32.11049270629883,51.31540298461914,-36.77287292480469
1.67,7.323233604431152,-13.324432373046875,-5.274977207183838,-0.03405573591589928,-1.5419765710830688,-0.39538252353668213,-32.242034912109375,51.43233108520508,-37.24057388305664
1.69,6.058626651763916,-13.25025463104248,-4.816751956939697,-0.08491026610136032,-1.4776830673217773,-0.6368269920349121,-32.27126693725586,51.87080001831055,-36.539024353027344
1.694,4.4961137771606445,-12.727423667907715,-4.1623148918151855,-0.1921171098947525,-1.3319915533065796,-1.0723739862442017,-32.59280776977539,51.31540298461914,-36.86056900024414
1.7,3.9553356170654297,-12.374482154846191,-4.012763500213623,-0.2643519341945648,-1.1623238325119019,-1.3640620708465576,-32.27126693725586,51.373870849609375,-36.55363845825195
1.71,4.193421840667725,-12.119646072387695,-4.145565032958984,-0.33108893036842346,-0.8724682927131653,-1.711186170578003,-33.22127914428711,51.213096618652344,-36.93364715576172
1.72,4.199403762817383,-12.175877571105957,-4.405186176300049,-0.4054618179798126,-0.5308418869972229,-2.0094411373138428,-33.71821212768555,51.22771453857422,-36.88979721069336
1.73,4.206582069396973,-12.641281127929688,-4.4614176750183105,-0.4395175576210022,-0.40026944875717163,-2.2434027194976807,-34.37591552734375,51.154632568359375,-36.88979721069336
1.751,4.039084434509277,-12.960722923278809,-4.219742774963379,-0.493731826543808,-0.318566232919693,-2.4422390460968018,-35.939781188964844,50.774627685546875,-37.35749816894531
1.754,3.7459635734558105,-13.160524368286133,-3.8464622497558594,-0.5786421298980713,-0.35384368896484375,-2.72965145111084,-36.99210739135742,50.70154571533203,-37.1236457824707
1.76,3.9074792861938477,-13.207184791564941,-4.163511276245117,-0.6319400668144226,-0.4092797338962555,-2.8461737632751465,-37.50365447998047,50.64308547973633,-36.86056900024414
1.77,3.796213150024414,-13.339985847473145,-4.192224979400635,-0.6873761415481567,-0.6302602291107178,-3.0445523262023926,-38.468284606933594,50.43846893310547,-36.919029235839844
1.78,2.799602508544922,-13.793425559997559,-3.710071325302124,-0.7571674585342407,-0.7657195925712585,-3.160005807876587,-39.81291961669922,50.42385482788086,-35.83747482299805
1.79,2.227717876434326,-14.188241004943848,-3.4396824836730957,-0.8335255980491638,-0.8666650652885437,-3.2902729511260986,-40.90909194946289,50.08769607543945,-35.852088928222656
1.809,1.872383713722229,-14.529218673706055,-3.198007583618164,-0.9697485566139221,-0.9337075352668762,-3.4125986099243164,-43.56913375854492,49.049983978271484,-35.866703033447266
1.813,1.112662434577942,-14.827125549316406,-2.884547472000122,-0.9880744814872742,-0.926224410533905,-3.419623374938965,-43.393741607666016,48.669979095458984,-35.735164642333984
1.82,0.7597211599349976,-14.868999481201172,-2.7529425621032715,-1.0305296182632446,-0.8465065360069275,-3.453526496887207,-44.16836929321289,49.12306213378906,-36.07132339477539
1.83,0.5383850932121277,-14.866606712341309,-2.6189444065093994,-1.0894781351089478,-0.7409795522689819,-3.4636058807373047,-45.89301300048828,47.95381546020508,-35.3843879699707
1.84,0.47976091504096985,-14.608181953430176,-2.413161516189575,-1.1201741695404053,-0.6152939796447754,-3.464369297027588,-47.79304122924805,47.456886291503906,-34.712074279785156
1.85,0.5048855543136597,-14.179865837097168,-2.438286066055298,-1.127657175064087,-0.4931209683418274,-3.480557441711426,-48.421512603759766,47.13534164428711,-34.171295166015625
1.87,0.5515456199645996,-13.724034309387207,-2.414357900619507,-1.129337191581726,-0.40973785519599915,-3.4762814044952393,-50.87693786621094,46.112247467041016,-33.76205825805664
1.874,0.37088748812675476,-12.879366874694824,-2.344965934753418,-1.1271990537643433,-0.29626965522766113,-3.4686455726623535,-51.578487396240234,45.08915710449219,-33.002044677734375
1.88,0.25363919138908386,-12.577872276306152,-2.283949136734009,-1.1142182350158691,-0.23548854887485504,-3.4684927463531494,-52.294654846191406,44.51914596557617,-33.13358688354492
1.89,0.21176479756832123,-11.930612564086914,-2.0063817501068115,-1.1007791757583618,-0.1359175145626068,-3.4773504734039307,-53.94621658325195,43.51066970825195,-33.250511169433594
1.9,0.3672982454299927,-11.412568092346191,-1.7958134412765503,-1.0769554376602173,-0.04718933627009392,-3.4749069213867188,-55.72931671142578,43.15989685058594,-32.607425689697266
1.91,0.16869398951530457,-10.954341888427734,-1.5074782371520996,-1.0603092908859253,0.015882495790719986,-3.470630645751953,-56.48933029174805,41.6252555847168,-32.65127182006836
1.93,-0.06699903309345245,-10.388439178466797,-1.4632110595703125,-1.024420976638794,0.15821409225463867,-3.4990360736846924,-58.652442932128906,40.79216766357422,-31.935108184814453
1.933,0.0263210479170084,-9.760323524475098,-1.4739786386489868,-1.0125091075897217,0.17608189582824707,-3.506213665008545,-59.41244888305664,39.62291717529297,-31.935108184814453
1.94,0.23808583617210388,-9.664609909057617,-1.4452649354934692,-0.9937250018119812,0.17577646672725677,-3.512017011642456,-60.46477508544922,39.403682708740234,-32.00818634033203
1.95,0.6005984544754028,-9.759126663208008,-1.5242280960083008,-0.9804387092590332,0.13286319375038147,-3.50942063331604,-61.224788665771484,38.05904769897461,-31.876644134521484
1.96,0.8398807048797607,-9.905089378356934,-1.6905291080474854,-0.9845620393753052,0.04001167416572571,-3.470478057861328,-62.759429931640625,36.75825881958008,-31.964338302612305
1.97,0.8626124858856201,-10.013962745666504,-1.7706886529922485,-0.9902125597000122,-0.09407324343919754,-3.4190127849578857,-63.34404754638672,35.15053939819336,-31.71587371826172
1.989,0.7573283314704895,-10.043872833251953,-1.8987046480178833,-1.012050986289978,-0.2817615866661072,-3.3366987705230713,-64.3379135131836,33.2651252746582,-31.014324188232422
1.993,0.5539384484291077,-10.095318794250488,-1.7623138427734375,-1.0432051420211792,-0.44776421785354614,-3.1833715438842773,-65.18561553955078,32.08126449584961,-30.765857696533203
2.0,0.363709032535553,-10.05583667755127,-1.6845470666885376,-1.0548114776611328,-0.5262603759765625,-3.0724992752075195,-65.82870483398438,31.730487823486328,-30.47354507446289
2.01,0.007178467698395252,-9.80698299407959,-1.4811570644378662,-1.0641272068023682,-0.6041457653045654,-2.903595209121704,-66.32563781738281,29.91815185546875,-31.05817222595215
2.02,-0.42711883783340454,-9.425328254699707,-1.310070276260376,-1.064890742301941,-0.6378960609436035,-2.6981916427612305,-66.82256317138672,29.055830001831055,-30.35662078857422
2.03,-1.0325030088424683,-9.050850868225098,-0.97148597240448,-1.0409142971038818,-0.6050620079040527,-2.3991730213165283,-66.9979476928711,27.15580177307129,-29.90353775024414
2.049,-1.5792629718780518,-8.529216766357422,-1.0995019674301147,-0.9819658994674683,-0.45555275678634644,-1.9963074922561646,-67.8895034790039,25.21192741394043,-29.28968048095703
2.053,-1.4596216678619385,-8.429913520812988,-1.3794622421264648,-0.9552405476570129,-0.4207334518432617,-1.869247555732727,-67.8895034790039,24.84653663635254,-28.80736541748047
2.06,-1.361515998840332,-8.185846328735352,-1.7670994997024536,-0.9048441052436829,-0.3926336169242859,-1.6693419218063354,-68.09412384033203,24.422683715820312,-28.398128509521484
2.07,-1.5014961957931519,-7.819744110107422,-2.2995026111602783,-0.8216137290000916,-0.4159992039203644,-1.4048372507095337,-68.59104919433594,23.66267204284668,-29.275066375732422
2.08,-1.176072359085083,-7.35912561416626,-3.425325632095337,-0.6311764717102051,-0.4847215414047241,-1.127810001373291,-68.88336181640625,22.902660369873047,-28.588130950927734
2.09,-1.734796404838562,-7.3639116287231445,-1.9345970153808594,-0.49785515666007996,-0.7290676236152649,-0.8629998564720154,-68.8687515258789,22.142648696899414,-27.740427017211914
2.109,-2.550748825073242,-7.4979095458984375,-1.506281852722168,-0.260992169380188,-0.6157521605491638,-0.31932979822158813,-68.51797485351562,21.689563751220703,-27.57965660095215
2.113,-2.662015199661255,-7.550551891326904,-1.277767300605774,-0.2249511182308197,-0.6070473194122314,-0.2554943859577179,-68.28413391113281,21.09032440185547,-26.848873138427734
2.12,-2.6691935062408447,-7.491927146911621,-1.2335000038146973,-0.14095714688301086,-0.5302309989929199,-0.04398229718208313,-68.63490295410156,21.601871490478516,-26.454252243041992
2.13,-2.7122642993927,-7.234699249267578,-1.2418749332427979,0.04046982154250145,-0.48716503381729126,0.35033121705055237,-68.28413391113281,21.411867141723633,-27.433500289916992
2.14,-3.5294132232666016,-7.045666217803955,-1.4787644147872925,0.1673770695924759,-0.461355984210968,0.5968153476715088,-68.82490539550781,22.347267150878906,-27.404266357421875
2.15,-3.5784661769866943,-6.764509677886963,-1.9669002294540405,0.28130343556404114,-0.4092797338962555,0.7887797355651855,-68.16720581054688,22.624963760375977,-27.05349349975586
2.17,-3.1992037296295166,-8.736194610595703,-2.5663022994995117,0.4637994170188904,-0.49984046816825867,1.1916453838348389,-68.41566467285156,23.28266716003418,-26.86349105834961
2.173,-3.170490026473999,-9.06879711151123,-2.4981067180633545,0.47708573937416077,-0.5120577812194824,1.2527319192886353,-68.37181854248047,23.56036376953125,-27.038877487182617
2.18,-3.3128626346588135,-9.760323524475098,-2.3976082801818848,0.5195409059524536,-0.5157229900360107,1.4530956745147705,-68.152587890625,23.750364303588867,-26.79041290283203
2.19,-3.7986059188842773,-9.918249130249023,-2.1571295261383057,0.664315938949585,-0.36483925580978394,1.8121317625045776,-68.07950592041016,24.87576675415039,-26.775794982910156
2.2,-4.12642240524292,-8.640481948852539,-2.1619153022766113,0.8135198354721069,-0.09239336103200912,2.121535062789917,-67.84565734863281,26.191171646118164,-26.761180877685547
2.21,-3.4612178802490234,-7.491927146911621,-2.5471596717834473,0.9830348491668701,0.2028072625398636,2.4124596118927,-67.80181884765625,27.755043029785156,-26.556564331054688
2.228,-1.856830358505249,-7.8448686599731445,-3.122633457183838,1.2698360681533813,0.3807217478752136,2.819753885269165,-67.24642181396484,30.415081024169922,-27.41888427734375
2.231,-1.734796404838562,-8.342576026916504,-3.13938307762146,1.3142764568328857,0.3608686327934265,2.9326112270355225,-66.67640686035156,30.53200912475586,-27.886581420898438
2.24,-1.6235301494598389,-9.384650230407715,-3.0209386348724365,1.3613131046295166,0.2515237629413605,3.0951013565063477,-66.7494888305664,32.680503845214844,-28.032737731933594
2.25,-1.7264214754104614,-11.273782730102539,-2.4813568592071533,1.306182622909546,0.053297992795705795,3.184898614883423,-65.62408447265625,33.70359420776367,-29.011985778808594
2.26,-1.8472589254379272,-12.5802640914917,-2.1415762901306152,1.245401382446289,-0.06490442901849747,3.333033323287964,-65.17100524902344,35.12131118774414,-28.193510055541992
2.27,-2.0757734775543213,-14.178669929504395,-1.820937991142273,1.1748465299606323,0.0064140851609408855,3.559969902038574,-64.19175720214844,37.0067253112793,-28.60274887084961
2.29,-1.8867405652999878,-15.30210018157959,-3.2829525470733643,1.1044442653656006,0.36453381180763245,3.989255428314209,-61.86787414550781,40.2221565246582,-29.36275863647461
2.293,-1.7024933099746704,-15.217155456542969,-3.4743783473968506,1.1369730234146118,0.4700608253479004,4.109595775604248,-62.05787658691406,40.85062789916992,-29.34814453125
2.403,3.7112677097320557,-11.863614082336426,-4.088137149810791,1.007927656173706,0.1319468915462494,4.029419898986816,-44.72376251220703,56.25548553466797,-37.31365203857422
2.41,3.7663025856018066,-11.46281623840332,-4.054637908935547,0.9505062699317932,-0.005345070734620094,3.9602391719818115,-43.21835708618164,56.6354866027832,-38.1028938293457
2.42,3.4265217781066895,-10.951948165893555,-3.651447057723999,0.8859072923660278,-0.144622340798378,3.8603627681732178,-40.98217010498047,57.103187561035156,-38.29289627075195
2.43,2.904886484146118,-10.701899528503418,-3.3846476078033447,0.81581050157547,-0.24098633229732513,3.702301502227783,-39.27214050292969,57.39550018310547,-37.88365936279297
2.44,2.389233350753784,-10.658828735351562,-3.260220766067505,0.7115052938461304,-0.2554943859577179,3.46986722946167,-37.53288269042969,58.11166000366211,-38.43905258178711
2.45,2.1786649227142334,-10.622936248779297,-3.2099714279174805,0.6638578176498413,-0.1511891484260559,3.2734739780426025,-35.735164642333984,58.57936096191406,-38.468284606933594
2.466,2.6500511169433594,-10.971091270446777,-3.3415768146514893,0.6265950202941895,0.09697485715150833,3.0104966163635254,-33.235897064208984,58.667057037353516,-39.19906234741211
2.47,2.8941190242767334,-11.052447319030762,-3.579662799835205,0.6264423131942749,0.18249599635601044,2.9301676750183105,-33.367435455322266,59.00321578979492,-38.570594787597656
2.48,3.328416109085083,-11.258230209350586,-4.0450663566589355,0.6551529169082642,0.32910364866256714,2.778520345687866,-31.686643600463867,59.076290130615234,-39.54983901977539
2.49,3.6885359287261963,-11.69013500213623,-4.490131378173828,0.6872233748435974,0.46761733293533325,2.607020139694214,-29.81584358215332,58.76936340332031,-40.06138610839844
2.501,4.00917387008667,-12.32542896270752,-4.803591251373291,0.7444919943809509,0.528245747089386,2.4643828868865967,-28.71967315673828,58.6962890625,-40.558319091796875
2.519,4.0666022300720215,-12.722638130187988,-4.691128730773926,0.765566885471344,0.5691736936569214,2.30051851272583,-27.433500289916992,58.76936340332031,-40.98217010498047
2.523,4.156332969665527,-13.056436538696289,-4.4650068283081055,0.7548767328262329,0.6681338548660278,2.104583501815796,-25.67962646484375,58.871673583984375,-41.639869689941406
2.53,4.308277130126953,-13.217950820922852,-4.474577903747559,0.7070765495300293,0.7554876208305359,1.9897408485412598,-25.21192741394043,58.6962890625,-41.74217987060547
2.54,5.06680154800415,-13.055240631103516,-4.858626365661621,0.6511823534965515,0.8940012454986572,1.834580898284912,-23.925752639770508,59.5586051940918,-41.85910415649414
2.55,6.922435760498047,-12.798011779785156,-5.337190628051758,0.6311764717102051,0.8591819405555725,1.6036739349365234,-22.902660369873047,58.7547492980957,-42.706809997558594
2.56,7.052844524383545,-12.122038841247559,-4.738985061645508,0.5111414790153503,0.5389358401298523,1.5247195959091187,-22.303421020507812,59.237064361572266,-42.429115295410156
2.57,7.379465103149414,-11.84447193145752,-5.201996326446533,0.4462370276451111,0.4427245557308197,1.3602441549301147,-21.967260360717773,59.57322692871094,-43.189125061035156
2.583,8.093722343444824,-11.69611644744873,-5.387440204620361,0.4060726761817932,0.1713476926088333,1.16293466091156,-21.046478271484375,59.500144958496094,-43.94913864135742
2.59,8.260024070739746,-11.49272632598877,-5.649453639984131,0.3732386529445648,-0.04413501173257828,1.0328203439712524,-20.315698623657227,59.19321823120117,-43.93452072143555
2.601,8.258827209472656,-11.274980545043945,-5.858826160430908,0.31902435421943665,-0.422871470451355,0.7631233930587769,-19.979537963867188,59.251678466796875,-44.51914596557617
2.61,7.599604606628418,-11.173285484313965,-5.772684574127197,0.2828305959701538,-0.6514877676963806,0.5430591702461243,-19.950305938720703,59.105525970458984,-43.7445182800293
2.62,6.915257453918457,-11.088339805603027,-5.5692949295043945,0.24129176139831543,-0.7567093372344971,0.3084869384765625,-19.789535522460938,59.675533294677734,-44.27068328857422
2.64,6.385247230529785,-10.718648910522461,-5.584847927093506,0.20295996963977814,-0.7455610036849976,0.08918632566928864,-19.46799087524414,59.12014389038086,-43.65682601928711
2.644,5.927021503448486,-11.017751693725586,-6.252445697784424,0.19333885610103607,-0.5577199459075928,-0.204487144947052,-19.83338165283203,59.7778434753418,-44.66530227661133
2.65,5.715256690979004,-11.584851264953613,-6.262016773223877,0.15561792254447937,-0.47998735308647156,-0.38866299390792847,-19.52645492553711,59.675533294677734,-44.3437614440918
2.66,5.368297576904297,-13.100703239440918,-5.771488189697266,0.058337628841400146,-0.39614611864089966,-0.6742424964904785,-19.979537963867188,59.63168716430664,-45.33761978149414
2.67,4.872982978820801,-13.767104148864746,-4.95074987411499,-0.07819075137376785,-0.2860376536846161,-0.9880744814872742,-19.7310733795166,59.8363037109375,-45.26454162597656
2.68,4.12642240524292,-13.533803939819336,-4.274777412414551,-0.26939156651496887,-0.18371771275997162,-1.3165671825408936,-20.754165649414062,60.391700744628906,-44.811458587646484
2.699,3.6837503910064697,-12.704691886901855,-4.777270317077637,-0.42149701714515686,0.03191770985722542,-1.6610952615737915,-21.119556427001953,60.74247360229492,-44.13914108276367
2.704,3.428914785385132,-12.588639259338379,-4.995017051696777,-0.5343543291091919,0.2561052441596985,-2.157576084136963,-22.508039474487305,61.15170669555664,-45.542240142822266
2.71,3.5198421478271484,-12.760923385620117,-5.398207664489746,-0.5389358401298523,0.3358231484889984,-2.362368583679199,-23.5895938873291,61.07863235473633,-44.372989654541016
2.72,3.1585259437561035,-13.276576042175293,-5.205585479736328,-0.5056437253952026,0.3706424832344055,-2.6094634532928467,-24.831920623779297,61.195556640625,-44.066062927246094
2.73,2.9934210777282715,-13.673784255981445,-5.064409255981445,-0.48517972230911255,0.36972618103027344,-2.880840301513672,-26.673486709594727,61.5171012878418,-44.358375549316406
2.74,3.128615379333496,-14.287544250488281,-4.876572132110596,-0.4715879559516907,0.29367345571517944,-3.132516860961914,-28.485822677612305,61.838645935058594,-43.23297119140625
2.76,3.071187734603882,-14.854642868041992,-4.851447582244873,-0.5154175162315369,0.09422595798969269,-3.4301609992980957,-30.415081024169922,61.4732551574707,-44.21221923828125
2.764,2.1655044555664062,-15.491132736206055,-4.469792366027832,-0.6013968586921692,-0.10613783448934555,-3.7009270191192627,-32.972816467285156,61.98480224609375,-43.21835708618164
2.77,1.6007983684539795,-15.847662925720215,-4.064208984375,-0.6698136925697327,-0.17409659922122955,-3.8504364490509033,-34.419761657714844,61.604793548583984,-43.40835952758789
2.78,0.8243273496627808,-16.22214126586914,-3.2303104400634766,-0.792750358581543,-0.2171625941991806,-4.008955478668213,-36.159019470214844,61.604793548583984,-42.049110412597656
2.79,0.2883351147174835,-16.13599967956543,-2.372483730316162,-0.9228646755218506,-0.13805553317070007,-4.140902996063232,-38.395206451416016,61.54633331298828,-42.078338623046875
2.801,0.061016976833343506,-16.115659713745117,-2.482553482055664,-1.0323622226715088,-0.0019853119738399982,-4.196796894073486,-40.83601379394531,60.91786193847656,-40.9237060546875
2.82,-0.06699903309345245,-16.143177032470703,-2.5495524406433105,-1.042746901512146,0.08765916526317596,-4.208250522613525,-45.29377365112305,59.54399108886719,-40.2660026550293
2.824,0.2141576111316681,-15.730415344238281,-3.205185890197754,-0.9598219990730286,0.15271630883216858,-4.237113952636719,-46.185325622558594,59.52937698364258,-39.330604553222656
2.83,0.1818545162677765,-15.862021446228027,-3.212364435195923,-0.9245445132255554,0.08246680349111557,-4.26658821105957,-47.89535140991211,58.40397644042969,-39.47676086425781
2.84,0.3672982454299927,-15.425331115722656,-2.7936203479766846,-0.9172141551971436,-0.07987063378095627,-4.346153259277344,-49.69307327270508,57.86320114135742,-38.234432220458984
2.85,0.468993216753006,-14.92762279510498,-1.9477574825286865,-0.9384416937828064,-0.25244006514549255,-4.4066290855407715,-52.528499603271484,56.182403564453125,-37.45980453491211
2.86,0.3206382095813751,-14.83789348602295,-1.4189437627792358,-1.0115928649902344,-0.36804628372192383,-4.392579078674316,-54.58930206298828,55.24700164794922,-37.708274841308594
2.88,-0.47018963098526,-14.10688591003418,-1.4189437627792358,-1.061989188194275,-0.34895676374435425,-4.340350151062012,-56.2993278503418,53.46390151977539,-37.035953521728516
2.884,-0.9882357120513916,-12.788439750671387,-1.537388563156128,-1.0464122295379639,-0.17730362713336945,-4.291481018066406,-58.667057037353516,51.7977180480957,-36.7436408996582
2.89,-1.1042876243591309,-12.189038276672363,-1.5266207456588745,-1.018770456314087,-0.04886921867728233,-4.256661415100098,-59.500144958496094,50.365386962890625,-36.43671417236328
2.901,-1.1617152690887451,-11.686545372009277,-1.592423439025879,-0.9555459022521973,0.13530665636062622,-4.21588659286499,-61.18094253540039,48.80152130126953,-35.19438934326172
2.91,-1.0875378847122192,-11.436495780944824,-1.53858482837677,-0.9271407127380371,0.23411409556865692,-4.182746887207031,-62.67173385620117,47.1207275390625,-34.916690826416016
2.92,-0.6412764191627502,-11.101499557495117,-1.566102385520935,-0.9129380583763123,0.3065016567707062,-4.151898384094238,-64.04560089111328,45.761470794677734,-34.63899612426758
2.939,-0.19142581522464752,-10.788040161132812,-1.5254243612289429,-0.9002626538276672,0.313373863697052,-3.9799396991729736,-66.28179168701172,42.633731842041016,-34.2443733215332
2.943,-0.05383851006627083,-10.419546127319336,-1.6785650253295898,-0.8993463516235352,0.3000875413417816,-3.9522979259490967,-67.08564758300781,41.49371337890625,-33.77667236328125
2.95,-0.19142581522464752,-10.241281509399414,-1.7252249717712402,-0.9054549932479858,0.2448042333126068,-3.866776943206787,-67.91873931884766,40.38292694091797,-33.9082145690918
2.96,-0.4941178560256958,-10.060623168945312,-2.0650060176849365,-0.9216429591178894,0.15974126756191254,-3.7392587661743164,-68.67874908447266,38.789825439453125,-33.70359420776367
2.97,-0.5144568085670471,-9.804591178894043,-2.0482561588287354,-0.9246972799301147,0.09575312584638596,-3.6054792404174805,-69.65798950195312,36.93364715576172,-34.200523376464844
2.98,-0.605384111404419,-9.748359680175781,-1.8185451030731201,-0.9308058619499207,0.02825251594185829,-3.4348950386047363,-70.11107635498047,35.662086486816406,-33.30897521972656
3.0,-0.9212366938591003,-9.570094108581543,-1.794616937637329,-0.9433286786079407,-0.03848451003432274,-3.2459850311279297,-71.00263214111328,32.69511795043945,-32.812042236328125
3.101,-4.928018093109131,-8.280362129211426,-0.7776673436164856,-0.052381694316864014,-0.46822819113731384,-0.6356052756309509,-72.53726959228516,21.353404998779297,-30.298158645629883
3.12,-5.670989513397217,-7.15932559967041,0.19501502811908722,0.13729196786880493,-0.9399688839912415,-0.13759739696979523,-71.54341125488281,21.19263458251953,-29.46506690979004
3.124,-5.820540904998779,-6.990631103515625,0.19980068504810333,0.1485929638147354,-1.0531316995620728,-0.003054326167330146,-72.15726470947266,21.01724624633789,-28.79275131225586
3.13,-6.02393102645874,-7.240681171417236,-0.12203395366668701,0.16432274878025055,-1.1814134120941162,0.24755313992500305,-71.45571899414062,21.38263702392578,-28.23735809326172
3.14,-6.061019420623779,-8.541180610656738,-0.5060819387435913,0.23228150606155396,-1.2325732707977295,0.6592763066291809,-71.13417053222656,22.04033851623535,-28.07658576965332
3.15,-5.806183815002441,-9.320043563842773,-0.7585247159004211,0.3677408695220947,-1.1910344362258911,1.1450668573379517,-70.71031951904297,22.157264709472656,-28.398128509521484
3.16,-6.058626651763916,-9.515058517456055,-1.4117653369903564,0.6171265840530396,-1.047023057937622,1.9167424440383911,-70.33030700683594,23.194971084594727,-28.07658576965332
3.179,-5.352744102478027,-8.324629783630371,-3.3415768146514893,1.1992812156677246,-0.3686571717262268,2.822808265686035,-69.77491760253906,25.76732063293457,-26.61502456665039
3.183,-4.143172264099121,-8.017151832580566,-3.8775689601898193,1.332908034324646,-0.3194825351238251,2.9298622608184814,-69.84799194335938,26.249635696411133,-26.23501968383789
3.19,-2.5531415939331055,-8.49571704864502,-4.00199556350708,1.4761558771133423,-0.31551188230514526,3.098919153213501,-69.38029479980469,27.404266357421875,-26.79041290283203
3.201,-2.1607186794281006,-9.937392234802246,-3.94815731048584,1.5448781251907349,-0.35033121705055237,3.3875532150268555,-68.97106170654297,29.421222686767578,-26.99502944946289
3.21,-2.6213371753692627,-11.479565620422363,-3.5401811599731445,1.6183346509933472,-0.3384193181991577,3.6777141094207764,-67.8164291381836,30.985092163085938,-27.06810760498047
3.22,-3.2757742404937744,-13.361520767211914,-3.115455150604248,1.6574301719665527,-0.07925976812839508,3.9849791526794434,-67.75796508789062,33.352821350097656,-26.556564331054688
3.239,-4.478167533874512,-16.059429168701172,-2.2707886695861816,1.6404786109924316,0.6417139768600464,4.55705451965332,-66.35486602783203,36.115169525146484,-27.945045471191406
3.243,-5.006981372833252,-16.532011032104492,-2.5076780319213867,1.632842779159546,0.7704537510871887,4.583932876586914,-65.96024322509766,37.021339416503906,-28.79275131225586
3.25,-4.432703971862793,-17.174484252929688,-2.998206615447998,1.634369969367981,1.1913399696350098,4.644103050231934,-64.20637512207031,38.819061279296875,-29.479684829711914
3.26,-2.080559253692627,-17.88515281677246,-3.5461630821228027,1.681864619255066,1.700343370437622,4.829653263092041,-63.76790237426758,41.55217742919922,-30.619701385498047
3.27,-0.18424732983112335,-18.484554290771484,-3.6394829750061035,1.7400496006011963,1.9819523096084595,5.003597259521484,-63.080970764160156,43.52528381347656,-32.19818878173828
3.28,1.6510475873947144,-18.795621871948242,-3.407379150390625,1.7177530527114868,1.983479380607605,5.003597259521484,-61.210174560546875,45.84916687011719,-33.01666259765625
3.3,3.414557933807373,-18.435501098632812,-3.458824872970581,1.5199854373931885,1.4054481983184814,4.991990566253662,-58.28704833984375,50.13154220581055,-35.179771423339844
3.304,3.6885359287261963,-18.159130096435547,-3.401397228240967,1.4486669301986694,1.1595749855041504,4.908149242401123,-58.25782012939453,50.30692672729492,-35.16515350341797
3.31,3.810570001602173,-17.657835006713867,-3.4648072719573975,1.3587169647216797,0.8994990587234497,4.792237758636475,-56.8985710144043,50.92078399658203,-35.311309814453125
3.32,3.6741790771484375,-16.64806365966797,-3.4480574131011963,1.1268937587738037,0.2643519341945648,4.46405029296875,-54.85238265991211,52.47003936767578,-36.94826126098633
3.33,3.0448665618896484,-15.540185928344727,-3.0113673210144043,0.9892961978912354,-0.04535674676299095,4.207945346832275,-53.23004913330078,53.741600036621094,-36.69979476928711
3.34,3.122633457183838,-14.690733909606934,-3.0831520557403564,0.8955284357070923,-0.1495092660188675,3.9851322174072266,-51.24232864379883,54.41391372680664,-37.34288024902344
3.359,3.912264823913574,-13.215559959411621,-3.1716861724853516,0.8028296232223511,-0.2845104932785034,3.6917641162872314,-47.71996307373047,56.15317153930664,-37.56211853027344
3.362,3.9326038360595703,-12.817153930664062,-3.2004001140594482,0.7924449443817139,-0.3101668059825897,3.6534321308135986,-46.81379699707031,57.0154914855957,-37.95673751831055
3.37,3.9385857582092285,-12.106486320495605,-3.3583264350891113,0.7779368162155151,-0.403781920671463,3.486666202545166,-46.25840377807617,56.79625701904297,-38.43905258178711
3.38,3.7459635734558105,-10.923234939575195,-3.46600341796875,0.8014551401138306,-0.488539457321167,3.2934799194335938,-44.32914352416992,57.527042388916016,-38.5267448425293
3.39,3.6957144737243652,-10.162318229675293,-3.2757742404937744,0.8245153427124023,-0.5928446650505066,3.059213161468506,-42.443729400634766,57.67319107055664,-37.95673751831055
3.409,3.669393539428711,-9.670592308044434,-2.833101749420166,0.8324565887451172,-0.722959041595459,2.819448471069336,-41.11370849609375,58.79859924316406,-38.4244384765625
3.413,3.125026226043701,-9.125028610229492,-2.792423963546753,0.8042040467262268,-0.7597636580467224,2.556623697280884,-39.43291473388672,59.00321578979492,-39.418296813964844
3.42,2.596212387084961,-8.82951545715332,-2.4598214626312256,0.7895433306694031,-0.6837109327316284,2.3776400089263916,-38.775211334228516,59.17860412597656,-39.43291473388672
3.43,1.920240044593811,-8.614161491394043,-2.031506299972534,0.7993171811103821,-0.485027015209198,2.2510385513305664,-37.035953521728516,59.5586051940918,-40.11984634399414
3.44,1.6450655460357666,-8.926424980163574,-2.0279171466827393,0.8205447196960449,-0.15302173793315887,2.177734613418579,-36.0859375,59.7778434753418,-40.689857482910156
3.45,1.86520516872406,-9.436095237731934,-2.3126630783081055,0.8295549750328064,0.19776761531829834,2.151925563812256,-35.58900833129883,59.880149841308594,-40.952938079833984
3.46,2.3126630783081055,-10.139585494995117,-2.610569477081299,0.8242099285125732,0.4996877610683441,2.1259636878967285,-34.200523376464844,60.24554443359375,-41.25986862182617
3.476,3.651447057723999,-11.205587387084961,-3.0005996227264404,0.7765624523162842,0.7605272531509399,2.0198259353637695,-32.490501403808594,60.08477020263672,-42.35603332519531
3.48,4.1144585609436035,-11.46281623840332,-2.882154941558838,0.7525859475135803,0.7745771408081055,1.9880609512329102,-31.18971061706543,60.844783782958984,-41.522945404052734
3.49,4.780859470367432,-11.666207313537598,-2.8618156909942627,0.7011205554008484,0.7376197576522827,1.923767328262329,-30.53200912475586,60.34785079956055,-42.253726959228516
3.6,5.809772968292236,-11.24028491973877,-4.24367094039917,0.6960809230804443,-0.5470298528671265,0.4450153112411499,-22.917274475097656,60.12861633300781,-46.112247467041016
3.61,5.391029357910156,-10.457830429077148,-4.479363918304443,0.5682573914527893,-0.6212499737739563,0.314442902803421,-22.318035125732422,59.894771575927734,-46.901493072509766
3.62,5.08235502243042,-10.193424224853516,-4.843072891235352,0.47372597455978394,-0.5981897711753845,0.16340644657611847,-23.12189483642578,60.099388122558594,-46.69687271118164
3.63,5.053641319274902,-10.529616355895996,-5.2354960441589355,0.3517056703567505,-0.5398521423339844,-0.02580905519425869,-22.434959411621094,59.7778434753418,-46.88687515258789
3.65,5.747560024261475,-11.889935493469238,-6.588636875152588,0.24465152621269226,-0.4622722566127777,-0.17699819803237915,-22.434959411621094,60.1578483581543,-47.07687759399414
3.654,6.6520466804504395,-13.073185920715332,-6.997809410095215,0.025045473128557205,-0.4862487316131592,-0.3729332387447357,-23.01958465576172,59.865535736083984,-46.63841247558594
3.66,6.659224987030029,-13.384252548217773,-6.660421848297119,-0.12507465481758118,-0.5328271985054016,-0.5164865851402283,-22.888044357299805,60.26015853881836,-46.945335388183594
3.67,5.544169902801514,-13.343575477600098,-6.117250919342041,-0.32879823446273804,-0.5430591702461243,-0.7055493593215942,-22.814966201782227,59.500144958496094,-45.77608871459961
3.68,3.7423744201660156,-13.182060241699219,-5.938985824584961,-0.47571131587028503,-0.2695443034172058,-0.9749408960342407,-22.93189239501953,59.894771575927734,-45.922245025634766
3.69,2.6967110633850098,-13.063614845275879,-5.402993679046631,-0.48869219422340393,0.10308350622653961,-1.2357803583145142,-23.472667694091797,59.96784591674805,-45.366851806640625
3.71,2.7625136375427246,-13.495519638061523,-7.079165935516357,-0.4827362596988678,0.41233402490615845,-1.5409075021743774,-25.31423568725586,59.7778434753418,-44.431453704833984
3.714,2.427518606185913,-13.996816635131836,-5.889932632446289,-0.4531092941761017,0.5881105065345764,-2.0392208099365234,-25.81116485595703,60.50862121582031,-44.6799201965332
3.72,2.1020946502685547,-14.251651763916016,-5.4951171875,-0.4977024495601654,0.5969680547714233,-2.247373104095459,-26.746564865112305,60.55247116088867,-43.52528381347656
3.73,2.3330020904541016,-14.707483291625977,-4.71744966506958,-0.6227771043777466,0.5858197212219238,-2.7308731079101562,-28.26658821105957,60.50862121582031,-43.40835952758789
3.74,2.6632113456726074,-15.39542007446289,-4.264009952545166,-0.7557929754257202,0.5364924073219299,-3.020270347595215,-29.771995544433594,60.31861877441406,-43.3206672668457
3.75,2.7517459392547607,-15.493526458740234,-4.194617748260498,-0.8776606321334839,0.4491386413574219,-3.230713367462158,-31.18971061706543,60.099388122558594,-42.09295654296875
3.769,2.4741785526275635,-15.639488220214844,-4.191028594970703,-0.983951210975647,0.3254384398460388,-3.3903019428253174,-32.797428131103516,60.172462463378906,-41.727561950683594
3.773,2.1918253898620605,-15.839288711547852,-3.9625141620635986,-1.0858129262924194,0.05421429127454758,-3.6079227924346924,-35.545162200927734,59.76322937011719,-40.09061813354492
3.78,1.805384635925293,-16.06780242919922,-3.7124643325805664,-1.192256212234497,-0.22250765562057495,-3.7893497943878174,-36.56825256347656,60.406314849853516,-39.213680267333984
3.79,0.9750751852989197,-16.4315128326416,-3.187239646911621,-1.3051135540008545,-0.4222606122493744,-3.936262845993042,-38.92136764526367,59.38322067260742,-38.43905258178711
3.8,0.36251261830329895,-16.73420524597168,-2.6273193359375,-1.4089607000350952,-0.4970915913581848,-4.02987813949585,-41.142940521240234,59.032447814941406,-37.18210983276367
3.81,-0.2823530435562134,-16.619348526000977,-2.0338993072509766,-1.4876095056533813,-0.4466952085494995,-4.0462188720703125,-43.78836441040039,57.936275482177734,-36.50979232788086
3.83,-1.1904292106628418,-16.078571319580078,-1.534995675086975,-1.5164729356765747,-0.260992169380188,-4.0161333084106445,-47.33995819091797,56.3577880859375,-34.84361267089844
3.833,-1.502692461013794,-14.688342094421387,-1.3746765851974487,-1.4640913009643555,0.17898350954055786,-4.02010440826416,-47.71996307373047,56.007015228271484,-30.765857696533203
3.84,-1.1258230209350586,-13.885549545288086,-1.4871392250061035,-1.4051427841186523,0.34727686643600464,-4.053243637084961,-49.590763092041016,55.2762336730957,-33.48435974121094
3.85,1.7060824632644653,-13.52184009552002,-1.6821541786193848,-1.3587169647216797,0.30543261766433716,-4.1890082359313965,-52.002342224121094,53.478515625,-32.73896408081055
3.86,-0.9176474213600159,-12.20100212097168,-1.6187443733215332,-1.3840678930282593,-0.019089538604021072,-4.154341697692871,-54.077754974365234,52.66004180908203,-31.935108184814453
3.87,-2.1128623485565186,-11.076375007629395,-1.5996018648147583,-1.2066115140914917,0.2018909603357315,-4.205654144287109,-55.188541412353516,50.89155578613281,-31.175094604492188
3.89,-1.0719845294952393,-11.535797119140625,-1.399801254272461,-1.0951286554336548,0.48579058051109314,-4.337448596954346,-57.41011428833008,49.663841247558594,-30.57585334777832
3.894,0.7094718813896179,-11.224730491638184,-1.8125630617141724,-1.0487028360366821,0.37369680404663086,-4.387845039367676,-59.880149841308594,47.07687759399414,-29.742765426635742
3.9,0.46779680252075195,-11.045268058776855,-1.6785650253295898,-1.071763038635254,0.2857322096824646,-4.36127233505249,-60.976322174072266,46.19994354248047,-29.523530960083008
3.91,0.1746760457754135,-11.0895357131958,-1.2227323055267334,-1.1136072874069214,0.24984388053417206,-4.313014030456543,-62.21864700317383,43.686058044433594,-29.523530960083008
3.92,-0.004785645287483931,-11.406585693359375,-0.8315058350563049,-1.1693487167358398,0.26374107599258423,-4.20229434967041,-63.75328826904297,42.443729400634766,-28.60274887084961
3.93,-0.4283152222633362,-11.623135566711426,-0.5539384484291077,-1.2768610715866089,0.28298333287239075,-4.047287464141846,-65.0979232788086,40.23677444458008,-28.61736488342285
3.95,-0.8051848411560059,-11.592028617858887,-0.8841480016708374,-1.429577350616455,0.33887749910354614,-3.8763980865478516,-67.0564193725586,36.17363357543945,-27.038877487182617
3.954,-0.8602197170257568,-10.972288131713867,-1.4249258041381836,-1.500285029411316,0.40943241119384766,-3.662595272064209,-67.7287368774414,35.74978256225586,-26.96579933166504
3.96,-0.9140582084655762,-10.697113037109375,-1.5649060010910034,-1.5140293836593628,0.4311181306838989,-3.523623466491699,-68.24028015136719,35.01900100708008,-27.565038681030273
3.97,-0.8350950479507446,-10.570293426513672,-1.2011969089508057,-1.4961615800857544,0.46242499351501465,-3.3339498043060303,-69.04413604736328,32.31510925292969,-26.39579200744629
3.98,-0.9415756464004517,-10.666006088256836,-1.2035897970199585,-1.4541646242141724,0.5120577812194824,-3.109456777572632,-69.86261749267578,30.619701385498047,-27.491960525512695
3.99,-1.155733346939087,-10.601400375366211,-1.200000524520874,-1.3397800922393799,0.5769621729850769,-2.8206703662872314,-70.28646850585938,28.456592559814453,-27.331188201904297
4.01,-1.3244272470474243,-10.488937377929688,-1.0995019674301147,-1.0971139669418335,0.6291911602020264,-2.412001371383667,-71.04647827148438,25.606548309326172,-27.871967315673828
4.013,-1.1341978311538696,-10.566704750061035,-1.0755738019943237,-1.06657075881958,0.6212499737739563,-2.3606889247894287,-71.3680191040039,25.15346336364746,-27.301958084106445
4.02,-1.1282157897949219,-10.724631309509277,-1.0097711086273193,-0.983340322971344,0.5674937963485718,-2.205376148223877,-71.32417297363281,24.203449249267578,-27.360422134399414
4.03,-1.5493526458740234,-10.798808097839355,-0.9942178130149841,-0.8990408778190613,0.4514293968677521,-2.0361664295196533,-71.77725982666016,22.65419578552246,-27.886581420898438
4.04,-1.9070795774459839,-10.520044326782227,-0.9475577473640442,-0.8249735236167908,0.2831360399723053,-1.8526015281677246,-72.59573364257812,21.66033363342285,-27.316574096679688
4.05,-2.2444677352905273,-9.9469633102417,-0.5359922647476196,-0.7695375084877014,0.13286319375038147,-1.6704108715057373,-72.40573120117188,20.30108070373535,-27.331188201904297
4.07,-2.583051919937134,-9.513862609863281,-0.43549370765686035,-0.7292203903198242,-0.014355332590639591,-1.439351201057434,-72.24495697021484,18.649517059326172,-26.43963623046875
4.074,-3.0687947273254395,-8.557929992675781,-0.7345964908599854,-0.6229298114776611,-0.21059578657150269,-1.010829210281372,-72.09880065917969,18.517976760864258,-26.848873138427734
4.08,-3.214756965637207,-7.829315185546875,-1.0360921621322632,-0.573755145072937,-0.2623666226863861,-0.8568911552429199,-72.0111083984375,18.18181800842285,-26.673486709594727
4.09,-2.5459630489349365,-6.68435001373291,-1.8544374704360962,-0.30512717366218567,-0.5001459121704102,-0.5010622143745422,-72.5080337524414,17.53873062133789,-26.33732795715332
4.1,-3.5736804008483887,-5.983253002166748,-1.4344971179962158,-0.11316278576850891,-0.751669704914093,-0.15164729952812195,-71.85033416748047,16.647178649902344,-26.088863372802734
4.11,-3.263810157775879,-5.5788655281066895,-2.069791555404663,0.04520402476191521,-0.8856018781661987,0.1007927656173706,-71.49956512451172,16.807950973510742,-25.606548309326172
4.13,-4.202992916107178,-7.014559268951416,-1.727617859840393,0.28496861457824707,-1.4205671548843384,0.7425066828727722,-71.11955261230469,17.217187881469727,-24.74422836303711
4.133,-4.482953071594238,-7.4739813804626465,-1.6187443733215332,0.32192596793174744,-1.455844521522522,0.8469646573066711,-70.90032196044922,17.34872817993164,-24.261911392211914
4.14,-5.188835620880127,-8.918049812316895,-0.8949156999588013,0.44516804814338684,-1.4456125497817993,1.2809842824935913,-70.84185791015625,17.9918155670166,-23.77959632873535
4.15,-6.125626087188721,-9.753144264221191,0.48574298620224,0.5322163105010986,-1.2232576608657837,1.7469217777252197,-69.59953308105469,18.751827239990234,-23.194971084594727
4.16,-6.903293132781982,-8.350950241088867,0.17347964644432068,0.5774204134941101,-0.826500654220581,2.1482603549957275,-70.06723022460938,19.760305404663086,-22.65419578552246
4.17,-6.187839031219482,-6.870989799499512,-1.1497513055801392,0.7179194092750549,-0.42959097027778625,2.3887884616851807,-69.57030487060547,21.411867141723633,-22.65419578552246
4.19,-4.831109046936035,-7.5050883293151855,-1.95852530002594,1.0080803632736206,-0.0009162978385575116,2.8377745151519775,-69.10260009765625,23.194971084594727,-21.777257919311523
4.193,-3.6705896854400635,-9.657431602478027,-2.717050075531006,1.05404794216156,0.04138611629605293,2.936734437942505,-68.45951843261719,24.028060913085938,-22.595731735229492
4.2,-2.922832727432251,-11.578868865966797,-2.740978240966797,1.114981770515442,0.08949175477027893,3.057380437850952,-68.56182098388672,25.24115753173828,-22.698041915893555
4.21,-1.9345970153808594,-13.371092796325684,-2.8486552238464355,1.156978726387024,0.09560041129589081,3.240792751312256,-68.02104949951172,26.556564331054688,-23.39959144592285
4.22,-1.3028918504714966,-14.714662551879883,-2.6081764698028564,1.1939361095428467,0.04902193322777748,3.4909420013427734,-67.87489318847656,27.945045471191406,-22.990352630615234
4.23,-1.0516455173492432,-15.572489738464355,-3.0448665618896484,1.2602150440216064,0.005650503095239401,3.710242748260498,-66.92487335205078,29.947385787963867,-22.698041915893555
4.25,-1.2323036193847656,-16.17548179626465,-2.8522443771362305,1.4853187799453735,0.0,4.068515300750732,-65.43408966064453,33.615901947021484,-23.604209899902344
4.253,-1.3710873126983643,-16.15035629272461,-2.7864418029785156,1.5456416606903076,0.06475171446800232,4.13739013671875,-65.46331787109375,34.31745147705078,-23.238819122314453
4.26,-1.0049854516983032,-16.32024574279785,-2.664407968521118,1.6282613277435303,0.14966197311878204,4.199240207672119,-65.20023345947266,35.866703033447266,-23.03420066833496
4.27,-0.3517449200153351,-16.537992477416992,-2.63449764251709,1.681864619255066,0.16722436249256134,4.237877368927002,-64.00175476074219,37.73750305175781,-24.028060913085938
4.28,0.4498506486415863,-16.39322853088379,-3.3547372817993164,1.642922043800354,0.055436018854379654,4.192826271057129,-63.00789260864258,39.66676330566406,-23.764982223510742
4.29,1.3244272470474243,-15.98046588897705,-3.8356947898864746,1.5679383277893066,-0.18600846827030182,4.094018936157227,-61.80941390991211,41.84449005126953,-25.31423568725586
4.307,2.1990039348602295,-15.288939476013184,-2.884547472000122,1.3933836221694946,-0.6844744682312012,3.9174787998199463,-59.76322937011719,44.548377990722656,-24.334989547729492
4.31,2.053041696548462,-15.041282653808594,-2.6297121047973633,1.345278024673462,-0.7712173461914062,3.897167444229126,-59.22244644165039,45.08915710449219,-24.67115020751953
4.32,1.2323036193847656,-14.193026542663574,-2.5399811267852783,1.2635747194290161,-0.7686211466789246,3.899763584136963,-57.570884704589844,46.56533432006836,-25.387313842773438
4.33,0.7728817462921143,-12.884153366088867,-3.0376882553100586,1.249066710472107,-0.6229298114776611,3.8902952671051025,-55.71470260620117,47.924583435058594,-25.533470153808594
4.34,0.989432156085968,-11.80618667602539,-3.3786656856536865,1.299310326576233,-0.44196099042892456,3.85028338432312,-54.077754974365234,49.37152862548828,-25.606548309326172
4.35,1.5960125923156738,-11.140981674194336,-3.671786069869995,1.3825408220291138,-0.2825251817703247,3.779728651046753,-52.60157775878906,50.233848571777344,-25.562700271606445
4.369,2.985046148300171,-10.595417976379395,-4.417150497436523,1.4926491975784302,-0.3188716471195221,3.629608392715454,-48.845367431640625,52.36772918701172,-27.389652252197266
4.373,3.3607192039489746,-10.490134239196777,-4.60857629776001,1.4915802478790283,-0.3654501140117645,3.593262195587158,-48.83074951171875,52.57234573364258,-27.360422134399414
4.38,3.909872055053711,-10.48534870147705,-4.778466701507568,1.4680618047714233,-0.5432119369506836,3.462231397628784,-47.96842956542969,53.78544235229492,-27.535808563232422
4.39,4.333401679992676,-10.64806079864502,-3.974478244781494,1.3739886283874512,-0.8825475573539734,3.288593053817749,-46.33148193359375,54.867000579833984,-28.675825119018555
4.4,3.6502509117126465,-10.606185913085938,-3.276970386505127,1.2351694107055664,-1.2166907787322998,3.096017599105835,-44.636070251464844,55.43700408935547,-28.412744522094727
4.419,2.080559253692627,-10.597811698913574,-3.0448665618896484,1.1378892660140991,-1.1983648538589478,2.959336519241333,-42.882198333740234,56.16778564453125,-28.69044303894043
4.423,1.7718851566314697,-10.487741470336914,-3.5461630821228027,1.05404794216156,-0.8833111524581909,2.8321239948272705,-40.762935638427734,56.95703125,-29.333528518676758
4.43,1.9082759618759155,-10.262815475463867,-4.042673587799072,1.0351110696792603,-0.6597344279289246,2.7786731719970703,-40.11984634399414,57.84858322143555,-28.79275131225586
4.44,1.9597216844558716,-10.118050575256348,-4.475774765014648,1.0392345190048218,-0.3497203588485718,2.7294986248016357,-38.658287048339844,57.70242691040039,-29.655071258544922
4.45,1.9609181880950928,-10.378867149353027,-4.602594375610352,1.0639744997024536,0.049785517156124115,2.654667615890503,-36.99210739135742,58.76936340332031,-30.122772216796875
4.46,2.289931058883667,-11.218749046325684,-4.247260093688965,1.0415252447128296,0.3104722499847412,2.54837703704834,-35.25284957885742,59.54399108886719,-31.10201644897461
4.47,2.6488544940948486,-11.626725196838379,-4.179064750671387,0.9914342761039734,0.5418374538421631,2.4306328296661377,-34.171295166015625,59.54399108886719,-31.350481033325195
4.488,3.379861831665039,-11.889935493469238,-3.930211305618286,0.8727736473083496,0.8258897662162781,2.1904101371765137,-32.56357955932617,59.60245895385742,-32.08126449584961
4.491,3.6777684688568115,-12.04786205291748,-3.896711587905884,0.8443684577941895,0.8955284357070923,2.1224513053894043,-31.964338302612305,59.80707550048828,-33.177433013916016
4.5,4.120440483093262,-12.270394325256348,-4.0486555099487305,0.7754933834075928,1.0091493129730225,2.0036380290985107,-31.160480499267578,59.58784103393555,-32.812042236328125
4.51,4.9292144775390625,-12.52164077758789,-4.610969066619873,0.7157813310623169,1.045495867729187,1.879937767982483,-29.947385787963867,59.61707305908203,-33.29435729980469
4.52,5.475974082946777,-12.488141059875488,-5.038087844848633,0.6351471543312073,0.9469938278198242,1.713935136795044,-29.128910064697266,59.982460021972656,-34.03975296020508
4.539,6.061019420623779,-12.183056831359863,-5.446063995361328,0.559857964515686,0.7651087045669556,1.5147931575775146,-28.295820236206055,60.01169204711914,-34.58053207397461
4.543,5.96889591217041,-11.985648155212402,-5.525027275085449,0.5073235630989075,0.5590943694114685,1.3200798034667969,-28.208127975463867,59.74861526489258,-34.43437576293945
4.55,5.504688262939453,-11.970094680786133,-5.462813854217529,0.5012149214744568,0.4833471179008484,1.1519391536712646,-27.301958084106445,59.894771575927734,-34.712074279785156
4.56,6.357729434967041,-11.33121109008789,-6.216552734375,0.631481945514679,0.4014911651611328,0.8684976100921631,-26.644256591796875,60.099388122558594,-35.07746124267578
4.57,5.365904331207275,-11.058429718017578,-4.9052863121032715,0.6180429458618164,0.07620543986558914,0.7779368162155151,-26.86349105834961,59.93861389160156,-34.989768981933594
4.58,5.410171985626221,-10.673185348510742,-5.535795211791992,0.6459900140762329,0.15821409225463867,0.5879577994346619,-26.644256591796875,60.172462463378906,-35.61824035644531
4.59,5.740381240844727,-10.78564739227295,-5.6315083503723145,0.6817256212234497,0.15225815773010254,0.4014911651611328,-26.571178436279297,59.76322937011719,-36.56825256347656
4.604,7.165307521820068,-10.353742599487305,-6.6077799797058105,0.535881519317627,0.10934487730264664,0.1391245573759079,-26.39579200744629,59.76322937011719,-36.20286560058594
4.61,7.546962261199951,-10.582257270812988,-6.929614543914795,0.4404338300228119,-0.08109235763549805,0.006719517521560192,-26.848873138427734,59.22244644165039,-35.82286071777344
4.62,7.647461414337158,-12.09093189239502,-6.915257453918457,0.22281308472156525,-0.38896840810775757,-0.20662516355514526,-27.097341537475586,59.58784103393555,-35.9836311340332
4.63,7.643871784210205,-12.869795799255371,-6.770491600036621,-0.08567384630441666,-0.6198754906654358,-0.3761402666568756,-26.79041290283203,59.51476287841797,-37.1236457824707
4.64,7.094718933105469,-13.188041687011719,-6.092126369476318,-0.39156460762023926,-0.7327328324317932,-0.46960264444351196,-27.024263381958008,59.14937210083008,-36.655948638916016
4.659,5.898307800292969,-13.12822151184082,-5.398207664489746,-0.7044803500175476,-0.7151704430580139,-0.5839871764183044,-27.41888427734375,58.93013381958008,-36.451332092285156
4.663,4.065405368804932,-12.997811317443848,-5.554937362670898,-1.0296133756637573,-0.41172316670417786,-0.8425358533859253,-27.667348861694336,58.345516204833984,-34.799766540527344
4.67,3.1034910678863525,-13.344771385192871,-5.857629776000977,-1.0975720882415771,-0.1411098688840866,-0.9674578309059143,-28.105815887451172,57.950889587402344,-34.49283981323242
4.68,3.084348201751709,-13.885549545288086,-6.059823036193848,-1.0908526182174683,0.25274547934532166,-1.2426526546478271,-28.63197898864746,57.8193473815918,-34.142066955566406
4.69,4.35972261428833,-14.32941722869873,-6.102894306182861,-1.018770456314087,0.38637226819992065,-1.5514450073242188,-29.479684829711914,57.322418212890625,-33.922828674316406
4.701,4.588237285614014,-14.915658950805664,-5.4795637130737305,-0.9628763198852539,0.3237585723400116,-1.8710802793502808,-29.991230010986328,57.512420654296875,-32.78281021118164
4.72,4.765305995941162,-15.6227388381958,-4.919642925262451,-1.0231993198394775,0.05513058975338936,-2.395050048828125,-30.751243591308594,56.79625701904297,-33.10435485839844
4.723,4.353740692138672,-16.54876136779785,-3.985246181488037,-1.197906732559204,-0.33735033869743347,-2.919783115386963,-33.250511169433594,55.86085891723633,-31.803565979003906
4.73,3.548555612564087,-16.521244049072266,-3.704089403152466,-1.3154982328414917,-0.5203045010566711,-3.18581485748291,-34.05436706542969,55.32008361816406,-30.809703826904297
4.74,2.407179594039917,-16.518850326538086,-3.150151014328003,-1.468214511871338,-0.6574437022209167,-3.5106425285339355,-35.106693267822266,54.41391372680664,-30.517393112182617
4.75,1.5708880424499512,-16.679168701171875,-2.768495798110962,-1.6209309101104736,-0.688292384147644,-3.791640520095825,-36.451332092285156,53.78544235229492,-29.611223220825195
4.76,0.9439685344696045,-16.816757202148438,-2.4945175647735596,-1.7748688459396362,-0.6354525089263916,-4.017508029937744,-38.029815673828125,52.280033111572266,-28.558900833129883
4.78,0.12203395366668701,-17.105091094970703,-2.2396819591522217,-1.8559613227844238,-0.507476270198822,-4.129448890686035,-39.62291717529297,51.49079132080078,-28.04735565185547
4.783,-0.4295116364955902,-17.316856384277344,-2.111665964126587,-1.9037615060806274,-0.2991712689399719,-4.201530933380127,-41.42063903808594,50.540775299072266,-27.185035705566406
4.79,-0.5814558863639832,-17.331212997436523,-2.1104695796966553,-1.8887953758239746,-0.15195272862911224,-4.234823226928711,-42.53142547607422,48.611515045166016,-26.39579200744629
4.801,-0.7704888582229614,-17.188840866088867,-2.24566388130188,-1.8374825716018677,0.035582900047302246,-4.258036136627197,-44.50453186035156,47.51534652709961,-25.796550750732422
4.81,-0.8410770893096924,-16.681562423706055,-2.2983059883117676,-1.736231803894043,0.25854870676994324,-4.302018642425537,-45.498390197753906,45.89301300048828,-25.13884925842285
4.82,-0.8207381367683411,-15.821342468261719,-1.8448662757873535,-1.643227458000183,0.39965859055519104,-4.349513053894043,-46.287635803222656,44.97222900390625,-24.934228897094727
4.839,-0.8781659007072449,-15.150156021118164,-1.561316728591919,-1.5511394739151,0.5384777188301086,-4.394411563873291,-48.07073974609375,43.247589111328125,-24.028060913085938
4.843,-0.6508477926254272,-14.575879096984863,-1.322034478187561,-1.4480559825897217,0.6913467645645142,-4.467257499694824,-49.663841247558594,42.92604446411133,-24.451913833618164
4.85,-0.33020952343940735,-14.305489540100098,-1.1832507848739624,-1.4072808027267456,0.7403686046600342,-4.507880210876465,-51.1400146484375,41.21601867675781,-23.2095890045166
4.86,0.06580261886119843,-13.714462280273438,-1.1186444759368896,-1.3836097717285156,0.7250970005989075,-4.569577693939209,-52.60157775878906,39.60830307006836,-24.39345359802246
4.87,0.2584248483181,-13.17846965789795,-1.0648061037063599,-1.390329360961914,0.6287330389022827,-4.601342678070068,-54.033905029296875,38.395206451416016,-23.9695987701416
4.88,0.1579262912273407,-12.593424797058105,-1.168893814086914,-1.4118623733520508,0.4922046661376953,-4.651585578918457,-55.071617126464844,37.109031677246094,-24.042678833007812
4.9,0.23808583617210388,-12.198609352111816,-1.2837493419647217,-1.433395266532898,0.33536502718925476,-4.7056474685668945,-55.743934631347656,35.282081604003906,-24.788074493408203
4.904,0.4737788736820221,-12.113663673400879,-1.0923235416412354,-1.5238033533096313,0.05726861581206322,-4.712520122528076,-57.746273040771484,33.33820343017578,-23.28266716003418
4.91,0.4211367666721344,-12.107682228088379,-1.195214867591858,-1.5601497888565063,-0.04001167416572571,-4.684877872467041,-58.170127868652344,32.13972473144531,-23.458053588867188
4.92,0.14715859293937683,-11.924631118774414,-1.3567304611206055,-1.6201673746109009,-0.2054034322500229,-4.5578179359436035,-59.280914306640625,30.254310607910156,-23.472667694091797
4.93,-0.48693937063217163,-11.468798637390137,-1.4249258041381836,-1.624901533126831,-0.23090705275535583,-4.387539386749268,-59.38322067260742,28.52967071533203,-23.998830795288086
4.94,-0.8470591902732849,-11.072786331176758,-1.2825528383255005,-1.587027907371521,-0.19318613409996033,-4.184579372406006,-59.95323181152344,26.191171646118164,-22.82958221435547
4.96,-1.2382856607437134,-10.649256706237793,-1.109073281288147,-1.5212072134017944,-0.11530081182718277,-3.9545888900756836,-60.33323287963867,25.43115997314453,-22.610347747802734
4.963,-1.794616937637329,-10.061819076538086,-1.1700901985168457,-1.3694071769714355,0.0429132841527462,-3.585015296936035,-61.80941390991211,23.618824005126953,-22.610347747802734
4.97,-2.080559253692627,-9.990034103393555,-1.3902299404144287,-1.2848021984100342,0.12812897562980652,-3.4016032218933105,-61.429405212402344,22.303421020507812,-22.639577865600586
4.98,-1.8233308792114258,-10.241281509399414,-1.1700901985168457,-1.2012665271759033,0.19120082259178162,-3.1387782096862793,-62.1163444519043,21.031862258911133,-23.341127395629883
4.99,-1.4560325145721436,-10.73180866241455,-0.6783652305603027,-1.1523971557617188,0.18997909128665924,-2.8574748039245605,-62.364803314208984,19.00029182434082,-22.65419578552246
5.0,-1.428515076637268,-10.992627143859863,-0.22372892498970032,-1.1621711254119873,0.10476338863372803,-2.5473079681396484,-62.81789016723633,18.035661697387695,-22.508039474487305
5.019,-1.8999011516571045,-10.498509407043457,-0.017946168780326843,-1.1562150716781616,-0.033597588539123535,-1.9596556425094604,-63.06635665893555,16.23794174194336,-22.303421020507812
5.023,-2.489731788635254,-9.511469841003418,-0.0933200791478157,-1.1186469793319702,-0.04260785132646561,-1.831526756286621,-62.86173629760742,15.931015014648438,-22.508039474487305
5.03,-2.5399811267852783,-8.764909744262695,-0.349352091550827,-1.034194827079773,-0.04581489413976669,-1.640173077583313,-63.06635665893555,15.127155303955078,-21.952646255493164
5.04,-2.7361927032470703,-7.8795647621154785,-0.8985048532485962,-0.862541675567627,-0.0507018156349659,-1.3897184133529663,-63.373287200927734,14.220989227294922,-22.420345306396484
5.05,-3.4205398559570312,-7.222735404968262,-1.6115659475326538,-0.6438519358634949,-0.10842858254909515,-1.185231328010559,-63.51943588256836,13.665594100952148,-22.858814239501953
5.06,-4.534398555755615,-7.091129779815674,-1.758724570274353,-0.44028112292289734,-0.18341228365898132,-1.0433578491210938,-63.2125129699707,13.080970764160156,-22.274188995361328
5.08,-4.2209391593933105,-6.8171515464782715,-2.3401803970336914,-0.13576479256153107,-0.16401731967926025,-0.87735515832901,-63.06635665893555,12.42326831817627,-23.00497055053711
5.084,-4.3070807456970215,-7.272984027862549,-0.397208571434021,0.09483683109283447,-0.4763221740722656,-0.5296201705932617,-63.051734924316406,11.955568313598633,-22.785736083984375
5.09,-5.0464630126953125,-7.908278465270996,-0.5132604241371155,0.1814269870519638,-0.4356996417045593,-0.22647827863693237,-62.964046478271484,11.677871704101562,-22.142648696899414
5.101,-5.613561630249023,-9.034101486206055,0.12801600992679596,0.3900374472141266,-0.5032002329826355,0.17348572611808777,-63.2125129699707,12.043262481689453,-22.581117630004883
5.11,-6.003591537475586,-9.184849739074707,0.6903292536735535,0.4914410710334778,-0.39996400475502014,0.6195700168609619,-61.970184326171875,12.394037246704102,-23.238819122314453
5.12,-6.181857109069824,-7.3363938331604,-0.1495514065027237,0.6765332818031311,-0.24404066801071167,1.0729848146438599,-62.27711486816406,12.759428024291992,-22.624963760375977
5.139,-5.188835620880127,-5.240281105041504,-2.306680917739868,1.085965633392334,-0.20662516355514526,1.4662293195724487,-62.20403289794922,14.39637565612793,-21.908798217773438
5.143,-3.644268751144409,-6.348158359527588,-2.8139593601226807,1.1598803997039795,-0.2730567753314972,1.5806137323379517,-62.364803314208984,14.761765480041504,-22.054954528808594
5.15,-3.3272199630737305,-8.006383895874023,-2.6452653408050537,1.2018773555755615,-0.35262197256088257,1.7560847997665405,-62.37942123413086,15.4633150100708,-21.689563751220703
5.16,-3.504288673400879,-9.933802604675293,-2.520838737487793,1.1879801750183105,-0.42302414774894714,2.0164661407470703,-62.350189208984375,16.70564079284668,-21.29494285583496
5.17,-3.9589247703552246,-11.210373878479004,-2.389233350753784,1.1378892660140991,-0.30955594778060913,2.344500780105591,-61.76556396484375,18.021047592163086,-21.148786544799805
5.18,-3.407379150390625,-12.183056831359863,-2.6703901290893555,1.1239920854568481,-0.09300423413515091,2.6371052265167236,-61.59017562866211,19.81876564025879,-21.148786544799805
5.2,-2.926422119140625,-12.54317569732666,-3.174079179763794,1.1664471626281738,0.14798210561275482,3.0079002380371094,-60.65477752685547,22.698041915893555,-22.186494827270508
5.301,3.238685369491577,-13.337593078613281,-4.153940200805664,1.6276503801345825,0.5624541640281677,4.286135673522949,-55.261619567871094,39.68138122558594,-27.15580177307129
5.32,4.30588436126709,-13.329217910766602,-3.8835508823394775,1.5945109128952026,-0.09010262042284012,4.1525092124938965,-52.77696990966797,42.516807556152344,-28.208127975463867
5.324,4.407578945159912,-13.372288703918457,-3.7052857875823975,1.5627459287643433,-0.2915354371070862,4.1108174324035645,-52.513885498046875,42.75065612792969,-28.193510055541992
5.33,4.406383037567139,-13.395020484924316,-3.5054850578308105,1.5047138929367065,-0.5954408645629883,4.029572486877441,-51.373870849609375,43.7006721496582,-28.295820236206055
5.34,4.340579986572266,-13.35434341430664,-3.322434186935425,1.4007139205932617,-0.944855809211731,3.8844921588897705,-50.20461654663086,44.928382873535156,-28.73428726196289
5.35,4.341776371002197,-13.222737312316895,-3.273381233215332,1.273043155670166,-1.2388347387313843,3.7360517978668213,-48.37766647338867,45.995323181152344,-28.105815887451172
5.36,3.9553356170654297,-12.69033432006836,-3.042473793029785,1.1678215265274048,-1.4581352472305298,3.5964691638946533,-46.682254791259766,46.667640686035156,-28.82198143005371
5.38,2.585444688796997,-11.20798110961914,-3.214756965637207,1.0334312915802002,-1.526857614517212,3.2673654556274414,-43.33528137207031,48.69921112060547,-28.82198143005371
5.383,2.451446771621704,-11.009376525878906,-3.4468607902526855,1.0338894128799438,-1.4633276462554932,3.1920762062072754,-42.6629638671875,49.020755767822266,-28.880443572998047
5.39,2.076970100402832,-10.455437660217285,-3.596412181854248,1.072068452835083,-1.3287845849990845,3.0747902393341064,-42.268341064453125,49.88307571411133,-29.7281494140625
5.401,1.9956140518188477,-10.135995864868164,-3.7459635734558105,1.1378892660140991,-1.080315113067627,2.925739049911499,-39.85676574707031,50.24846649169922,-28.83659553527832
5.41,2.1571295261383057,-9.984052658081055,-3.8524441719055176,1.2217304706573486,-0.7987062931060791,2.8212811946868896,-38.468284606933594,50.540775299072266,-29.143524169921875
5.42,2.310270071029663,-10.120443344116211,-4.015156269073486,1.2991576194763184,-0.5232061147689819,2.738508701324463,-37.51826858520508,51.30078887939453,-30.02046012878418
5.439,2.857030153274536,-10.631311416625977,-4.051048755645752,1.331838846206665,-0.08368853479623795,2.487901449203491,-35.545162200927734,52.090030670166016,-31.014324188232422
5.443,2.991028070449829,-10.802396774291992,-3.974478244781494,1.309084177017212,-0.00931569468230009,2.412612199783325,-35.0043830871582,52.19234085083008,-31.935108184814453
5.45,3.2027928829193115,-11.103893280029297,-3.913461446762085,1.2533427476882935,0.09117163717746735,2.2965478897094727,-33.8643684387207,52.55773162841797,-32.2274169921875
5.46,3.597608804702759,-11.485548973083496,-3.5341989994049072,1.1568260192871094,0.2255619913339615,2.158186912536621,-33.2066650390625,52.61619567871094,-32.73896408081055
5.47,4.018745422363281,-11.773883819580078,-3.535395383834839,1.0494664907455444,0.3776674270629883,2.0644190311431885,-32.57819366455078,52.80619812011719,-32.680503845214844
5.48,4.169493198394775,-11.5645112991333,-3.751945734024048,0.9311113357543945,0.5487096905708313,1.9946277141571045,-31.540485382080078,53.37620544433594,-32.85588836669922
5.5,5.381457805633545,-10.920842170715332,-4.669593334197998,0.9932668805122375,0.5729916095733643,1.82572340965271,-30.400466918945312,53.91698455810547,-33.440513610839844
5.504,4.776073932647705,-11.065608024597168,-4.730610370635986,0.9961684346199036,0.5364924073219299,1.8098410367965698,-29.523530960083008,53.68313217163086,-34.06898498535156
5.51,4.610969066619873,-11.507083892822266,-5.395815372467041,0.9787588119506836,0.6414085030555725,1.7363845109939575,-29.1873722076416,54.004676818847656,-34.82899475097656
5.52,5.759523868560791,-12.17228889465332,-5.842076301574707,1.0099129676818848,0.6027712821960449,1.5717562437057495,-28.485822677612305,54.238529205322266,-35.340545654296875
5.53,6.4941205978393555,-12.504891395568848,-5.787041664123535,0.9191994071006775,0.4311181306838989,1.4683672189712524,-27.72580909729004,54.238529205322266,-35.39900588989258
5.54,6.790830135345459,-12.485748291015625,-6.148357391357422,0.8462010622024536,0.30863967537879944,1.3912456035614014,-26.61502456665039,54.31160354614258,-35.44285202026367
5.558,7.861618518829346,-13.02652645111084,-5.592026710510254,0.6702718734741211,0.04337143152952194,1.2426526546478271,-26.49810028076172,54.12160110473633,-36.33440399169922
5.562,8.163114547729492,-13.066007614135742,-5.7918267250061035,0.6039929986000061,-0.0377209298312664,1.2139419317245483,-25.957321166992188,54.31160354614258,-36.20286560058594
5.571,8.5100736618042,-12.927223205566406,-6.33380126953125,0.5013676285743713,-0.19043724238872528,1.1733193397521973,-25.40192985534668,54.15083312988281,-37.43057632446289
5.58,8.656035423278809,-12.421141624450684,-6.754938125610352,0.37659841775894165,-0.4723515212535858,1.0276280641555786,-24.87576675415039,54.12160110473633,-36.97748947143555
5.59,8.432307243347168,-11.913863182067871,-6.81595516204834,0.2076941728591919,-0.9024006724357605,0.7997753024101257,-24.437299728393555,54.253143310546875,-37.0067253112793
5.609,7.953742504119873,-11.531012535095215,-6.581458568572998,0.06459899991750717,-1.2328786849975586,0.5642867684364319,-23.66267204284668,54.42852783203125,-37.109031677246094
5.613,6.853043556213379,-12.45703411102295,-6.882954120635986,-0.09789115190505981,-1.4790574312210083,0.31642818450927734,-23.458053588867188,54.662376403808594,-36.93364715576172
5.62,6.297908782958984,-13.287343978881836,-7.34476900100708,-0.19898934662342072,-1.5070044994354248,0.16294831037521362,-23.428821563720703,54.51622772216797,-36.71440887451172
5.63,5.810969829559326,-14.061421394348145,-7.574480056762695,-0.3126102685928345,-1.4329371452331543,-0.03833179175853729,-22.873428344726562,54.22391128540039,-36.37825393676758
5.64,5.194817543029785,-14.279169082641602,-6.7896342277526855,-0.43279802799224854,-1.2334896326065063,-0.2617557644844055,-22.434959411621094,54.53084182739258,-37.021339416503906
5.65,3.148954391479492,-14.08295726776123,-4.955535411834717,-0.5613851547241211,-0.9254608750343323,-0.46334129571914673,-22.493423461914062,53.93159866333008,-36.6851806640625
5.66,1.454836130142212,-13.980066299438477,-4.0797624588012695,-0.7478517889976501,-0.484416127204895,-0.8182539939880371,-22.961122512817383,54.16544723510742,-36.86056900024414
5.679,0.4247260093688965,-13.372288703918457,-4.3477582931518555,-1.1082621812820435,0.5534439086914062,-1.7571537494659424,-23.823442459106445,53.50774383544922,-36.24671173095703
5.682,0.7501499056816101,-13.345968246459961,-4.510470390319824,-1.126588225364685,0.6843218207359314,-1.8539760112762451,-24.305757522583008,53.46390151977539,-36.64133071899414
5.69,1.734796404838562,-13.533803939819336,-4.82751989364624,-1.17240309715271,1.0919215679168701,-2.1755964756011963,-25.372699737548828,53.36158752441406,-36.4074821472168
5.701,2.799602508544922,-14.12842082977295,-5.0943193435668945,-1.2047789096832275,1.28434419631958,-2.42360782623291,-26.54194450378418,53.5369758605957,-35.48670196533203
5.71,2.8223342895507812,-14.358132362365723,-4.8777689933776855,-1.2356276512145996,1.3504703044891357,-2.6648995876312256,-27.4481143951416,53.59543991088867,-35.63285446166992
5.729,2.651247262954712,-14.578271865844727,-4.8358941078186035,-1.2579243183135986,1.3278683423995972,-2.8967230319976807,-29.128910064697266,52.689273834228516,-35.03361511230469
5.733,2.667997121810913,-15.335599899291992,-4.435096740722656,-1.273043155670166,1.1406381130218506,-3.2068898677825928,-30.07892417907715,53.46390151977539,-34.65361022949219
5.74,2.768495798110962,-15.65982723236084,-4.112065315246582,-1.351386547088623,0.8816311955451965,-3.4512360095977783,-32.35895919799805,53.17158508300781,-34.6243782043457
5.75,2.682354211807251,-16.083356857299805,-3.6227335929870605,-1.436602234840393,0.5656611919403076,-3.6357171535491943,-33.77667236328125,52.22157287597656,-34.346683502197266
5.76,2.1188442707061768,-16.51406478881836,-3.2817561626434326,-1.5404495000839233,0.2698497176170349,-3.7876698970794678,-35.939781188964844,52.8792724609375,-34.127445220947266
5.77,1.5158531665802002,-16.841882705688477,-2.93001127243042,-1.648572564125061,0.06368270516395569,-3.891364336013794,-37.32826614379883,51.900028228759766,-33.45513153076172
5.78,0.9631110429763794,-17.203197479248047,-2.623729705810547,-1.7264578342437744,-0.03191770985722542,-3.947411060333252,-39.330604553222656,51.286170959472656,-32.00818634033203
5.794,0.016749758273363113,-17.034503936767578,-2.2959132194519043,-1.8429803848266602,-0.06918048858642578,-3.974900007247925,-41.099090576171875,50.07307434082031,-31.02893829345703
5.801,-0.3672982454299927,-16.650455474853516,-2.2636101245880127,-1.877647042274475,-0.0429132841527462,-3.9871175289154053,-42.12218475341797,49.82461166381836,-30.970474243164062
5.81,-0.6029912829399109,-16.13958740234375,-2.390429735183716,-1.889711618423462,0.01664607785642147,-4.019798755645752,-43.876060485839844,48.5822868347168,-30.502779006958008
5.82,-0.4630111753940582,-15.55813217163086,-2.293520450592041,-1.86191725730896,0.09636398404836655,-4.026670932769775,-45.8199348449707,47.57380676269531,-29.961999893188477
5.83,-0.5120640397071838,-15.05564022064209,-2.1068801879882812,-1.8102991580963135,0.184939444065094,-4.014453411102295,-47.26688003540039,46.38994216918945,-28.865829467773438
5.85,-0.7728817462921143,-14.513665199279785,-1.903490424156189,-1.7333301305770874,0.3240639865398407,-4.01262092590332,-48.056121826171875,45.176849365234375,-28.16427993774414
5.854,-0.727418065071106,-13.733604431152344,-1.6390833854675293,-1.6519323587417603,0.5067126750946045,-4.033695697784424,-50.49692916870117,44.10990905761719,-27.258113861083984
5.86,-0.5575276613235474,-13.344771385192871,-1.5864413976669312,-1.6001615524291992,0.5878050327301025,-4.047440052032471,-51.25694274902344,43.3645133972168,-28.295820236206055
5.87,-0.5335994362831116,-12.979866027832031,-1.262213945388794,-1.540754795074463,0.6391177773475647,-4.065002918243408,-52.98158645629883,41.91756820678711,-27.404266357421875
5.88,-0.656829833984375,-12.709476470947266,-0.9643074870109558,-1.512960433959961,0.6792821288108826,-4.103945255279541,-54.12160110473633,41.17217254638672,-26.87810707092285
5.89,-0.6891329288482666,-12.381660461425781,-0.8961120247840881,-1.5158621072769165,0.702189564704895,-4.1555633544921875,-55.68547058105469,39.973690032958984,-25.621164321899414
5.91,-0.332602322101593,-11.840882301330566,-1.0480562448501587,-1.5178472995758057,0.6904304623603821,-4.199698448181152,-57.45396041870117,38.70213317871094,-25.606548309326172
5.914,0.10648059844970703,-11.211569786071777,-1.4213366508483887,-1.4918856620788574,0.6162103414535522,-4.209472179412842,-58.433204650878906,36.495174407958984,-26.0304012298584
5.92,0.2667997181415558,-10.807183265686035,-1.6342978477478027,-1.4602733850479126,0.526107668876648,-4.20336389541626,-59.60245895385742,34.88745880126953,-25.635778427124023
5.93,0.4019941985607147,-10.476973533630371,-1.8783657550811768,-1.4104878902435303,0.36529740691185,-4.1948113441467285,-60.27477264404297,33.51359558105469,-25.080385208129883
5.94,0.2823530435562134,-10.357333183288574,-1.8293129205703735,-1.3651310205459595,0.18997909128665924,-4.165031909942627,-61.736331939697266,31.730487823486328,-24.59807014465332
5.95,-0.05862415209412575,-10.512866020202637,-1.5780664682388306,-1.326341152191162,-0.0007635815418325365,-4.072944164276123,-62.07249069213867,30.137386322021484,-25.577316284179688
5.97,-0.3565305471420288,-10.63250732421875,-1.0971091985702515,-1.3066407442092896,-0.11331550031900406,-3.953061580657959,-63.650978088378906,28.60274887084961,-25.372699737548828
5.974,-0.9475577473640442,-10.584650039672852,-0.6532405614852905,-1.3200798034667969,-0.19624045491218567,-3.673896312713623,-63.78252029418945,26.191171646118164,-25.095001220703125
5.98,-1.3914263248443604,-10.430314064025879,-0.4498506486415863,-1.3300063610076904,-0.1924225389957428,-3.565314769744873,-64.23560333251953,25.12423324584961,-24.451913833618164
5.99,-1.8711872100830078,-10.139585494995117,-0.34217363595962524,-1.3408491611480713,-0.1362229436635971,-3.3319644927978516,-65.06869506835938,23.151124954223633,-23.648056030273438
6.0,-2.1092729568481445,-9.735198020935059,-0.3601197898387909,-1.3089314699172974,0.006108652334660292,-3.0022499561309814,-65.02484893798828,21.864952087402344,-24.086524963378906
6.01,-1.9334007501602173,-9.20997428894043,-0.6496513485908508,-1.2444851398468018,0.12171489745378494,-2.713463306427002,-65.46331787109375,20.228002548217773,-23.29728126525879
6.03,-1.7850456237792969,-8.849854469299316,-0.9008976817131042,-1.159727692604065,0.18906280398368835,-2.4075727462768555,-65.71177673339844,17.62642478942871,-23.428821563720703
6.034,-1.483549952507019,-8.331808090209961,-1.53858482837677,-1.0027352571487427,0.19379699230194092,-1.9591976404190063,-65.20023345947266,17.23180389404297,-24.144987106323242
6.04,-1.1078768968582153,-8.02074146270752,-1.7240287065505981,-0.9277516007423401,0.1420261561870575,-1.8371771574020386,-66.16486358642578,16.194095611572266,-23.66267204284668
6.05,-1.7012969255447388,-7.745566368103027,-0.9044869542121887,-0.7644978761672974,-0.02275473065674305,-1.501812219619751,-66.4571762084961,15.171003341674805,-23.998830795288086
6.06,-2.421536445617676,-7.122236251831055,-0.818345308303833,-0.6921103000640869,0.01863138936460018,-1.2255483865737915,-66.7494888305664,14.717918395996094,-23.881906509399414
6.07,-2.190629005432129,-6.2943196296691895,-0.4654039740562439,-0.5273294448852539,-0.0009162978385575116,-0.9850201606750488,-66.61795043945312,13.811750411987305,-23.39959144592285
6.089,-2.1678972244262695,-5.385047435760498,0.09092725813388824,-0.37568211555480957,-0.0959058403968811,-0.7137960195541382,-66.54487609863281,13.650979042053223,-23.69190216064453
6.093,-2.421536445617676,-4.164707660675049,0.06699903309345245,-0.22632557153701782,-0.20952677726745605,-0.35063666105270386,-66.16486358642578,12.642502784729004,-23.677288055419922
6.1,-2.310270071029663,-3.7328033447265625,-0.47258248925209045,-0.06276640295982361,-0.3121521472930908,-0.07956519722938538,-66.13563537597656,12.452499389648438,-23.12189483642578
6.11,-1.9477574825286865,-3.6801609992980957,-1.2335000038146973,0.11835514008998871,-0.4957171380519867,0.19562958180904388,-65.97486114501953,12.452499389648438,-23.85267448425293
6.12,-2.124826431274414,-4.595416069030762,-1.6869399547576904,0.2756529450416565,-0.7451028823852539,0.4931209683418274,-65.6094741821289,13.051739692687988,-23.151124954223633
6.13,-2.885744094848633,-6.394818305969238,-1.210768222808838,0.4196644127368927,-0.8965974450111389,0.8327620029449463,-65.52177429199219,13.782519340515137,-22.785736083984375
6.15,-3.7734811305999756,-7.992027282714844,-0.6759723424911499,0.525496780872345,-0.8642215728759766,1.1749993562698364,-65.66793060302734,15.01023006439209,-20.944168090820312
6.154,-4.658825397491455,-8.237292289733887,-0.5503491759300232,0.6026185750961304,-0.5300782918930054,1.647045373916626,-65.6971664428711,15.580240249633789,-21.704179763793945
6.16,-4.439882278442383,-7.454838752746582,-1.3160523176193237,0.6600399017333984,-0.2379319965839386,1.8409950733184814,-65.49254608154297,16.06255531311035,-21.57263946533203
6.17,-3.1968109607696533,-6.439085483551025,-2.878565549850464,0.8359690308570862,0.11010845750570297,2.1007654666900635,-65.63870239257812,17.187957763671875,-21.616485595703125
6.18,-1.6235301494598389,-6.348158359527588,-4.043870449066162,1.119715929031372,0.32039880752563477,2.370309829711914,-65.15638732910156,18.108739852905273,-20.71031951904297
6.19,-0.7740780711174011,-7.509873390197754,-3.9493536949157715,1.3683381080627441,0.3355177044868469,2.663983106613159,-65.52177429199219,19.45337677001953,-21.689563751220703
6.209,-0.2799602448940277,-10.15155029296875,-3.7292141914367676,1.6268868446350098,0.18341228365898132,3.1842875480651855,-64.99561309814453,22.82958221435547,-21.601871490478516
6.213,-0.2799602448940277,-10.631311416625977,-3.383450984954834,1.664149522781372,0.11682797223329544,3.306002616882324,-65.11254119873047,23.29728126525879,-21.733409881591797
6.22,-0.8003991842269897,-11.242676734924316,-3.046063184738159,1.684918999671936,0.02428189292550087,3.483611822128296,-64.74714660644531,25.021923065185547,-21.29494285583496
6.23,-1.5529417991638184,-12.125627517700195,-2.717050075531006,1.670716404914856,-0.029626963660120964,3.671605348587036,-64.1186752319336,26.483484268188477,-21.528793334960938
6.24,-1.7515461444854736,-13.146166801452637,-2.726621150970459,1.6100881099700928,0.06719517707824707,3.8345537185668945,-63.79713439941406,28.63197898864746,-21.938030242919922
6.25,-1.4021941423416138,-13.853246688842773,-3.377469062805176,1.545336365699768,0.2588541507720947,4.053701400756836,-62.715576171875,30.093538284301758,-22.47880744934082
6.269,-0.9020940661430359,-14.413166999816895,-3.8452658653259277,1.4924964904785156,0.5083925724029541,4.343709945678711,-61.926334381103516,34.200523376464844,-23.984214782714844
6.273,-0.3852444291114807,-15.036497116088867,-3.888336658477783,1.4813481569290161,0.5699372291564941,4.410294532775879,-61.38555908203125,34.96053695678711,-23.28266716003418
6.28,-0.1495514065027237,-15.29611873626709,-3.710071325302124,1.4648548364639282,0.6580545902252197,4.4982590675354,-60.65477752685547,36.80210494995117,-23.428821563720703
6.29,0.08853442966938019,-15.588042259216309,-3.2650065422058105,1.437366008758545,0.7325801253318787,4.577824115753174,-60.04092025756836,38.219818115234375,-24.364221572875977
6.3,-0.038285162299871445,-15.795022010803223,-2.9347968101501465,1.3781119585037231,0.7851145267486572,4.585154056549072,-59.076290130615234,40.35369873046875,-24.40806770324707
6.31,-0.234496608376503,-15.510275840759277,-3.159722089767456,1.295186996459961,0.8982772827148438,4.483750820159912,-57.67319107055664,41.46448516845703,-25.065771102905273
6.33,1.5840485095977783,-14.520843505859375,-3.8045878410339355,1.286940336227417,0.9506590366363525,4.28277587890625,-54.691612243652344,44.636070251464844,-26.89272117614746
6.333,2.2983059883117676,-14.420345306396484,-3.9314074516296387,1.2832752466201782,0.9111055135726929,4.256661415100098,-54.42852783203125,45.191463470458984,-27.301958084106445
6.34,3.2829525470733643,-14.261221885681152,-4.171885967254639,1.250441074371338,0.7232643961906433,4.169918537139893,-53.449283599853516,45.95147705078125,-27.375036239624023
6.35,4.405186176300049,-13.819746971130371,-4.60020112991333,1.1969903707504272,0.3504839241504669,4.063780784606934,-51.56386947631836,47.58842468261719,-27.141185760498047
6.36,4.931607246398926,-13.162917137145996,-5.0811591148376465,1.1397217512130737,-0.22449298202991486,3.9461894035339355,-49.853843688964844,48.81613540649414,-28.61736488342285
6.37,4.730610370635986,-12.500104904174805,-4.932803630828857,1.0965031385421753,-0.7058547735214233,3.8336374759674072,-48.27535629272461,49.853843688964844,-28.953521728515625
6.39,3.7914273738861084,-12.345767974853516,-4.329812526702881,1.0039570331573486,-1.254717230796814,3.6047158241271973,-45.51300811767578,51.213096618652344,-29.479684829711914
6.394,2.310270071029663,-12.155538558959961,-3.7639100551605225,0.9921978712081909,-1.256244421005249,3.5584425926208496,-44.46068572998047,51.286170959472656,-28.675825119018555
6.4,1.6115659475326538,-12.064611434936523,-3.4408788681030273,0.9830348491668701,-1.2127201557159424,3.5100317001342773,-43.6422119140625,51.6807975769043,-29.304296493530273
6.41,1.0683952569961548,-11.889935493469238,-3.2721848487854004,0.9563094973564148,-0.934471070766449,3.408475160598755,-41.508331298828125,52.74773406982422,-29.7281494140625
6.42,0.8482555747032166,-11.465209007263184,-3.421736478805542,0.9611964225769043,-0.6006332635879517,3.34204363822937,-40.017539978027344,53.18620300292969,-30.780473709106445
6.43,1.0169496536254883,-11.172087669372559,-3.669393539428711,1.0004445314407349,-0.24617868661880493,3.276986598968506,-38.234432220458984,53.80005645751953,-30.34200668334961
6.449,1.8831512928009033,-11.186446189880371,-4.003191947937012,1.0607675313949585,0.3269656002521515,3.067765235900879,-35.969017028808594,54.50160598754883,-31.4674072265625
6.453,1.9968103170394897,-11.229516983032227,-4.027120590209961,1.0615310668945312,0.37827828526496887,3.0384435653686523,-36.04209518432617,54.32621765136719,-31.160480499267578
6.46,2.445464611053467,-11.34676456451416,-4.01754903793335,1.0506882667541504,0.5268712639808655,2.909245729446411,-34.39052963256836,54.98392105102539,-32.1251106262207
6.47,3.2207393646240234,-11.57408332824707,-4.115654468536377,1.0155634880065918,0.5963572263717651,2.7679831981658936,-32.63665771484375,55.2177734375,-32.490501403808594
6.48,3.768695592880249,-11.85165023803711,-4.00917387008667,0.9685268402099609,0.6180429458618164,2.633134365081787,-31.81818199157715,55.583160400390625,-32.76819610595703
6.49,4.078566074371338,-12.095718383789062,-3.7842490673065186,0.8965974450111389,0.5829181671142578,2.546086311340332,-30.99970817565918,55.261619567871094,-34.01052474975586
6.507,4.467399597167969,-12.223733901977539,-4.438685894012451,0.7907650470733643,0.4899139106273651,2.3965771198272705,-28.485822677612305,56.25548553466797,-34.171295166015625
6.51,4.599005222320557,-12.248858451843262,-4.575077056884766,0.7622070908546448,0.43539419770240784,2.338850259780884,-28.222742080688477,55.90470504760742,-34.09821701049805
6.52,6.324230194091797,-12.110074996948242,-5.418546676635742,0.7493789196014404,0.19104810059070587,2.1627683639526367,-27.272727966308594,55.86085891723633,-34.05436706542969
6.53,6.346961975097656,-11.9461669921875,-4.4135613441467285,0.6806565523147583,-0.4057672321796417,1.979050636291504,-25.942707061767578,56.13855743408203,-34.88745880126953
6.54,5.140979290008545,-11.392228126525879,-5.069194793701172,0.6075054407119751,-0.5919284224510193,1.8701637983322144,-25.372699737548828,56.48933029174805,-35.969017028808594
6.55,4.4303107261657715,-11.514262199401855,-5.210371017456055,0.6395758986473083,-0.7286095023155212,1.7064520120620728,-24.802688598632812,55.72931671142578,-35.910552978515625
6.569,3.3786656856536865,-11.319247245788574,-5.481956481933594,0.695164680480957,-0.5195409059524536,1.4340060949325562,-22.975738525390625,55.568546295166016,-36.23209762573242
6.573,3.2685956954956055,-11.320443153381348,-5.522634029388428,0.7302893400192261,-0.4187481105327606,1.3756685256958008,-22.537269592285156,56.3577880859375,-36.290557861328125
6.58,2.9587249755859375,-11.46281623840332,-5.2522454261779785,0.7612908482551575,-0.23151792585849762,1.2990049123764038,-21.587255477905273,56.24086380004883,-36.69979476928711
6.59,2.77447772026062,-11.781061172485352,-4.972285270690918,0.7447974681854248,0.035124752670526505,1.165530800819397,-21.54340934753418,55.93394088745117,-37.41596221923828
6.6,3.2171499729156494,-12.144770622253418,-5.0009989738464355,0.6685919761657715,0.2919935882091522,1.0067058801651,-20.841859817504883,56.09471130371094,-37.48904037475586
6.619,3.7052857875823975,-12.147163391113281,-5.078765869140625,0.565203070640564,0.494189977645874,0.8211556077003479,-20.724933624267578,55.87547302246094,-38.219818115234375
6.623,4.9052863121032715,-11.632707595825195,-5.584847927093506,0.38148534297943115,0.6122397184371948,0.5705481171607971,-19.789535522460938,56.46010208129883,-37.50365447998047
6.63,5.552545070648193,-11.541779518127441,-5.947360992431641,0.3049744665622711,0.5346598029136658,0.4173736572265625,-19.83338165283203,56.3577880859375,-37.18210983276367
6.64,6.099304676055908,-11.994023323059082,-6.427121639251709,0.22143864631652832,0.3248275816440582,0.21471913158893585,-19.964923858642578,56.66471862792969,-36.81671905517578
6.65,6.148357391357422,-13.168898582458496,-6.498905658721924,0.11820242553949356,-0.007177666295319796,0.015118913725018501,-19.497222900390625,56.27009963989258,-37.4451904296875
6.66,5.794219970703125,-14.362916946411133,-6.094519138336182,-0.02733621932566166,-0.3608686327934265,-0.2379319965839386,-19.292604446411133,56.51856231689453,-38.00058364868164
6.67,5.060819625854492,-14.963516235351562,-5.429314136505127,-0.28008171916007996,-0.720210075378418,-0.5641340017318726,-19.62876319885254,57.17626190185547,-37.284420013427734
6.686,3.328416109085083,-13.986048698425293,-5.084747791290283,-0.5355761051177979,-0.7704537510871887,-0.9314167499542236,-19.424144744873047,57.20549774169922,-37.95673751831055
6.69,2.7912275791168213,-13.61515998840332,-5.038087844848633,-0.587041437625885,-0.7283040285110474,-1.0517572164535522,-20.02338409423828,57.45396041870117,-37.19672393798828
6.701,1.7754743099212646,-13.205987930297852,-4.9292144775390625,-0.6632469296455383,-0.5522221326828003,-1.3235923051834106,-20.46185302734375,57.39550018310547,-36.451332092285156
6.71,1.231107234954834,-13.349556922912598,-5.1050872802734375,-0.7046330571174622,-0.337044894695282,-1.616349458694458,-21.251096725463867,57.64396286010742,-36.4074821472168
6.72,1.415354609489441,-13.806586265563965,-4.910071849822998,-0.7232643961906433,-0.0429132841527462,-1.920865774154663,-21.981876373291016,58.3162841796875,-35.735164642333984
6.739,1.9645073413848877,-13.892727851867676,-4.697110652923584,-0.7638869881629944,0.1036943718791008,-2.1461222171783447,-23.31189727783203,57.8193473815918,-35.51593017578125
6.743,2.5674986839294434,-13.27298641204834,-4.609772682189941,-0.82207190990448,0.10751228034496307,-2.430938243865967,-24.934228897094727,57.90704345703125,-34.200523376464844
6.75,2.636890411376953,-13.001401901245117,-4.310669898986816,-0.8575020432472229,0.03634648025035858,-2.5839600563049316,-25.621164321899414,57.8193473815918,-33.76205825805664
6.76,2.6428725719451904,-12.857831954956055,-3.9218363761901855,-0.9396634101867676,-0.12538009881973267,-2.8148670196533203,-27.141185760498047,58.00935745239258,-32.87050247192383
6.77,2.6668004989624023,-12.936795234680176,-3.603590726852417,-1.0684032440185547,-0.39324450492858887,-3.0802879333496094,-28.60274887084961,58.433204650878906,-32.680503845214844
6.78,2.4849462509155273,-13.0492582321167,-3.267399311065674,-1.189507246017456,-0.6075054407119751,-3.2592713832855225,-30.239694595336914,58.95936965942383,-33.08974075317383
6.79,2.200200319290161,-13.098310470581055,-3.060420036315918,-1.3055716753005981,-0.7906123399734497,-3.39411997795105,-32.09587860107422,58.447818756103516,-31.613563537597656
6.803,1.3531410694122314,-13.332807540893555,-2.596212387084961,-1.4515684843063354,-0.9622654914855957,-3.5217907428741455,-34.712074279785156,58.477054595947266,-30.619701385498047
6.81,0.867398202419281,-13.61635684967041,-2.2612173557281494,-1.5373951196670532,-1.0004445314407349,-3.5828773975372314,-35.895938873291016,57.556270599365234,-30.400466918945312
6.82,0.13878370821475983,-13.992030143737793,-2.0159530639648438,-1.6627751588821411,-0.9246972799301147,-3.626554250717163,-36.99210739135742,57.41011428833008,-29.26045036315918
6.83,-0.6783652305603027,-13.987244606018066,-2.029113531112671,-1.7298176288604736,-0.7463245987892151,-3.654043197631836,-39.06752395629883,56.86933517456055,-27.667348861694336
6.84,-0.9487541317939758,-13.689338684082031,-2.043470621109009,-1.747380018234253,-0.48579058051109314,-3.687335252761841,-41.25986862182617,56.28471374511719,-26.05963134765625
6.86,-1.0013961791992188,-13.385449409484863,-1.856830358505249,-1.7273741960525513,-0.1921171098947525,-3.701537847518921,-43.02835464477539,54.92546081542969,-25.7088565826416
6.864,-1.2335000038146973,-13.00259780883789,-1.6139588356018066,-1.6656767129898071,0.24816399812698364,-3.7369680404663086,-45.46916198730469,53.55158996582031,-23.925752639770508
6.87,-1.2119646072387695,-12.855439186096191,-1.5481561422348022,-1.6238324642181396,0.4631885588169098,-3.7757580280303955,-47.281497955322266,53.36158752441406,-23.618824005126953
6.88,-0.7262216210365295,-12.488141059875488,-1.4309078454971313,-1.5517504215240479,0.7182247638702393,-3.8183658123016357,-49.10844802856445,52.543113708496094,-23.28266716003418
6.89,-0.3613162338733673,-12.116057395935059,-1.4213366508483887,-1.4703526496887207,0.8921687006950378,-3.8516578674316406,-51.12540054321289,50.760013580322266,-23.604209899902344
6.901,-0.02512463741004467,-11.933006286621094,-1.3555339574813843,-1.3979651927947998,0.958142101764679,-3.9011380672454834,-53.113128662109375,50.3215446472168,-22.814966201782227
6.92,0.5120640397071838,-11.871988296508789,-1.164108157157898,-1.3339769840240479,0.9311113357543945,-3.978107213973999,-56.95703125,46.81379699707031,-21.57263946533203
6.924,1.1497513055801392,-12.043075561523438,-1.171286702156067,-1.3154982328414917,0.726471483707428,-4.055840015411377,-57.83396911621094,46.50687026977539,-21.55802345275879
6.93,1.4009976387023926,-12.059825897216797,-1.2658032178878784,-1.3370312452316284,0.5574145317077637,-4.0770673751831055,-58.857059478759766,44.86991882324219,-21.075708389282227
6.94,1.444068431854248,-11.96770191192627,-1.6235301494598389,-1.38070809841156,0.3049744665622711,-4.078289031982422,-60.65477752685547,43.56913375854492,-21.54340934753418
6.95,1.015753149986267,-11.888738632202148,-1.5972089767456055,-1.4219416379928589,0.08506298810243607,-4.029572486877441,-62.42327117919922,41.11370849609375,-21.36802101135254
6.96,0.4785645008087158,-11.911470413208008,-1.3076776266098022,-1.4683672189712524,-0.055894169956445694,-3.955199718475342,-63.92867660522461,39.65214920043945,-21.338788986206055
6.98,-0.12921242415905,-11.980862617492676,-1.0049854516983032,-1.5259413719177246,-0.1111774668097496,-3.8429532051086426,-65.30254364013672,37.211341857910156,-19.24875831604004
6.984,-1.0049854516983032,-11.456833839416504,-0.8638089299201965,-1.5729780197143555,-0.014813481830060482,-3.5993704795837402,-66.64717864990234,34.916690826416016,-20.403390884399414
6.99,-1.2251251935958862,-11.030911445617676,-0.8685945868492126,-1.563509464263916,0.09437867254018784,-3.4631476402282715,-66.89564514160156,32.63665771484375,-20.63724136352539
7.001,-1.1413763761520386,-10.53679370880127,-0.9678966999053955,-1.508837103843689,0.26893341541290283,-3.279888153076172,-68.35720825195312,30.751243591308594,-20.418006896972656
7.01,-0.8063812255859375,-10.268797874450684,-0.9056833982467651,-1.4228578805923462,0.41340306401252747,-3.064710855484009,-68.98567962646484,28.646595001220703,-20.315698623657227
7.02,-0.7645068168640137,-10.240083694458008,-0.751346230506897,-1.3240504264831543,0.4856378734111786,-2.8489227294921875,-69.39491271972656,27.08272361755371,-20.4326229095459
7.04,-0.8446664214134216,-10.004390716552734,-0.8662018179893494,-1.211498498916626,0.5233587622642517,-2.649475336074829,-69.95030975341797,24.305757522583008,-20.724933624267578
7.044,-0.4737788736820221,-9.687341690063477,-0.6592226028442383,-1.0934487581253052,0.446389764547348,-2.4521658420562744,-70.62261962890625,23.706518173217773,-21.338788986206055
7.05,-0.4331009089946747,-9.66102123260498,-0.6173481941223145,-1.0516045093536377,0.34865131974220276,-2.3304507732391357,-70.90032196044922,22.11341667175293,-21.587255477905273
7.06,-0.2620140612125397,-9.463613510131836,-0.6137589812278748,-0.9755517840385437,0.21991148591041565,-2.1398608684539795,-71.17801666259766,20.958784103393555,-21.236480712890625
7.07,0.08733802288770676,-8.845067977905273,-1.2071789503097534,-0.8686503767967224,0.09407324343919754,-1.892613172531128,-71.17801666259766,19.43876075744629,-21.09032440185547
7.08,0.8099704384803772,-7.824529647827148,-1.2095718383789062,-0.6172793507575989,-0.33567044138908386,-1.6282613277435303,-72.0111083984375,18.50336265563965,-19.760305404663086
7.1,-1.2335000038146973,-6.667600154876709,-0.8123632073402405,-0.48426342010498047,-0.5186246037483215,-1.3196215629577637,-71.70417785644531,17.363344192504883,-19.979537963867188
7.105,-1.3722838163375854,-6.083751201629639,-0.02512463741004467,-0.24526238441467285,-0.827111542224884,-1.0705413818359375,-71.10493469238281,16.559486389160156,-19.979537963867188
7.11,-1.3519446849822998,-5.9569315910339355,-0.13519448041915894,-0.20555615425109863,-0.9341656565666199,-0.9763153791427612,-70.71031951904297,15.960245132446289,-20.052616119384766
7.12,-1.1569297313690186,-5.511867046356201,-0.6675975322723389,-0.12965615093708038,-1.1414016485214233,-0.7296785116195679,-71.11955261230469,15.81408977508545,-19.701841354370117
7.13,-1.5828521251678467,-5.325226783752441,-0.6664010882377625,-0.001527163083665073,-1.3501648902893066,-0.3546072542667389,-70.33030700683594,14.95176887512207,-19.424144744873047
7.14,-2.63449764251709,-5.1218366622924805,-0.558724045753479,0.08491026610136032,-1.3820825815200806,-0.051923543214797974,-69.891845703125,15.609471321105957,-18.576440811157227
7.16,-3.4025938510894775,-5.0943193435668945,-0.4737788736820221,0.1875356286764145,-1.2947288751602173,0.24923300743103027,-69.672607421875,15.331774711608887,-17.69950294494629
7.163,-4.169493198394775,-5.91505765914917,-0.6735795140266418,0.3352122902870178,-1.0622947216033936,0.6721044778823853,-69.19029235839844,15.068693161010742,-17.582576751708984
7.17,-4.5128631591796875,-7.032505512237549,-0.8685945868492126,0.4583016633987427,-0.8468118906021118,0.9556986689567566,-68.92721557617188,15.56562328338623,-17.43642234802246
7.18,-4.663610935211182,-8.388039588928223,-0.8985048532485962,0.6931793689727783,-0.4144720435142517,1.4495831727981567,-68.83952331542969,16.004093170166016,-17.3341121673584
7.19,-4.469792366027832,-8.48734188079834,-1.1353943347930908,0.8802568316459656,-0.06658431142568588,1.7826573848724365,-68.9564437866211,17.26103401184082,-17.61180877685547
7.201,-3.421736478805542,-7.323233604431152,-2.128415822982788,1.088561773300171,0.2070833146572113,2.0479257106781006,-69.05875396728516,18.108739852905273,-17.056415557861328
